'Start Wavelength	183.907
'End Wavelength	1046.922
'Gate Delay	5.000
'Gate Width (ms)	1.050
'Laser Output Level	0.000
'X Position	0.000
'Y Position	0.000
'Z Position	0.000
'Grid Point Number	1.000
'Shot Number	100.000
183.907	259.000
183.977	-404.000
184.047	381
184.116	-314
184.186	854
184.256	-272
184.325	224
184.395	-908
184.465	1342
184.534	-39
184.604	-35
184.674	615
184.743	-365
184.813	-369
184.883	500
184.952	469
185.022	155
185.092	365
185.161	285
185.231	-795
185.301	226
185.370	385
185.440	114
185.509	-759
185.579	460
185.649	151
185.718	-285
185.788	611
185.857	-41
185.927	-176
185.996	177
186.066	-375
186.136	-210
186.205	-351
186.275	285
186.344	-220
186.414	312
186.483	-688
186.553	1431
186.622	811
186.692	309
186.761	-114
186.831	578
186.900	-624
186.970	-294
187.039	-27
187.109	-16
187.178	423
187.248	977
187.317	223
187.387	327
187.456	-519
187.526	601
187.595	516
187.664	325
187.734	-412
187.803	-183
187.873	304
187.942	110
188.012	-521
188.081	474
188.150	191
188.220	138
188.289	-571
188.358	-106
188.428	613
188.497	7
188.567	-37
188.636	507
188.705	-229
188.775	895
188.844	-963
188.913	1379
188.983	76
189.052	421
189.121	-209
189.191	543
189.260	233
189.329	612
189.399	235
189.468	5
189.537	2
189.606	863
189.676	285
189.745	198
189.814	151
189.883	40
189.953	-209
190.022	543
190.091	1059
190.161	1363
190.230	800
190.299	491
190.368	-744
190.437	153
190.507	249
190.576	33
190.645	-242
190.714	-358
190.783	-154
190.853	896
190.922	962
190.991	-213
191.060	454
191.129	-471
191.198	820
191.268	709
191.337	-94
191.406	742
191.475	51
191.544	171
191.613	-461
191.682	873
191.752	281
191.821	335
191.890	447
191.959	452
192.028	162
192.097	484
192.166	361
192.235	-174
192.304	573
192.373	151
192.442	-304
192.511	224
192.580	-104
192.650	130
192.719	-443
192.788	638
192.857	-257
192.926	-501
192.995	536
193.064	1210
193.133	345
193.202	511
193.271	930
193.340	619
193.409	144
193.478	262
193.547	1243
193.615	824
193.684	959
193.753	359
193.822	71
193.891	123
193.960	404
194.029	-64
194.098	-307
194.167	-25
194.236	361
194.305	325
194.374	393
194.443	891
194.512	-146
194.580	68
194.649	176
194.718	622
194.787	-136
194.856	-441
194.925	-49
194.994	215
195.062	62
195.131	277
195.200	85
195.269	1003
195.338	43
195.407	75
195.475	-145
195.544	602
195.613	94
195.682	492
195.751	619
195.819	-197
195.888	446
195.957	651
196.026	-997
196.094	678
196.163	-75
196.232	-93
196.301	-122
196.369	-148
196.438	-133
196.507	424
196.576	-487
196.644	493
196.713	-52
196.782	224
196.850	-218
196.919	691
196.988	548
197.056	-376
197.125	625
197.194	372
197.262	719
197.331	360
197.400	362
197.468	583
197.537	-216
197.606	707
197.674	750
197.743	1559
197.812	-194
197.880	904
197.949	22
198.017	693
198.086	821
198.155	19
198.223	-20
198.292	1848
198.360	123
198.429	972
198.497	-278
198.566	975
198.635	1578
198.703	799
198.772	963
198.840	1038
198.909	1284
198.977	737
199.046	222
199.114	394
199.183	883
199.251	860
199.320	-371
199.388	217
199.457	-445
199.525	730
199.594	-855
199.662	-302
199.731	-301
199.799	270
199.867	-272
199.936	663
200.004	84
200.073	1219
200.141	-138
200.210	-190
200.278	274
200.346	-83
200.415	553
200.483	855
200.552	292
200.620	507
200.688	-168
200.757	403
200.825	417
200.893	547
200.962	843
201.030	360
201.098	-210
201.167	648
201.235	-1015
201.303	192
201.372	954
201.440	-253
201.508	810
201.577	452
201.645	269
201.713	725
201.781	-59
201.850	1002
201.918	79
201.986	584
202.055	671
202.123	-3
202.191	39
202.259	20
202.327	390
202.396	154
202.464	864
202.532	238
202.600	2833
202.669	2074
202.737	-343
202.805	273
202.873	230
202.941	-49
203.009	346
203.078	1061
203.146	554
203.214	598
203.282	-67
203.350	634
203.418	134
203.487	332
203.555	-241
203.623	-27
203.691	613
203.759	568
203.827	-941
203.895	514
203.963	-186
204.031	623
204.099	291
204.168	-157
204.236	479
204.304	409
204.372	242
204.440	287
204.508	-739
204.576	280
204.644	-17
204.712	-667
204.780	-224
204.848	767
204.916	-300
204.984	-158
205.052	249
205.120	382
205.188	137
205.256	66
205.324	532
205.392	632
205.460	-8
205.528	479
205.596	-207
205.664	68
205.732	-460
205.799	1301
205.867	3193
205.935	519
206.003	1730
206.071	209
206.139	-860
206.207	-89
206.275	-108
206.343	5
206.411	-391
206.478	335
206.546	700
206.614	169
206.682	747
206.750	598
206.818	840
206.885	1350
206.953	-1216
207.021	1184
207.089	-159
207.157	69
207.225	203
207.292	547
207.360	-615
207.428	-372
207.496	-175
207.563	345
207.631	283
207.699	178
207.767	101
207.834	-388
207.902	498
207.970	460
208.038	-207
208.105	695
208.173	240
208.241	611
208.309	517
208.376	266
208.444	244
208.512	787
208.579	377
208.647	844
208.715	1281
208.782	491
208.850	550
208.918	-280
208.985	276
209.053	357
209.120	43
209.188	-140
209.256	160
209.323	-130
209.391	-256
209.459	1236
209.526	429
209.594	156
209.661	1436
209.729	1135
209.796	980
209.864	483
209.932	-885
209.999	2087
210.067	887
210.134	855
210.202	-48
210.269	1043
210.337	1178
210.404	204
210.472	695
210.539	938
210.607	247
210.674	817
210.742	501
210.809	370
210.877	298
210.944	525
211.012	-77
211.079	2319
211.146	602
211.214	1135
211.281	1916
211.349	2036
211.416	996
211.484	892
211.551	-664
211.618	677
211.686	139
211.753	99
211.821	1027
211.888	633
211.955	548
212.023	573
212.090	541
212.157	685
212.225	687
212.292	2190
212.359	2389
212.427	8507
212.494	3855
212.561	1474
212.629	1071
212.696	1343
212.763	587
212.831	1225
212.898	251
212.965	803
213.032	390
213.100	384
213.167	875
213.234	1222
213.301	838
213.369	943
213.436	547
213.503	1091
213.570	1600
213.638	630
213.705	132
213.772	156
213.839	788
213.906	1721
213.973	-143
214.041	624
214.108	1066
214.175	1287
214.242	419
214.309	899
214.376	322
214.444	271
214.511	579
214.578	390
214.645	342
214.712	733
214.779	458
214.846	279
214.913	1579
214.980	1732
215.048	1437
215.115	2134
215.182	927
215.249	1293
215.316	-474
215.383	1298
215.450	601
215.517	627
215.584	699
215.651	721
215.718	731
215.785	1560
215.852	401
215.919	1123
215.986	1376
216.053	1303
216.120	139
216.187	1053
216.254	334
216.321	788
216.388	-16
216.455	1531
216.522	1052
216.589	840
216.656	929
216.722	1119
216.789	180
216.856	702
216.923	520
216.990	1076
217.057	1105
217.124	1411
217.191	304
217.258	1744
217.324	1924
217.391	2519
217.458	1338
217.525	1889
217.592	360
217.659	322
217.725	1231
217.792	836
217.859	1697
217.926	182
217.993	572
218.059	1561
218.126	348
218.193	-16
218.260	-416
218.327	658
218.393	855
218.460	689
218.527	-141
218.594	234
218.660	52
218.727	434
218.794	-769
218.860	1122
218.927	438
218.994	548
219.061	-183
219.127	315
219.194	562
219.261	1093
219.327	-415
219.394	1180
219.461	-694
219.527	1275
219.594	364
219.661	211
219.727	95
219.794	1227
219.860	-383
219.927	1290
219.994	2089
220.060	3540
220.127	4051
220.193	1856
220.260	1085
220.326	2241
220.393	2802
220.460	3424
220.526	2299
220.593	886
220.659	2768
220.726	1257
220.792	4396
220.859	4357
220.925	5171
220.992	6119
221.058	5938
221.125	6402
221.191	4714
221.258	1674
221.324	1546
221.391	678
221.457	390
221.524	1376
221.590	1777
221.657	5064
221.723	3703
221.789	2983
221.856	3866
221.922	1518
221.989	826
222.055	1597
222.121	-1108
222.188	2897
222.254	1462
222.321	1096
222.387	684
222.453	342
222.520	-309
222.586	-304
222.652	895
222.719	-267
222.785	874
222.851	399
222.918	932
222.984	179
223.050	39
223.116	-537
223.183	1055
223.249	-241
223.315	-16
223.382	716
223.448	171
223.514	-480
223.580	662
223.647	1100
223.713	-237
223.779	723
223.845	131
223.911	877
223.978	23
224.044	117
224.110	143
224.176	611
224.242	720
224.309	-547
224.375	345
224.441	-130
224.507	-1052
224.573	18
224.639	36
224.705	177
224.772	555
224.838	266
224.904	626
224.970	263
225.036	-52
225.102	-566
225.168	467
225.234	854
225.300	167
225.366	303
225.432	1050
225.499	101
225.565	-194
225.631	137
225.697	-483
225.763	1581
225.829	1014
225.895	677
225.961	753
226.027	1434
226.093	948
226.159	2748
226.225	3025
226.291	5827
226.357	10707
226.423	4935
226.489	2616
226.554	2203
226.620	1260
226.686	1985
226.752	2765
226.818	5799
226.884	12998
226.950	14249
227.016	5343
227.082	2500
227.148	1560
227.214	1088
227.279	1117
227.345	479
227.411	342
227.477	2681
227.543	6199
227.609	6774
227.674	3803
227.740	1256
227.806	1245
227.872	1461
227.938	729
228.003	761
228.069	-75
228.135	-38
228.201	722
228.267	-136
228.332	47
228.398	-671
228.464	458
228.530	-47
228.595	909
228.661	-574
228.727	-85
228.792	1348
228.858	-642
228.924	-267
228.990	1770
229.055	-915
229.121	1192
229.187	374
229.252	-629
229.318	105
229.384	235
229.449	861
229.515	-1460
229.581	-884
229.646	1829
229.712	-258
229.777	-51
229.843	98
229.909	704
229.974	735
230.040	-70
230.105	1175
230.171	-186
230.236	1272
230.302	2460
230.368	1445
230.433	628
230.499	972
230.564	453
230.630	-835
230.695	394
230.761	1972
230.826	-635
230.892	1555
230.957	-119
231.023	756
231.088	440
231.154	347
231.219	499
231.284	414
231.350	958
231.415	-449
231.481	484
231.546	518
231.612	673
231.677	239
231.742	-59
231.808	574
231.873	-344
231.939	-627
232.004	1684
232.069	758
232.135	274
232.200	436
232.265	48
232.331	186
232.396	-377
232.461	-130
232.527	243
232.592	-819
232.657	213
232.723	761
232.788	171
232.853	1433
232.918	534
232.984	-307
233.049	-446
233.114	274
233.179	393
233.245	1146
233.310	385
233.375	-681
233.440	660
233.506	579
233.571	589
233.636	189
233.701	596
233.766	-7
233.832	1231
233.897	-91
233.962	-1283
234.027	1283
234.092	-139
234.157	239
234.222	154
234.288	869
234.353	249
234.418	2289
234.483	2103
234.548	767
234.613	432
234.678	1173
234.743	777
234.808	2839
234.873	-908
234.938	1765
235.004	-102
235.069	590
235.134	-899
235.199	1247
235.264	494
235.329	-378
235.394	940
235.459	1359
235.524	-896
235.589	883
235.654	199
235.719	-467
235.784	1244
235.849	656
235.913	674
235.978	549
236.043	761
236.108	517
236.173	-132
236.238	894
236.303	541
236.368	-133
236.433	1369
236.498	1273
236.563	1678
236.627	3994
236.692	17044
236.757	16166
236.822	5247
236.887	1986
236.952	2944
237.017	726
237.081	2544
237.146	2048
237.211	6555
237.276	16472
237.341	29603
237.405	12252
237.470	4355
237.535	2930
237.600	2175
237.664	2290
237.729	60
237.794	1186
237.859	4635
237.923	2457
237.988	1043
238.053	1494
238.118	1077
238.182	3211
238.247	4277
238.312	-227
238.376	1826
238.441	-1242
238.506	1290
238.570	-211
238.635	1519
238.700	1763
238.764	-283
238.829	1122
238.893	1099
238.958	1332
239.023	399
239.087	-28
239.152	942
239.216	444
239.281	1009
239.346	916
239.410	1031
239.475	342
239.539	2166
239.604	1265
239.668	1765
239.733	1645
239.797	4021
239.862	11476
239.926	7827
239.991	3414
240.055	1777
240.120	640
240.184	1044
240.249	-146
240.313	-406
240.378	326
240.442	1395
240.507	2944
240.571	408
240.635	-700
240.700	899
240.764	475
240.829	505
240.893	-1038
240.957	64
241.022	1447
241.086	1543
241.151	114
241.215	-942
241.279	1180
241.344	312
241.408	988
241.472	-249
241.537	2158
241.601	960
241.665	-608
241.730	-318
241.794	1409
241.858	-119
241.922	791
241.987	72
242.051	672
242.115	-465
242.179	874
242.244	-739
242.308	878
242.372	417
242.436	129
242.501	643
242.565	-43
242.629	3
242.693	446
242.757	-732
242.822	419
242.886	725
242.950	1307
243.014	-560
243.078	778
243.142	120
243.206	396
243.271	553
243.335	274
243.399	2547
243.463	9076
243.527	28922
243.591	8847
243.655	2587
243.719	1250
243.783	2769
243.847	2431
243.911	3287
243.975	1051
244.040	380
244.104	1984
244.168	249
244.232	565
244.296	317
244.360	2986
244.424	-331
244.488	990
244.552	827
244.615	-645
244.679	755
244.743	505
244.807	-487
244.871	758
244.935	1062
244.999	-469
245.063	-103
245.127	1251
245.191	1912
245.255	1833
245.319	873
245.383	-965
245.446	1089
245.510	-654
245.574	88
245.638	768
245.702	-1593
245.766	1362
245.829	2116
245.893	-86
245.957	-551
246.021	1417
246.085	-893
246.149	-191
246.212	1352
246.276	2242
246.340	435
246.404	429
246.467	1697
246.531	-260
246.595	841
246.659	827
246.722	-548
246.786	820
246.850	-46
246.913	840
246.977	-143
247.041	6
247.104	233
247.168	411
247.232	1130
247.295	4516
247.359	2095
247.423	306
247.486	997
247.550	1527
247.614	-193
247.677	490
247.741	806
247.804	764
247.868	5067
247.932	1454
247.995	4146
248.059	1293
248.122	-52
248.186	1852
248.249	417
248.313	5597
248.376	6475
248.440	2899
248.503	999
248.567	3205
248.630	296
248.694	892
248.757	2390
248.821	6725
248.884	4323
248.948	2801
249.011	4937
249.075	8470
249.138	7663
249.202	2706
249.265	1015
249.328	1701
249.392	900
249.455	1951
249.519	188
249.582	2059
249.645	1148
249.709	1542
249.772	1627
249.835	1251
249.899	770
249.962	1265
250.025	587
250.089	2594
250.152	3863
250.215	1410
250.279	1243
250.342	2254
250.405	1820
250.468	1520
250.532	2106
250.595	4884
250.658	20285
250.721	43445
250.785	13098
250.848	6567
250.911	2793
250.974	3230
251.038	2845
251.101	6459
251.164	3224
251.227	2792
251.290	3774
251.354	6905
251.417	31008
251.480	37579
251.543	21174
251.606	61478
251.669	50869
251.732	16990
251.795	11178
251.859	13530
251.922	37042
251.985	25557
252.048	8383
252.111	5092
252.174	2952
252.237	5109
252.300	11160
252.363	14787
252.426	47528
252.489	19303
252.552	6456
252.615	3796
252.678	5073
252.741	8280
252.804	16132
252.867	51078
252.930	24297
252.993	8569
253.056	5060
253.119	2913
253.182	2530
253.245	7830
253.308	5028
253.371	2570
253.434	2085
253.497	2419
253.559	3455
253.622	2419
253.685	1760
253.748	1962
253.811	1551
253.874	2138
253.937	757
254.000	1321
254.062	1032
254.125	3583
254.188	2576
254.251	1658
254.314	1219
254.376	1056
254.439	1948
254.502	983
254.565	1049
254.628	5099
254.690	361
254.753	171
254.816	-267
254.878	1016
254.941	2309
255.004	3113
255.067	-75
255.129	-76
255.192	630
255.255	-381
255.317	781
255.380	889
255.443	-280
255.505	-149
255.568	-465
255.631	-725
255.693	1074
255.756	671
255.819	820
255.881	-281
255.944	679
256.006	224
256.069	-356
256.132	-745
256.194	64
256.257	894
256.319	1306
256.382	1303
256.444	1789
256.507	548
256.569	513
256.632	973
256.694	1633
256.757	6960
256.819	29173
256.882	12091
256.944	3408
257.007	2946
257.069	1431
257.132	1381
257.194	2567
257.257	1510
257.319	736
257.381	529
257.444	5699
257.506	29695
257.569	36226
257.631	11307
257.693	4409
257.756	2484
257.818	1245
257.880	1517
257.943	1552
258.005	865
258.067	637
258.130	1128
258.192	756
258.254	695
258.317	778
258.379	208
258.441	2130
258.503	2442
258.566	1313
258.628	3258
258.690	233
258.753	1585
258.815	1271
258.877	-196
258.939	825
259.001	1313
259.064	274
259.126	911
259.188	244
259.250	1205
259.312	504
259.375	1337
259.437	1070
259.499	895
259.561	591
259.623	1453
259.685	398
259.747	1199
259.809	1991
259.872	4237
259.934	7133
259.996	7757
260.058	1313
260.120	661
260.182	267
260.244	496
260.306	-112
260.368	1171
260.430	-222
260.492	937
260.554	2075
260.616	634
260.678	1315
260.740	3764
260.802	257
260.864	886
260.926	-948
260.988	1772
261.050	-267
261.112	817
261.174	3742
261.236	3844
261.298	1042
261.359	1715
261.421	2850
261.483	-33
261.545	914
261.607	-20
261.669	641
261.731	669
261.793	2294
261.854	-506
261.916	204
261.978	679
262.040	214
262.102	642
262.164	279
262.225	1498
262.287	910
262.349	608
262.411	1445
262.472	1314
262.534	818
262.596	1368
262.658	1461
262.719	466
262.781	1352
262.843	1692
262.904	1263
262.966	1051
263.028	1888
263.090	8322
263.151	32394
263.213	10896
263.275	3197
263.336	1528
263.398	1650
263.459	665
263.521	762
263.583	839
263.644	1384
263.706	1108
263.767	351
263.829	619
263.891	-308
263.952	-12
264.014	145
264.075	-271
264.137	330
264.198	898
264.260	-323
264.321	522
264.383	-378
264.444	1742
264.506	381
264.567	893
264.629	1865
264.690	887
264.752	874
264.813	1031
264.875	-320
264.936	1110
264.998	519
265.059	-107
265.120	1114
265.182	1778
265.243	11358
265.305	16238
265.366	2552
265.427	1140
265.489	1610
265.550	-72
265.611	154
265.673	635
265.734	890
265.795	884
265.857	565
265.918	894
265.979	4211
266.040	21297
266.102	22979
266.163	5817
266.224	1607
266.286	1179
266.347	328
266.408	762
266.469	1072
266.530	658
266.592	1581
266.653	769
266.714	1116
266.775	1209
266.836	270
266.898	423
266.959	338
267.020	1060
267.081	1902
267.142	1225
267.203	356
267.264	55
267.326	1003
267.387	243
267.448	843
267.509	1127
267.570	1210
267.631	-551
267.692	285
267.753	1230
267.814	-885
267.875	1091
267.936	1125
267.997	550
268.058	152
268.119	575
268.180	273
268.241	-452
268.302	-85
268.363	365
268.424	257
268.485	456
268.546	66
268.607	172
268.668	-510
268.729	-508
268.790	-758
268.851	93
268.912	183
268.972	633
269.033	-544
269.094	313
269.155	230
269.216	53
269.277	-115
269.338	654
269.398	251
269.459	-397
269.520	-7
269.581	373
269.642	432
269.702	575
269.763	541
269.824	86
269.885	-657
269.945	32
270.006	-148
270.067	-517
270.128	-592
270.188	-146
270.249	-483
270.310	-104
270.370	315
270.431	-49
270.492	-311
270.553	224
270.613	-54
270.674	1113
270.734	-174
270.795	509
270.856	551
270.916	-133
270.977	-77
271.038	673
271.098	260
271.159	255
271.219	240
271.280	46
271.340	-86
271.401	-331
271.462	386
271.522	403
271.583	-32
271.643	391
271.704	401
271.764	593
271.825	447
271.885	4524
271.946	8905
272.006	3435
272.066	3082
272.127	8710
272.187	5318
272.248	2336
272.308	1170
272.369	4635
272.429	2923
272.489	1587
272.550	1417
272.610	1341
272.671	1705
272.731	1266
272.791	550
272.852	1126
272.912	485
272.972	1016
273.033	942
273.093	1084
273.153	1704
273.214	1882
273.274	986
273.334	3615
273.394	6542
273.455	2500
273.515	3001
273.575	4807
273.635	3922
273.696	4498
273.756	7451
273.816	4626
273.876	3446
273.936	2993
273.997	4964
274.057	2532
274.117	1595
274.177	1810
274.237	5599
274.297	6727
274.358	3034
274.418	3306
274.478	2494
274.538	1229
274.598	798
274.658	2808
274.718	3794
274.778	1685
274.838	554
274.898	1228
274.958	4048
275.018	5728
275.078	3682
275.138	1921
275.198	694
275.258	423
275.318	802
275.378	1381
275.438	136
275.498	921
275.558	1279
275.618	5131
275.678	2618
275.738	2294
275.798	977
275.858	466
275.918	254
275.978	1407
276.038	959
276.098	838
276.157	698
276.217	2429
276.277	1251
276.337	1171
276.397	246
276.457	1248
276.517	748
276.576	776
276.636	967
276.696	968
276.756	1635
276.815	2040
276.875	1610
276.935	1264
276.995	1127
277.055	2346
277.114	1212
277.174	1603
277.234	2126
277.293	1623
277.353	1859
277.413	1789
277.472	979
277.532	1529
277.592	2979
277.651	12876
277.711	35201
277.771	10960
277.830	28519
277.890	30413
277.950	16807
278.009	56903
278.069	25153
278.128	19874
278.188	35132
278.248	14246
278.307	34917
278.367	26905
278.426	6634
278.486	4179
278.545	3206
278.605	3848
278.664	1996
278.724	2084
278.783	4950
278.843	8847
278.902	4656
278.962	3580
279.021	4610
279.081	15038
279.140	15217
279.199	7197
279.259	6599
279.318	9131
279.378	12574
279.437	20354
279.496	50679
279.556	189576
279.615	183711
279.675	58582
279.734	27752
279.793	32403
279.853	42389
279.912	18121
279.971	11873
280.031	9909
280.090	12106
280.149	19114
280.208	29472
280.268	126965
280.327	157735
280.386	44323
280.445	19031
280.505	11958
280.564	8425
280.623	6877
280.682	6047
280.742	5912
280.801	4716
280.860	3223
280.919	2675
280.978	2622
281.037	3332
281.097	2845
281.156	2965
281.215	3038
281.274	2808
281.333	4885
281.392	4195
281.451	2846
281.510	2173
281.569	1744
281.628	2653
281.688	2058
281.747	2118
281.806	1804
281.865	1764
281.924	1881
281.983	1619
282.042	1586
282.101	1439
282.160	1857
282.219	905
282.278	1701
282.337	1685
282.396	2321
282.454	1809
282.513	1429
282.572	2243
282.631	2113
282.690	1093
282.749	1477
282.808	532
282.867	1304
282.926	1649
282.985	1586
283.043	1610
283.102	2342
283.161	698
283.220	1760
283.279	4253
283.338	2825
283.396	946
283.455	2753
283.514	2245
283.573	2317
283.631	2270
283.690	2323
283.749	1504
283.808	3037
283.866	2880
283.925	3259
283.984	2490
284.043	3097
284.101	3221
284.160	3320
284.219	4142
284.277	4721
284.336	4502
284.395	6978
284.453	7898
284.512	6447
284.570	6879
284.629	9362
284.688	10706
284.746	13339
284.805	15978
284.863	21510
284.922	27889
284.981	34183
285.039	45671
285.098	70872
285.156	119321
285.215	136100
285.273	121725
285.332	133546
285.390	91596
285.449	58905
285.507	39985
285.566	30423
285.624	23430
285.683	18267
285.741	14209
285.799	12410
285.858	10431
285.916	8555
285.975	7557
286.033	5801
286.091	5682
286.150	5027
286.208	4810
286.267	4718
286.325	3953
286.383	4306
286.442	4046
286.500	3200
286.558	2585
286.616	3632
286.675	2768
286.733	3107
286.791	2315
286.850	2768
286.908	2259
286.966	2761
287.024	1918
287.083	2181
287.141	1962
287.199	2059
287.257	2163
287.315	2927
287.374	1605
287.432	2555
287.490	1791
287.548	1653
287.606	1240
287.664	2215
287.723	1976
287.781	2386
287.839	2121
287.897	3397
287.955	4446
288.013	7639
288.071	13581
288.129	47371
288.187	153306
288.245	84115
288.303	24554
288.361	12937
288.419	8127
288.477	5754
288.535	4946
288.593	3292
288.651	3210
288.709	2285
288.767	1712
288.825	1867
288.883	899
288.941	1603
288.999	761
289.057	837
289.115	830
289.173	1056
289.231	1514
289.289	1139
289.346	880
289.404	1144
289.462	1733
289.520	231
289.578	573
289.636	470
289.694	900
289.751	191
289.809	1191
289.867	294
289.925	1698
289.983	748
290.040	770
290.098	202
290.156	882
290.214	508
290.271	128
290.329	1361
290.387	649
290.444	878
290.502	-105
290.560	94
290.617	164
290.675	375
290.733	234
290.790	762
290.848	801
290.906	312
290.963	649
291.021	719
291.078	381
291.136	567
291.194	677
291.251	1994
291.309	88
291.366	573
291.424	500
291.481	1223
291.539	612
291.596	2676
291.654	827
291.711	553
291.769	774
291.826	556
291.884	254
291.941	257
291.999	918
292.056	679
292.114	834
292.171	81
292.228	773
292.286	1207
292.343	65
292.401	-271
292.458	972
292.515	288
292.573	593
292.630	1195
292.687	892
292.745	76
292.802	267
292.859	2613
292.917	5118
292.974	2074
293.031	1074
293.089	680
293.146	711
293.203	724
293.260	650
293.318	228
293.375	871
293.432	504
293.489	670
293.546	1240
293.604	1256
293.661	6409
293.718	12449
293.775	6902
293.832	3490
293.889	4038
293.947	3320
294.004	2066
294.061	542
294.118	1380
294.175	3906
294.232	7878
294.289	5533
294.346	1873
294.403	1707
294.460	1981
294.517	378
294.574	824
294.631	1001
294.688	965
294.745	1012
294.802	7774
294.859	8394
294.916	3160
294.973	397
295.030	1013
295.087	479
295.144	1012
295.201	792
295.258	585
295.315	472
295.372	2307
295.429	5438
295.486	2331
295.542	445
295.599	2400
295.656	5363
295.713	3313
295.770	4861
295.827	1180
295.883	1218
295.940	886
295.997	130
296.054	1120
296.111	655
296.167	1097
296.224	-115
296.281	266
296.338	-403
296.394	534
296.451	-47
296.508	1705
296.564	3038
296.621	2806
296.678	5801
296.734	12358
296.791	3664
296.848	2057
296.904	1484
296.961	2757
297.018	4783
297.074	4502
297.131	1613
297.187	1444
297.244	1658
297.301	4801
297.357	13655
297.414	4766
297.470	1543
297.527	1436
297.583	-10
297.640	1098
297.696	563
297.753	201
297.809	704
297.866	-72
297.922	526
297.979	767
298.035	-104
298.092	1349
298.148	2238
298.204	3590
298.261	1288
298.317	3139
298.374	8636
298.430	5712
298.486	1648
298.543	1829
298.599	1113
298.656	1267
298.712	3028
298.768	13210
298.824	15072
298.881	5082
298.937	1609
298.993	1284
299.050	1110
299.106	790
299.162	1535
299.218	1448
299.275	692
299.331	1806
299.387	2173
299.443	8305
299.500	19839
299.556	16084
299.612	5232
299.668	4361
299.724	11551
299.780	18612
299.837	6863
299.893	4916
299.949	9655
300.005	18202
300.061	12945
300.117	25925
300.173	12877
300.229	4329
300.285	2608
300.341	2764
300.397	1607
300.453	1835
300.510	2234
300.566	2508
300.622	5705
300.678	20472
300.734	32827
300.790	15276
300.845	11387
300.901	12111
300.957	20713
301.013	10401
301.069	3812
301.125	2154
301.181	1327
301.237	1872
301.293	1247
301.349	1577
301.405	1379
301.461	645
301.516	1551
301.572	196
301.628	514
301.684	1566
301.740	586
301.796	2810
301.851	2088
301.907	2363
301.963	2431
302.019	4680
302.074	21925
302.130	25053
302.186	11689
302.242	4049
302.297	1857
302.353	2208
302.409	2372
302.464	2367
302.520	1901
302.576	4985
302.631	7621
302.687	3655
302.743	1428
302.798	1706
302.854	1261
302.910	484
302.965	680
303.021	1865
303.076	618
303.132	726
303.187	1299
303.243	1053
303.299	334
303.354	447
303.410	1323
303.465	229
303.521	536
303.576	192
303.632	1089
303.687	2859
303.743	6321
303.798	7130
303.853	2452
303.909	1337
303.964	533
304.020	970
304.075	1718
304.130	967
304.186	1218
304.241	2495
304.297	2208
304.352	793
304.358	751
304.407	409
304.449	806
304.463	944
304.518	1263
304.539	1270
304.573	1265
304.629	1370
304.630	1376
304.684	1718
304.720	3511
304.739	4417
304.794	9730
304.811	8475
304.850	5426
304.902	2271
304.905	2071
304.960	1737
304.992	1693
305.015	1625
305.071	1992
305.083	1894
305.126	1576
305.173	1479
305.181	1473
305.236	879
305.264	814
305.292	668
305.347	352
305.354	398
305.402	838
305.445	1045
305.457	1083
305.512	1440
305.535	1348
305.567	1222
305.622	1037
305.626	1063
305.678	1913
305.716	5234
305.733	6457
305.788	7365
305.807	6524
305.843	5274
305.897	6711
305.898	6721
305.953	8476
305.988	5867
306.008	4408
306.063	1918
306.078	1621
306.118	975
306.168	957
306.173	967
306.228	836
306.259	779
306.283	767
306.338	594
306.349	751
306.393	1359
306.440	2190
306.448	2316
306.503	2100
306.530	2259
306.558	2574
306.613	2711
306.620	2926
306.668	4171
306.711	4645
306.723	4641
306.778	4023
306.801	3126
306.833	2172
306.888	1381
306.892	1336
306.943	897
306.982	1489
306.997	1733
307.052	992
307.072	1301
307.107	1794
307.162	1834
307.163	1831
307.217	1901
307.253	2440
307.272	2634
307.327	2696
307.343	2516
307.381	1979
307.434	2618
307.436	2690
307.491	3228
307.524	4120
307.546	4333
307.600	4453
307.614	4166
307.655	3187
307.704	2338
307.710	2332
307.765	2885
307.795	3304
307.819	3695
307.874	5618
307.885	5716
307.929	5712
307.975	6485
307.984	6927
308.038	10297
308.065	13092
308.093	22694
308.148	47586
308.156	54166
308.202	87182
308.246	111795
308.257	110890
308.312	62086
308.336	41221
308.366	27406
308.421	14735
308.426	14018
308.475	10199
308.517	8514
308.530	8075
308.585	7487
308.607	7212
308.639	6824
308.694	6356
308.697	6390
308.748	7985
308.787	9307
308.803	9504
308.857	9864
308.877	9722
308.912	10044
308.967	11344
308.967	11383
309.021	16997
309.058	22115
309.076	26649
309.130	42954
309.148	48999
309.185	81006
309.238	138002
309.239	138451
309.293	162396
309.328	156284
309.348	140055
309.402	77344
309.418	61320
309.457	43969
309.508	29679
309.511	29400
309.566	30316
309.598	32689
309.620	40238
309.674	64339
309.688	71155
309.729	69256
309.778	57309
309.783	55850
309.837	35565
309.868	25145
309.892	21521
309.946	15018
309.959	14077
310.001	12635
310.049	11158
310.055	10878
310.109	8620
310.139	7353
310.163	6219
310.218	4078
310.229	3720
310.272	3956
310.319	4459
310.326	4364
310.381	3555
310.409	3224
310.435	2962
310.489	2310
310.499	2193
310.543	2326
310.589	2638
310.598	2645
310.652	2882
310.679	2802
310.706	2713
310.760	2776
310.769	2787
310.814	2831
310.859	2708
310.868	2638
310.923	2296
310.948	2180
310.977	2142
311.031	1982
311.038	1966
311.085	1996
311.128	1972
311.139	1954
311.193	1961
311.218	1876
311.247	1977
311.301	2355
311.308	2386
311.356	2280
311.398	2148
311.410	2075
311.464	1796
311.488	1657
311.518	1742
311.572	1890
311.578	1901
311.626	1686
311.668	1541
311.680	1631
311.734	1989
311.758	2151
311.788	2105
311.842	2065
311.847	2052
311.896	2178
311.937	2346
311.950	2317
312.004	2162
312.027	2101
312.058	2024
312.112	1877
312.117	1863
312.165	1812
312.207	1771
312.297	2430
312.386	1266
312.476	2236
312.566	2003
312.656	1998
312.745	1310
312.835	1668
312.925	2151
313.015	1545
313.104	1861
313.194	2193
313.284	1728
313.374	2123
313.463	1631
313.553	2659
313.643	2193
313.732	3224
313.822	1476
313.912	3578
314.001	2971
314.091	2886
314.180	3236
314.270	3765
314.360	3013
314.449	3299
314.539	2870
314.628	2650
314.718	3169
314.808	3227
314.897	3078
314.987	3925
315.076	4100
315.166	4222
315.255	4042
315.345	3938
315.434	3913
315.524	4645
315.613	5923
315.703	7965
315.792	27878
315.881	111373
315.971	30026
316.060	8008
316.150	5827
316.239	4832
316.328	3452
316.418	3349
316.507	3566
316.597	4743
316.686	3595
316.775	4141
316.865	5157
316.954	4174
317.043	3980
317.133	3794
317.222	2364
317.311	3168
317.400	2646
317.490	4557
317.579	4522
317.668	6576
317.757	13584
317.847	51800
317.936	173740
318.025	43454
318.114	35891
318.203	14550
318.293	5597
318.382	5918
318.471	6579
318.560	6599
318.649	8335
318.738	3961
318.828	2523
318.917	2503
319.006	2324
319.095	3667
319.184	8775
319.273	4650
319.362	2817
319.451	1767
319.540	1825
319.629	2332
319.718	2968
319.807	3238
319.896	3419
319.985	11440
320.074	3728
320.163	2230
320.252	2406
320.341	2657
320.430	2680
320.519	3466
320.608	2366
320.697	3044
320.786	3389
320.875	4840
320.964	3610
321.053	5094
321.142	5635
321.230	6454
321.319	6285
321.408	9014
321.497	6768
321.586	6855
321.675	6144
321.764	6383
321.852	4492
321.941	5706
322.030	4935
322.119	6197
322.207	8641
322.296	9375
322.385	8939
322.474	10484
322.562	11812
322.651	8792
322.740	5684
322.829	6464
322.917	5425
323.006	4299
323.095	3950
323.183	4276
323.272	3994
323.361	4507
323.449	12603
323.538	5140
323.626	7805
323.715	5619
323.804	2862
323.892	6528
323.981	3597
324.069	3333
324.158	4324
324.246	4336
324.335	1679
324.424	2749
324.512	2980
324.601	2737
324.689	3823
324.778	5604
324.866	2662
324.954	2801
325.043	1739
325.131	1575
325.220	3764
325.308	3711
325.397	2612
325.485	2470
325.574	805
325.662	2208
325.750	997
325.839	2067
325.927	1493
326.015	1675
326.104	1735
326.192	2349
326.280	1507
326.369	1751
326.457	1267
326.545	2456
326.634	1151
326.722	1008
326.810	1932
326.898	2468
326.987	3010
327.075	2143
327.163	3496
327.251	1860
327.340	2686
327.428	5516
327.516	3669
327.604	2996
327.692	2304
327.781	2004
327.869	1932
327.957	1790
328.045	1491
328.133	2424
328.221	1279
328.309	1792
328.397	2083
328.485	2553
328.574	3115
328.662	5535
328.750	3093
328.838	2457
328.926	1695
329.014	1821
329.102	1229
329.190	2492
329.278	1558
329.366	2220
329.454	1574
329.542	1190
329.630	597
329.718	2375
329.806	893
329.893	1518
329.981	606
330.069	1668
330.157	2886
330.245	5721
330.333	2746
330.421	1608
330.509	1694
330.597	3118
330.684	1191
330.772	1230
330.860	1669
330.948	1848
331.036	901
331.123	1579
331.211	1438
331.299	1881
331.387	2321
331.475	2550
331.562	1076
331.650	1749
331.738	942
331.825	2003
331.913	1432
332.001	1165
332.089	1081
332.176	2127
332.264	3671
332.352	3416
332.439	1230
332.527	1498
332.614	1458
332.702	2038
332.790	1878
332.877	2875
332.965	8934
333.052	6408
333.140	7199
333.228	21058
333.315	5387
333.403	3332
333.490	3564
333.578	8500
333.665	32025
333.753	12883
333.840	2874
333.928	3219
334.015	4591
334.103	6645
334.190	14489
334.278	8151
334.365	10334
334.452	10399
334.540	6391
334.627	7020
334.715	8377
334.802	13389
334.889	30147
334.977	36444
335.064	17659
335.151	8452
335.239	5950
335.326	4969
335.413	9987
335.501	9627
335.588	4688
335.675	5037
335.762	6833
335.850	10538
335.937	13673
336.024	24553
336.111	47857
336.199	37498
336.286	15950
336.373	9244
336.460	4915
336.547	4800
336.635	3769
336.722	2778
336.809	3148
336.896	3659
336.983	4877
337.070	8587
337.157	12817
337.245	9868
337.332	7058
337.419	1921
337.506	2226
337.593	2652
337.680	4225
337.767	8060
337.854	3449
337.941	2964
338.028	3642
338.115	1099
338.202	3002
338.289	3363
338.376	7306
338.463	3278
338.550	4386
338.637	5025
338.724	2197
338.811	3944
338.898	2062
338.984	1569
339.071	1007
339.158	1755
339.245	2520
339.332	2314
339.419	2141
339.506	2706
339.593	465
339.679	1566
339.766	782
339.853	1999
339.940	2295
340.027	1558
340.113	1529
340.200	1835
340.287	908
340.374	1680
340.460	1368
340.547	339
340.634	2068
340.720	3646
340.807	1950
340.894	2076
340.980	1218
341.067	1717
341.154	1686
341.240	1849
341.327	1917
341.414	1780
341.500	-148
341.587	2287
341.674	2439
341.760	2276
341.847	1000
341.933	1280
342.020	301
342.106	1600
342.193	1083
342.279	1315
342.366	1224
342.452	2023
342.539	1287
342.625	2092
342.712	2436
342.798	2140
342.885	1647
342.971	903
343.058	899
343.144	1093
343.230	1629
343.317	1854
343.403	1212
343.490	920
343.576	832
343.662	1160
343.749	762
343.835	1725
343.921	2968
344.008	11900
344.094	23132
344.180	4994
344.267	1485
344.353	4488
344.439	3981
344.525	2506
344.612	3904
344.698	4343
344.784	1834
344.870	1977
344.957	730
345.043	2482
345.129	965
345.215	1995
345.301	958
345.387	891
345.474	1065
345.560	578
345.646	833
345.732	1465
345.818	1327
345.904	1670
345.990	1596
346.076	1970
346.162	1744
346.249	1344
346.335	820
346.421	1255
346.507	1823
346.593	6390
346.679	1529
346.765	2325
346.851	3670
346.937	2028
347.023	1819
347.108	2041
347.194	1483
347.280	1734
347.366	3053
347.452	8346
347.538	12995
347.624	7536
347.710	4020
347.796	2047
347.882	1750
347.967	995
348.053	1463
348.139	1460
348.225	1495
348.311	1005
348.397	1392
348.482	1756
348.568	1431
348.654	3064
348.740	9449
348.825	9857
348.911	4639
348.997	4725
349.083	8666
349.168	2055
349.254	1507
349.340	1303
349.425	1316
349.511	1195
349.597	1469
349.682	1894
349.768	4299
349.854	2711
349.939	2337
350.025	1680
350.110	1753
350.196	1506
350.282	927
350.367	2215
350.453	649
350.538	1684
350.624	62
350.709	2554
350.795	552
350.880	846
350.966	1700
351.051	2000
351.137	733
351.222	1415
351.308	2304
351.393	2900
351.479	1133
351.564	824
351.649	1259
351.735	1290
351.820	1522
351.906	1933
351.991	783
352.076	2393
352.162	3146
352.247	1438
352.332	702
352.418	1681
352.503	1498
352.588	4077
352.673	2175
352.759	878
352.844	691
352.929	1934
353.014	616
353.100	1859
353.185	1665
353.270	1293
353.355	1545
353.441	1370
353.526	798
353.611	1805
353.696	715
353.781	1970
353.866	692
353.952	2157
354.037	584
354.122	3231
354.207	1414
354.292	1981
354.377	1799
354.462	2029
354.547	1117
354.632	1676
354.717	1989
354.802	909
354.887	827
354.972	2102
355.057	1648
355.142	1393
355.227	1655
355.312	715
355.397	1706
355.482	3416
355.567	438
355.652	2868
355.737	1654
355.822	4188
355.907	3193
355.991	2551
356.076	344
356.161	1971
356.246	1291
356.331	1335
356.416	337
356.501	11391
356.585	8699
356.670	1190
356.755	2524
356.840	2045
356.924	7426
357.009	25650
357.094	8802
357.179	2309
357.263	1052
357.348	1751
357.433	1724
357.517	1542
357.602	1523
357.687	1250
357.771	1818
357.856	3829
357.941	2595
358.025	7614
358.110	34617
358.195	14313
358.279	2593
358.364	3054
358.448	3541
358.533	7289
358.617	4770
358.702	4866
358.787	2617
358.871	1592
358.956	1936
359.040	1619
359.125	859
359.209	1699
359.294	2212
359.378	4302
359.462	3015
359.547	1832
359.631	1689
359.716	892
359.800	908
359.885	3122
359.969	679
360.053	3012
360.138	1526
360.222	1871
360.306	1689
360.391	1710
360.475	1661
360.559	3257
360.644	2989
360.728	1844
360.812	6345
360.896	15216
360.981	5360
361.065	2981
361.149	2614
361.233	2389
361.318	1225
361.402	2054
361.486	2530
361.570	2041
361.654	1971
361.739	2657
361.823	10292
361.907	17268
361.991	4895
362.075	3870
362.159	5114
362.243	11578
362.327	26535
362.411	43342
362.495	16138
362.580	7161
362.664	6729
362.748	7309
362.832	12207
362.916	24938
363.000	77541
363.084	114145
363.168	49411
363.252	13648
363.336	7284
363.420	7214
363.503	10834
363.587	11655
363.671	4910
363.755	4179
363.839	5655
363.923	4472
364.007	6525
364.091	9823
364.175	15512
364.258	42586
364.342	89405
364.426	169996
364.510	84752
364.594	24179
364.677	12593
364.761	15937
364.845	12089
364.929	4490
365.013	3936
365.096	3107
365.180	2824
365.264	5367
365.347	15935
365.431	5839
365.515	1739
365.598	1371
365.682	2825
365.766	1750
365.849	1793
365.933	1850
366.017	3547
366.100	1101
366.184	1195
366.267	2218
366.351	1103
366.435	1182
366.518	1308
366.602	1541
366.685	1665
366.769	2027
366.852	1498
366.936	2538
367.019	2435
367.103	1235
367.186	3509
367.270	2765
367.353	855
367.436	3016
367.520	2249
367.603	2785
367.687	1349
367.770	2867
367.853	3352
367.937	5236
368.020	4960
368.104	1485
368.187	3205
368.270	2487
368.353	1951
368.437	2834
368.520	5688
368.603	3979
368.687	2336
368.770	5353
368.853	2081
368.936	2599
369.020	1774
369.103	2024
369.186	883
369.269	913
369.352	1973
369.436	1282
369.519	1426
369.602	-138
369.685	3378
369.768	921
369.851	2296
369.934	1421
370.018	1286
370.101	1439
370.184	3295
370.267	2049
370.350	1814
370.433	4018
370.516	16621
370.599	48927
370.682	18473
370.765	6653
370.848	5652
370.931	7443
371.014	4745
371.097	1187
371.180	2518
371.263	2593
371.346	-174
371.429	2639
371.511	1029
371.594	825
371.677	2681
371.760	4123
371.843	3594
371.926	13739
372.009	29407
372.091	11345
372.174	4932
372.257	10025
372.340	4229
372.423	3747
372.505	5338
372.588	3130
372.671	4230
372.754	7046
372.836	5027
372.919	5127
373.002	7712
373.085	2352
373.167	4032
373.250	4443
373.332	8605
373.415	17917
373.498	36901
373.580	21642
373.663	74880
373.746	75772
373.828	10633
373.911	6103
373.993	3320
374.076	6814
374.159	6849
374.241	3415
374.324	6660
374.406	6317
374.489	8988
374.571	22888
374.654	8470
374.736	5645
374.819	13751
374.901	23865
374.983	23500
375.066	6433
375.148	3856
375.231	7319
375.313	11253
375.395	4617
375.478	3100
375.560	4989
375.643	3218
375.725	6157
375.807	17823
375.890	14853
375.972	3945
376.054	4343
376.136	5241
376.219	3136
376.301	5568
376.383	12676
376.465	5444
376.548	2779
376.630	3698
376.712	9755
376.794	4052
376.877	2058
376.959	756
377.041	1809
377.123	1749
377.205	2991
377.287	1368
377.369	2600
377.452	1732
377.534	1655
377.616	1951
377.698	1689
377.780	701
377.862	1812
377.944	2805
378.026	1259
378.108	1492
378.190	1501
378.272	2157
378.354	2099
378.436	1123
378.518	1245
378.600	2474
378.682	2568
378.764	3378
378.846	3783
378.928	2108
379.010	987
379.091	2246
379.173	1867
379.255	1164
379.337	1657
379.419	2462
379.501	6057
379.583	2897
379.664	1427
379.746	1199
379.828	5064
379.910	3717
379.991	4830
380.073	973
380.155	2215
380.237	1511
380.318	1890
380.400	1976
380.482	4011
380.564	2828
380.645	2751
380.727	2587
380.809	3461
380.890	1978
380.972	1711
381.053	2544
381.135	3637
381.217	3274
381.298	6093
381.380	3965
381.461	4275
381.543	10997
381.624	13075
381.706	4821
381.787	3979
381.869	5026
381.951	9204
382.032	27568
382.113	19381
382.195	5650
382.276	7852
382.358	7653
382.439	12967
382.521	19169
382.602	28717
382.684	20760
382.765	33934
382.846	96558
382.928	233635
383.009	126456
383.090	95347
383.172	311211
383.253	416653
383.334	123189
383.416	48290
383.497	33859
383.578	38046
383.659	77260
383.741	269109
383.822	563966
383.903	282537
383.984	64831
384.066	37660
384.147	21761
384.228	13717
384.309	11514
384.390	10630
384.471	9040
384.553	9033
384.634	7246
384.715	8573
384.796	7151
384.877	6809
384.958	9281
385.039	8413
385.120	6243
385.201	6877
385.282	5101
385.363	7939
385.444	8553
385.525	9114
385.606	12441
385.687	11129
385.768	6653
385.849	5650
385.930	15141
386.011	25904
386.092	8349
386.173	5605
386.254	5504
386.335	6203
386.416	3915
386.496	5251
386.577	6637
386.658	4753
386.739	4181
386.820	5438
386.901	4447
386.981	6614
387.062	6331
387.143	7264
387.224	8359
387.304	9509
387.385	8699
387.466	5606
387.547	8214
387.627	7403
387.708	8819
387.789	12199
387.869	13186
387.950	8836
388.031	5461
388.111	4108
388.192	7395
388.273	8941
388.353	5833
388.434	3184
388.514	3889
388.595	11773
388.676	11065
388.756	6203
388.837	5450
388.917	4013
388.998	1736
389.078	4328
389.159	3988
389.239	2325
389.320	5054
389.400	2276
389.480	3820
389.561	6065
389.641	4886
389.722	3833
389.802	2145
389.883	4550
389.963	7562
390.043	5238
390.124	2238
390.204	3597
390.284	5793
390.365	4196
390.445	11012
390.525	39348
390.605	34462
390.686	6022
390.766	5274
390.846	4720
390.927	2650
391.007	2615
391.087	4555
391.167	3268
391.247	2484
391.328	5601
391.408	5167
391.488	4957
391.568	3151
391.648	3582
391.728	5416
391.808	5929
391.888	5393
391.969	7661
392.049	7526
392.129	8102
392.209	8386
392.289	11807
392.369	10669
392.449	11572
392.529	11089
392.609	14304
392.689	15319
392.769	19863
392.849	24610
392.929	31754
393.009	44592
393.089	65298
393.169	126638
393.248	334525
393.328	750395
393.408	735551
393.488	317850
393.568	119072
393.648	60200
393.728	37103
393.807	24578
393.887	21919
393.967	18590
394.047	14487
394.127	13660
394.206	16538
394.286	42551
394.366	169563
394.446	168666
394.525	38012
394.605	13097
394.685	10339
394.764	11096
394.844	16772
394.924	18035
395.003	8901
395.083	6720
395.163	6135
395.242	5566
395.322	6779
395.402	4504
395.481	8515
395.561	8713
395.640	24077
395.720	41428
395.799	26297
395.879	16068
395.958	18024
396.038	58503
396.117	219183
396.197	221335
396.276	62367
396.356	24359
396.435	22857
396.515	27989
396.594	44113
396.673	94899
396.753	310769
396.832	671369
396.912	475526
396.991	140786
397.070	53817
397.150	29482
397.229	22099
397.308	35407
397.388	61887
397.467	28942
397.546	10918
397.625	6396
397.705	8342
397.784	5787
397.863	5409
397.942	5106
398.022	4672
398.101	5713
398.180	9536
398.259	5259
398.338	4670
398.417	2823
398.497	2466
398.576	3341
398.655	1309
398.734	3106
398.813	2768
398.892	3529
398.971	8751
399.050	4369
399.129	1497
399.208	2282
399.287	3783
399.366	972
399.445	1458
399.524	2212
399.603	863
399.682	1709
399.761	2601
399.840	9121
399.919	7072
399.998	1948
400.077	877
400.156	620
400.235	3633
400.313	648
400.392	756
400.471	2671
400.550	3283
400.629	-49
400.708	1749
400.786	64
400.865	1638
400.944	290
401.023	2374
401.102	948
401.180	874
401.259	540
401.338	821
401.416	1796
401.495	473
401.574	1083
401.652	345
401.731	2120
401.810	-44
401.888	481
401.967	513
402.046	256
402.124	936
402.203	-371
402.281	927
402.360	696
402.438	2108
402.517	326
402.596	1015
402.674	1210
402.753	678
402.831	1141
402.910	2302
402.988	387
403.066	4013
403.145	2961
403.223	2875
403.302	2077
403.380	3505
403.459	2574
403.537	2389
403.615	1053
403.694	851
403.772	1897
403.850	1199
403.929	233
404.007	1199
404.085	1959
404.164	1607
404.242	2174
404.320	7421
404.398	22559
404.477	17052
404.555	16207
404.633	15046
404.711	15954
404.789	9554
404.868	1732
404.946	596
405.024	1355
405.102	1270
405.180	-210
405.258	-144
405.336	1339
405.415	-1171
405.493	607
405.571	1704
405.649	-165
405.727	-390
405.805	1937
405.883	1140
405.961	1064
406.039	-44
406.117	-477
406.195	1030
406.273	1315
406.351	9189
406.429	5005
406.507	911
406.585	409
406.663	994
406.740	208
406.818	-690
406.896	-443
406.974	1033
407.052	-372
407.130	4663
407.208	6204
407.285	1881
407.363	-21
407.441	1295
407.519	464
407.596	1227
407.674	5655
407.752	22727
407.830	15732
407.907	2830
407.985	-122
408.063	1008
408.141	-58
408.218	1630
408.296	-951
408.373	633
408.451	742
408.529	251
408.606	62
408.684	673
408.762	1489
408.839	856
408.917	200
408.994	1839
409.072	1035
409.149	2485
409.227	5372
409.304	8788
409.382	9043
409.459	10251
409.537	13542
409.614	13721
409.692	9266
409.769	9832
409.846	14653
409.924	19182
410.001	11782
410.079	7437
410.156	6435
410.233	3734
410.311	3080
410.388	2427
410.465	2999
410.543	1276
410.620	1652
410.697	1944
410.775	1934
410.852	1175
410.929	2638
411.006	2831
411.083	2089
411.161	1899
411.238	1857
411.315	1098
411.392	1160
411.469	1440
411.547	1571
411.624	-134
411.701	209
411.778	1518
411.855	360
411.932	350
412.009	528
412.086	942
412.163	526
412.240	-8
412.317	1520
412.394	329
412.471	559
412.548	-39
412.625	-405
412.702	613
412.779	-277
412.856	813
412.933	-195
413.010	275
413.087	1060
413.164	343
413.241	1458
413.318	-576
413.395	198
413.471	409
413.548	-277
413.625	573
413.702	-1015
413.779	-492
413.855	-503
413.932	-574
414.009	-887
414.086	243
414.162	-414
414.239	5
414.316	849
414.393	2974
414.469	-895
414.546	-382
414.623	-231
414.699	-254
414.776	-264
414.853	-404
414.929	64
415.006	-340
415.082	-484
415.159	-419
415.236	96
415.312	-19
415.389	-209
415.465	47
415.542	-511
415.618	-583
415.695	330
415.771	-1360
415.848	113
415.924	160
416.000	-411
416.077	408
416.153	-1527
416.230	-1049
416.306	-460
416.383	-207
416.459	107
416.535	-549
416.612	-595
416.688	516
416.764	381
416.841	417
416.917	-537
416.993	13
417.069	-379
417.146	37
417.222	449
417.298	516
417.374	-252
417.451	201
417.527	-909
417.603	-296
417.679	-4
417.755	-97
417.831	-544
417.908	-212
417.984	89
418.060	-1240
418.136	-373
418.212	541
418.288	-139
418.364	465
418.440	-421
418.516	658
418.592	-454
418.668	-310
418.744	-583
418.820	-8
418.896	265
418.972	-787
419.048	34
419.124	1276
419.200	-688
419.276	548
419.352	-454
419.428	870
419.504	-119
419.579	1062
419.655	309
419.731	532
419.807	278
419.883	178
419.959	444
420.034	550
420.110	-63
420.186	1217
420.262	1600
420.337	573
420.413	32
420.489	984
420.565	1576
420.640	26
420.716	1695
420.792	573
420.867	2030
420.943	1058
421.019	1321
421.094	1820
421.170	2058
421.245	1952
421.321	2700
421.397	2365
421.472	7257
421.548	15645
421.623	9515
421.699	5338
421.774	6132
421.850	5791
421.925	7827
422.001	9636
422.076	11852
422.152	14698
422.227	19904
422.302	30404
422.378	45058
422.453	81685
422.529	157303
422.604	255117
422.679	249153
422.755	241718
422.830	163089
422.905	85955
422.981	51051
423.056	33685
423.131	25246
423.207	17589
423.282	14439
423.357	11545
423.432	8136
423.508	7716
423.583	5916
423.658	5994
423.733	4922
423.808	4137
423.883	4027
423.959	5502
424.034	6513
424.109	7089
424.184	2850
424.259	2395
424.334	2969
424.409	1293
424.484	1145
424.559	1594
424.634	868
424.709	1214
424.784	1716
424.859	1050
424.934	663
425.009	1823
425.084	2260
425.159	159
425.234	964
425.309	-34
425.384	743
425.459	463
425.534	850
425.609	-308
425.683	423
425.758	-538
425.833	303
425.908	172
425.983	409
426.058	2731
426.132	269
426.207	-5
426.282	592
426.357	-453
426.431	175
426.506	776
426.581	88
426.655	-119
426.730	-237
426.805	-4
426.879	448
426.954	-446
427.029	317
427.103	2007
427.178	5787
427.253	2373
427.327	641
427.402	358
427.476	-72
427.551	-575
427.625	-96
427.700	474
427.774	-402
427.849	606
427.923	-544
427.998	584
428.072	425
428.147	5414
428.221	29020
428.296	98036
428.370	50380
428.444	6344
428.519	1762
428.593	1771
428.667	1852
428.742	2839
428.816	10300
428.890	57050
428.965	89497
429.039	20309
429.113	2826
429.188	732
429.262	87
429.336	-136
429.410	990
429.485	1042
429.559	1607
429.633	1576
429.707	1714
429.781	9298
429.855	54691
429.930	80091
430.004	19189
430.078	12908
430.152	35323
430.226	127877
430.300	120765
430.374	23035
430.448	6228
430.522	4586
430.596	8057
430.670	18013
430.744	75773
430.818	80885
430.892	12881
430.966	2278
431.040	1105
431.114	817
431.188	-216
431.262	636
431.336	-735
431.410	1281
431.484	78
431.557	1463
431.631	222
431.705	3261
431.779	23177
431.853	93530
431.927	61352
432.000	8554
432.074	1018
432.148	491
432.222	3
432.295	-63
432.369	-1156
432.443	214
432.516	1651
432.590	5999
432.664	2095
432.737	-486
432.811	-589
432.885	-317
432.958	-551
433.032	-1339
433.106	-1515
433.179	-460
433.253	-708
433.326	-951
433.400	-1251
433.473	-560
433.547	-1232
433.620	-57
433.694	-1387
433.767	105
433.841	-800
433.914	201
433.988	-1240
434.061	-367
434.134	-933
434.208	-957
434.281	-1026
434.355	-533
434.428	-665
434.501	-904
434.575	-1000
434.648	-586
434.721	-873
434.795	-521
434.868	-922
434.941	-402
435.014	-706
435.088	108
435.161	1238
435.234	2262
435.307	2044
435.381	2149
435.454	3660
435.527	6846
435.600	7016
435.673	5721
435.746	4031
435.819	2209
435.892	2042
435.966	1174
436.039	-315
436.112	458
436.185	-574
436.258	-605
436.331	-1272
436.404	-235
436.477	-355
436.550	-315
436.623	-142
436.696	-288
436.769	-617
436.842	-542
436.915	-905
436.987	-1465
437.060	-259
437.133	-1100
437.206	-1506
437.279	-47
437.352	-1028
437.425	-879
437.498	-1440
437.570	-107
437.643	-1835
437.716	-234
437.789	-749
437.861	-972
437.934	-719
438.007	211
438.080	-967
438.152	-1103
438.225	-26
438.298	4351
438.370	12637
438.443	4392
438.516	-910
438.588	-500
438.661	-724
438.734	-1199
438.806	-1478
438.879	-262
438.951	-1167
439.024	-965
439.096	-556
439.169	-1199
439.241	-577
439.314	-956
439.386	-1581
439.459	-559
439.531	-630
439.604	-498
439.676	-140
439.749	-990
439.821	-970
439.893	-330
439.966	-721
440.038	-1284
440.110	-444
440.183	-537
440.255	-575
440.327	-33
440.400	249
440.472	4918
440.544	3435
440.617	-387
440.689	361
440.761	-102
440.833	61
440.905	-16
440.978	-1095
441.050	-78
441.122	111
441.194	-641
441.266	-964
441.338	-642
441.411	-459
441.483	1324
441.555	2280
441.627	530
441.699	-129
441.771	832
441.843	-416
441.915	231
441.987	583
442.059	-73
442.131	605
442.203	1798
442.275	2332
442.347	4971
442.419	13937
442.491	73203
442.563	163038
442.635	69889
442.706	12466
442.778	5636
442.850	2441
442.922	2527
442.994	2671
443.066	2664
443.137	3985
443.209	5453
443.281	8992
443.353	21658
443.425	85763
443.496	255662
443.568	262718
443.640	110943
443.711	24743
443.783	8845
443.855	5050
443.926	3592
443.998	1822
444.070	2089
444.141	1390
444.213	1238
444.285	1332
444.356	1408
444.428	1361
444.499	987
444.571	1024
444.642	677
444.714	1065
444.785	980
444.857	2705
444.928	3155
445.000	3789
445.071	5290
445.143	6219
445.214	9790
445.285	18272
445.357	47701
445.428	170694
445.500	318019
445.571	242488
445.642	157759
445.714	52613
445.785	18268
445.856	7302
445.928	4974
445.999	2532
446.070	2153
446.141	2091
446.213	1768
446.284	403
446.355	1388
446.426	-377
446.497	686
446.569	338
446.640	-121
446.711	-55
446.782	487
446.853	-219
446.924	980
446.995	-769
447.066	-317
447.138	-282
447.209	-205
447.280	-961
447.351	-536
447.422	-826
447.493	-199
447.564	-1021
447.635	-637
447.706	-1584
447.777	-418
447.847	-675
447.918	-543
447.989	-428
448.060	-115
448.131	381
448.202	486
448.273	-452
448.344	-859
448.414	-1143
448.485	-315
448.556	-555
448.627	-566
448.698	443
448.768	-410
448.839	-1173
448.910	-96
448.981	-316
449.051	-572
449.122	-1386
449.193	-885
449.263	-1060
449.334	-387
449.405	-29
449.475	-381
449.546	-275
449.616	880
449.687	463
449.758	-712
449.828	-998
449.899	-838
449.969	-790
450.040	-917
450.110	-243
450.181	-487
450.251	-417
450.322	-605
450.392	-206
450.463	-85
450.533	-1103
450.604	-433
450.674	-597
450.744	73
450.815	-217
450.885	681
450.955	209
451.026	-413
451.096	-341
451.166	67
451.237	17
451.307	1391
451.377	1739
451.447	-717
451.518	-433
451.588	-439
451.658	-494
451.728	381
451.799	573
451.869	1688
451.939	-744
452.009	-66
452.079	-521
452.149	83
452.219	551
452.289	992
452.360	1223
452.430	806
452.500	597
452.570	2258
452.640	7787
452.710	18248
452.780	21313
452.850	12570
452.920	6109
452.990	3762
453.060	2307
453.129	930
453.199	476
453.269	1838
453.339	5168
453.409	8534
453.479	6762
453.549	10549
453.619	9954
453.688	4063
453.758	1158
453.828	-469
453.898	-541
453.968	-89
454.037	724
454.087	369
454.107	215
454.168	-580
454.177	-712
454.247	-327
454.249	-337
454.316	-1015
454.330	-882
454.386	-446
454.411	-440
454.456	-558
454.492	369
454.525	1179
454.574	815
454.595	647
454.655	-197
454.665	-345
454.734	-170
454.736	-142
454.804	-109
454.817	108
454.873	755
454.898	1016
454.943	1436
454.979	770
455.013	187
455.060	657
455.082	912
455.141	172
455.152	155
455.221	3450
455.222	3564
455.291	9546
455.303	12687
455.360	23525
455.384	34730
455.430	50186
455.465	35259
455.499	22782
455.546	9232
455.569	3229
455.627	1959
455.638	1738
455.707	427
455.708	442
455.777	413
455.789	469
455.846	465
455.869	310
455.916	-36
455.950	223
455.985	466
456.031	29
456.054	-151
456.112	619
456.124	772
456.193	1012
456.193	994
456.262	60
456.274	296
456.332	1479
456.355	1139
456.401	372
456.436	628
456.470	819
456.516	237
456.540	1
456.597	527
456.609	599
456.678	765
456.678	750
456.747	681
456.759	688
456.817	984
456.840	961
456.886	593
456.920	675
456.955	870
457.001	1508
457.024	1854
457.082	1451
457.093	1301
457.162	2018
457.163	2036
457.232	1769
457.243	1748
457.301	1978
457.324	1801
457.370	1233
457.405	1667
457.439	2148
457.485	2305
457.508	2465
457.566	3057
457.577	3317
457.646	4810
457.647	4869
457.715	13371
457.727	15155
457.784	27264
457.808	35959
457.853	45055
457.889	52310
457.922	52502
457.969	37382
457.991	38385
458.050	44503
458.060	45912
458.129	78143
458.130	79126
458.198	77167
458.211	70079
458.267	43581
458.292	30969
458.336	20292
458.372	17908
458.405	22901
458.453	35450
458.474	45147
458.533	79588
458.543	81727
458.611	125262
458.614	125945
458.680	80991
458.694	64946
458.749	32938
458.775	23293
458.818	13123
458.855	10092
458.887	7923
458.936	5894
458.955	5198
459.016	4320
459.024	4278
459.093	3971
459.097	3971
459.162	3288
459.177	3314
459.230	3304
459.257	2919
459.299	2559
459.338	2754
459.368	2936
459.418	2837
459.437	2654
459.499	2398
459.505	2405
459.574	2886
459.579	2853
459.643	1854
459.659	1831
459.711	2490
459.740	2844
459.780	3141
459.820	3279
459.849	3137
459.900	2996
459.917	3038
459.981	2991
459.986	2943
460.054	2547
460.061	2504
460.123	2673
460.141	2778
460.191	2727
460.222	2788
460.260	3053
460.302	3147
460.328	3294
460.382	3681
460.397	3588
460.462	3356
460.465	3516
460.534	7325
460.543	7790
460.602	19722
460.623	24490
460.671	38255
460.703	51375
460.739	45804
460.783	35020
460.808	30815
460.864	9135
460.876	7060
460.944	3629
460.945	3588
461.013	2860
461.024	2778
461.081	2489
461.104	2773
461.150	3495
461.184	3144
461.218	2665
461.264	2913
461.286	3048
461.345	3198
461.355	3183
461.423	2606
461.425	2598
461.491	2416
461.505	2533
461.559	3893
461.585	4007
461.628	4254
461.665	5336
461.696	5937
461.745	6558
461.764	6017
461.825	3496
461.832	3450
461.901	3319
461.905	3327
461.969	2875
461.985	2719
462.037	3035
462.065	3493
462.105	3643
462.145	3499
462.173	3830
462.225	4373
462.241	4555
462.305	5208
462.310	5108
462.378	4039
462.385	3872
462.446	3763
462.465	3670
462.514	3226
462.545	3035
462.582	3121
462.625	3442
462.650	3387
462.705	2920
462.718	2967
462.785	3384
462.786	3385
462.854	3278
462.865	3304
462.922	4290
462.945	4537
462.990	4053
463.025	3886
463.058	3810
463.104	3229
463.126	3099
463.184	3398
463.194	3418
463.262	3300
463.264	3293
463.330	3595
463.344	3579
463.398	3658
463.424	3867
463.466	3587
463.504	3269
463.533	3302
463.583	3334
463.601	3379
463.663	3235
463.669	3215
463.737	3585
463.743	3570
463.805	4594
463.823	4961
463.873	6224
463.903	6923
463.940	6800
463.982	6834
464.008	6126
464.062	4392
464.076	4388
464.142	4105
464.144	4108
464.211	3957
464.221	3979
464.279	3393
464.301	3176
464.347	3533
464.381	3681
464.414	3851
464.461	4325
464.482	4539
464.540	4808
464.550	4694
464.617	4024
464.620	3987
464.685	4511
464.699	4644
464.753	6337
464.779	7242
464.820	7956
464.859	8586
464.888	8185
464.938	7326
464.956	7230
465.018	6837
465.023	6830
465.091	6430
465.098	6409
465.158	5822
465.177	5600
465.226	5674
465.257	5745
465.293	5658
465.336	5306
465.361	5525
465.416	6360
465.428	6423
465.495	6572
465.496	6591
465.563	7872
465.575	8127
465.631	8831
465.654	9144
465.698	8172
465.734	7272
465.765	6656
465.813	5452
465.833	5479
465.893	5887
465.900	5895
465.968	5707
465.972	5690
466.035	5449
466.052	5359
466.102	5569
466.131	5685
466.170	5901
466.210	6052
466.237	6021
466.290	6065
466.304	6158
466.369	6331
466.372	6313
466.439	5509
466.449	5380
466.506	5952
466.528	6140
466.573	6958
466.607	7542
466.641	8574
466.687	10045
466.708	10441
466.766	11420
466.775	10969
466.842	7437
466.845	7255
466.909	6504
466.925	6305
466.977	6104
467.004	6019
467.044	6291
467.083	6536
467.111	7581
467.163	9487
467.178	9749
467.242	10763
467.245	10720
467.312	9406
467.321	9216
467.379	9370
467.400	9399
467.446	9374
467.480	9326
467.559	9400
467.638	8853
467.717	8438
467.796	9716
467.875	7748
467.955	9279
468.034	11073
468.113	14349
468.192	18942
468.271	14343
468.350	18549
468.429	24682
468.508	24979
468.588	17178
468.667	12423
468.746	9854
468.825	9606
468.904	9371
468.983	8352
469.062	9646
469.141	10031
469.220	7623
469.299	7946
469.378	8739
469.456	11514
469.535	8920
469.614	8535
469.693	8709
469.772	10375
469.851	10937
469.930	9761
470.009	9366
470.088	10730
470.166	15720
470.245	25240
470.324	30787
470.403	20263
470.482	12885
470.560	10064
470.639	10158
470.718	8782
470.797	8524
470.875	8160
470.954	9079
471.033	9142
471.111	7852
471.190	7809
471.269	6408
471.347	6808
471.426	7381
471.505	7451
471.583	9124
471.662	9006
471.740	7403
471.819	8311
471.898	7331
471.976	8044
472.055	7073
472.133	7889
472.212	8251
472.290	8621
472.369	7107
472.447	7041
472.526	6748
472.604	8264
472.683	7627
472.761	7276
472.839	7096
472.918	8348
472.996	7006
473.075	7872
473.153	7564
473.231	7073
473.310	7738
473.388	7307
473.466	8764
473.545	7949
473.623	9175
473.701	7261
473.780	7576
473.858	6862
473.936	8497
474.014	7078
474.093	7788
474.171	7934
474.249	9075
474.327	7509
474.405	6850
474.484	6394
474.562	7474
474.640	6763
474.718	6482
474.796	5978
474.874	7206
474.952	5747
475.030	6018
475.108	6785
475.187	6305
475.265	6247
475.343	7996
475.421	7245
475.499	7355
475.577	6719
475.655	7398
475.733	9140
475.811	11508
475.889	11303
475.966	7897
476.044	6243
476.122	5796
476.200	6289
476.278	7461
476.356	6621
476.434	6330
476.512	5946
476.590	7105
476.667	6709
476.745	5520
476.823	6481
476.901	6216
476.979	6583
477.056	5893
477.134	6372
477.212	6444
477.290	6459
477.367	5369
477.445	6143
477.523	5331
477.601	5183
477.678	5775
477.756	6715
477.834	6087
477.911	5848
477.989	5778
478.066	5623
478.144	6291
478.222	5991
478.299	6994
478.377	5735
478.454	5834
478.532	6038
478.609	5857
478.687	5967
478.764	4964
478.842	5492
478.919	6267
478.997	5966
479.074	6119
479.152	5389
479.229	5824
479.307	5088
479.384	5252
479.461	5150
479.539	5296
479.616	5523
479.694	5049
479.771	6284
479.848	5341
479.926	4899
480.003	6445
480.080	5640
480.157	5375
480.235	4500
480.312	4734
480.389	6199
480.467	6500
480.544	7113
480.621	7498
480.698	6502
480.775	6505
480.853	6074
480.930	5596
481.007	4329
481.084	5899
481.161	7706
481.238	6634
481.315	5421
481.392	5525
481.470	6576
481.547	6098
481.624	5228
481.701	5131
481.778	5665
481.855	6196
481.932	7291
482.009	8972
482.086	8298
482.163	8512
482.240	9281
482.317	9881
482.393	8246
482.470	7456
482.547	6764
482.624	6292
482.701	6010
482.778	5673
482.855	6054
482.932	6321
483.009	7018
483.085	8275
483.162	8820
483.239	9279
483.316	8417
483.393	9917
483.469	7661
483.546	7482
483.623	6834
483.699	6071
483.776	4852
483.853	6683
483.930	6745
484.006	10997
484.083	15838
484.160	18201
484.236	29115
484.313	21780
484.389	16262
484.466	17425
484.543	17166
484.619	20149
484.696	21303
484.772	16699
484.849	15759
484.925	14405
485.002	13886
485.078	14075
485.155	12798
485.231	13283
485.308	12915
485.384	11932
485.461	13516
485.537	14261
485.614	16290
485.690	12233
485.766	12201
485.843	11876
485.919	13022
485.995	11984
486.072	10979
486.148	10342
486.224	10808
486.301	10575
486.377	11602
486.453	11241
486.530	12966
486.606	17610
486.682	17525
486.758	16354
486.835	16725
486.911	15225
486.987	19042
487.063	18290
487.139	18947
487.215	18434
487.292	18562
487.368	18693
487.444	21566
487.520	27836
487.596	38135
487.672	88183
487.748	266565
487.824	389120
487.900	120064
487.976	35738
488.052	21938
488.128	19233
488.204	14495
488.280	14748
488.356	13974
488.432	16764
488.508	17867
488.584	11590
488.660	10924
488.736	9203
488.812	10700
488.888	11928
488.964	12006
489.039	13774
489.115	15900
489.191	12998
489.267	11426
489.343	10689
489.418	9747
489.494	9727
489.570	7793
489.646	10703
489.722	9658
489.797	8741
489.873	11013
489.949	14600
490.024	13165
490.100	9515
490.176	8921
490.251	9350
490.327	9770
490.403	8276
490.478	8412
490.554	8144
490.629	8369
490.705	7874
490.781	9484
490.856	7472
490.932	8496
491.007	7941
491.083	8491
491.158	7995
491.234	8842
491.309	11874
491.385	10883
491.460	7352
491.536	8666
491.611	7010
491.686	7836
491.762	7152
491.837	8009
491.913	12365
491.988	12603
492.063	13111
492.139	8472
492.214	8158
492.289	7483
492.365	6768
492.440	7202
492.515	6027
492.590	7930
492.666	6313
492.741	7907
492.816	9465
492.891	7733
492.967	8857
493.042	8786
493.117	9714
493.192	13054
493.267	30317
493.342	118648
493.418	156364
493.493	18377
493.568	7535
493.643	8219
493.718	7800
493.793	7335
493.868	7383
493.943	5984
494.018	5790
494.093	6154
494.168	6756
494.243	5512
494.318	6805
494.393	6088
494.468	5541
494.543	5798
494.618	6964
494.693	5637
494.768	6545
494.842	8131
494.917	5585
494.992	6282
495.067	6556
495.142	5796
495.217	6133
495.292	5991
495.366	6955
495.441	5532
495.516	7112
495.591	7770
495.665	11757
495.740	18103
495.815	9216
495.890	6688
495.964	4381
496.039	8692
496.114	7225
496.188	8959
496.263	7844
496.338	5894
496.412	5275
496.487	6975
496.561	6478
496.636	7333
496.710	7347
496.785	6801
496.860	6887
496.934	6455
497.009	5649
497.083	6753
497.158	5905
497.232	6065
497.307	6989
497.381	7403
497.455	7356
497.530	7623
497.604	5954
497.679	7134
497.753	8511
497.827	8150
497.902	7144
497.976	9843
498.050	19970
498.125	68805
498.199	56904
498.273	9210
498.348	7374
498.422	8025
498.496	7924
498.570	8648
498.645	6290
498.719	5078
498.793	6888
498.867	9088
498.941	10498
499.016	28028
499.090	67591
499.164	19806
499.238	7347
499.312	6226
499.386	7098
499.460	6498
499.534	8794
499.609	9746
499.683	8580
499.757	7973
499.831	13355
499.905	44820
499.979	34419
500.053	7175
500.127	6992
500.201	5298
500.275	5831
500.349	6714
500.422	7564
500.496	8172
500.570	12346
500.644	29114
500.718	41341
500.792	9842
500.866	5985
500.940	5369
501.013	6228
501.087	4957
501.161	5080
501.235	5108
501.309	15908
501.382	34071
501.456	25879
501.530	8120
501.603	11116
501.677	5914
501.751	2862
501.825	6187
501.898	7490
501.972	13794
502.046	8286
502.119	4045
502.193	8258
502.266	15240
502.340	7543
502.413	8016
502.487	12851
502.561	7484
502.634	4812
502.708	4654
502.781	3373
502.855	5622
502.928	3405
503.002	3875
503.075	3159
503.149	4538
503.222	4031
503.295	4727
503.369	5096
503.442	7075
503.516	14262
503.589	25922
503.662	16759
503.736	11563
503.809	18704
503.882	18114
503.956	31632
504.029	52002
504.102	135125
504.175	188749
504.249	67092
504.322	24447
504.395	13087
504.468	8572
504.542	7033
504.615	5136
504.688	5395
504.761	3123
504.834	7042
504.907	3964
504.980	5702
505.053	3806
505.127	1727
505.200	6228
505.273	4930
505.346	3885
505.419	2610
505.492	4309
505.565	3873
505.638	4082
505.711	3123
505.784	2275
505.857	2314
505.930	3942
506.003	1760
506.076	5764
506.149	3028
506.221	2227
506.294	4543
506.367	5552
506.440	18160
506.513	8575
506.586	3157
506.659	3042
506.731	2611
506.804	2814
506.877	2646
506.950	3554
507.022	3508
507.095	2051
507.168	3016
507.241	4278
507.313	2388
507.386	1956
507.459	4080
507.531	1831
507.604	2153
507.677	3678
507.749	1464
507.822	4681
507.894	7225
507.967	8368
508.040	5813
508.112	6664
508.185	5127
508.257	3794
508.330	6740
508.402	4651
508.475	5272
508.547	4465
508.620	4508
508.692	5527
508.765	5326
508.837	4014
508.909	4289
508.982	4134
509.054	5156
509.127	3545
509.199	4545
509.271	2666
509.344	3925
509.416	4220
509.488	4609
509.560	5360
509.633	5270
509.705	5025
509.777	5671
509.849	6071
509.922	5386
509.994	5580
510.066	6766
510.138	5031
510.210	12701
510.283	8795
510.355	7661
510.427	6790
510.499	6846
510.571	6344
510.643	4614
510.715	7456
510.787	4527
510.859	7484
510.931	5954
511.003	5927
511.076	6765
511.148	5707
511.219	7218
511.291	8532
511.363	7757
511.435	6243
511.507	4977
511.579	6323
511.651	6283
511.723	5131
511.795	4965
511.867	4711
511.939	5624
512.010	5735
512.082	5829
512.154	3137
512.226	5734
512.298	8098
512.369	9601
512.441	7604
512.513	6540
512.585	4716
512.656	7087
512.728	5489
512.800	4877
512.871	5897
512.943	5524
513.015	4051
513.086	5473
513.158	5490
513.230	4564
513.301	4970
513.373	5420
513.444	5042
513.516	5401
513.588	4314
513.659	5582
513.731	5501
513.802	4471
513.874	7041
513.945	6744
514.016	4526
514.088	5878
514.159	4175
514.231	6181
514.302	7643
514.374	7761
514.445	5962
514.516	9853
514.588	5210
514.659	6162
514.730	5834
514.802	7215
514.873	3819
514.944	8284
515.016	6484
515.087	5485
515.158	6210
515.229	7864
515.301	4488
515.372	6689
515.443	4531
515.514	5351
515.585	4197
515.656	6759
515.728	6599
515.799	6107
515.870	6435
515.941	7044
516.012	6609
516.083	10870
516.154	8789
516.225	10856
516.296	14225
516.367	14201
516.438	16437
516.509	20904
516.580	35889
516.651	135484
516.722	432626
516.793	137470
516.864	30003
516.935	29195
517.006	35363
517.077	46827
517.148	121536
517.219	594676
517.289	772712
517.360	103484
517.431	28178
517.502	16411
517.573	15360
517.643	14675
517.714	16543
517.785	18299
517.856	20005
517.926	26026
517.997	31049
518.068	38597
518.138	54064
518.209	96355
518.280	394626
518.350	1220690
518.421	402305
518.492	59169
518.562	36051
518.633	36452
518.703	44847
518.774	100389
518.845	257483
518.915	216404
518.986	59338
519.056	27369
519.127	20026
519.197	18507
519.268	24926
519.338	16687
519.408	8968
519.479	7777
519.549	6230
519.620	8822
519.690	6326
519.760	6432
519.831	6033
519.901	4501
519.971	5808
520.042	4933
520.112	4490
520.182	5433
520.253	6238
520.323	4942
520.393	4021
520.463	7355
520.534	1925
520.604	7718
520.674	6338
520.744	4119
520.814	5249
520.885	6875
520.955	8345
521.025	22175
521.095	7881
521.165	5352
521.235	3823
521.305	2942
521.375	5053
521.445	4783
521.515	3272
521.585	6256
521.655	2427
521.725	4773
521.795	5111
521.865	1980
521.935	6756
522.005	3933
522.075	3765
522.145	5223
522.215	3569
522.285	4414
522.355	4483
522.424	8589
522.494	5372
522.564	5144
522.634	5494
522.704	9907
522.774	5300
522.843	4649
522.913	3863
522.983	3642
523.053	3016
523.122	4871
523.192	4016
523.262	5311
523.331	4929
523.401	4295
523.471	3375
523.540	4212
523.610	3221
523.680	3523
523.749	4206
523.819	5051
523.888	3742
523.958	2922
524.027	4080
524.097	4859
524.166	2841
524.236	2863
524.305	5966
524.375	3679
524.444	2966
524.514	6170
524.583	3527
524.653	3592
524.722	4684
524.791	3133
524.861	5552
524.930	2779
524.999	3448
525.069	5037
525.138	4502
525.207	5506
525.277	5174
525.346	5296
525.415	6239
525.484	7420
525.554	7617
525.623	11091
525.692	13905
525.761	17053
525.830	19325
525.900	27064
525.969	42223
526.038	80158
526.107	181778
526.176	508154
526.245	358996
526.314	104778
526.383	258932
526.452	324091
526.522	543975
526.591	430479
526.660	63629
526.729	41280
526.797	46823
526.867	69678
526.935	231661
527.004	871808
527.073	452887
527.142	50856
527.211	20693
527.280	15236
527.349	10632
527.418	6969
527.487	7154
527.555	5455
527.624	4440
527.693	4395
527.762	6566
527.831	4222
527.899	5770
527.968	4675
528.037	2229
528.106	4437
528.174	5544
528.243	4837
528.312	4448
528.380	5511
528.449	3073
528.518	5247
528.586	2181
528.655	4715
528.723	2927
528.792	2499
528.861	2672
528.929	2044
528.998	3892
529.066	3065
529.135	4183
529.203	3675
529.272	3753
529.340	5786
529.409	6419
529.477	3421
529.545	3839
529.614	6943
529.682	3949
529.751	5552
529.819	8241
529.887	5361
529.956	5406
530.024	6211
530.092	4102
530.161	5936
530.229	5472
530.297	5356
530.365	7353
530.434	6969
530.502	5329
530.570	5639
530.638	3769
530.707	5121
530.775	6556
530.843	4855
530.911	5816
530.979	6116
531.047	5907
531.115	5272
531.183	4620
531.252	5423
531.320	4742
531.388	4310
531.456	5410
531.524	4826
531.592	6763
531.660	8364
531.728	5325
531.796	4836
531.864	5709
531.932	5961
532.000	5795
532.067	6126
532.135	6962
532.203	8744
532.271	7607
532.339	10438
532.407	11415
532.475	8846
532.542	8724
532.610	7416
532.678	6672
532.746	12660
532.814	17070
532.881	8170
532.949	7929
533.017	6684
533.084	5179
533.152	6730
533.220	6325
533.287	6545
533.355	6391
533.423	7472
533.490	5619
533.558	6731
533.625	6911
533.693	6441
533.761	6433
533.828	7506
533.896	6373
533.963	12455
534.031	12936
534.098	12579
534.166	11632
534.233	10442
534.300	12620
534.368	12066
534.435	10993
534.503	12728
534.570	12967
534.637	14581
534.705	16277
534.772	22042
534.840	50165
534.907	236075
534.974	246366
535.041	26226
535.109	11949
535.176	8836
535.243	8660
535.310	9085
535.378	7148
535.445	8598
535.512	8216
535.579	7750
535.646	6571
535.714	8922
535.781	9995
535.848	9908
535.915	12135
535.982	11734
536.049	10981
536.116	12048
536.183	8299
536.250	8607
536.317	6762
536.384	8334
536.451	8258
536.518	8885
536.585	6686
536.652	8858
536.719	8854
536.786	5842
536.853	7492
536.920	8854
536.987	7595
537.053	6074
537.120	12861
537.187	11502
537.254	7191
537.321	7439
537.388	8651
537.454	6901
537.521	7437
537.588	7779
537.654	7991
537.721	8306
537.788	8666
537.855	7609
537.921	7611
537.988	7615
538.055	8516
538.121	6450
538.188	7289
538.254	6400
538.321	7732
538.388	7396
538.454	6923
538.521	8658
538.587	7865
538.654	7691
538.720	7373
538.787	7098
538.853	7705
538.920	7226
538.986	6342
539.053	6738
539.119	6706
539.185	5733
539.252	7567
539.318	7110
539.385	9843
539.451	7175
539.517	7723
539.583	8395
539.650	8212
539.716	9342
539.782	6928
539.849	6667
539.915	7495
539.981	6282
540.047	6293
540.114	6850
540.180	8009
540.246	6609
540.312	7772
540.378	8893
540.444	8814
540.510	8561
540.576	11352
540.643	6395
540.709	5883
540.775	7266
540.841	7102
540.907	7864
540.973	8873
541.039	7472
541.105	7935
541.171	7891
541.237	7013
541.303	8257
541.369	9575
541.435	7916
541.500	8436
541.566	6141
541.632	6375
541.698	6794
541.764	7866
541.830	6898
541.896	6527
541.961	8001
542.027	6409
542.093	8435
542.159	8190
542.224	7198
542.290	8585
542.356	7999
542.421	7505
542.487	9262
542.553	7443
542.618	5774
542.684	6011
542.750	7142
542.815	8204
542.881	7377
542.947	10613
543.012	9488
543.078	6407
543.143	6470
543.209	7485
543.274	6523
543.340	7535
543.405	8637
543.471	8363
543.536	6620
543.602	8155
543.667	6625
543.732	7940
543.798	6363
543.863	7961
543.928	7265
543.994	6170
544.059	7753
544.124	7969
544.190	6841
544.255	7816
544.320	8142
544.386	6331
544.451	8740
544.516	8014
544.581	8071
544.646	9673
544.712	11294
544.777	8789
544.842	7710
544.907	7698
544.972	8317
545.037	8728
545.102	8454
545.168	9348
545.233	10798
545.298	9352
545.363	9425
545.428	9567
545.493	10656
545.558	11166
545.623	10345
545.688	8539
545.753	10205
545.818	9826
545.883	11912
545.947	10518
546.012	11544
546.077	11665
546.142	13184
546.207	13072
546.272	13501
546.337	13588
546.401	15152
546.466	14584
546.531	14504
546.596	16875
546.661	18082
546.725	18412
546.790	18111
546.855	22043
546.919	21990
546.984	25467
547.049	26512
547.113	31499
547.178	33827
547.243	39239
547.307	45377
547.372	50269
547.436	50600
547.501	53419
547.565	56384
547.630	50802
547.695	50388
547.759	50106
547.823	51132
547.888	52157
547.952	53502
548.017	56777
548.081	58276
548.146	55814
548.210	58770
548.274	62571
548.339	60186
548.403	54836
548.468	51549
548.532	51297
548.596	53158
548.660	51633
548.725	58944
548.789	62728
548.853	61427
548.917	58124
548.982	55447
549.046	50230
549.110	44159
549.174	47902
549.238	56044
549.303	59471
549.367	62526
549.431	58687
549.495	54597
549.559	55720
549.623	66917
549.687	70141
549.751	70640
549.815	84682
549.879	84932
549.943	80879
550.007	84958
550.071	82186
550.135	73843
550.199	70520
550.263	69830
550.327	66112
550.391	68221
550.455	75327
550.519	80215
550.582	86397
550.646	96668
550.710	97692
550.774	96206
550.838	98449
550.901	100886
550.965	108268
551.029	114566
551.093	125190
551.156	139192
551.220	165577
551.284	180277
551.347	134039
551.411	110730
551.475	104964
551.538	104112
551.602	96334
551.666	89144
551.729	83953
551.793	82973
551.856	82831
551.920	81491
551.983	81008
552.047	77213
552.110	78521
552.174	78793
552.237	80657
552.301	75002
552.364	70650
552.428	70489
552.491	71942
552.554	74908
552.618	74657
552.681	77679
552.745	76229
552.808	96343
552.871	110101
552.934	87837
552.998	76558
553.061	74288
553.124	72079
553.187	71007
553.251	73423
553.314	75254
553.377	77863
553.440	92004
553.503	150144
553.567	182595
553.630	87098
553.693	77813
553.756	75359
553.819	73104
553.882	70712
553.945	71908
554.008	71792
554.071	72703
554.134	73161
554.197	67534
554.260	66492
554.323	68866
554.386	68117
554.449	72071
554.512	71972
554.575	67999
554.638	67377
554.701	65951
554.764	65732
554.827	62415
554.889	60190
554.952	57702
555.015	56330
555.078	58939
555.141	58372
555.203	56574
555.266	56679
555.329	56455
555.391	53154
555.454	54475
555.517	51321
555.580	50534
555.642	47879
555.705	47351
555.768	47297
555.830	45989
555.893	43498
555.955	41894
556.018	41272
556.080	41905
556.143	43519
556.206	42192
556.268	41063
556.330	40042
556.393	40197
556.455	38739
556.518	37676
556.580	36822
556.643	34688
556.705	33479
556.767	32586
556.830	34698
556.892	33690
556.955	33480
557.017	31016
557.079	30950
557.142	29961
557.204	31450
557.266	32479
557.328	28889
557.391	26127
557.453	26793
557.515	27165
557.577	28110
557.639	28712
557.701	29099
557.764	28415
557.826	29966
557.888	33336
557.950	34681
558.012	41207
558.074	59259
558.136	149518
558.198	323142
558.260	97921
558.322	40098
558.384	41218
558.446	42920
558.508	49341
558.570	57630
558.632	69459
558.694	97228
558.756	176373
558.818	535010
558.880	1039508
558.942	355753
559.003	352611
559.065	147004
559.127	59791
559.189	57878
559.251	68721
559.312	110230
559.374	278993
559.436	787571
559.498	325193
559.559	69575
559.621	58786
559.683	73242
559.744	130136
559.806	424927
559.868	534209
559.929	98742
559.991	66133
560.052	119357
560.114	330045
560.176	184859
560.237	193842
560.299	272934
560.360	50685
560.422	20944
560.483	17166
560.545	16053
560.606	13933
560.667	12947
560.729	12383
560.790	12756
560.852	11965
560.913	11410
560.974	10783
561.036	11001
561.097	10843
561.158	11575
561.220	10173
561.281	9752
561.342	9822
561.403	10164
561.465	8699
561.526	11054
561.587	11997
561.648	8511
561.709	9224
561.771	9114
561.832	8932
561.893	8216
561.954	7893
562.015	8517
562.076	8416
562.137	7765
562.198	7878
562.259	7825
562.320	7597
562.381	7402
562.442	8691
562.503	7624
562.564	8312
562.625	7509
562.686	6753
562.747	7827
562.808	6547
562.869	7454
562.930	6797
562.991	7198
563.051	7130
563.112	7249
563.173	7047
563.234	6226
563.294	7583
563.355	6241
563.416	6580
563.477	6980
563.537	7289
563.598	6635
563.659	7006
563.720	6238
563.780	7040
563.841	7213
563.901	7070
563.962	6296
564.023	6071
564.083	7037
564.144	5590
564.204	6227
564.265	5770
564.325	7271
564.386	8008
564.446	7618
564.507	6247
564.567	6226
564.628	5490
564.688	6054
564.749	5448
564.809	6561
564.869	6464
564.930	6087
564.990	6078
565.050	5113
565.111	5871
565.171	6831
565.231	5546
565.292	7100
565.352	5374
565.412	6043
565.472	6070
565.532	6064
565.593	5439
565.653	5573
565.713	5491
565.773	6134
565.833	6188
565.893	6890
565.953	5636
566.013	5399
566.074	5794
566.134	6129
566.194	5896
566.254	7215
566.314	5729
566.374	5531
566.434	5772
566.494	5971
566.554	5543
566.614	6161
566.673	5499
566.733	6957
566.793	6170
566.853	6030
566.913	7054
566.973	6005
567.033	6361
567.092	5767
567.152	5371
567.212	6373
567.272	6336
567.331	6907
567.391	6960
567.451	7573
567.511	7861
567.570	6405
567.630	6298
567.690	5851
567.749	5897
567.809	6246
567.868	6612
567.928	6453
567.988	6448
568.047	6052
568.107	7411
568.166	7125
568.226	8557
568.285	8899
568.345	8115
568.404	9179
568.464	8406
568.523	7404
568.582	7475
568.642	7222
568.701	7657
568.761	9183
568.820	9552
568.879	10853
568.939	9713
568.998	8644
569.057	7952
569.116	7654
569.176	7041
569.235	7180
569.294	7396
569.353	6470
569.413	6302
569.472	5997
569.531	6531
569.590	5960
569.649	6380
569.708	5576
569.767	6127
569.827	5943
569.886	5620
569.945	5846
570.004	6233
570.063	5484
570.122	5768
570.181	6452
570.240	5844
570.299	6222
570.358	6629
570.417	5907
570.475	6343
570.534	6196
570.593	6058
570.652	6649
570.711	6632
570.770	6727
570.829	6147
570.887	6630
570.946	5901
571.005	6927
571.064	7863
571.122	8013
571.181	7676
571.240	7141
571.299	5162
571.357	6698
571.416	6146
571.475	5589
571.533	5380
571.592	6914
571.650	6951
571.709	7113
571.768	8365
571.826	7777
571.885	7813
571.943	7622
572.002	5754
572.060	6851
572.119	5794
572.177	6328
572.236	5722
572.294	6270
572.352	7465
572.411	6924
572.469	6685
572.528	6496
572.586	6339
572.644	6644
572.703	5781
572.761	5265
572.819	5952
572.877	5102
572.936	5800
572.994	6033
573.052	6053
573.110	4948
573.169	6076
573.227	6007
573.285	6991
573.343	6502
573.401	5470
573.459	5292
573.517	5809
573.576	6924
573.634	6735
573.692	6182
573.750	7489
573.808	4839
573.866	6161
573.924	5929
573.982	5959
574.040	6238
574.098	6202
574.155	5481
574.213	6403
574.271	5599
574.329	6707
574.387	5652
574.445	4365
574.503	5514
574.560	5279
574.618	5124
574.676	5763
574.734	4729
574.792	5155
574.849	5324
574.907	3925
574.965	4619
575.022	3599
575.080	4360
575.138	4801
575.195	5040
575.253	2936
575.311	4733
575.368	4173
575.426	4140
575.483	5029
575.541	4397
575.598	4178
575.656	4561
575.713	5478
575.771	5357
575.828	4121
575.886	3815
575.943	4367
576.001	4120
576.058	3621
576.115	4003
576.173	4822
576.230	4774
576.287	4637
576.345	4739
576.402	4338
576.459	6685
576.517	5022
576.574	4256
576.631	4335
576.688	4810
576.746	3544
576.803	4538
576.860	3704
576.917	4518
576.974	4661
577.031	4155
577.089	4690
577.146	3993
577.203	3266
577.260	4505
577.317	4858
577.374	4662
577.431	3864
577.488	4335
577.545	4438
577.602	4133
577.659	4908
577.716	6238
577.773	7143
577.830	6492
577.886	5824
577.943	5218
578.000	5160
578.057	6207
578.114	7326
578.171	9720
578.227	12597
578.284	11907
578.341	10050
578.398	7086
578.454	6463
578.511	5573
578.568	5965
578.625	4596
578.681	4987
578.738	4429
578.794	4292
578.851	4297
578.908	4725
578.964	5358
579.021	4412
579.077	4572
579.134	4344
579.190	5135
579.247	4866
579.303	4891
579.360	3796
579.416	4766
579.473	4392
579.529	3541
579.586	4540
579.642	5947
579.698	5410
579.755	6363
579.811	7159
579.867	6583
579.924	6296
579.980	7972
580.036	9954
580.093	13686
580.149	21040
580.205	23578
580.261	16265
580.317	12613
580.374	10150
580.430	8669
580.486	7542
580.542	6735
580.598	6113
580.619	6379
580.654	6843
580.692	6078
580.710	5710
580.765	6227
580.767	6248
580.823	6367
580.838	6397
580.879	6494
580.911	6284
580.935	6146
580.984	5893
580.991	5860
581.047	6837
581.057	6893
581.103	7225
581.130	7589
581.159	7947
581.203	9184
581.215	9518
581.270	8676
581.276	8448
581.326	6304
581.349	6471
581.382	6710
581.422	7080
581.438	7247
581.494	5463
581.494	5458
581.550	5114
581.567	5516
581.606	6400
581.640	5326
581.661	4658
581.713	6527
581.717	6677
581.773	5658
581.786	5613
581.829	5467
581.859	5323
581.885	5224
581.932	5605
581.940	5679
581.996	6226
582.004	6191
582.052	5861
582.077	5743
582.107	5650
582.150	5592
582.163	5576
582.219	5726
582.223	5663
582.274	5136
582.296	5424
582.330	5704
582.368	6068
582.386	6306
582.441	6589
582.441	6589
582.497	5998
582.514	6371
582.552	7483
582.587	8309
582.608	8634
582.659	7146
582.663	7048
582.719	6967
582.732	6902
582.774	6690
582.805	6763
582.830	6764
582.877	7084
582.885	7180
582.941	7265
582.950	7553
582.996	8807
583.023	8888
583.052	9278
583.095	11074
583.107	11521
583.162	13996
583.168	14112
583.218	14565
583.240	13643
583.273	12340
583.313	10705
583.328	10160
583.384	10130
583.385	10076
583.439	8156
583.458	7777
583.494	7258
583.531	6990
583.549	6898
583.603	6983
583.605	6978
583.660	7303
583.676	7117
583.715	6865
583.748	7475
583.770	7788
583.820	7145
583.825	7096
583.881	7214
583.893	7140
583.936	6915
583.965	6860
583.991	6647
584.038	6541
584.046	6604
584.101	6621
584.110	6692
584.156	6904
584.183	7235
584.211	7428
584.255	7079
584.266	7078
584.321	7636
584.328	7571
584.376	6832
584.400	7209
584.431	7867
584.472	7732
584.486	7586
584.541	7536
584.545	7560
584.596	8178
584.617	8165
584.651	8503
584.689	9082
584.706	9064
584.761	9029
584.762	9027
584.816	9337
584.834	9617
584.871	10265
584.906	10527
584.926	10556
584.978	11778
584.980	11847
585.035	13079
585.051	13457
585.090	14569
585.123	15934
585.145	16754
585.195	18966
585.200	19319
585.254	24530
585.267	25782
585.309	30098
585.340	34314
585.364	37100
585.412	40146
585.419	40724
585.473	48322
585.484	51205
585.528	68820
585.556	86299
585.583	121223
585.628	200776
585.637	229422
585.692	469171
585.700	508053
585.747	631497
585.772	546755
585.801	346935
585.845	119151
585.856	92157
585.910	43218
585.917	38650
585.965	28142
585.989	24520
586.019	21935
586.061	19153
586.074	18524
586.128	16550
586.133	16479
586.183	16381
586.205	15896
586.237	15111
586.277	14407
586.292	14277
586.346	14005
586.349	13988
586.401	13728
586.421	13526
586.455	13201
586.493	13742
586.509	14248
586.564	14117
586.565	14151
586.618	17256
586.637	17978
586.672	18912
586.709	20423
586.727	21324
586.781	23669
586.781	23679
586.835	17955
586.853	16536
586.889	14939
586.925	13731
586.944	13543
586.996	13159
586.998	13160
587.052	13336
587.068	13079
587.106	12675
587.140	12589
587.161	12679
587.212	13498
587.215	13533
587.269	13441
587.284	13529
587.323	14021
587.356	14115
587.377	14318
587.427	15180
587.431	15225
587.485	15179
587.499	15170
587.539	15552
587.571	15948
587.593	16224
587.643	17169
587.648	17245
587.702	17518
587.715	17403
587.755	17267
587.786	17851
587.810	18170
587.858	17789
587.864	17863
587.917	19152
587.930	19407
587.971	19947
588.001	20099
588.025	20282
588.073	21033
588.079	21191
588.133	22458
588.145	22694
588.187	23524
588.217	24360
588.241	25239
588.288	26689
588.295	27027
588.348	30235
588.360	30974
588.402	33518
588.431	35028
588.456	36851
588.503	41571
588.510	42190
588.564	46696
588.575	47934
588.617	54118
588.646	58786
588.671	63770
588.718	76216
588.725	79622
588.778	111334
588.789	119917
588.832	197221
588.861	259527
588.886	364097
588.932	590033
588.939	607477
588.993	690126
589.004	683498
589.047	406026
589.075	233870
589.100	170375
589.147	89174
589.154	85876
589.207	68971
589.218	66298
589.261	64862
589.290	65321
589.314	68760
589.361	77939
589.368	82319
589.421	125294
589.433	136328
589.475	247350
589.504	337336
589.528	430391
589.576	609430
589.582	591328
589.635	322576
589.647	267552
589.689	138432
589.718	66021
589.742	55684
589.790	39619
589.795	38854
589.849	33108
589.861	31955
589.902	29958
589.932	28334
589.955	27319
590.004	25336
590.009	25203
590.062	23834
590.075	23390
590.115	22760
590.146	22442
590.168	22482
590.218	22265
590.222	22241
590.275	21810
590.289	21586
590.328	21895
590.360	22230
590.381	22628
590.431	23326
590.435	23321
590.488	22601
590.503	22326
590.541	22427
590.574	22584
590.594	22654
590.645	22855
590.647	22931
590.700	23647
590.716	23896
590.753	24117
590.787	24149
590.806	24346
590.859	24866
590.859	24919
590.912	25478
590.930	25512
590.965	25673
591.001	25794
591.018	25733
591.071	25387
591.072	25334
591.124	25319
591.143	25228
591.177	25274
591.214	25413
591.230	25604
591.283	25841
591.285	25800
591.336	25653
591.356	25564
591.389	26025
591.427	26408
591.442	26111
591.495	24782
591.498	24637
591.547	25528
591.569	25890
591.600	26075
591.640	26239
591.653	26480
591.706	27169
591.711	27189
591.759	27429
591.782	27505
591.811	28246
591.853	29148
591.864	29266
591.917	29493
591.924	29474
591.969	29247
591.995	29000
592.022	29258
592.066	29528
592.075	29649
592.127	30015
592.137	30029
592.180	31218
592.208	31880
592.233	32083
592.279	32257
592.285	32397
592.338	33056
592.350	33119
592.390	32821
592.421	32506
592.443	33155
592.491	34376
592.495	34433
592.548	34216
592.562	34088
592.600	34369
592.633	34490
592.653	34427
592.704	33894
592.705	34101
592.775	34729
592.846	36883
592.916	35544
592.987	35854
593.058	37085
593.128	37977
593.199	37716
593.270	38867
593.341	38402
593.411	40073
593.482	41332
593.553	41814
593.623	43913
593.694	44222
593.764	45504
593.835	44325
593.906	45336
593.976	45612
594.047	48835
594.117	49418
594.188	51223
594.258	51441
594.329	50680
594.399	51846
594.470	53768
594.540	54799
594.611	55703
594.681	56371
594.751	56263
594.822	59418
594.892	61330
594.963	61617
595.033	64380
595.103	66086
595.174	67349
595.244	70126
595.314	71991
595.384	72290
595.455	75125
595.525	76820
595.595	79391
595.665	79118
595.736	77788
595.806	78836
595.876	80925
595.946	82037
596.016	84252
596.087	88185
596.157	87046
596.227	88227
596.297	92359
596.367	99045
596.437	106372
596.507	104326
596.577	104425
596.647	107324
596.717	113519
596.787	115542
596.857	115942
596.927	116493
596.997	116300
597.067	119983
597.137	123614
597.207	122297
597.277	122313
597.347	116741
597.417	112540
597.487	113903
597.557	116855
597.626	118930
597.696	120994
597.766	120363
597.836	113347
597.906	106823
597.975	104064
598.045	106501
598.115	112269
598.185	120326
598.254	136198
598.324	144803
598.394	149443
598.464	143944
598.533	143283
598.603	132573
598.672	128718
598.742	132057
598.812	132279
598.881	137105
598.951	137306
599.020	137596
599.090	143179
599.159	144344
599.229	138706
599.299	136884
599.368	141064
599.437	140041
599.507	126912
599.576	123388
599.646	124571
599.715	122712
599.785	119176
599.854	116084
599.924	113656
599.993	112502
600.062	117539
600.132	119284
600.201	126085
600.270	147970
600.340	156361
600.409	154073
600.478	152288
600.547	156465
600.617	140239
600.686	111238
600.755	102565
600.824	97609
600.894	95521
600.963	97569
601.032	95217
601.101	93236
601.170	88377
601.239	84488
601.308	86949
601.378	87769
601.447	88183
601.516	87766
601.585	89598
601.654	90840
601.723	91712
601.792	95513
601.861	99052
601.930	105470
601.999	103319
602.068	101626
602.137	102593
602.206	104442
602.275	105841
602.343	107376
602.412	108450
602.481	108542
602.550	109853
602.619	114439
602.688	115153
602.756	116069
602.825	117162
602.894	121548
602.963	120682
603.032	122935
603.100	124126
603.169	123183
603.238	126179
603.307	124233
603.375	125563
603.444	129730
603.513	130497
603.581	132098
603.650	135050
603.719	127969
603.787	130806
603.856	135513
603.924	139885
603.993	145359
604.061	151818
604.130	157091
604.198	160094
604.267	161834
604.335	164414
604.404	169385
604.472	172154
604.541	173847
604.609	176425
604.678	177403
604.746	177609
604.815	185103
604.883	184677
604.951	183979
605.020	188181
605.088	190531
605.156	192559
605.225	194870
605.293	195749
605.361	194773
605.429	197045
605.498	202933
605.566	208472
605.634	220024
605.702	224048
605.771	229940
605.839	232712
605.907	227003
605.975	218215
606.043	212433
606.111	214279
606.180	216213
606.248	215301
606.316	215778
606.384	209545
606.452	207158
606.520	209989
606.588	218474
606.656	219135
606.724	215133
606.792	200833
606.860	179926
606.928	163478
606.996	157158
607.064	154354
607.132	157553
607.200	169304
607.267	177708
607.335	179001
607.403	183923
607.471	176158
607.539	171681
607.607	172045
607.674	150418
607.742	151105
607.810	149827
607.878	150565
607.946	154493
608.013	162246
608.081	165469
608.149	167490
608.216	172626
608.284	178370
608.352	179215
608.419	176722
608.487	172019
608.555	169465
608.622	174129
608.690	186619
608.757	207306
608.825	209215
608.893	203263
608.960	191069
609.028	181550
609.095	185501
609.163	182084
609.230	161139
609.298	147702
609.365	156546
609.432	171056
609.500	184340
609.567	215102
609.635	246894
609.702	261024
609.769	246030
609.837	186927
609.904	164089
609.971	170157
610.039	193551
610.106	259967
610.173	499877
610.241	1091913
610.308	578901
610.375	218426
610.442	182366
610.509	170819
610.577	168617
610.644	171979
610.711	177872
610.778	181621
610.845	191321
610.912	205327
610.980	216967
611.047	224604
611.114	209935
611.181	199804
611.248	201671
611.315	212785
611.382	216834
611.449	226135
611.516	227973
611.583	225236
611.650	227367
611.717	230606
611.784	235195
611.851	246799
611.918	262654
611.984	308662
612.051	436778
612.118	840609
612.185	1783382
612.252	1114686
612.319	390003
612.386	313119
612.452	279847
612.519	262555
612.586	257727
612.653	260009
612.719	269890
612.786	259420
612.853	238617
612.919	234558
612.986	237855
613.053	221572
613.120	209403
613.186	198917
613.253	202324
613.319	203000
613.386	204321
613.453	208837
613.519	208332
613.586	205049
613.652	207267
613.719	202070
613.785	209537
613.852	210061
613.918	209768
613.985	215652
614.051	236299
614.118	265996
614.184	250310
614.250	213835
614.317	212191
614.383	211486
614.449	215960
614.516	211743
614.582	213944
614.648	209386
614.715	207747
614.781	203389
614.847	202273
614.914	202657
614.980	197095
615.046	195750
615.112	203157
615.179	204882
615.245	208133
615.311	204274
615.377	208491
615.443	210161
615.509	215303
615.575	221876
615.642	218601
615.708	226030
615.774	235488
615.840	251190
615.906	270780
615.972	330360
616.038	494459
616.104	986506
616.170	1972441
616.236	1588193
616.302	552754
616.368	418780
616.434	301527
616.500	274665
616.565	308395
616.631	386043
616.697	314752
616.763	325901
616.829	502596
616.895	886382
616.961	812204
617.026	351499
617.092	241275
617.158	224661
617.224	214743
617.289	197465
617.355	187329
617.421	185456
617.487	185036
617.552	174660
617.618	173674
617.684	173152
617.749	174351
617.815	163931
617.880	161157
617.946	161969
618.012	165924
618.077	169304
618.143	160516
618.208	162790
618.274	176688
618.339	176370
618.405	144492
618.470	143977
618.536	145492
618.601	140913
618.667	130017
618.732	123920
618.798	122277
618.863	120281
618.928	120010
618.994	120877
619.059	119403
619.124	122102
619.190	120182
619.255	118801
619.320	120222
619.386	121876
619.451	118818
619.516	113369
619.581	116942
619.647	120772
619.712	118137
619.777	114838
619.842	115713
619.907	118887
619.972	120941
620.038	119549
620.103	116559
620.168	115476
620.233	118673
620.298	120228
620.363	119365
620.428	125110
620.493	128145
620.558	128396
620.623	130320
620.688	129938
620.753	128645
620.818	133102
620.883	131468
620.948	131669
621.013	129839
621.078	127244
621.143	129077
621.207	131084
621.272	128726
621.337	122636
621.402	124336
621.467	122064
621.532	120985
621.596	121693
621.661	118309
621.726	118229
621.791	118870
621.855	118553
621.920	119004
621.985	119661
622.049	121963
622.114	121985
622.179	124666
622.243	126494
622.308	132183
622.373	137526
622.437	134122
622.502	124402
622.566	124719
622.631	122987
622.695	126841
622.760	124821
622.824	125805
622.889	126468
622.953	125980
623.018	135189
623.082	134726
623.147	133288
623.211	129636
623.276	131094
623.340	125498
623.404	121495
623.469	120839
623.533	124035
623.597	119402
623.662	117611
623.726	108639
623.790	102456
623.854	98971
623.919	101509
623.983	103872
624.047	105259
624.111	106530
624.176	108914
624.240	109641
624.304	113041
624.368	108072
624.432	109714
624.496	111613
624.560	118530
624.625	118722
624.689	119000
624.753	126019
624.817	117435
624.881	114862
624.945	103329
625.009	99030
625.073	101668
625.137	104377
625.201	110504
625.265	110209
625.329	104590
625.393	105569
625.456	107778
625.520	111516
625.584	113094
625.648	116039
625.712	121097
625.776	123207
625.839	117409
625.903	94905
625.967	87244
626.031	95469
626.095	117397
626.158	103662
626.222	79813
626.286	75519
626.349	71006
626.413	65576
626.477	67838
626.540	68443
626.604	66330
626.668	66228
626.731	63807
626.795	66002
626.858	65829
626.922	63763
626.986	63913
627.049	62746
627.113	67585
627.176	64510
627.240	63036
627.303	62349
627.366	62637
627.430	63767
627.493	62440
627.557	60625
627.620	65224
627.684	66699
627.747	65642
627.810	59374
627.874	55315
627.937	51640
628.000	57236
628.064	52769
628.127	46744
628.190	46735
628.253	45139
628.317	42833
628.380	41335
628.443	39682
628.506	39988
628.569	38196
628.632	35622
628.696	37033
628.759	35519
628.822	34512
628.885	34089
628.948	32261
629.011	33573
629.074	31572
629.137	30925
629.200	29831
629.263	30726
629.326	29247
629.389	29872
629.452	29631
629.515	29596
629.578	28380
629.641	29466
629.704	29168
629.767	29128
629.830	28090
629.892	27547
629.955	28230
630.018	29346
630.081	26328
630.144	28751
630.207	25761
630.269	29622
630.332	26041
630.395	27249
630.458	25892
630.520	23836
630.583	25639
630.646	26522
630.708	25519
630.771	26413
630.834	29158
630.896	27973
630.959	27673
631.021	26393
631.084	27197
631.146	28124
631.209	27853
631.272	27807
631.334	28957
631.397	28878
631.459	29012
631.522	31125
631.584	32482
631.646	35654
631.709	36319
631.771	36060
631.834	34887
631.896	33689
631.958	30439
632.021	29496
632.083	27564
632.145	27506
632.208	26413
632.270	27184
632.332	26169
632.395	25843
632.457	26051
632.519	25287
632.581	27107
632.643	25190
632.706	26774
632.768	23665
632.830	26098
632.892	26286
632.954	24991
633.016	27230
633.078	25583
633.141	25254
633.203	25608
633.265	25862
633.327	26474
633.389	26379
633.451	26162
633.513	25753
633.575	27330
633.637	26274
633.698	27362
633.760	28978
633.822	29942
633.884	31504
633.946	33089
634.008	33775
634.070	35944
634.132	40126
634.193	42351
634.255	46872
634.317	45903
634.379	46642
634.441	40232
634.502	35425
634.564	31927
634.626	30051
634.687	28283
634.749	27069
634.811	26165
634.873	25687
634.934	26318
634.996	26450
635.057	25704
635.119	25480
635.181	26931
635.242	28256
635.304	25436
635.365	28659
635.427	26347
635.488	27185
635.550	25991
635.611	28130
635.673	25756
635.734	31273
635.796	31239
635.857	35936
635.918	38262
635.980	44065
636.041	46109
636.102	52122
636.164	52123
636.225	48402
636.286	38926
636.348	36291
636.409	32080
636.470	28210
636.531	28022
636.593	26662
636.654	26565
636.715	24374
636.776	24152
636.838	23043
636.899	23961
636.960	21307
637.021	21822
637.082	21810
637.143	20666
637.204	20104
637.265	20596
637.326	21430
637.387	20936
637.448	19418
637.509	21529
637.570	20763
637.631	22407
637.692	18632
637.753	18639
637.814	19572
637.875	19456
637.936	19644
637.997	18836
638.058	18502
638.119	19169
638.179	19618
638.240	18412
638.301	19683
638.362	17638
638.423	17653
638.483	18828
638.544	16188
638.605	18361
638.666	16908
638.726	17545
638.787	18362
638.848	18320
638.908	17475
638.969	16704
639.030	16151
639.090	15665
639.151	16219
639.211	16835
639.272	16875
639.332	17721
639.393	18984
639.453	19668
639.514	20824
639.574	18013
639.635	14544
639.695	16377
639.756	15339
639.816	16754
639.877	15400
639.937	16219
639.997	16498
640.058	13858
640.118	14409
640.178	15785
640.239	14870
640.299	15899
640.359	15651
640.420	18129
640.480	21105
640.540	24341
640.600	23688
640.661	20281
640.721	18641
640.781	19888
640.841	16191
640.901	16260
640.961	15974
641.021	17058
641.082	18798
641.142	15845
641.202	15517
641.262	12701
641.322	15082
641.382	13687
641.442	14822
641.502	13946
641.562	14926
641.622	14517
641.682	17648
641.742	20710
641.802	18442
641.861	15427
641.921	13583
641.981	14825
642.041	14150
642.101	12441
642.161	11464
642.221	12546
642.280	13118
642.340	14134
642.400	13824
642.460	14716
642.519	13817
642.579	14226
642.639	14683
642.698	11347
642.758	16337
642.818	15149
642.877	13949
642.937	13904
642.997	14126
643.056	14875
643.116	13255
643.175	16254
643.235	15781
643.294	16414
643.354	17953
643.414	20223
643.473	23395
643.532	29091
643.592	42087
643.651	67297
643.711	121826
643.770	243887
643.830	597535
643.889	1060061
643.948	261341
644.008	58975
644.067	34515
644.126	25529
644.186	22298
644.245	20212
644.304	16161
644.363	18111
644.423	14573
644.482	16867
644.541	17430
644.600	16632
644.659	24013
644.719	31921
644.778	51259
644.837	92123
644.896	202888
644.955	439069
645.014	121665
645.073	31567
645.132	21144
645.191	18862
645.250	18122
645.309	19691
645.368	22486
645.427	31219
645.486	58853
645.545	97254
645.604	25710
645.663	17350
645.722	16069
645.781	18861
645.840	21313
645.898	27002
645.957	39696
646.016	63680
646.075	119153
646.134	238523
646.192	642803
646.251	791505
646.310	129536
646.369	42876
646.427	34045
646.486	23594
646.545	18519
646.603	16580
646.662	15902
646.721	15392
646.779	14714
646.838	15773
646.896	21987
646.955	31678
647.014	54187
647.072	112826
647.131	302885
647.189	119010
647.248	19565
647.306	14758
647.365	12935
647.423	10012
647.481	12827
647.540	9467
647.598	10143
647.657	10690
647.715	11962
647.773	8947
647.832	9673
647.890	7752
647.948	8954
648.007	9114
648.065	8058
648.123	8598
648.181	11063
648.240	11687
648.298	10286
648.356	8046
648.414	8539
648.472	8776
648.531	8509
648.589	7970
648.647	7725
648.705	8268
648.763	8457
648.821	9519
648.879	8439
648.937	11660
648.995	14683
649.053	19259
649.111	32381
649.169	54565
649.227	105257
649.285	231656
649.343	616288
649.401	243087
649.459	36827
649.516	24086
649.574	22608
649.632	40506
649.690	42350
649.748	29505
649.806	47125
649.863	87694
649.921	221313
649.979	120634
650.037	18517
650.094	9255
650.152	9395
650.210	7542
650.268	8002
650.325	7277
650.383	7859
650.440	6233
650.498	6700
650.556	7026
650.613	5583
650.671	7437
650.728	6209
650.786	7359
650.843	10689
650.901	5952
650.958	6308
651.016	5868
651.073	5505
651.131	4129
651.188	4098
651.246	4998
651.303	4147
651.360	4785
651.418	4453
651.475	5092
651.532	4339
651.590	4375
651.647	4949
651.704	4204
651.762	4229
651.819	4656
651.876	4506
651.933	4034
651.990	5425
652.048	3529
652.105	4222
652.162	3894
652.219	3811
652.276	3562
652.333	4773
652.390	3724
652.448	4348
652.505	4486
652.562	4646
652.619	6058
652.676	9213
652.733	8646
652.790	3780
652.847	2715
652.904	4091
652.961	2334
653.017	3320
653.074	4868
653.131	3464
653.188	3348
653.245	3373
653.302	3410
653.359	3656
653.415	3816
653.472	2986
653.529	4029
653.586	3251
653.642	3372
653.699	5026
653.756	3670
653.813	3364
653.869	3947
653.926	3025
653.983	2339
654.039	4564
654.096	2917
654.152	4309
654.209	2479
654.266	3549
654.322	2638
654.379	3928
654.435	3419
654.492	3017
654.548	3667
654.605	3196
654.661	3224
654.717	3568
654.774	3786
654.830	3501
654.887	3233
654.943	3469
655.000	3898
655.056	4118
655.112	3258
655.168	2717
655.225	3428
655.281	3663
655.337	3253
655.394	3022
655.450	3312
655.506	2544
655.562	3542
655.618	4249
655.675	2325
655.731	3863
655.787	3462
655.843	4455
655.899	2952
655.955	4343
656.011	4357
656.067	3491
656.123	4398
656.179	4637
656.235	5738
656.291	4091
656.347	5150
656.403	4525
656.459	4779
656.515	3477
656.571	4145
656.627	3644
656.683	2532
656.739	3547
656.795	3843
656.850	3081
656.906	3388
656.962	4947
657.018	3928
657.074	5050
657.129	6724
657.185	12345
657.241	28551
657.297	13125
657.352	2844
657.408	2370
657.464	3296
657.519	2495
657.575	2098
657.630	2527
657.686	2395
657.742	2129
657.797	2557
657.853	2605
657.908	2654
657.964	1244
658.019	2256
658.075	2681
658.130	2402
658.186	1868
658.241	2798
658.297	774
658.352	2002
658.407	2635
658.463	1814
658.518	2787
658.573	2398
658.629	1327
658.684	2492
658.739	2357
658.795	2271
658.850	2205
658.905	1705
658.960	2599
659.016	1197
659.071	1986
659.126	1650
659.181	1589
659.236	3108
659.291	3201
659.346	2233
659.401	3154
659.457	5128
659.512	7098
659.567	4057
659.622	1859
659.677	2655
659.732	1435
659.787	1952
659.842	1459
659.897	1924
659.952	2169
660.007	2399
660.061	1977
660.116	1691
660.171	1768
660.226	1383
660.281	2631
660.336	1198
660.391	3306
660.445	931
660.500	2323
660.555	1031
660.610	1654
660.664	2618
660.719	1293
660.774	1460
660.828	2149
660.883	1546
660.938	2280
660.992	624
661.047	1838
661.101	1390
661.156	1905
661.211	1197
661.265	1989
661.320	1089
661.374	2077
661.429	1465
661.483	2392
661.538	1077
661.592	1841
661.647	2161
661.701	2049
661.755	1064
661.810	1967
661.864	1734
661.919	1348
661.973	1957
662.027	967
662.081	704
662.136	1104
662.190	1826
662.244	2466
662.299	729
662.353	2363
662.407	1082
662.461	1543
662.515	2069
662.569	1744
662.624	2559
662.678	1261
662.732	1531
662.786	1142
662.840	1122
662.894	1834
662.948	1246
663.002	2254
663.056	1364
663.110	1118
663.164	2095
663.218	1945
663.272	2417
663.326	1867
663.380	1252
663.434	2100
663.488	1288
663.542	1747
663.595	1923
663.649	1444
663.703	1773
663.757	1234
663.811	1757
663.864	1768
663.918	2666
663.972	1969
664.026	1266
664.079	965
664.133	2265
664.187	1620
664.240	2045
664.294	2576
664.348	1982
664.401	1387
664.455	1132
664.508	1294
664.562	1238
664.615	2361
664.669	1560
664.722	1751
664.776	1454
664.829	1576
664.883	1501
664.936	1011
664.990	1496
665.043	2553
665.097	1981
665.150	2182
665.203	1677
665.257	1431
665.310	1849
665.363	1350
665.417	1595
665.470	2119
665.523	2273
665.576	1972
665.630	1641
665.683	2232
665.736	1948
665.789	1401
665.842	1623
665.895	1699
665.949	2114
666.002	2448
666.055	1699
666.108	2685
666.161	2091
666.214	2510
666.267	1897
666.320	2600
666.373	2197
666.426	2554
666.479	2190
666.532	2525
666.585	2757
666.638	2086
666.691	2460
666.744	3045
666.796	1227
666.849	1703
666.902	2017
666.955	1634
667.008	1568
667.060	1265
667.113	1058
667.166	1485
667.219	2131
667.271	2625
667.324	2084
667.377	2237
667.430	1839
667.482	3981
667.535	2030
667.587	2473
667.640	2099
667.693	1506
667.745	1706
667.798	1918
667.850	1612
667.903	2188
667.955	1624
668.008	2053
668.060	2357
668.113	751
668.165	1812
668.218	1828
668.270	2075
668.322	1321
668.375	2035
668.427	2063
668.479	868
668.532	2008
668.584	1889
668.636	1809
668.689	1722
668.741	1646
668.793	1303
668.845	2616
668.898	1434
668.950	1769
669.002	1293
669.054	1992
669.106	1573
669.158	2349
669.211	1476
669.263	2423
669.315	2886
669.367	3411
669.419	1585
669.471	2521
669.523	1776
669.575	2972
669.627	1746
669.679	1587
669.731	1759
669.783	1893
669.835	1929
669.886	1431
669.938	2159
669.990	1808
670.042	357
670.094	1622
670.146	960
670.197	1446
670.249	1771
670.301	1680
670.353	2597
670.404	2614
670.456	3228
670.508	5809
670.560	9811
670.611	15955
670.663	28224
670.715	75255
670.766	99962
670.818	20157
670.869	4846
670.921	3773
670.972	3275
671.024	1756
671.075	2567
671.127	1695
671.178	1835
671.230	3039
671.281	2987
671.333	4099
671.384	4684
671.436	6134
671.487	9700
671.538	14787
671.590	24767
671.641	42792
671.692	79480
671.744	143535
671.795	88238
671.846	29294
671.897	13846
671.949	7629
672.000	6724
672.051	4995
672.102	3999
672.153	2536
672.204	2277
672.256	2494
672.307	3016
672.358	2176
672.409	1761
672.460	1510
672.511	618
672.562	1749
672.613	1486
672.664	1071
672.715	1536
672.766	1240
672.817	702
672.868	746
672.919	1109
672.970	490
673.021	218
673.071	345
673.122	1469
673.173	1011
673.224	749
673.275	680
673.326	917
673.376	1105
673.427	1281
673.478	853
673.528	1944
673.579	856
673.630	975
673.680	1604
673.731	1241
673.782	689
673.832	1092
673.883	1346
673.934	1140
673.984	682
674.035	1084
674.085	968
674.136	1699
674.186	1222
674.237	1196
674.287	1411
674.338	971
674.388	333
674.438	1699
674.489	1816
674.539	1318
674.589	1816
674.640	1356
674.690	1223
674.740	1625
674.791	1134
674.841	1348
674.891	1240
674.942	977
674.992	1185
675.042	-2
675.092	1490
675.142	-129
675.193	594
675.243	546
675.293	1290
675.343	907
675.393	370
675.443	1324
675.493	881
675.543	1081
675.593	213
675.643	450
675.693	851
675.743	665
675.793	821
675.843	-94
675.893	-70
675.943	1646
675.993	939
676.043	542
676.093	1159
676.142	393
676.192	691
676.242	1219
676.292	264
676.341	73
676.391	-319
676.441	442
676.491	-292
676.540	-351
676.590	662
676.640	796
676.689	647
676.739	-242
676.789	-114
676.838	1175
676.888	541
676.937	-134
676.987	453
677.037	-212
677.086	-215
677.136	285
677.185	-191
677.235	-277
677.284	61
677.333	-171
677.383	-89
677.432	-563
677.482	382
677.531	159
677.580	55
677.630	403
677.679	416
677.728	145
677.778	90
677.827	-179
677.876	424
677.925	-229
677.975	185
678.024	369
678.073	202
678.122	-180
678.171	449
678.220	-449
678.269	1319
678.319	1423
678.368	1478
678.417	-165
678.466	626
678.515	187
678.564	661
678.613	-91
678.662	148
678.711	456
678.760	395
678.809	-129
678.857	393
678.906	818
678.955	-51
679.004	596
679.053	-156
679.102	-256
679.151	405
679.199	-112
679.248	368
679.297	-284
679.346	-119
679.394	-381
679.443	-193
679.492	-133
679.540	-539
679.589	402
679.638	-348
679.686	-160
679.735	269
679.784	952
679.832	1324
679.881	534
679.929	205
679.978	-34
680.026	-68
680.075	864
680.123	-1592
680.172	-846
680.220	185
680.268	937
680.317	318
680.365	-484
680.414	-227
680.462	240
680.510	471
680.559	-1025
680.607	302
680.655	-642
680.703	75
680.752	292
680.800	-329
680.848	-79
680.896	-422
680.945	-310
680.993	-169
681.041	-173
681.089	-22
681.137	64
681.185	-104
681.233	243
681.258	-81
681.281	-418
681.329	-766
681.377	-622
681.380	-556
681.425	53
681.473	249
681.502	53
681.521	-144
681.569	473
681.617	186
681.624	183
681.665	-92
681.713	-310
681.745	603
681.761	1001
681.809	375
681.857	1960
681.867	1827
681.904	1225
681.952	553
681.989	490
682.000	435
682.048	472
682.096	487
682.111	524
682.143	484
682.191	312
682.233	1374
682.239	1502
682.286	967
682.334	865
682.354	1129
682.382	1439
682.430	788
682.476	1366
682.477	1348
682.525	1502
682.572	1441
682.598	1368
682.620	1264
682.667	2270
682.715	1694
682.720	1710
682.763	1553
682.810	1898
682.841	2213
682.857	2356
682.905	1411
682.952	2572
682.963	2542
683.000	2279
683.047	1531
683.085	3145
683.095	3566
683.142	2171
683.190	2273
683.206	2030
683.237	1490
683.284	2902
683.328	2484
683.332	2428
683.379	2974
683.426	2590
683.449	3092
683.473	3587
683.521	2458
683.568	3192
683.571	3198
683.615	2836
683.662	2785
683.693	2945
683.709	3014
683.757	3410
683.804	3114
683.814	3183
683.851	3331
683.898	3415
683.936	3273
683.945	3221
683.992	3155
684.039	3755
684.057	3933
684.086	4161
684.133	3816
684.179	3532
684.180	3504
684.227	3410
684.274	3452
684.300	3631
684.321	3767
684.368	3573
684.415	4303
684.422	4213
684.462	3599
684.509	4188
684.543	4148
684.556	4079
684.603	4674
684.649	4487
684.665	4536
684.696	4637
684.743	4578
684.786	4982
684.790	5001
684.837	4645
684.883	4736
684.908	4821
684.930	4877
684.977	5062
685.023	5075
685.029	5066
685.070	4802
685.117	5026
685.150	5155
685.164	5178
685.210	5184
685.257	5789
685.272	5698
685.303	5476
685.350	4984
685.393	4953
685.396	4940
685.443	5204
685.490	5869
685.514	5577
685.536	5396
685.583	5784
685.629	5981
685.636	5999
685.675	5803
685.722	5945
685.757	5872
685.768	5876
685.815	6024
685.861	6078
685.878	6032
685.908	5942
685.954	5681
686.000	6264
686.000	6264
686.047	5961
686.093	6162
686.121	6198
686.139	6248
686.185	6410
686.232	6260
686.242	6338
686.278	6518
686.324	6392
686.363	6521
686.370	6539
686.416	6847
686.463	6938
686.484	7006
686.509	7146
686.555	6637
686.601	7054
686.606	7137
686.647	7461
686.693	7681
686.727	7102
686.739	6967
686.785	7084
686.831	7003
686.848	7108
686.877	7311
686.923	7353
686.969	7043
686.969	7039
687.015	6934
687.061	7140
687.090	7514
687.107	7787
687.153	8299
687.199	7716
687.211	7647
687.245	7287
687.291	7546
687.332	7433
687.336	7449
687.382	7981
687.428	8183
687.453	8387
687.474	8418
687.520	8321
687.565	8669
687.574	8524
687.611	8275
687.657	8918
687.695	9548
687.702	9694
687.748	10143
687.794	10621
687.816	10740
687.839	10305
687.885	9589
687.931	9019
687.937	8951
687.976	9098
688.022	9090
688.058	8861
688.067	8821
688.113	9530
688.158	9106
688.179	9180
688.204	9221
688.249	9097
688.295	9412
688.300	9322
688.340	8823
688.386	9581
688.421	9315
688.431	9265
688.477	9343
688.522	9916
688.542	9749
688.567	9652
688.613	9976
688.658	10607
688.663	10570
688.703	9928
688.749	9897
688.784	9968
688.794	10053
688.839	10073
688.884	10532
688.905	10565
688.930	10606
688.975	10266
689.020	10157
689.026	10188
689.065	10292
689.110	9668
689.146	9629
689.155	9711
689.201	10398
689.246	10100
689.267	10129
689.291	10156
689.336	11154
689.381	10493
689.388	10618
689.426	11269
689.471	11350
689.509	11223
689.516	11237
689.561	11404
689.606	11617
689.630	11737
689.651	11691
689.696	10596
689.741	11279
689.750	11277
689.785	11616
689.830	11336
689.871	11439
689.875	11474
689.920	11861
689.965	12272
689.992	12207
690.010	12083
690.054	11854
690.099	11775
690.112	11829
690.144	12066
690.189	12301
690.233	12214
690.233	12233
690.278	12609
690.323	13031
690.354	13343
690.367	13597
690.412	13976
690.457	14172
690.474	14509
690.501	15070
690.546	15790
690.590	15892
690.595	15904
690.635	17152
690.680	19229
690.716	20479
690.724	21172
690.769	24628
690.813	28896
690.836	30573
690.857	35633
690.902	46995
690.946	58368
690.957	61076
690.991	85684
691.035	118799
691.077	149686
691.080	149534
691.124	138265
691.168	127945
691.198	120999
691.213	111858
691.257	84867
691.301	57620
691.318	47126
691.346	42779
691.390	34775
691.434	27047
691.439	26205
691.478	24568
691.522	21899
691.559	19687
691.567	19581
691.611	19143
691.655	18732
691.680	18013
691.699	17534
691.743	17012
691.787	16248
691.800	16003
691.831	15811
691.875	15159
691.919	15409
691.921	15366
691.964	15229
692.008	15252
692.041	15137
692.052	15158
692.096	15207
692.139	15590
692.162	15339
692.183	14973
692.227	15397
692.271	14712
692.282	14632
692.315	14699
692.359	14760
692.402	14797
692.403	14828
692.447	14738
692.490	14986
692.523	15062
692.534	15150
692.578	15600
692.622	15693
692.643	15721
692.666	15669
692.709	15690
692.753	15653
692.763	15632
692.797	15826
692.840	15888
692.884	15763
692.884	15801
692.928	16633
692.971	16874
693.004	17317
693.015	17451
693.059	17837
693.102	18158
693.124	18275
693.146	18722
693.189	19501
693.233	20525
693.245	20652
693.276	21992
693.320	24232
693.363	26352
693.365	26363
693.407	29922
693.450	33996
693.485	36833
693.493	38559
693.537	47658
693.580	56260
693.605	61544
693.624	73045
693.667	99587
693.710	126898
693.725	136281
693.753	184599
693.797	260222
693.840	335840
693.845	344062
693.883	322088
693.926	295989
693.966	273640
693.970	268176
694.013	204983
694.056	141852
694.086	98021
694.099	92517
694.142	74071
694.185	56116
694.206	47379
694.229	44578
694.272	39058
694.315	33576
694.326	32024
694.358	30262
694.401	27951
694.444	25569
694.446	25396
694.487	24398
694.530	23095
694.566	22051
694.573	21997
694.616	21310
694.659	20736
694.686	20122
694.702	19966
694.745	19570
694.787	19375
694.806	19189
694.830	19100
694.873	18686
694.916	18371
694.926	18246
694.959	18323
695.002	18439
695.044	18435
695.046	18395
695.087	18656
695.130	18763
695.166	18922
695.172	18968
695.215	18959
695.258	18686
695.286	18580
695.301	18619
695.343	18606
695.386	18485
695.406	18482
695.428	19027
695.471	19946
695.514	20628
695.526	20820
695.556	21552
695.599	22560
695.641	23537
695.646	23587
695.684	22856
695.726	21880
695.766	20917
695.769	20937
695.811	20532
695.854	20041
695.886	19774
695.896	19911
695.938	20175
695.981	20227
696.005	20357
696.023	20918
696.065	21901
696.108	23054
696.125	23486
696.150	23736
696.192	23993
696.235	24402
696.245	24359
696.277	24706
696.319	25444
696.361	26122
696.365	26094
696.404	26350
696.446	26849
696.485	27036
696.488	27030
696.530	26136
696.572	25199
696.604	24448
696.614	24375
696.656	23792
696.698	23172
696.724	22731
696.740	22969
696.783	23513
696.825	24067
696.844	24230
696.867	24100
696.909	23713
696.951	23243
696.964	23079
696.992	23388
697.034	23759
697.076	24141
697.083	24120
697.118	24663
697.160	25381
697.202	25976
697.203	25926
697.244	25363
697.286	24661
697.323	24008
697.327	24103
697.369	24395
697.411	24675
697.442	24800
697.453	24891
697.494	24994
697.536	25070
697.562	25129
697.578	25349
697.620	25558
697.661	25954
697.682	26027
697.703	26201
697.744	26448
697.786	26764
697.801	26763
697.828	26699
697.869	26567
697.911	26336
697.921	26227
697.952	26084
697.994	25778
698.035	25495
698.040	25384
698.077	25596
698.118	25833
698.160	26060
698.160	25991
698.201	26531
698.243	27035
698.279	27398
698.284	27536
698.325	28162
698.367	28712
698.399	29133
698.408	29267
698.449	29479
698.491	29672
698.518	29752
698.532	29760
698.573	29522
698.614	29260
698.638	29046
698.656	29357
698.697	29916
698.738	30414
698.757	30581
698.779	30418
698.820	29951
698.862	29483
698.877	29228
698.903	29589
698.944	30043
698.985	30494
698.996	30539
699.026	30153
699.067	29504
699.116	28653
699.235	29877
699.354	30001
699.474	27286
699.593	28190
699.713	27187
699.832	28217
699.951	29676
700.070	28101
700.190	26045
700.309	26516
700.428	25948
700.547	25192
700.667	25413
700.786	25333
700.905	24813
701.024	25228
701.143	24627
701.262	26141
701.381	26336
701.500	26421
701.619	25180
701.738	26309
701.857	25033
701.976	23790
702.095	24718
702.214	25927
702.333	24561
702.452	26109
702.571	26437
702.690	25814
702.809	25121
702.928	24026
703.047	23376
703.165	24267
703.284	23770
703.403	23815
703.522	23178
703.640	22999
703.759	23101
703.878	22782
703.997	22773
704.115	22752
704.234	22712
704.353	23285
704.471	21151
704.590	21072
704.708	21444
704.827	20862
704.946	21102
705.064	21445
705.183	21253
705.301	21647
705.420	22051
705.538	21599
705.656	22113
705.775	26774
705.893	53185
706.012	56909
706.130	21276
706.249	21865
706.367	19967
706.485	20262
706.604	19277
706.722	20077
706.840	21217
706.958	24466
707.077	20566
707.195	19394
707.313	18924
707.431	19507
707.549	18221
707.668	17763
707.786	20640
707.904	17411
708.022	18773
708.140	18512
708.258	18843
708.376	19891
708.494	18221
708.612	18886
708.730	21259
708.848	19496
708.966	19009
709.084	19440
709.202	18483
709.320	17828
709.438	17712
709.556	17161
709.674	16522
709.791	16895
709.909	16967
710.027	16963
710.145	17786
710.263	17647
710.380	17544
710.498	16318
710.616	16959
710.733	15786
710.851	16425
710.969	17198
711.086	16752
711.204	17185
711.322	15963
711.439	16163
711.557	15418
711.674	16449
711.792	16426
711.909	19529
712.027	21315
712.144	15832
712.262	16101
712.379	15839
712.497	16005
712.614	16451
712.732	16488
712.849	15772
712.966	17050
713.084	16782
713.201	15989
713.318	17000
713.436	17486
713.553	17407
713.670	18873
713.787	18676
713.905	17590
714.022	18483
714.139	19322
714.256	26586
714.373	39180
714.490	76215
714.608	220563
714.725	870298
714.842	724329
714.959	72484
715.076	31670
715.193	23984
715.310	21240
715.427	16891
715.544	17620
715.661	17156
715.778	15894
715.895	15814
716.011	16921
716.128	15914
716.245	15870
716.362	14334
716.479	14382
716.596	14394
716.713	14389
716.829	13582
716.946	12782
717.063	12997
717.180	12960
717.296	13076
717.413	12885
717.530	12353
717.646	12733
717.763	12327
717.880	11903
717.996	12135
718.113	12067
718.229	12418
718.346	12280
718.462	12340
718.579	13384
718.695	12862
718.812	13215
718.928	12733
719.045	12109
719.161	13430
719.277	13756
719.394	13614
719.510	14751
719.626	15762
719.743	20635
719.859	34386
719.975	74065
720.092	309279
720.208	601122
720.324	64498
720.440	20241
720.557	15842
720.673	14851
720.789	15017
720.905	18000
721.021	13239
721.137	12037
721.253	11926
721.369	11484
721.486	11757
721.602	11950
721.718	11921
721.834	10944
721.950	10813
722.066	10452
722.181	10946
722.297	11002
722.413	10931
722.529	10310
722.645	10716
722.761	10819
722.877	10653
722.993	12631
723.108	14518
723.224	12788
723.340	11180
723.456	10947
723.571	10872
723.687	10291
723.803	10210
723.918	9688
724.034	9488
724.150	10385
724.265	11269
724.381	11074
724.497	12291
724.612	9500
724.728	9436
724.843	9266
724.959	10087
725.074	11381
725.190	12376
725.305	9353
725.421	8579
725.536	9846
725.651	10059
725.767	10106
725.882	10223
725.997	8530
726.113	9250
726.228	9810
726.343	8481
726.459	9161
726.574	9071
726.689	8888
726.804	9215
726.920	9139
727.035	9246
727.150	9196
727.265	7864
727.380	9058
727.495	9425
727.610	9222
727.725	9868
727.841	13319
727.956	28916
728.071	18921
728.186	10232
728.301	8334
728.416	9395
728.531	9112
728.645	8526
728.760	8656
728.875	9209
728.990	9090
729.105	8851
729.220	8980
729.335	9360
729.449	8973
729.564	8592
729.679	8338
729.794	8681
729.908	9413
730.023	9111
730.138	8945
730.253	9716
730.367	9215
730.482	9720
730.596	9032
730.711	10225
730.826	12303
730.940	12650
731.055	9947
731.169	10444
731.284	10706
731.398	10657
731.513	12409
731.627	12709
731.742	15262
731.856	17442
731.970	19049
732.085	24870
732.199	37485
732.313	69930
732.428	182972
732.542	470389
732.656	230527
732.771	51203
732.885	27573
732.999	23003
733.113	23143
733.227	20644
733.342	19880
733.456	18766
733.570	18469
733.684	17397
733.798	15737
733.912	16514
734.026	15722
734.140	16163
734.254	16242
734.368	15871
734.482	17503
734.596	16268
734.710	15094
734.824	14619
734.938	13991
735.052	14680
735.166	15398
735.280	14785
735.393	14295
735.507	14288
735.621	13301
735.735	14317
735.849	13714
735.962	14063
736.076	13366
736.190	13391
736.303	13862
736.417	14653
736.531	13374
736.644	14166
736.758	12075
736.872	13505
736.985	13613
737.099	12562
737.212	11814
737.326	13072
737.439	13330
737.553	11628
737.666	12858
737.780	11982
737.893	13290
738.007	12426
738.120	12183
738.233	11804
738.347	12417
738.460	11314
738.573	12790
738.687	11983
738.800	12718
738.913	12967
739.026	12878
739.140	12732
739.253	14349
739.366	12367
739.479	11116
739.592	11067
739.705	11336
739.818	12485
739.932	11013
740.045	11372
740.158	11627
740.271	11334
740.384	11883
740.497	10376
740.610	11918
740.723	11774
740.836	11084
740.949	12305
741.062	12451
741.174	11190
741.287	10883
741.400	11183
741.513	10834
741.626	12144
741.739	10641
741.851	10653
741.964	11743
742.077	10922
742.189	10632
742.302	12809
742.415	10943
742.527	10518
742.640	10757
742.753	10621
742.865	10310
742.978	10601
743.090	10207
743.203	11043
743.316	10635
743.428	10535
743.541	10598
743.653	9964
743.766	10167
743.878	10326
743.990	10807
744.103	12319
744.215	12787
744.327	9945
744.440	11716
744.552	9687
744.664	9060
744.777	10402
744.889	9114
745.001	10672
745.113	10551
745.226	9156
745.338	9391
745.450	10262
745.562	9427
745.674	9953
745.786	10807
745.898	10574
746.010	9634
746.122	10099
746.234	10041
746.347	9654
746.459	10184
746.570	9358
746.682	12436
746.794	15440
746.906	10424
747.018	10140
747.130	10322
747.242	9138
747.354	8978
747.466	10392
747.577	9562
747.689	9884
747.801	10392
747.913	8829
748.024	9910
748.136	9330
748.248	8392
748.359	9289
748.471	10088
748.583	9498
748.694	9710
748.806	11708
748.918	9262
749.029	10161
749.141	9391
749.252	9440
749.364	8315
749.475	9140
749.587	8993
749.698	8816
749.809	9147
749.921	9376
750.032	8619
750.144	8286
750.255	8277
750.366	8345
750.478	9291
750.589	8314
750.700	8996
750.811	9439
750.923	8961
751.034	9064
751.145	9690
751.256	8946
751.367	8853
751.479	8773
751.590	9072
751.701	9750
751.812	7649
751.923	8891
752.034	9444
752.145	9473
752.256	9388
752.367	9291
752.478	9428
752.589	9675
752.700	8830
752.811	9340
752.922	9206
753.032	8893
753.143	9040
753.254	8888
753.365	10424
753.476	10484
753.586	8984
753.697	9585
753.808	9360
753.919	9291
754.029	9715
754.140	9051
754.251	8663
754.361	10349
754.472	9659
754.582	8566
754.693	9782
754.804	10331
754.914	9786
755.025	8995
755.135	9948
755.246	10600
755.356	9790
755.466	10545
755.577	9821
755.687	10108
755.798	9918
755.908	10294
756.018	9669
756.129	10469
756.239	10309
756.349	10437
756.460	10699
756.570	11665
756.680	10433
756.790	10438
756.900	10519
757.011	10847
757.121	9550
757.231	10572
757.341	10901
757.451	10755
757.561	11620
757.671	10878
757.781	10700
757.891	12433
758.001	11442
758.111	11440
758.221	12226
758.331	13339
758.441	13854
758.551	13643
758.661	13678
758.771	14588
758.880	13533
758.990	13714
759.100	13775
759.210	14037
759.320	13937
759.429	14340
759.539	15469
759.649	16365
759.758	16655
759.868	17601
759.978	17653
760.087	18469
760.197	20200
760.307	18695
760.416	18025
760.526	17122
760.635	19204
760.745	19119
760.854	21103
760.964	21923
761.073	22688
761.182	21094
761.292	21265
761.401	20680
761.511	20482
761.620	20658
761.729	20678
761.839	21311
761.948	21087
762.057	22236
762.166	22678
762.276	22678
762.385	25045
762.494	25210
762.603	25936
762.712	26136
762.822	27249
762.931	27820
763.040	27602
763.149	30512
763.258	31908
763.367	33567
763.476	35316
763.585	37503
763.694	38673
763.803	40836
763.912	43115
764.021	45823
764.130	49281
764.238	54705
764.347	57416
764.456	61676
764.565	67814
764.674	73041
764.783	79904
764.891	88830
765.000	101583
765.109	113771
765.217	131122
765.326	152786
765.435	180399
765.543	219099
765.652	268051
765.761	338309
765.869	432409
765.978	567257
766.086	735745
766.195	900346
766.303	896999
766.412	557596
766.520	577312
766.629	896616
766.737	877468
766.846	704249
766.954	534138
767.062	410289
767.171	319409
767.279	252480
767.387	205015
767.496	169371
767.604	145839
767.712	125987
767.820	113057
767.928	104057
768.037	95766
768.145	91160
768.253	86337
768.361	84598
768.469	83697
768.577	87107
768.685	90983
768.793	96747
768.901	106293
769.009	124121
769.117	148013
769.225	188293
769.333	253043
769.441	356899
769.549	528321
769.657	760824
769.765	808143
769.873	537134
769.981	769110
770.088	742272
770.196	523427
770.304	365790
770.412	269454
770.519	208733
770.627	166181
770.735	136462
770.842	116016
770.950	99392
771.058	86832
771.165	77688
771.273	68991
771.380	63332
771.488	59991
771.595	55532
771.703	51313
771.810	47282
771.918	44297
772.025	43625
772.133	42009
772.240	39117
772.348	38335
772.455	37435
772.562	34350
772.670	33122
772.777	31815
772.884	30104
772.991	28776
773.099	29080
773.206	26316
773.313	26993
773.420	25929
773.528	25058
773.635	24128
773.742	24126
773.849	22906
773.956	23291
774.063	22344
774.170	21841
774.277	21582
774.384	20400
774.491	20412
774.598	19898
774.705	19099
774.812	19916
774.919	18926
775.026	18563
775.133	18383
775.239	17638
775.346	17293
775.453	16761
775.560	16659
775.667	16995
775.773	15810
775.880	16446
775.987	15318
776.093	15981
776.200	15635
776.307	13681
776.413	13975
776.520	15637
776.627	14274
776.733	14482
776.840	12816
776.946	16816
777.053	17814
777.159	21250
777.266	16975
777.372	20782
777.478	17812
777.585	14352
777.691	11403
777.798	12980
777.904	12688
778.010	13430
778.117	12848
778.223	11123
778.329	12322
778.435	10869
778.542	12190
778.648	9967
778.754	9605
778.860	10512
778.966	11242
779.072	9993
779.178	10516
779.284	10102
779.391	10117
779.497	10832
779.603	13730
779.708	13726
779.815	23859
779.920	73551
780.026	138080
780.132	23366
780.238	11359
780.344	9431
780.450	11673
780.556	9145
780.661	7777
780.767	9289
780.873	7236
780.979	8559
781.085	8381
781.190	8738
781.296	7258
781.402	9474
781.507	7989
781.613	8236
781.719	7513
781.824	8822
781.930	8357
782.035	8501
782.141	8414
782.246	7425
782.352	6915
782.457	7315
782.563	7331
782.668	7931
782.773	6574
782.879	5818
782.984	8083
783.090	7940
783.195	7886
783.300	7416
783.405	6585
783.511	6496
783.616	6968
783.721	7641
783.826	6924
783.932	6466
784.037	6184
784.142	6157
784.247	5684
784.352	7344
784.457	5805
784.562	7000
784.667	6825
784.772	5743
784.877	4941
784.982	6428
785.087	6140
785.192	6495
785.297	5707
785.402	6146
785.507	5651
785.611	6575
785.716	5774
785.821	5844
785.926	5563
786.031	5478
786.135	5541
786.240	6030
786.345	3466
786.450	5005
786.554	5841
786.659	5282
786.763	4637
786.868	5342
786.973	6834
787.077	5178
787.182	4758
787.286	5123
787.391	5494
787.495	3976
787.600	4370
787.704	5024
787.809	5077
787.913	4126
788.017	4529
788.122	5597
788.226	4775
788.330	3474
788.435	4800
788.539	5745
788.643	4849
788.747	3414
788.852	4504
788.956	4158
789.060	4985
789.164	4203
789.268	3383
789.372	4997
789.476	4541
789.580	3319
789.684	4211
789.788	5190
789.892	4370
789.996	4946
790.100	4080
790.204	5306
790.308	4656
790.412	4022
790.516	4794
790.620	3573
790.724	4150
790.828	3766
790.931	2552
791.035	5612
791.139	4096
791.242	3485
791.346	4660
791.450	3679
791.554	3360
791.657	2754
791.761	4041
791.864	4588
791.968	4473
792.072	3977
792.175	3710
792.279	3155
792.382	3801
792.486	3822
792.589	3189
792.693	3572
792.796	2881
792.899	3669
793.003	4227
793.106	1684
793.209	3304
793.313	5128
793.416	1705
793.519	5055
793.623	4409
793.726	3111
793.829	3368
793.932	2642
794.035	2041
794.138	4180
794.242	5410
794.345	3780
794.448	5789
794.551	10338
794.654	37701
794.757	77102
794.860	12463
794.963	4791
795.066	3196
795.169	5018
795.272	2928
795.375	4065
795.477	1648
795.580	3577
795.683	1964
795.786	3551
795.889	2654
795.991	3836
796.094	3632
796.197	1925
796.300	3647
796.402	2650
796.505	1755
796.608	3105
796.710	3644
796.813	3360
796.915	2600
797.018	2919
797.120	3404
797.223	2404
797.326	4001
797.428	1749
797.530	2492
797.633	2975
797.735	3913
797.838	2539
797.940	4090
798.042	2275
798.145	2906
798.247	2866
798.349	942
798.452	4023
798.554	2306
798.656	2758
798.758	5117
798.860	2980
798.962	2099
799.065	2019
799.167	1942
799.269	3687
799.371	3763
799.473	4650
799.575	2715
799.677	2379
799.779	3649
799.881	1472
799.983	4069
800.085	2175
800.187	2540
800.289	1720
800.390	2970
800.492	2892
800.594	3054
800.696	1509
800.798	2559
800.899	2486
801.001	2879
801.103	2444
801.205	2094
801.306	2708
801.408	1037
801.509	2184
801.611	2977
801.713	2552
801.814	1851
801.916	1644
802.017	1634
802.119	1137
802.220	2303
802.322	860
802.423	3481
802.525	633
802.626	1896
802.727	3036
802.829	3379
802.930	267
803.031	3396
803.133	2780
803.234	1881
803.335	2689
803.436	1101
803.538	1971
803.639	928
803.740	3080
803.841	780
803.942	2329
804.043	2932
804.144	1449
804.245	1293
804.346	722
804.447	1608
804.548	1124
804.649	2611
804.750	1960
804.851	947
804.952	1367
805.053	1975
805.154	1213
805.255	1871
805.355	1225
805.456	1881
805.557	1423
805.658	886
805.758	2744
805.859	1506
805.960	1805
806.061	968
806.161	1483
806.262	1233
806.362	937
806.463	1927
806.564	2634
806.664	1522
806.765	1523
806.865	1516
806.966	1040
807.066	1392
807.166	2762
807.267	2770
807.367	2098
807.468	2263
807.568	844
807.668	2773
807.769	2548
807.869	1274
807.969	1737
808.069	1288
808.170	985
808.270	1673
808.370	1481
808.470	1517
808.570	1451
808.670	799
808.770	1505
808.870	546
808.970	1726
809.070	725
809.170	1806
809.271	1894
809.370	1738
809.470	1419
809.570	1122
809.670	262
809.770	896
809.870	1678
809.970	953
810.070	1591
810.169	1440
810.269	-27
810.369	1907
810.469	1233
810.568	1623
810.668	1117
810.768	484
810.867	1165
810.967	956
811.066	1000
811.166	1207
811.265	2325
811.365	1528
811.464	1017
811.564	1033
811.663	1486
811.763	266
811.862	1503
811.962	1465
812.061	1217
812.160	1235
812.260	1838
812.359	1142
812.458	987
812.557	1396
812.657	1308
812.756	2124
812.855	1065
812.954	429
813.053	1933
813.153	1387
813.252	597
813.351	2064
813.450	1430
813.549	1734
813.648	1307
813.747	1212
813.846	2683
813.945	859
814.044	1441
814.143	1655
814.242	1156
814.341	1276
814.439	1870
814.538	2245
814.637	1229
814.736	1256
814.835	2001
814.933	1377
815.032	2850
815.131	3295
815.229	5854
815.328	7820
815.427	4873
815.525	6201
815.624	5192
815.722	4253
815.821	5094
815.919	5058
816.018	4310
816.116	5672
816.215	4658
816.313	4884
816.412	5738
816.510	6141
816.609	7900
816.707	7471
816.805	6214
816.904	6942
817.002	6687
817.100	7928
817.198	7509
817.296	6462
817.395	6546
817.493	8116
817.591	5507
817.689	7057
817.787	6897
817.885	7928
817.983	8132
818.081	13648
818.179	23170
818.277	55008
818.375	49219
818.473	16422
818.571	8891
818.669	8925
818.767	9025
818.865	7269
818.963	7066
819.061	9164
819.158	12057
819.256	22794
819.354	45074
819.452	103135
819.549	69117
819.647	21137
819.745	9950
819.842	8315
819.940	7228
820.038	6327
820.135	5490
820.233	7275
820.330	5425
820.428	4554
820.525	6128
820.623	4780
820.720	4222
820.818	5640
820.915	5798
821.012	6328
821.110	3426
821.207	5915
821.304	3781
821.402	5884
821.499	7349
821.596	6612
821.693	5146
821.791	4669
821.888	3288
821.985	5272
822.082	4056
822.179	5779
822.276	5984
822.373	4507
822.470	4371
822.567	4120
822.664	3038
822.761	5035
822.858	3487
822.955	3924
823.052	3085
823.149	3880
823.246	3999
823.343	2771
823.440	4484
823.536	3930
823.633	3871
823.730	3801
823.827	4303
823.923	4154
824.020	4025
824.117	4936
824.213	4194
824.310	3953
824.407	3601
824.503	4605
824.600	3203
824.696	2756
824.793	5386
824.889	3646
824.986	3482
825.082	2274
825.179	3335
825.275	3791
825.371	3966
825.468	3286
825.564	1721
825.660	4615
825.757	4967
825.853	4247
825.949	2040
826.045	2963
826.142	2871
826.238	3593
826.334	3425
826.430	3164
826.526	2496
826.622	1761
826.718	2705
826.814	3275
826.910	4096
827.006	1923
827.102	2045
827.198	3768
827.294	3460
827.390	3765
827.486	3497
827.582	1105
827.678	1707
827.774	4367
827.869	1880
827.965	2680
828.061	2228
828.157	3336
828.252	3359
828.348	1395
828.444	3551
828.539	1939
828.635	2846
828.731	2596
828.826	1586
828.922	3339
829.017	3166
829.113	4738
829.208	2069
829.304	2982
829.399	4716
829.495	2666
829.590	3876
829.685	2427
829.781	3133
829.876	3464
829.971	1404
830.066	1669
830.162	2626
830.257	3520
830.352	1862
830.447	2935
830.543	2448
830.638	1942
830.733	3276
830.828	1775
830.923	2162
831.018	3109
831.113	3213
831.208	1362
831.303	2163
831.398	1524
831.493	1951
831.588	4509
831.683	1821
831.778	2729
831.873	2706
831.967	3688
832.062	2584
832.157	1518
832.252	2069
832.346	1942
832.441	2846
832.536	2821
832.631	2925
832.725	2476
832.820	1768
832.914	2461
833.009	877
833.104	2115
833.198	2463
833.293	964
833.387	2305
833.482	1945
833.576	2194
833.670	3128
833.765	2390
833.859	3132
833.954	3338
834.048	2611
834.142	1762
834.237	1192
834.331	1874
834.425	2130
834.519	1481
834.613	1472
834.708	1328
834.802	1884
834.896	1554
834.990	1252
835.084	2014
835.178	827
835.272	1375
835.366	2155
835.460	2703
835.554	1386
835.648	659
835.742	1307
835.836	1370
835.930	888
836.024	1041
836.117	2047
836.211	1501
836.305	592
836.399	2054
836.493	576
836.586	2274
836.680	1848
836.774	711
836.867	2627
836.961	489
837.055	808
837.148	1897
837.242	2037
837.335	798
837.429	1393
837.522	921
837.616	181
837.709	2415
837.803	1436
837.896	2583
837.989	1307
838.083	763
838.176	699
838.269	548
838.363	1421
838.456	1014
838.549	2403
838.642	801
838.735	1050
838.829	2412
838.922	287
839.015	698
839.108	965
839.201	1615
839.294	1530
839.387	1833
839.480	450
839.573	1671
839.666	1089
839.759	1083
839.852	525
839.945	1677
840.038	88
840.131	220
840.223	1622
840.316	1474
840.409	962
840.502	1182
840.594	1845
840.687	-229
840.780	1272
840.873	318
840.965	470
841.058	1325
841.150	1529
841.243	265
841.336	1398
841.428	1347
841.521	963
841.613	616
841.706	832
841.798	918
841.890	554
841.983	531
842.075	901
842.167	530
842.260	723
842.352	1909
842.444	1472
842.537	1071
842.629	1247
842.721	1290
842.813	962
842.905	-116
842.997	905
843.090	304
843.182	745
843.274	968
843.366	2089
843.458	3085
843.550	3688
843.642	747
843.734	1343
843.826	838
843.918	1708
844.009	532
844.101	1169
844.193	697
844.285	1050
844.377	1971
844.469	2494
844.560	2709
844.652	1722
844.744	373
844.835	939
844.927	1198
845.019	1937
845.110	929
845.202	1411
845.293	830
845.385	-205
845.476	1301
845.568	1254
845.659	739
845.751	718
845.842	515
845.934	171
846.025	1056
846.116	47
846.208	702
846.299	284
846.390	-233
846.482	889
846.573	892
846.664	1607
846.755	-282
846.846	2538
846.937	-1189
847.029	296
847.120	179
847.211	831
847.302	1950
847.393	-6
847.484	855
847.575	186
847.666	653
847.757	251
847.847	978
847.938	1692
848.029	1033
848.120	556
848.211	16
848.302	348
848.392	351
848.483	831
848.574	133
848.664	-210
848.755	510
848.846	792
848.936	857
849.027	880
849.118	1248
849.208	1694
849.299	3551
849.389	5095
849.480	10663
849.570	20822
849.661	41322
849.751	61302
849.841	20997
849.932	3851
850.022	1721
850.112	2128
850.203	1223
850.293	911
850.383	1492
850.474	605
850.564	326
850.654	1149
850.744	378
850.834	825
850.924	476
851.014	1856
851.104	1193
851.194	391
851.284	970
851.374	737
851.464	-184
851.554	951
851.644	352
851.734	1159
851.824	1106
851.914	1211
852.004	1528
852.094	297
852.183	681
852.273	1116
852.363	753
852.452	1228
852.542	1202
852.632	263
852.721	802
852.811	433
852.901	1342
852.990	1218
853.080	1821
853.169	1689
853.259	2281
853.348	2272
853.438	4034
853.527	5527
853.617	7142
853.706	13475
853.795	24398
853.885	53493
853.974	94228
854.063	173065
854.152	223569
854.242	88696
854.331	22465
854.420	9479
854.509	6585
854.598	5710
854.687	4397
854.777	3129
854.866	2140
854.955	2592
855.044	1199
855.133	1913
855.222	622
855.311	953
855.400	1016
855.488	440
855.577	585
855.666	1337
855.755	2008
855.844	1753
855.933	2348
856.021	781
856.110	2033
856.199	684
856.288	447
856.376	824
856.465	300
856.554	1035
856.642	867
856.731	528
856.819	883
856.908	1349
856.996	615
857.085	271
857.173	247
857.262	454
857.350	896
857.438	864
857.527	525
857.615	133
857.703	475
857.792	192
857.880	512
857.968	-1537
858.056	-283
858.145	636
858.233	889
858.321	501
858.409	463
858.497	408
858.585	320
858.673	88
858.761	-495
858.849	634
858.937	-326
859.025	152
859.113	693
859.201	359
859.289	998
859.377	617
859.465	1326
859.552	-515
859.640	-100
859.728	353
859.816	510
859.903	1080
859.991	-338
860.079	-190
860.166	331
860.254	830
860.342	510
860.429	-269
860.517	60
860.604	499
860.692	68
860.779	-184
860.867	-85
860.954	363
861.042	104
861.129	479
861.216	661
861.304	346
861.391	1350
861.478	-97
861.565	484
861.653	803
861.740	-222
861.827	558
861.914	596
862.001	54
862.089	-54
862.176	252
862.263	29
862.350	534
862.437	475
862.524	49
862.611	996
862.698	1610
862.785	1299
862.871	1139
862.958	1263
863.045	332
863.132	569
863.219	942
863.306	-126
863.392	400
863.479	667
863.566	289
863.652	542
863.739	1010
863.826	1144
863.912	1512
863.999	647
864.086	1008
864.172	894
864.259	626
864.345	670
864.432	1326
864.518	755
864.604	1047
864.691	919
864.777	919
864.863	1946
864.950	3543
865.036	3885
865.122	8053
865.209	8149
865.295	7319
865.381	7416
865.467	7991
865.553	8607
865.639	9911
865.726	16650
865.812	30496
865.898	53012
865.984	79446
866.070	137183
866.156	130589
866.242	39803
866.328	14002
866.414	8482
866.499	7979
866.585	6746
866.671	6440
866.757	5720
866.843	5134
866.928	5103
867.014	4283
867.100	4845
867.186	4106
867.271	4568
867.357	5276
867.442	4767
867.528	4703
867.614	4460
867.699	4765
867.785	5910
867.870	5914
867.956	6276
868.041	5021
868.127	4616
868.212	4749
868.297	3914
868.383	4538
868.468	4687
868.553	5236
868.639	3452
868.724	4304
868.809	4876
868.894	2871
868.979	4002
869.065	4815
869.150	2008
869.235	3389
869.320	3414
869.405	2805
869.490	3639
869.575	2684
869.660	2760
869.745	3762
869.830	4188
869.915	3297
870.000	4111
870.085	3695
870.169	4486
870.254	4724
870.339	2505
870.424	3196
870.509	4457
870.593	4023
870.678	3913
870.763	2333
870.847	2669
870.932	3857
871.016	3794
871.101	2553
871.186	3516
871.270	3817
871.355	3031
871.439	2988
871.523	3400
871.608	2809
871.692	2451
871.777	4527
871.861	3406
871.945	2467
872.030	3698
872.114	2677
872.198	2919
872.282	2500
872.367	2558
872.451	2406
872.535	1928
872.619	3102
872.703	3341
872.787	2706
872.871	2308
872.955	2290
873.039	544
873.123	2299
873.207	3733
873.291	998
873.375	1324
873.459	2886
873.543	2798
873.627	2285
873.711	2210
873.794	2306
873.878	1904
873.962	933
874.045	2225
874.129	1858
874.137	1890
874.213	2214
874.245	2470
874.296	2877
874.352	1798
874.380	1281
874.460	2982
874.464	3050
874.547	1977
874.568	2153
874.631	2698
874.676	2286
874.714	1939
874.784	2552
874.798	2671
874.881	3371
874.892	3147
874.965	1637
874.999	1898
875.048	2241
875.107	2412
875.131	2488
875.215	1831
875.215	1831
875.298	1514
875.323	1473
875.381	1411
875.430	2340
875.465	3003
875.538	2263
875.548	2146
875.631	1284
875.646	1040
875.714	-14
875.753	728
875.798	1577
875.861	2013
875.881	2142
875.964	1892
875.968	1843
876.047	1010
876.076	1340
876.130	1879
876.183	1810
876.213	1818
876.291	2502
876.296	2547
876.379	1423
876.398	1337
876.462	897
876.506	766
876.545	775
876.613	1363
876.628	1476
876.711	1629
876.721	1646
876.794	1847
876.828	1772
876.877	1522
876.935	850
876.960	651
877.043	1395
877.043	1397
877.125	1620
877.150	1848
877.208	2254
877.258	1879
877.291	1614
877.365	1144
877.374	1120
877.456	1465
877.472	1382
877.539	847
877.579	1260
877.622	1768
877.687	2218
877.704	2297
877.787	2032
877.794	1939
877.869	1093
877.901	1270
877.952	1406
878.008	857
878.034	687
878.115	1202
878.117	1209
878.199	917
878.222	1070
878.282	1648
878.329	1777
878.364	1846
878.437	1561
878.447	1484
878.529	576
878.544	593
878.611	553
878.651	610
878.694	1034
878.758	1293
878.776	1250
878.858	1669
878.865	1620
878.941	1136
878.972	925
879.023	534
879.078	207
879.105	269
879.185	2031
879.187	2049
879.269	1261
879.292	1024
879.351	799
879.399	868
879.433	837
879.506	1667
879.516	1768
879.598	1393
879.613	1237
879.680	545
879.720	719
879.762	1060
879.827	955
879.844	831
879.926	1420
879.933	1388
880.007	1619
880.040	1757
880.089	1565
880.147	1682
880.171	2003
880.253	4537
880.254	4549
880.335	5483
880.360	6128
880.417	8786
880.467	12648
880.499	15072
880.574	17455
880.580	17260
880.662	6189
880.680	4864
880.744	1955
880.787	1209
880.825	945
880.893	1246
880.907	1285
880.989	835
881.000	831
881.070	1147
881.106	1397
881.152	1617
881.213	1455
881.233	1250
881.315	999
881.319	966
881.396	1222
881.426	1326
881.478	1347
881.532	1669
881.559	1753
881.639	843
881.641	821
881.722	1525
881.745	1346
881.803	1132
881.852	862
881.885	663
881.958	1028
881.966	1008
882.047	851
882.064	643
882.129	517
882.171	753
882.210	620
882.277	169
882.291	194
882.372	904
882.383	966
882.454	1413
882.489	1605
882.535	1622
882.596	1284
882.616	1100
882.697	899
882.702	867
882.778	1010
882.808	1076
882.859	813
882.914	684
882.940	719
883.020	891
883.021	891
883.102	617
883.127	576
883.183	1040
883.233	1334
883.264	994
883.339	68
883.345	72
883.426	406
883.445	480
883.507	470
883.551	529
883.587	829
883.657	1520
883.668	1532
883.749	1164
883.763	1105
883.830	1112
883.869	1123
883.910	728
883.975	403
883.991	528
884.072	794
884.081	851
884.152	1067
884.187	1041
884.233	1166
884.292	1266
884.314	958
884.394	-196
884.398	-239
884.475	328
884.504	542
884.555	429
884.610	276
884.636	475
884.716	962
884.716	963
884.797	1032
884.821	945
884.877	1020
884.927	1003
884.958	906
885.033	608
885.038	609
885.118	910
885.139	881
885.199	431
885.244	409
885.279	639
885.350	878
885.359	913
885.439	1273
885.456	1286
885.520	1006
885.561	852
885.600	539
885.667	272
885.680	361
885.760	691
885.773	741
885.840	304
885.878	204
885.920	382
885.984	227
886.000	240
886.080	669
886.089	708
886.160	698
886.195	622
886.240	515
886.300	520
886.320	592
886.400	912
886.406	918
886.480	710
886.511	659
886.560	669
886.616	790
886.640	861
886.720	840
886.722	841
886.800	1127
886.827	1202
886.879	743
886.932	224
886.959	496
887.038	1612
887.039	1601
887.119	211
887.143	-131
887.198	667
887.248	1240
887.278	1070
887.354	782
887.358	786
887.437	858
887.459	872
887.517	1094
887.564	1163
887.596	1102
887.669	1073
887.676	1021
887.755	310
887.774	123
887.835	184
887.880	423
887.914	852
887.985	1465
887.994	1379
888.073	661
888.090	525
888.153	929
888.195	1034
888.232	789
888.300	571
888.311	572
888.391	530
888.405	544
888.470	607
888.510	518
888.549	598
888.615	897
888.628	917
888.708	1002
888.720	1008
888.787	945
888.825	891
888.866	751
888.930	564
888.945	589
889.024	797
889.035	819
889.103	963
889.140	1019
889.182	795
889.245	517
889.261	638
889.340	1214
889.349	1283
889.419	880
889.454	660
889.498	524
889.559	378
889.577	424
889.656	639
889.664	664
889.735	935
889.768	1068
889.814	1029
889.873	976
889.978	1200
890.083	609
890.187	1251
890.292	204
890.397	753
890.501	293
890.606	1372
890.710	1143
890.815	831
890.919	790
891.024	1261
891.128	311
891.233	572
891.337	855
891.442	1039
891.546	742
891.650	606
891.755	923
891.859	1784
891.963	1036
892.068	1368
892.172	249
892.276	185
892.380	102
892.484	897
892.589	1636
892.693	1614
892.797	518
892.901	674
893.005	488
893.109	1136
893.213	684
893.317	934
893.421	626
893.525	428
893.629	436
893.733	972
893.837	894
893.941	1115
894.045	578
894.148	598
894.252	390
894.356	1573
894.460	1453
894.564	1585
894.667	82
894.771	174
894.875	-107
894.978	348
895.082	721
895.186	1068
895.289	716
895.393	1498
895.496	412
895.600	480
895.703	102
895.807	564
895.910	532
896.014	464
896.117	-158
896.221	1217
896.324	24
896.427	648
896.531	499
896.634	723
896.737	797
896.840	1455
896.944	-369
897.047	939
897.150	86
897.253	306
897.356	133
897.460	241
897.563	-116
897.666	723
897.769	-68
897.872	758
897.975	-528
898.078	72
898.181	804
898.284	382
898.387	608
898.490	1321
898.593	704
898.695	506
898.798	-206
898.901	1007
899.004	-447
899.107	958
899.209	414
899.312	924
899.415	763
899.518	145
899.620	54
899.723	-181
899.826	606
899.928	186
900.031	259
900.133	880
900.236	-253
900.338	632
900.441	620
900.543	508
900.646	406
900.748	387
900.851	410
900.953	362
901.055	707
901.158	447
901.260	-487
901.362	532
901.465	-183
901.567	-197
901.669	777
901.771	-167
901.873	272
901.976	714
902.078	119
902.180	178
902.282	102
902.384	802
902.486	599
902.588	475
902.690	228
902.792	275
902.894	1324
902.996	173
903.098	292
903.200	628
903.302	-140
903.404	-485
903.505	395
903.607	621
903.709	842
903.811	388
903.913	725
904.014	148
904.116	-501
904.218	639
904.319	846
904.421	1316
904.523	1012
904.624	1579
904.726	91
904.827	407
904.929	138
905.030	734
905.132	-1
905.233	567
905.335	-459
905.436	-96
905.537	189
905.639	381
905.740	21
905.841	-285
905.943	399
906.044	639
906.145	790
906.247	-74
906.348	-391
906.449	436
906.550	332
906.651	735
906.752	703
906.854	-735
906.955	-129
907.056	-45
907.157	39
907.258	363
907.359	-470
907.460	537
907.561	131
907.662	557
907.762	-790
907.863	266
907.964	97
908.065	-450
908.166	8
908.267	-430
908.367	-175
908.468	43
908.569	-252
908.670	372
908.770	430
908.871	532
908.971	705
909.072	177
909.173	-378
909.273	776
909.374	244
909.474	68
909.575	-465
909.675	678
909.776	140
909.876	-573
909.977	-397
910.077	561
910.177	388
910.278	-48
910.378	-798
910.478	5
910.579	79
910.679	785
910.779	580
910.879	59
910.980	-485
911.080	-236
911.180	-563
911.280	347
911.380	-422
911.480	29
911.580	-243
911.680	-362
911.780	153
911.880	-278
911.980	-672
912.080	230
912.180	269
912.280	-69
912.380	199
912.480	-573
912.580	-117
912.679	779
912.779	-413
912.879	63
912.979	331
913.078	-96
913.178	-360
913.278	-530
913.377	-218
913.477	54
913.577	-342
913.676	-18
913.776	-224
913.875	746
913.975	-344
914.074	-291
914.174	-32
914.273	-923
914.373	215
914.472	29
914.572	-1067
914.671	-354
914.770	-546
914.870	-456
914.969	-720
915.068	-232
915.167	284
915.267	273
915.366	-305
915.465	307
915.564	120
915.663	560
915.763	-128
915.862	736
915.961	614
916.060	-500
916.159	240
916.258	11
916.357	-536
916.456	479
916.555	130
916.654	-93
916.752	126
916.851	115
916.950	-189
917.049	-347
917.148	-504
917.247	-434
917.345	-196
917.444	221
917.543	271
917.642	-55
917.740	43
917.839	619
917.937	1201
918.036	624
918.135	-146
918.233	208
918.332	200
918.430	11
918.529	120
918.627	639
918.726	-163
918.824	215
918.923	51
919.021	-195
919.119	-650
919.218	289
919.316	-731
919.414	329
919.512	-25
919.611	79
919.709	-353
919.807	-25
919.905	126
920.003	972
920.102	-590
920.200	813
920.298	-33
920.396	103
920.494	-438
920.592	845
920.690	406
920.788	247
920.886	-480
920.984	41
921.082	-2
921.180	1860
921.277	823
921.375	782
921.473	502
921.571	529
921.669	526
921.766	926
921.864	1198
921.962	1470
922.060	439
922.157	1217
922.255	351
922.352	1661
922.450	1453
922.548	1063
922.645	1261
922.743	1478
922.840	3371
922.938	3825
923.035	2429
923.133	2893
923.230	3029
923.327	4228
923.425	4278
923.522	4160
923.619	3704
923.717	2876
923.814	3226
923.911	2286
924.008	3645
924.106	3358
924.203	2873
924.300	3377
924.397	2223
924.494	3856
924.591	2660
924.688	3664
924.786	3010
924.883	3095
924.979	2612
925.077	3332
925.173	2545
925.270	3212
925.367	2116
925.464	3255
925.561	2977
925.658	4427
925.755	2554
925.852	2928
925.948	3168
926.045	3334
926.142	3827
926.239	4090
926.335	3135
926.432	4466
926.529	4297
926.625	4661
926.722	3295
926.818	2831
926.915	2818
927.011	2621
927.108	2410
927.204	1580
927.301	1456
927.397	2212
927.494	2842
927.590	2102
927.687	1225
927.783	3133
927.879	2215
927.976	3103
928.072	1105
928.168	1882
928.264	2773
928.361	2160
928.457	2771
928.553	1905
928.649	2371
928.745	2768
928.841	2543
928.937	2540
929.033	2791
929.129	3090
929.225	2287
929.321	1170
929.417	1541
929.513	2990
929.609	1256
929.705	1300
929.801	2087
929.897	1805
929.993	1531
930.089	2328
930.184	1392
930.280	2419
930.376	2124
930.471	2021
930.567	2101
930.663	2678
930.758	1447
930.854	1927
930.950	2568
931.045	1153
931.141	2027
931.236	2337
931.332	1159
931.427	921
931.523	1353
931.618	2113
931.714	862
931.809	1119
931.905	2419
932.000	1027
932.095	1457
932.191	2031
932.286	2921
932.381	2020
932.476	1398
932.572	2281
932.667	586
932.762	2020
932.857	1098
932.952	2226
933.047	1404
933.142	570
933.237	1646
933.332	2373
933.427	1932
933.522	1670
933.617	1950
933.712	2170
933.807	2053
933.902	1432
933.997	2302
934.092	1375
934.187	1160
934.282	1378
934.376	1078
934.471	1947
934.566	1033
934.661	1526
934.755	1686
934.850	1810
934.945	881
935.039	416
935.134	750
935.228	1718
935.323	1864
935.417	1315
935.512	464
935.606	1262
935.701	1489
935.795	1748
935.890	1561
935.984	1552
936.079	748
936.173	1248
936.267	1384
936.362	586
936.456	1177
936.550	2111
936.644	1943
936.738	1672
936.833	845
936.927	1445
937.021	897
937.115	1070
937.209	910
937.303	1793
937.397	916
937.491	973
937.585	1274
937.679	1572
937.773	1100
937.867	1188
937.961	471
938.055	1517
938.149	2588
938.243	977
938.337	720
938.430	1960
938.524	2665
938.618	3627
938.712	1987
938.805	1787
938.899	598
938.993	2494
939.086	2073
939.180	2895
939.274	3153
939.367	2506
939.461	1822
939.554	659
939.648	787
939.741	590
939.835	1597
939.928	1414
940.022	1649
940.115	1497
940.208	1406
940.302	1378
940.395	2377
940.488	-12
940.582	894
940.675	813
940.768	1149
940.861	2382
940.954	1495
941.048	825
941.141	100
941.234	475
941.327	717
941.420	2575
941.513	877
941.606	792
941.699	1103
941.792	1064
941.885	1088
941.978	1609
942.071	1007
942.164	978
942.257	1124
942.349	1107
942.442	986
942.535	1134
942.628	1218
942.721	1472
942.813	635
942.906	1746
942.999	848
943.091	376
943.184	326
943.277	350
943.369	222
943.462	-83
943.554	1032
943.647	663
943.739	1676
943.832	1105
943.924	-636
944.017	956
944.109	-689
944.201	1274
944.294	1123
944.386	544
944.478	-194
944.571	882
944.663	313
944.755	1614
944.847	675
944.940	1106
945.032	-858
945.124	613
945.216	996
945.308	474
945.400	902
945.492	1167
945.584	1430
945.676	1875
945.768	827
945.860	949
945.952	689
946.044	1042
946.136	468
946.228	1280
946.320	179
946.412	1319
946.503	1234
946.595	1489
946.687	83
946.779	-78
946.870	489
946.962	-185
947.054	494
947.145	956
947.237	282
947.329	622
947.420	57
947.512	409
947.603	370
947.695	-13
947.786	-104
947.878	285
947.969	802
948.061	693
948.152	79
948.243	113
948.335	-281
948.426	343
948.517	-192
948.609	814
948.700	560
948.791	-2
948.882	-404
948.973	402
949.065	-148
949.156	453
949.247	-765
949.338	884
949.429	573
949.520	419
949.611	-414
949.702	986
949.793	257
949.884	173
949.975	9
950.066	-1681
950.157	-266
950.247	677
950.338	-22
950.429	-216
950.520	113
950.611	-343
950.701	161
950.792	360
950.883	24
950.973	158
951.064	204
951.155	1119
951.245	775
951.336	492
951.427	-118
951.517	2550
951.608	752
951.698	-1
951.788	158
951.879	-359
951.969	25
952.060	408
952.150	-71
952.240	448
952.331	-517
952.421	1542
952.511	242
952.602	29
952.692	-1105
952.782	77
952.872	-339
952.962	1107
953.052	172
953.143	-65
953.233	219
953.323	624
953.413	9
953.503	703
953.593	624
953.683	-91
953.773	-878
953.863	-243
953.953	-250
954.042	354
954.132	-346
954.222	797
954.312	-139
954.402	-561
954.492	-880
954.581	-260
954.671	311
954.761	-311
954.850	42
954.940	-622
955.030	-749
955.119	300
955.209	-172
955.298	-98
955.388	-586
955.477	1560
955.567	-536
955.656	670
955.746	513
955.835	-843
955.925	-1135
956.014	430
956.103	-65
956.193	487
956.282	373
956.371	255
956.461	-701
956.550	-157
956.639	-94
956.728	-735
956.817	-782
956.906	59
956.995	-92
957.085	-944
957.174	-208
957.263	-431
957.352	-198
957.441	-182
957.530	474
957.619	204
957.708	-1521
957.796	589
957.885	327
957.974	687
958.063	-320
958.152	-1100
958.241	117
958.329	260
958.418	-636
958.507	-616
958.596	745
958.684	-558
958.773	-275
958.861	-121
958.950	-129
959.039	660
959.127	-543
959.216	87
959.304	18
959.393	-62
959.481	277
959.570	62
959.658	-275
959.746	-525
959.835	371
959.923	180
960.011	-817
960.100	263
960.188	130
960.276	-266
960.365	-494
960.453	157
960.541	-1203
960.629	-28
960.717	-333
960.805	-380
960.893	-435
960.981	187
961.069	-398
961.158	-12
961.245	296
961.333	231
961.421	-1120
961.509	364
961.597	-93
961.685	-404
961.773	-545
961.861	121
961.949	12
962.036	-346
962.124	-338
962.212	-481
962.299	-441
962.387	-1147
962.475	-685
962.562	-618
962.650	-746
962.738	131
962.825	-987
962.913	-790
963.000	-822
963.088	-1111
963.175	-427
963.263	213
963.350	-1154
963.438	-982
963.525	-1210
963.612	-368
963.700	-875
963.787	1356
963.874	-1164
963.962	-125
964.049	-685
964.136	-213
964.223	-793
964.310	-769
964.398	-1178
964.485	-863
964.572	-313
964.659	38
964.746	-623
964.833	-472
964.920	-1565
965.007	22
965.094	-1067
965.181	-959
965.268	-761
965.355	-623
965.441	-835
965.528	-920
965.615	-301
965.702	-390
965.789	-706
965.875	84
965.962	-809
966.049	-1161
966.136	-848
966.222	-1320
966.309	-79
966.395	-910
966.482	142
966.569	-130
966.655	-880
966.742	-619
966.828	-915
966.915	-317
967.001	-1189
967.087	-1138
967.174	-1293
967.260	-758
967.347	-994
967.433	-561
967.519	74
967.605	-497
967.692	-1018
967.778	-591
967.864	-1195
967.950	-731
968.036	-1312
968.123	-291
968.209	-1114
968.295	-730
968.381	-216
968.467	-239
968.553	-2006
968.639	481
968.725	-1097
968.811	11
968.897	-346
968.983	-789
969.069	-1200
969.154	-487
969.240	-816
969.326	-2154
969.412	-1436
969.497	-1421
969.583	-1753
969.669	317
969.755	-838
969.840	-715
969.926	-471
970.012	482
970.097	1395
970.183	904
970.268	-1185
970.354	-367
970.439	-2076
970.525	193
970.610	-1140
970.696	-451
970.781	-935
970.866	-1704
970.952	-433
971.037	-1271
971.122	-1691
971.208	-418
971.293	-605
971.378	-1173
971.463	-861
971.549	-615
971.634	-997
971.719	-394
971.804	-1622
971.889	206
971.974	-1210
972.059	-1055
972.144	-635
972.229	-1018
972.314	-464
972.399	-24
972.484	-1931
972.569	-511
972.654	-1616
972.739	532
972.824	-1102
972.908	-102
972.993	-1175
973.078	-1079
973.163	-844
973.247	-68
973.332	-2557
973.417	684
973.501	-1724
973.586	-477
973.671	-175
973.755	-1163
973.840	-420
973.924	39
974.009	-1007
974.093	-1008
974.178	-387
974.262	-351
974.346	-1673
974.431	-225
974.515	-1746
974.600	-535
974.684	-833
974.768	-638
974.852	-27
974.937	-2443
975.021	-948
975.105	-1007
975.189	-1556
975.273	-1026
975.358	-538
975.442	-1708
975.526	-391
975.610	-1689
975.694	-1963
975.778	116
975.862	-1486
975.946	-2724
976.030	398
976.114	-1678
976.198	-1017
976.281	-924
976.365	-559
976.449	-1190
976.533	-98
976.617	-1594
976.700	-714
976.784	-914
976.868	-992
976.951	-36
977.035	-2409
977.119	-1376
977.202	-887
977.286	-194
977.369	-639
977.453	697
977.536	63
977.620	-583
977.703	-609
977.787	-1107
977.870	-66
977.953	692
978.037	-2367
978.120	-394
978.203	-1561
978.287	367
978.370	-1076
978.453	-1863
978.536	-1008
978.620	-442
978.703	-1108
978.786	-1404
978.869	-961
978.952	-1330
979.035	-371
979.118	-563
979.201	-1367
979.284	-838
979.367	-1025
979.450	-286
979.533	-1304
979.616	-1354
979.699	-911
979.782	73
979.865	-574
979.948	-928
980.030	-1843
980.113	-956
980.196	-1444
980.279	-916
980.361	-749
980.444	-1164
980.526	-527
980.609	-830
980.692	-381
980.774	-630
980.857	-1345
980.939	458
981.022	-1189
981.104	-877
981.187	-1404
981.269	-249
981.352	-1314
981.434	-1319
981.516	-1739
981.599	421
981.681	-976
981.763	-697
981.846	-1152
981.928	-652
982.010	-658
982.092	-853
982.174	-373
982.256	-1432
982.339	-1153
982.421	-595
982.503	-1485
982.585	-2347
982.667	-693
982.749	-893
982.831	-911
982.913	-958
982.995	400
983.077	-528
983.158	55
983.240	-1667
983.322	-638
983.404	133
983.486	-1279
983.568	-348
983.649	-953
983.731	-178
983.813	-865
983.894	433
983.976	-1409
984.058	-878
984.139	228
984.221	-1132
984.302	199
984.384	-1128
984.465	-1506
984.547	-42
984.628	-1358
984.710	31
984.791	-1437
984.872	-909
984.954	-1485
985.035	-65
985.116	-1096
985.198	-1148
985.279	320
985.360	-1532
985.441	-1774
985.522	-901
985.604	-1063
985.685	-2348
985.766	205
985.847	171
985.928	-1615
986.009	-537
986.090	-1441
986.171	-632
986.252	-572
986.333	-865
986.414	-1388
986.495	-107
986.576	-1175
986.656	-519
986.737	-694
986.818	-1110
986.899	-2125
986.980	-493
987.060	257
987.141	-656
987.222	-444
987.302	-659
987.383	81
987.464	-324
987.544	-918
987.625	-838
987.705	-245
987.786	-582
987.866	100
987.947	-613
988.027	-421
988.108	-1086
988.188	-46
988.268	-673
988.349	-326
988.429	119
988.509	-163
988.589	-83
988.670	-2314
988.750	387
988.830	-841
988.910	87
988.990	-1221
989.070	-752
989.151	-993
989.231	-482
989.311	-517
989.391	-765
989.471	-887
989.551	-286
989.631	-1522
989.711	-168
989.791	-1745
989.870	-656
989.950	-713
990.030	-938
990.110	-1062
990.190	-1299
990.269	-1252
990.349	-263
990.429	-1023
990.509	-516
990.588	-1814
990.668	-493
990.747	-946
990.827	-1095
990.907	-548
990.986	-1253
991.066	-67
991.145	-1142
991.225	-69
991.304	-353
991.383	-1053
991.463	-937
991.542	-427
991.622	-992
991.701	-1387
991.780	-993
991.859	-1060
991.939	-1658
992.018	-1088
992.097	-743
992.176	-1076
992.256	-924
992.335	-1679
992.414	246
992.493	-1370
992.572	-1677
992.651	409
992.730	-1451
992.809	-1106
992.888	-1288
992.967	-2000
993.046	-334
993.125	-2215
993.203	-1200
993.282	-626
993.361	-587
993.440	-1500
993.519	-1528
993.597	-1562
993.676	-1615
993.755	-1325
993.834	-1161
993.912	-2346
993.991	-298
994.069	-2650
994.148	-1588
994.226	-1474
994.305	-1230
994.384	-1641
994.462	-543
994.540	-1849
994.619	-1909
994.697	-1825
994.776	-1748
994.854	-201
994.932	-1366
995.011	-1088
995.089	-1418
995.167	-1060
995.245	-890
995.324	-2507
995.402	-595
995.480	-877
995.558	-785
995.636	-2379
995.714	-1465
995.792	-1457
995.870	-1314
995.948	-1786
996.026	-1110
996.104	-2611
996.182	-395
996.260	-2353
996.338	-1056
996.416	-2766
996.494	-1615
996.572	-716
996.649	-1487
996.727	-3078
996.805	-1497
996.883	-2350
996.960	-1460
997.038	-1561
997.116	-1747
997.193	-1971
997.271	-1226
997.348	-2006
997.426	-1488
997.504	-2158
997.581	-873
997.658	-1015
997.736	-1625
997.813	-2281
997.891	-337
997.968	-1717
998.046	-1311
998.123	-2147
998.200	-1364
998.277	-2218
998.355	-1435
998.432	-2589
998.509	-1585
998.586	-1003
998.663	-2304
998.741	-1768
998.818	-1863
998.895	-1537
998.972	-1509
999.049	-1251
999.126	-1851
999.203	-1002
999.280	-1785
999.357	-2783
999.434	-2379
999.511	-2540
999.587	-1500
999.664	-2288
999.741	-1202
999.818	-2128
999.895	-1487
999.971	-1685
1000.048	-1946
1000.125	-1257
1000.202	-1943
1000.278	-1850
1000.355	-923
1000.431	-2115
1000.508	-2964
1000.584	-1771
1000.661	-2135
1000.738	-2214
1000.814	-2020
1000.890	-1793
1000.967	-1648
1001.043	-1474
1001.120	-2747
1001.196	-1749
1001.272	-2211
1001.349	-1523
1001.425	-1758
1001.501	-2626
1001.577	-2199
1001.654	-1495
1001.730	-2308
1001.806	-1848
1001.882	-1882
1001.958	-1664
1002.034	-1432
1002.110	-1686
1002.186	-2088
1002.262	-1918
1002.338	-1788
1002.414	-1570
1002.490	-857
1002.566	-2660
1002.642	-1938
1002.718	-1234
1002.794	-1546
1002.870	-2551
1002.945	-1969
1003.021	-2746
1003.097	-2221
1003.173	-2225
1003.248	-2038
1003.324	-1045
1003.400	-1658
1003.475	-2597
1003.551	-1705
1003.626	-2236
1003.702	-2306
1003.777	-2960
1003.853	-1414
1003.928	-2996
1004.004	-1856
1004.079	-1864
1004.155	-1239
1004.230	-2966
1004.305	-1038
1004.381	-2017
1004.456	-2116
1004.531	-2381
1004.607	-1931
1004.682	-2238
1004.757	-2224
1004.832	-1956
1004.907	-2326
1004.982	-1786
1005.057	-1935
1005.133	-2349
1005.208	-2910
1005.283	-2656
1005.358	-1675
1005.433	-2887
1005.508	-1638
1005.583	-2640
1005.657	-2142
1005.732	-2110
1005.807	-1921
1005.882	-2626
1005.957	-2566
1006.032	-2058
1006.106	-2860
1006.181	-1933
1006.256	-1282
1006.331	-2964
1006.405	-2759
1006.480	-2441
1006.554	-2472
1006.629	-2156
1006.704	-2593
1006.778	-2179
1006.853	-1106
1006.927	-1901
1007.002	-2042
1007.076	-2035
1007.150	-2240
1007.225	-2669
1007.299	-1505
1007.373	-2292
1007.448	-1719
1007.522	-1268
1007.596	-1748
1007.671	-2683
1007.745	-1054
1007.819	-2989
1007.893	-2266
1007.967	-1936
1008.041	-2694
1008.115	-1053
1008.190	-1402
1008.264	-1391
1008.338	-2948
1008.412	-2571
1008.486	-1928
1008.560	-2124
1008.633	-1875
1008.707	-2413
1008.781	-1861
1008.855	-2181
1008.929	-2740
1009.003	-2240
1009.076	-2048
1009.150	-2605
1009.224	-1788
1009.298	-2518
1009.371	-2922
1009.445	-2321
1009.519	-2209
1009.592	-2898
1009.666	-1995
1009.739	-943
1009.813	-2802
1009.886	-1279
1009.960	-2915
1010.033	-2381
1010.107	-2145
1010.180	-2894
1010.253	-2120
1010.327	-2669
1010.400	-2195
1010.473	-1772
1010.547	-661
1010.620	-2915
1010.693	-2339
1010.766	-2127
1010.840	-2022
1010.913	-2046
1010.986	-2229
1011.059	-1757
1011.132	-1031
1011.205	-1916
1011.278	-1964
1011.351	-2140
1011.424	-1342
1011.497	-2598
1011.570	-1518
1011.643	-2613
1011.716	-2538
1011.789	-1549
1011.862	-1265
1011.934	-1800
1012.007	-2467
1012.080	-1882
1012.153	-1654
1012.225	-1286
1012.298	-1883
1012.371	-2784
1012.443	-1567
1012.516	-3787
1012.588	-2190
1012.661	-1795
1012.733	-2671
1012.806	-1061
1012.879	-2373
1012.951	-2031
1013.023	-1600
1013.096	-2700
1013.168	-2294
1013.241	-1745
1013.313	-1640
1013.385	-2513
1013.458	-1890
1013.530	-1602
1013.602	-2730
1013.674	-2031
1013.746	-2960
1013.819	-2829
1013.891	-2019
1013.963	-3020
1014.035	-1915
1014.107	-1370
1014.179	-2076
1014.251	-2180
1014.323	-1558
1014.395	-2075
1014.467	-1640
1014.539	-1856
1014.611	-1795
1014.683	-2339
1014.754	-2375
1014.826	-3711
1014.898	-1592
1014.970	-3251
1015.042	-1749
1015.113	-2354
1015.185	-2079
1015.257	-2951
1015.328	-1264
1015.400	-2129
1015.471	-1826
1015.543	-2788
1015.615	-2224
1015.686	-1753
1015.757	-2170
1015.829	-2445
1015.901	-1360
1015.972	-1927
1016.043	-2486
1016.115	-2054
1016.186	-1986
1016.257	-2601
1016.328	-2433
1016.400	-1856
1016.471	-2439
1016.542	-2842
1016.613	-1448
1016.685	-2006
1016.756	-1860
1016.827	-1942
1016.898	-2152
1016.969	-1716
1017.040	-1865
1017.111	-3044
1017.182	-2857
1017.253	-1553
1017.324	-1974
1017.395	-2245
1017.466	-1907
1017.537	-2951
1017.608	-2543
1017.678	-2536
1017.749	-2375
1017.820	-2169
1017.891	-2499
1017.961	-2968
1018.032	-2034
1018.103	-1987
1018.173	-2030
1018.244	-2853
1018.315	-2560
1018.385	-2246
1018.456	-1536
1018.526	-3220
1018.597	-2169
1018.667	-1710
1018.738	-2643
1018.808	-2972
1018.878	-2382
1018.949	-2812
1019.019	-2168
1019.089	-2081
1019.160	-1202
1019.230	-3285
1019.300	-2240
1019.371	-2990
1019.441	-1861
1019.511	-2803
1019.581	-1823
1019.651	-2028
1019.721	-2330
1019.791	-2431
1019.861	-1561
1019.931	-2202
1020.001	-2379
1020.071	-3258
1020.141	-2153
1020.211	-3380
1020.281	-1993
1020.351	-3213
1020.421	-1964
1020.491	-2415
1020.560	-2974
1020.630	-2581
1020.700	-1842
1020.770	-2795
1020.839	-2149
1020.909	-2080
1020.979	-3134
1021.048	-2949
1021.118	-2187
1021.187	-2627
1021.257	-2279
1021.326	-1304
1021.396	-1509
1021.465	-1998
1021.535	-3104
1021.604	-2797
1021.674	-1949
1021.743	-2817
1021.812	-2019
1021.882	-1954
1021.951	-1998
1022.020	-2610
1022.089	-1561
1022.159	-1793
1022.228	-2257
1022.297	-2621
1022.366	-2504
1022.435	-2246
1022.504	-2341
1022.573	-2370
1022.642	-2215
1022.711	-2779
1022.781	-1282
1022.849	-2619
1022.918	-2320
1022.987	-2515
1023.056	-2262
1023.125	-2100
1023.194	-2147
1023.263	-2603
1023.331	-1434
1023.400	-2809
1023.469	-2307
1023.538	-2133
1023.606	-2885
1023.675	-2843
1023.744	-2563
1023.812	-2662
1023.881	-1329
1023.949	-2263
1024.018	-2832
1024.086	-2066
1024.155	-2169
1024.223	-2176
1024.292	-2000
1024.360	-2304
1024.429	-2359
1024.497	-3363
1024.565	-1073
1024.634	-2030
1024.702	-1958
1024.770	-3211
1024.838	-2432
1024.907	-2488
1024.975	-2658
1025.043	-1763
1025.111	-2188
1025.179	-2220
1025.247	-2362
1025.315	-2605
1025.383	-2584
1025.451	-2678
1025.519	-1762
1025.587	-2799
1025.655	-2322
1025.723	-2654
1025.791	-2918
1025.859	-1827
1025.927	-2137
1025.995	-2693
1026.062	-2117
1026.130	-2773
1026.198	-2211
1026.266	-2860
1026.333	-1910
1026.401	-2452
1026.469	-2653
1026.536	-2653
1026.604	-1834
1026.671	-3048
1026.739	-1729
1026.806	-2899
1026.874	-2294
1026.941	-2558
1027.009	-2325
1027.076	-2621
1027.144	-2142
1027.211	-3216
1027.278	-2505
1027.345	-2383
1027.413	-1619
1027.480	-2551
1027.547	-2092
1027.614	-2664
1027.682	-2830
1027.749	-2399
1027.816	-1739
1027.883	-1975
1027.950	-2141
1028.017	-2797
1028.084	-2694
1028.151	-3947
1028.218	-2258
1028.285	-2705
1028.352	-2416
1028.419	-2839
1028.486	-2336
1028.553	-3373
1028.619	-2964
1028.686	-3035
1028.753	-2100
1028.820	-3623
1028.886	-2831
1028.953	-2282
1029.020	-2177
1029.086	-2667
1029.153	-2243
1029.220	-2745
1029.286	-2025
1029.353	-2231
1029.419	-2720
1029.486	-2530
1029.552	-2335
1029.619	-2874
1029.685	-2245
1029.751	-2863
1029.818	-2075
1029.884	-2331
1029.951	-1349
1030.017	-3019
1030.083	-2683
1030.149	-1777
1030.216	-2349
1030.282	-2869
1030.348	-2330
1030.414	-2538
1030.480	-1934
1030.546	-3078
1030.612	-1855
1030.678	-2720
1030.744	-2080
1030.810	-2344
1030.876	-2605
1030.942	-3095
1031.008	-1972
1031.074	-3062
1031.140	-2559
1031.206	-2450
1031.272	-2609
1031.337	-2902
1031.403	-1742
1031.469	-2286
1031.534	-2424
1031.600	-2728
1031.666	-2324
1031.731	-2310
1031.797	-2145
1031.863	-2545
1031.928	-2341
1031.994	-2896
1032.059	-2955
1032.125	-2948
1032.190	-3356
1032.256	-3809
1032.321	-2955
1032.386	-2213
1032.452	-2352
1032.517	-3431
1032.582	-2454
1032.647	-3018
1032.713	-2731
1032.778	-1973
1032.843	-2496
1032.908	-2013
1032.974	-2038
1033.039	-2344
1033.104	-1926
1033.169	-2552
1033.234	-1703
1033.299	-2047
1033.364	-2111
1033.429	-2491
1033.494	-2208
1033.559	-2717
1033.624	-2810
1033.688	-2320
1033.753	-2409
1033.818	-3159
1033.883	-2243
1033.948	-1820
1034.013	-2049
1034.077	-2334
1034.142	-618
1034.207	-1497
1034.271	-432
1034.336	216
1034.400	225
1034.465	-1672
1034.530	-2101
1034.594	-2244
1034.658	-2203
1034.723	-2481
1034.787	-1839
1034.852	-2452
1034.916	-2845
1034.981	-2774
1035.045	-1489
1035.109	-2760
1035.173	-2014
1035.238	-2353
1035.302	-2187
1035.366	-2313
1035.430	-2190
1035.495	-2793
1035.559	-1826
1035.623	-2666
1035.687	-2252
1035.751	-3118
1035.815	-2606
1035.879	-3266
1035.943	-1825
1036.007	-2479
1036.071	-2077
1036.135	-2610
1036.198	-1971
1036.262	-2599
1036.326	-2068
1036.390	-2257
1036.454	-2051
1036.517	-2421
1036.581	-2166
1036.645	-1522
1036.709	-1517
1036.772	-2685
1036.836	-2011
1036.900	-2212
1036.963	-2659
1037.026	-2212
1037.090	-2163
1037.154	-1858
1037.217	-1768
1037.280	-1984
1037.344	-2627
1037.407	-2469
1037.471	-1973
1037.534	-2845
1037.597	-1838
1037.661	-2924
1037.724	-2734
1037.787	-2236
1037.850	-1974
1037.913	-2691
1037.977	-2223
1038.040	-2283
1038.103	-2840
1038.166	-2253
1038.229	-2001
1038.292	-4365
1038.355	-1624
1038.418	-2503
1038.481	-1931
1038.544	-2849
1038.607	-2112
1038.670	-2301
1038.732	-2395
1038.795	-2159
1038.858	-2803
1038.921	-2198
1038.984	-1609
1039.046	-2887
1039.109	-2073
1039.172	-2606
1039.234	-2532
1039.297	-2835
1039.360	-1747
1039.422	-2099
1039.485	-2689
1039.547	-2946
1039.610	-2094
1039.672	-2999
1039.734	-2543
1039.797	-2938
1039.859	-2218
1039.922	-2363
1039.984	-1733
1040.046	-3094
1040.109	-2398
1040.171	-2287
1040.233	-1848
1040.295	-2939
1040.358	-2366
1040.420	-2896
1040.482	-2063
1040.544	-2765
1040.606	-2309
1040.668	-2382
1040.730	-2081
1040.792	-3117
1040.854	-2636
1040.916	-2909
1040.978	-1751
1041.040	-1558
1041.102	-2125
1041.164	-2742
1041.225	-2551
1041.287	-2814
1041.349	-2193
1041.411	-2984
1041.472	-2121
1041.534	-2624
1041.596	-2266
1041.657	-2487
1041.719	-1805
1041.781	-2932
1041.842	-2476
1041.904	-2679
1041.965	-2277
1042.027	-2107
1042.088	-2118
1042.150	-2514
1042.211	-2240
1042.272	-1980
1042.334	-2426
1042.395	-2370
1042.456	-2778
1042.518	-3211
1042.579	-2161
1042.640	-3005
1042.701	-2681
1042.763	-2653
1042.824	-2169
1042.885	-2775
1042.946	-2160
1043.007	-3024
1043.068	-2417
1043.129	-2664
1043.190	-2489
1043.251	-1986
1043.312	-2453
1043.373	-2849
1043.434	-2399
1043.495	-3255
1043.556	-1613
1043.616	-1392
1043.677	-1790
1043.738	-2218
1043.799	-2354
1043.859	-1795
1043.920	-2405
1043.981	-3087
1044.041	-2176
1044.102	-1964
1044.162	-1964
1044.223	-3200
1044.284	-1241
1044.344	-2131
1044.405	-2238
1044.465	-2088
1044.525	-2495
1044.586	-2613
1044.646	-947
1044.707	-2268
1044.767	-1991
1044.827	-2012
1044.887	-2226
1044.948	-2411
1045.008	-2745
1045.068	-2937
1045.128	-1574
1045.188	-2767
1045.249	-1597
1045.309	-2021
1045.369	-1951
1045.429	-2761
1045.489	-2509
1045.549	-2310
1045.609	-2579
1045.669	-2281
1045.729	-2024
1045.789	-2025
1045.848	-2378
1045.908	-2389
1045.968	-2665
1046.028	-2323
1046.088	-1740
1046.147	-1665
1046.207	-2416
1046.267	-2322
1046.326	-1307
1046.386	-1931
1046.446	-1815
1046.505	-2522
1046.565	-1286
1046.624	-1819
1046.684	-864
1046.743	-1046
1046.803	-552
1046.862	-795
1046.922	0
