'Start Wavelength	183.907
'End Wavelength	1046.922
'Gate Delay	5.000
'Gate Width (ms)	1.050
'Laser Output Level	0.000
'X Position	0.000
'Y Position	0.000
'Z Position	0.000
'Grid Point Number	1.000
'Shot Number	100.000
183.907	-368.000
183.977	-110.000
184.047	-125
184.116	-1
184.186	402
184.256	-158
184.325	360
184.395	-889
184.465	361
184.534	-362
184.604	-330
184.674	539
184.743	191
184.813	-159
184.883	58
184.952	341
185.022	434
185.092	-454
185.161	-990
185.231	199
185.301	-238
185.370	102
185.440	-619
185.509	-1341
185.579	-88
185.649	-617
185.718	-115
185.788	825
185.857	-546
185.927	-477
185.996	116
186.066	-132
186.136	-112
186.205	-756
186.275	66
186.344	-427
186.414	736
186.483	-968
186.553	1032
186.622	298
186.692	-70
186.761	-369
186.831	335
186.900	386
186.970	-171
187.039	15
187.109	-83
187.178	450
187.248	-575
187.317	93
187.387	176
187.456	134
187.526	-426
187.595	-696
187.664	-778
187.734	42
187.803	457
187.873	-143
187.942	-469
188.012	-62
188.081	-888
188.150	-458
188.220	-33
188.289	547
188.358	400
188.428	-144
188.497	-537
188.567	420
188.636	-976
188.705	233
188.775	-553
188.844	-346
188.913	289
188.983	-691
189.052	-66
189.121	316
189.191	-623
189.260	-282
189.329	-750
189.399	-695
189.468	-140
189.537	-519
189.606	-424
189.676	437
189.745	-246
189.814	85
189.883	-207
189.953	149
190.022	-499
190.091	-320
190.161	7
190.230	300
190.299	-906
190.368	-356
190.437	-317
190.507	450
190.576	-487
190.645	49
190.714	-15
190.783	-350
190.853	-23
190.922	36
190.991	-77
191.060	-165
191.129	-364
191.198	67
191.268	-614
191.337	-803
191.406	-437
191.475	-147
191.544	-213
191.613	523
191.682	-1025
191.752	-433
191.821	-427
191.890	-353
191.959	-96
192.028	-50
192.097	-398
192.166	-442
192.235	-906
192.304	763
192.373	179
192.442	323
192.511	-124
192.580	-584
192.650	-421
192.719	-1286
192.788	226
192.857	469
192.926	-59
192.995	-443
193.064	-379
193.133	-240
193.202	-383
193.271	520
193.340	-419
193.409	452
193.478	-314
193.547	-349
193.615	-704
193.684	-478
193.753	-581
193.822	265
193.891	-338
193.960	245
194.029	-720
194.098	295
194.167	-811
194.236	1042
194.305	-201
194.374	8
194.443	-542
194.512	-85
194.580	241
194.649	-231
194.718	-81
194.787	375
194.856	-1024
194.925	-171
194.994	-413
195.062	-498
195.131	575
195.200	-408
195.269	-731
195.338	31
195.407	-805
195.475	-650
195.544	-280
195.613	-93
195.682	-543
195.751	188
195.819	-697
195.888	-775
195.957	159
196.026	132
196.094	344
196.163	-813
196.232	-275
196.301	190
196.369	-702
196.438	-482
196.507	87
196.576	-276
196.644	-657
196.713	-519
196.782	-642
196.850	322
196.919	236
196.988	-61
197.056	-742
197.125	-560
197.194	230
197.262	-264
197.331	-21
197.400	-370
197.468	-364
197.537	-1311
197.606	-234
197.674	-186
197.743	-126
197.812	-702
197.880	-230
197.949	-671
198.017	-506
198.086	-504
198.155	-768
198.223	-362
198.292	631
198.360	-73
198.429	-790
198.497	13
198.566	-415
198.635	10
198.703	186
198.772	-88
198.840	-758
198.909	-420
198.977	-413
199.046	-112
199.114	157
199.183	190
199.251	-550
199.320	-808
199.388	-1065
199.457	-1233
199.525	-285
199.594	-190
199.662	-482
199.731	-476
199.799	-392
199.867	141
199.936	-1173
200.004	-282
200.073	-269
200.141	-284
200.210	-1170
200.278	-515
200.346	45
200.415	-278
200.483	-380
200.552	894
200.620	-998
200.688	-629
200.757	-475
200.825	-513
200.893	-644
200.962	-119
201.030	-354
201.098	-787
201.167	286
201.235	-265
201.303	-473
201.372	11
201.440	30
201.508	-8
201.577	-19
201.645	-371
201.713	-1497
201.781	-974
201.850	200
201.918	-98
201.986	-570
202.055	415
202.123	-711
202.191	-971
202.259	-56
202.327	-103
202.396	-298
202.464	-262
202.532	-148
202.600	-383
202.669	-68
202.737	-907
202.805	31
202.873	363
202.941	-366
203.009	-81
203.078	-513
203.146	-355
203.214	-940
203.282	-1299
203.350	218
203.418	-651
203.487	-713
203.555	-37
203.623	-238
203.691	67
203.759	64
203.827	-58
203.895	-22
203.963	-814
204.031	-832
204.099	-731
204.168	173
204.236	-251
204.304	-75
204.372	61
204.440	290
204.508	-72
204.576	-1049
204.644	-349
204.712	-1364
204.780	-796
204.848	-472
204.916	-729
204.984	-629
205.052	-491
205.120	-400
205.188	-546
205.256	-1294
205.324	-516
205.392	-620
205.460	-238
205.528	-941
205.596	-391
205.664	-750
205.732	-425
205.799	-333
205.867	-292
205.935	-704
206.003	433
206.071	-975
206.139	-997
206.207	-495
206.275	309
206.343	-1174
206.411	-707
206.478	-1092
206.546	-703
206.614	-748
206.682	-305
206.750	-290
206.818	-422
206.885	127
206.953	-1188
207.021	138
207.089	-299
207.157	-527
207.225	350
207.292	-1197
207.360	-496
207.428	-400
207.496	-1422
207.563	-752
207.631	-607
207.699	-611
207.767	-556
207.834	-874
207.902	-368
207.970	-470
208.038	-1699
208.105	-898
208.173	-881
208.241	-270
208.309	-264
208.376	-209
208.444	-150
208.512	-573
208.579	-1762
208.647	168
208.715	598
208.782	-1245
208.850	-879
208.918	-1339
208.985	-695
209.053	-39
209.120	-175
209.188	-998
209.256	-558
209.323	-1116
209.391	-1685
209.459	559
209.526	-439
209.594	-511
209.661	-465
209.729	-604
209.796	-604
209.864	-997
209.932	-2028
209.999	1292
210.067	-257
210.134	-829
210.202	-291
210.269	156
210.337	37
210.404	-168
210.472	-38
210.539	-19
210.607	-764
210.674	-1262
210.742	-661
210.809	-466
210.877	-677
210.944	340
211.012	-1555
211.079	679
211.146	-742
211.214	-868
211.281	-557
211.349	-343
211.416	-352
211.484	-423
211.551	-686
211.618	-262
211.686	-461
211.753	-1268
211.821	90
211.888	-1632
211.955	-516
212.023	-355
212.090	-274
212.157	-1107
212.225	-796
212.292	-779
212.359	-543
212.427	-354
212.494	-603
212.561	-247
212.629	-976
212.696	-828
212.763	-720
212.831	-1262
212.898	-248
212.965	-1061
213.032	-315
213.100	-459
213.167	-244
213.234	-469
213.301	-150
213.369	-1266
213.436	-216
213.503	-654
213.570	-810
213.638	-888
213.705	-1305
213.772	-742
213.839	-1030
213.906	-179
213.973	-742
214.041	-1181
214.108	-354
214.175	-1372
214.242	-327
214.309	-573
214.376	-550
214.444	-970
214.511	-113
214.578	-1060
214.645	-627
214.712	-569
214.779	-733
214.846	-1353
214.913	-1057
214.980	-441
215.048	-190
215.115	-127
215.182	-475
215.249	-415
215.316	-460
215.383	-463
215.450	-958
215.517	-1268
215.584	-489
215.651	-175
215.718	-860
215.785	-196
215.852	-1276
215.919	276
215.986	-96
216.053	-1005
216.120	-927
216.187	-681
216.254	-717
216.321	-301
216.388	-696
216.455	-453
216.522	-341
216.589	-451
216.656	-884
216.722	-936
216.789	-289
216.856	-1007
216.923	-617
216.990	-819
217.057	-906
217.124	-1324
217.191	-1228
217.258	-710
217.324	-495
217.391	-851
217.458	-792
217.525	-960
217.592	-23
217.659	-1142
217.725	-22
217.792	-991
217.859	-229
217.926	-1145
217.993	-1138
218.059	-526
218.126	-627
218.193	-454
218.260	596
218.327	-968
218.393	-927
218.460	-997
218.527	-1737
218.594	-940
218.660	-1043
218.727	143
218.794	-773
218.860	-184
218.927	-792
218.994	-840
219.061	-1048
219.127	-971
219.194	-844
219.261	-685
219.327	-1123
219.394	-694
219.461	-2379
219.527	-596
219.594	74
219.661	-333
219.727	-780
219.794	574
219.860	-1475
219.927	-804
219.994	-677
220.060	-722
220.127	324
220.193	-293
220.260	-913
220.326	-472
220.393	-415
220.460	-272
220.526	-508
220.593	-1332
220.659	758
220.726	-366
220.792	-390
220.859	-519
220.925	352
220.992	102
221.058	-158
221.125	-239
221.191	-778
221.258	-375
221.324	-432
221.391	-419
221.457	-955
221.524	-472
221.590	-198
221.657	127
221.723	-1119
221.789	-855
221.856	-32
221.922	-1430
221.989	546
222.055	28
222.121	-1494
222.188	511
222.254	-640
222.321	-1270
222.387	-1568
222.453	-543
222.520	-661
222.586	-1266
222.652	-720
222.719	-1364
222.785	-391
222.851	-1558
222.918	-286
222.984	-575
223.050	-827
223.116	-1979
223.183	211
223.249	-1716
223.315	-1071
223.382	-908
223.448	-799
223.514	-927
223.580	346
223.647	-998
223.713	-1078
223.779	-1195
223.845	-563
223.911	-546
223.978	-1827
224.044	-179
224.110	-951
224.176	-326
224.242	159
224.309	-1047
224.375	-372
224.441	-999
224.507	-1387
224.573	-1832
224.639	56
224.705	-1342
224.772	-1142
224.838	-746
224.904	-343
224.970	-867
225.036	-854
225.102	-1432
225.168	487
225.234	-524
225.300	-841
225.366	-451
225.432	-950
225.499	-531
225.565	-1129
225.631	-1890
225.697	-1072
225.763	-1533
225.829	-1164
225.895	-525
225.961	-552
226.027	-323
226.093	-1699
226.159	120
226.225	-110
226.291	-257
226.357	1345
226.423	-238
226.489	-946
226.554	-594
226.620	-506
226.686	229
226.752	-97
226.818	-665
226.884	1246
226.950	819
227.016	-154
227.082	45
227.148	-843
227.214	-319
227.279	-924
227.345	-1326
227.411	-613
227.477	-968
227.543	-578
227.609	-531
227.674	-289
227.740	-1465
227.806	-475
227.872	-821
227.938	-423
228.003	-342
228.069	-1238
228.135	-854
228.201	-381
228.267	-1162
228.332	-839
228.398	-2031
228.464	-683
228.530	-1082
228.595	-488
228.661	-1074
228.727	-1353
228.792	-170
228.858	-1090
228.924	-1921
228.990	640
229.055	-1611
229.121	-471
229.187	-60
229.252	-1290
229.318	-1775
229.384	74
229.449	-598
229.515	-2403
229.581	-1082
229.646	1915
229.712	-1445
229.777	-641
229.843	-1681
229.909	-981
229.974	-572
230.040	-973
230.105	-1104
230.171	-1333
230.236	-99
230.302	112
230.368	-1237
230.433	-1206
230.499	-990
230.564	-62
230.630	-1353
230.695	-701
230.761	419
230.826	-2028
230.892	-205
230.957	-1982
231.023	-1187
231.088	-1303
231.154	-971
231.219	-533
231.284	-1173
231.350	-146
231.415	-1690
231.481	376
231.546	-1038
231.612	-1101
231.677	-457
231.742	-1996
231.808	-515
231.873	-1335
231.939	-2997
232.004	181
232.069	-458
232.135	-1063
232.200	-1338
232.265	-203
232.331	-1087
232.396	-1527
232.461	-916
232.527	-1720
232.592	-1420
232.657	-964
232.723	-1057
232.788	-777
232.853	-1244
232.918	-587
232.984	-1289
233.049	-1195
233.114	-2020
233.179	-370
233.245	-121
233.310	-590
233.375	-2634
233.440	-610
233.506	-1208
233.571	-1258
233.636	-738
233.701	-677
233.766	-1167
233.832	-709
233.897	-1008
233.962	-1617
234.027	294
234.092	-750
234.157	-1186
234.222	-945
234.288	-843
234.353	-1138
234.418	-5
234.483	-193
234.548	-962
234.613	-739
234.678	-1031
234.743	-1762
234.808	-581
234.873	-2311
234.938	41
235.004	-584
235.069	-1501
235.134	-1049
235.199	-304
235.264	-653
235.329	-1468
235.394	400
235.459	210
235.524	-1940
235.589	-326
235.654	-1205
235.719	-2364
235.784	-272
235.849	-1421
235.913	-80
235.978	-767
236.043	-454
236.108	-763
236.173	-1720
236.238	-205
236.303	-1436
236.368	-1620
236.433	453
236.498	-1825
236.563	-598
236.627	-775
236.692	958
236.757	1936
236.822	-246
236.887	-1122
236.952	-304
237.017	-1879
237.081	345
237.146	-1647
237.211	568
237.276	1207
237.341	2840
237.405	-120
237.470	-45
237.535	662
237.600	-809
237.664	172
237.729	-1189
237.794	-1265
237.859	-354
237.923	-758
237.988	-1078
238.053	-487
238.118	-1259
238.182	-1035
238.247	171
238.312	-1559
238.376	-678
238.441	-2632
238.506	-243
238.570	-1856
238.635	265
238.700	-953
238.764	-1621
238.829	-1173
238.893	-1258
238.958	-365
239.023	-1499
239.087	-990
239.152	-983
239.216	-1807
239.281	-186
239.346	-1340
239.410	-457
239.475	-1624
239.539	-1377
239.604	-1924
239.668	88
239.733	155
239.797	511
239.862	1398
239.926	552
239.991	-225
240.055	-75
240.120	-1095
240.184	-833
240.249	-1429
240.313	-1441
240.378	-1059
240.442	-974
240.507	-995
240.571	-1608
240.635	-979
240.700	-558
240.764	-538
240.829	-466
240.893	-1423
240.957	-1235
241.022	-322
241.086	-286
241.151	-2023
241.215	-1771
241.279	-475
241.344	-1117
241.408	-197
241.472	-1837
241.537	156
241.601	-790
241.665	-1745
241.730	-1128
241.794	161
241.858	-1173
241.922	-1021
241.987	-329
242.051	-1600
242.115	-2073
242.179	-559
242.244	-1407
242.308	-456
242.372	-493
242.436	-1851
242.501	-801
242.565	-1447
242.629	-1431
242.693	-366
242.757	-1614
242.822	-1355
242.886	-38
242.950	84
243.014	-1381
243.078	-629
243.142	-982
243.206	-998
243.271	-1028
243.335	-1318
243.399	-806
243.463	-1032
243.527	428
243.591	-71
243.655	-777
243.719	-1964
243.783	152
243.847	-745
243.911	-589
243.975	-1347
244.040	-2950
244.104	572
244.168	-741
244.232	-1407
244.296	-100
244.360	-523
244.424	-2002
244.488	-484
244.552	60
244.615	-2768
244.679	-159
244.743	-1601
244.807	-1946
244.871	-347
244.935	-682
244.999	-2412
245.063	-1349
245.127	65
245.191	-993
245.255	-1533
245.319	-1079
245.383	-3188
245.446	29
245.510	-1954
245.574	-1090
245.638	-546
245.702	-2308
245.766	81
245.829	-57
245.893	-1997
245.957	-1307
246.021	-491
246.085	-1247
246.149	-1456
246.212	-568
246.276	-1301
246.340	-1189
246.404	-987
246.467	-100
246.531	-2824
246.595	-85
246.659	-371
246.722	-2028
246.786	-1182
246.850	-1442
246.913	-1534
246.977	-1564
247.041	-894
247.104	-472
247.168	-862
247.232	-1295
247.295	-872
247.359	-708
247.423	-1387
247.486	-494
247.550	-424
247.614	-951
247.677	-1379
247.741	-1505
247.804	-1466
247.868	-557
247.932	-2294
247.995	-528
248.059	-1188
248.122	-2500
248.186	-716
248.249	-589
248.313	9
248.376	120
248.440	-1447
248.503	-2218
248.567	455
248.630	-1929
248.694	-1315
248.757	68
248.821	-841
248.884	16
248.948	-1681
249.011	-444
249.075	-216
249.138	409
249.202	-848
249.265	-1158
249.328	-386
249.392	-2000
249.455	-1322
249.519	-1032
249.582	-1299
249.645	-931
249.709	-1364
249.772	-1436
249.835	-831
249.899	-1615
249.962	-1016
250.025	-1184
250.089	-314
250.152	-127
250.215	-413
250.279	-1547
250.342	-1050
250.405	-119
250.468	-831
250.532	-1654
250.595	-87
250.658	-340
250.721	2810
250.785	400
250.848	453
250.911	-1636
250.974	-104
251.038	-1019
251.101	-413
251.164	-1233
251.227	-263
251.290	-1189
251.354	-857
251.417	903
251.480	2740
251.543	1165
251.606	5506
251.669	3979
251.732	508
251.795	284
251.859	489
251.922	2606
251.985	1367
252.048	283
252.111	-309
252.174	-1443
252.237	96
252.300	-170
252.363	573
252.426	4046
252.489	-116
252.552	-323
252.615	-1311
252.678	362
252.741	-195
252.804	-682
252.867	3702
252.930	628
252.993	-1218
253.056	255
253.119	-970
253.182	-1306
253.245	-357
253.308	-12
253.371	-1288
253.434	-1062
253.497	-552
253.559	372
253.622	-970
253.685	-359
253.748	-1561
253.811	-1284
253.874	-97
253.937	-1368
254.000	-564
254.062	-752
254.125	-785
254.188	311
254.251	-1591
254.314	-1167
254.376	-993
254.439	-1155
254.502	-1247
254.565	-1278
254.628	-277
254.690	-1146
254.753	-1463
254.816	-963
254.878	-1591
254.941	-186
255.004	-1381
255.067	-1499
255.129	-2382
255.192	-330
255.255	-1693
255.317	-1229
255.380	-351
255.443	-1587
255.505	-1204
255.568	-1795
255.631	-1368
255.693	-518
255.756	-1705
255.819	-496
255.881	-1341
255.944	-413
256.006	-2125
256.069	-1221
256.132	-1120
256.194	-886
256.257	-458
256.319	-609
256.382	-1595
256.444	-592
256.507	-1491
256.569	-1799
256.632	-1399
256.694	-1523
256.757	460
256.819	3592
256.882	-452
256.944	-670
257.007	28
257.069	-1366
257.132	-901
257.194	-670
257.257	-1376
257.319	-2052
257.381	-1796
257.444	76
257.506	3080
257.569	4345
257.631	-88
257.693	-1135
257.756	-592
257.818	-2002
257.880	-931
257.943	-446
258.005	-682
258.067	-1378
258.130	-1774
258.192	-1691
258.254	-1568
258.317	-1664
258.379	-831
258.441	-882
258.503	-104
258.566	-1840
258.628	-205
258.690	-2183
258.753	-993
258.815	-780
258.877	-1411
258.939	-1025
259.001	-1097
259.064	-715
259.126	-2120
259.188	-1594
259.250	-993
259.312	-1874
259.375	-1461
259.437	-1335
259.499	-931
259.561	-1157
259.623	-1181
259.685	-1514
259.747	-949
259.809	-940
259.872	-1161
259.934	-445
259.996	-894
260.058	-197
260.120	-1884
260.182	-569
260.244	-1301
260.306	-1372
260.368	-704
260.430	-2018
260.492	-846
260.554	-269
260.616	-1719
260.678	-960
260.740	-468
260.802	-2044
260.864	-364
260.926	-1916
260.988	-459
261.050	-1775
261.112	-1501
261.174	245
261.236	-878
261.298	-710
261.359	-503
261.421	-1014
261.483	-1776
261.545	-269
261.607	-1961
261.669	-804
261.731	-1210
261.793	-259
261.854	-1883
261.916	-1199
261.978	-1094
262.040	-1160
262.102	-70
262.164	-1379
262.225	47
262.287	-1136
262.349	-1408
262.411	-1117
262.472	-110
262.534	-2242
262.596	-1154
262.658	-683
262.719	-2375
262.781	-934
262.843	-1797
262.904	-500
262.966	-894
263.028	-1238
263.090	-386
263.151	378
263.213	-788
263.275	-1265
263.336	-1390
263.398	-599
263.459	-2220
263.521	-879
263.583	-616
263.644	-1642
263.706	-1246
263.767	-1604
263.829	-393
263.891	-1280
263.952	-1348
264.014	-1673
264.075	-1310
264.137	-870
264.198	-793
264.260	-1641
264.321	-1159
264.383	-875
264.444	-693
264.506	-974
264.567	-1165
264.629	-751
264.690	-2335
264.752	-979
264.813	-1378
264.875	-1467
264.936	360
264.998	-1946
265.059	-540
265.120	-850
265.182	-1262
265.243	268
265.305	719
265.366	-562
265.427	-695
265.489	-386
265.550	-1621
265.611	-1037
265.673	-1484
265.734	-1030
265.795	-703
265.857	-1515
265.918	-2305
265.979	-692
266.040	1518
266.102	1610
266.163	-878
266.224	-888
266.286	-678
266.347	-1912
266.408	-1572
266.469	-864
266.530	-1401
266.592	-1482
266.653	-1618
266.714	-1326
266.775	-946
266.836	-1241
266.898	-2052
266.959	-1520
267.020	-1037
267.081	-131
267.142	-529
267.203	-1249
267.264	-1872
267.326	-575
267.387	-1736
267.448	-2199
267.509	-1331
267.570	-1112
267.631	-1093
267.692	-2038
267.753	-1253
267.814	-1776
267.875	-1754
267.936	-992
267.997	-807
268.058	-1401
268.119	-1031
268.180	-2013
268.241	-1703
268.302	-1360
268.363	-1365
268.424	-1513
268.485	-1394
268.546	-2074
268.607	-1252
268.668	-826
268.729	-1616
268.790	-1653
268.851	-885
268.912	-1968
268.972	-1399
269.033	-2149
269.094	-1794
269.155	-721
269.216	-1513
269.277	-1149
269.338	-1376
269.398	-1027
269.459	-1640
269.520	-1746
269.581	-1315
269.642	-1519
269.702	-1689
269.763	-952
269.824	-1725
269.885	-909
269.945	-708
270.006	-1054
270.067	-1779
270.128	-1703
270.188	-1460
270.249	-1362
270.310	-1871
270.370	-1736
270.431	-1003
270.492	-1478
270.553	-1703
270.613	-1783
270.674	-906
270.734	-1650
270.795	-1948
270.856	-1908
270.916	-1879
270.977	-1751
271.038	-1184
271.098	-1309
271.159	-1159
271.219	-1118
271.280	-369
271.340	-1355
271.401	-1711
271.462	-1509
271.522	-1305
271.583	-821
271.643	-1293
271.704	-1238
271.764	-1394
271.825	-733
271.885	-386
271.946	-776
272.006	-573
272.066	-815
272.127	-476
272.187	-880
272.248	-954
272.308	-1249
272.369	-1019
272.429	-744
272.489	-1119
272.550	-1910
272.610	-1091
272.671	-1048
272.731	-1466
272.791	-1378
272.852	-2181
272.912	-910
272.972	-1347
273.033	-1173
273.093	-2470
273.153	-1054
273.214	-1673
273.274	-988
273.334	-1075
273.394	-1101
273.455	-1103
273.515	-1083
273.575	-1754
273.635	-545
273.696	-348
273.756	-1030
273.816	-1063
273.876	-615
273.936	-944
273.997	-771
274.057	-1773
274.117	-1707
274.177	-722
274.237	-390
274.297	-408
274.358	-1214
274.418	-1287
274.478	-1007
274.538	-1773
274.598	-1966
274.658	-810
274.718	-1058
274.778	-1334
274.838	-1016
274.898	-2056
274.958	-778
275.018	-492
275.078	-1154
275.138	-603
275.198	-1545
275.258	-1255
275.318	-1660
275.378	-1321
275.438	-1465
275.498	-1726
275.558	-1727
275.618	-598
275.678	-1066
275.738	-1348
275.798	-795
275.858	-1300
275.918	-1763
275.978	-1242
276.038	-1049
276.098	-1167
276.157	-1860
276.217	-841
276.277	-1588
276.337	-1613
276.397	-1082
276.457	-1662
276.517	-1623
276.576	-1006
276.636	-1621
276.696	-1361
276.756	-954
276.815	-1833
276.875	-1834
276.935	-1488
276.995	-1234
277.055	-1036
277.114	-1443
277.174	-1565
277.234	-1061
277.293	-1168
277.353	-1581
277.413	-797
277.472	-1428
277.532	-1773
277.592	-731
277.651	410
277.711	1447
277.771	-1333
277.830	1804
277.890	1281
277.950	231
278.009	4647
278.069	1652
278.128	1485
278.188	2235
278.248	191
278.307	2127
278.367	1567
278.426	-759
278.486	-1796
278.545	-1597
278.605	-1246
278.664	-1880
278.724	-1829
278.783	-490
278.843	-301
278.902	-938
278.962	-1297
279.021	-636
279.081	-175
279.140	-572
279.199	-603
279.259	-394
279.318	322
279.378	165
279.437	937
279.496	3868
279.556	20952
279.615	16438
279.675	3187
279.734	970
279.793	910
279.853	1958
279.912	552
279.971	-294
280.031	-237
280.090	292
280.149	850
280.208	1937
280.268	12922
280.327	14759
280.386	2188
280.445	787
280.505	-684
280.564	-475
280.623	-399
280.682	-592
280.742	-498
280.801	-1290
280.860	-1120
280.919	-1367
280.978	-1570
281.037	-1758
281.097	-2085
281.156	87
281.215	-1777
281.274	-1636
281.333	-372
281.392	-1088
281.451	-901
281.510	-1256
281.569	-1605
281.628	-1037
281.688	-1048
281.747	-913
281.806	-1264
281.865	-1035
281.924	-1753
281.983	-2204
282.042	-470
282.101	-1603
282.160	-1209
282.219	-277
282.278	-1433
282.337	-1364
282.396	-1339
282.454	-239
282.513	-1116
282.572	-1095
282.631	-1790
282.690	-1129
282.749	-1730
282.808	-1240
282.867	-838
282.926	-1100
282.985	-691
283.043	-1952
283.102	-1560
283.161	-1161
283.220	-1737
283.279	-398
283.338	-1526
283.396	-1780
283.455	-1030
283.514	-1635
283.573	-1405
283.631	-1119
283.690	-653
283.749	-466
283.808	-547
283.866	-578
283.925	-1742
283.984	-725
284.043	-1580
284.101	-638
284.160	-604
284.219	-904
284.277	-250
284.336	-1536
284.395	557
284.453	-238
284.512	-638
284.570	-240
284.629	-876
284.688	117
284.746	609
284.805	625
284.863	2300
284.922	2533
284.981	3929
285.039	6811
285.098	9349
285.156	14433
285.215	17023
285.273	14740
285.332	15081
285.390	11548
285.449	7438
285.507	5692
285.566	3095
285.624	2892
285.683	1364
285.741	986
285.799	543
285.858	1479
285.916	307
285.975	-649
286.033	-1176
286.091	-389
286.150	-1140
286.208	-904
286.267	-525
286.325	-791
286.383	-903
286.442	-1014
286.500	-1809
286.558	-989
286.616	-69
286.675	-609
286.733	-499
286.791	-915
286.850	-932
286.908	-1426
286.966	-1017
287.024	-1293
287.083	-2142
287.141	-1473
287.199	-170
287.257	-926
287.315	-1076
287.374	-1312
287.432	-1692
287.490	-1180
287.548	-2369
287.606	-1583
287.664	-700
287.723	-1333
287.781	-1185
287.839	-1238
287.897	-1168
287.955	-1232
288.013	-663
288.071	-150
288.129	2330
288.187	13101
288.245	5961
288.303	597
288.361	-987
288.419	-542
288.477	-1562
288.535	-774
288.593	-1448
288.651	-1796
288.709	-1533
288.767	-1516
288.825	-1130
288.883	-819
288.941	-863
288.999	-1672
289.057	-2015
289.115	-1550
289.173	-1360
289.231	-1669
289.289	-1858
289.346	-1678
289.404	-1307
289.462	-1086
289.520	-1456
289.578	-671
289.636	-1699
289.694	-1051
289.751	-1082
289.809	-2217
289.867	-1121
289.925	-1176
289.983	-1558
290.040	-1390
290.098	-1811
290.156	-1706
290.214	-1616
290.271	-2000
290.329	-1855
290.387	-1187
290.444	-2063
290.502	-1368
290.560	-735
290.617	-502
290.675	-1921
290.733	-1548
290.790	-1097
290.848	-604
290.906	-1222
290.963	-1559
291.021	-1464
291.078	-1046
291.136	-1961
291.194	-1486
291.251	-1040
291.309	-1307
291.366	-1514
291.424	-1498
291.481	-1867
291.539	-1823
291.596	-1480
291.654	-1533
291.711	-1916
291.769	-1161
291.826	-1005
291.884	-1387
291.941	-1646
291.999	-1825
292.056	-1584
292.114	-1247
292.171	-1683
292.228	-986
292.286	-1547
292.343	-1684
292.401	-1639
292.458	-1200
292.515	-1371
292.573	-804
292.630	-1639
292.687	-1280
292.745	-1861
292.802	-1565
292.859	-1319
292.917	-722
292.974	-994
293.031	-1131
293.089	-1399
293.146	-1341
293.203	-2176
293.260	-1758
293.318	-1514
293.375	-1697
293.432	-2049
293.489	-1402
293.546	-1379
293.604	-997
293.661	-1164
293.718	353
293.775	-420
293.832	-903
293.889	-1670
293.947	-881
294.004	-1362
294.061	-1378
294.118	-2092
294.175	-1261
294.232	-258
294.289	-1056
294.346	-988
294.403	-1559
294.460	-1942
294.517	-2041
294.574	-1276
294.631	-1287
294.688	-1298
294.745	-1688
294.802	-429
294.859	296
294.916	-1313
294.973	-1176
295.030	-1628
295.087	-2533
295.144	-1868
295.201	-1299
295.258	-2450
295.315	-1350
295.372	-1506
295.429	-1205
295.486	-655
295.542	-892
295.599	-422
295.656	-361
295.713	-1451
295.770	-605
295.827	-1354
295.883	-1631
295.940	-1640
295.997	-1336
296.054	-2437
296.111	-1606
296.167	-1366
296.224	-1777
296.281	-2001
296.338	-2128
296.394	-1769
296.451	-1333
296.508	-1614
296.564	-818
296.621	-1208
296.678	-539
296.734	154
296.791	-822
296.848	-920
296.904	-1538
296.961	-1032
297.018	-785
297.074	-1048
297.131	-1718
297.187	-508
297.244	-1284
297.301	-285
297.357	634
297.414	-819
297.470	-1132
297.527	-1952
297.583	-1648
297.640	-1893
297.696	-1596
297.753	-1691
297.809	-1537
297.866	-1568
297.922	-1567
297.979	-1457
298.035	-1738
298.092	-1436
298.148	-1506
298.204	-1745
298.261	-1687
298.317	-395
298.374	-942
298.430	-896
298.486	-1422
298.543	-1432
298.599	-1304
298.656	-1900
298.712	-1331
298.768	-1843
298.824	-705
298.881	-912
298.937	-1350
298.993	-1036
299.050	-2068
299.106	-1639
299.162	-1436
299.218	-1887
299.275	-1552
299.331	-1232
299.387	-1205
299.443	62
299.500	629
299.556	526
299.612	-1291
299.668	-1154
299.724	683
299.780	893
299.837	-612
299.893	-783
299.949	-613
300.005	1210
300.061	281
300.117	2322
300.173	327
300.229	-926
300.285	-988
300.341	-1110
300.397	-1118
300.453	-1614
300.510	-773
300.566	-1639
300.622	-1476
300.678	851
300.734	2859
300.790	536
300.845	-547
300.901	-224
300.957	1695
301.013	-287
301.069	-888
301.125	-1069
301.181	-1216
301.237	-1359
301.293	-2028
301.349	-1620
301.405	-1019
301.461	-1886
301.516	-1454
301.572	-1410
301.628	-1736
301.684	-1613
301.740	-1773
301.796	-1480
301.851	-1770
301.907	-1295
301.963	-652
302.019	-205
302.074	1476
302.130	2184
302.186	363
302.242	-1183
302.297	-1176
302.353	-1973
302.409	251
302.464	-524
302.520	-1225
302.576	-1439
302.631	-894
302.687	-1137
302.743	-1886
302.798	-2764
302.854	-1864
302.910	-1088
302.965	-1205
303.021	-889
303.076	-1041
303.132	-2113
303.187	-1586
303.243	-1724
303.299	-1551
303.354	-913
303.410	-1210
303.465	-684
303.521	-1976
303.576	-2083
303.632	-910
303.687	-1787
303.743	-10
303.798	-545
303.853	-1256
303.909	-1459
303.964	-1517
304.020	-1163
304.075	-2003
304.130	-2257
304.186	-1239
304.241	-566
304.297	-667
304.352	-1509
304.358	-1480
304.407	-1248
304.449	-1367
304.463	-1407
304.518	-2267
304.539	-2067
304.573	-1754
304.629	-1166
304.630	-1175
304.684	-1619
304.720	-1236
304.739	-1055
304.794	61
304.811	-5
304.850	-148
304.902	-856
304.905	-905
304.960	-1224
304.992	-1388
305.015	-1501
305.071	-875
305.083	-858
305.126	-824
305.173	-1859
305.181	-2021
305.236	-1883
305.264	-1569
305.292	-1296
305.347	-1648
305.354	-1717
305.402	-2047
305.445	-1152
305.457	-932
305.512	-770
305.535	-764
305.567	-675
305.622	-1424
305.626	-1392
305.678	-859
305.716	-900
305.733	-931
305.788	-434
305.807	-480
305.843	-641
305.897	-343
305.898	-336
305.953	-336
305.988	-564
306.008	-733
306.063	-807
306.078	-800
306.118	-691
306.168	-968
306.173	-995
306.228	-1102
306.259	-1179
306.283	-1233
306.338	-799
306.349	-803
306.393	-795
306.440	-821
306.448	-824
306.503	-583
306.530	-939
306.558	-1150
306.613	170
306.620	168
306.668	-113
306.711	135
306.723	138
306.778	-865
306.801	-961
306.833	-877
306.888	-579
306.892	-582
306.943	-657
306.982	-607
306.997	-563
307.052	-1174
307.072	-1049
307.107	-653
307.162	-622
307.163	-618
307.217	-192
307.253	-43
307.272	41
307.327	-448
307.343	-421
307.381	-402
307.434	-668
307.436	-646
307.491	28
307.524	736
307.546	839
307.600	678
307.614	523
307.655	199
307.704	-501
307.710	-524
307.765	173
307.795	199
307.819	196
307.874	438
307.885	512
307.929	759
307.975	1122
307.984	1245
308.038	1909
308.065	2189
308.093	4361
308.148	10262
308.156	11519
308.202	18124
308.246	23343
308.257	22650
308.312	11747
308.336	7412
308.366	5141
308.421	1941
308.426	1719
308.475	914
308.517	562
308.530	471
308.585	293
308.607	234
308.639	489
308.694	970
308.697	1004
308.748	1569
308.787	1666
308.803	1603
308.857	1198
308.877	1356
308.912	1867
308.967	1678
308.967	1679
309.021	3425
309.058	4429
309.076	5369
309.130	8497
309.148	9794
309.185	17448
309.238	29964
309.239	30088
309.293	34010
309.328	32896
309.348	28991
309.402	15026
309.418	11372
309.457	8215
309.508	5533
309.511	5509
309.566	5569
309.598	5648
309.620	6979
309.674	11554
309.688	12568
309.729	12053
309.778	10618
309.783	10314
309.837	5856
309.868	3393
309.892	3115
309.946	3208
309.959	3206
310.001	2795
310.049	2263
310.055	2198
310.109	1247
310.139	1016
310.163	1008
310.218	960
310.229	888
310.272	977
310.319	1073
310.326	1015
310.381	606
310.409	521
310.435	688
310.489	638
310.499	645
310.543	522
310.589	466
310.598	531
310.652	831
310.679	910
310.706	745
310.760	465
310.769	434
310.814	661
310.859	884
310.868	925
310.923	800
310.948	790
310.977	777
311.031	854
311.038	845
311.085	475
311.128	6
311.139	90
311.193	771
311.218	918
311.247	976
311.301	1334
311.308	1356
311.356	1280
311.398	1110
311.410	997
311.464	527
311.488	265
311.518	226
311.572	228
311.578	218
311.626	598
311.668	875
311.680	899
311.734	1045
311.758	1077
311.788	1059
311.842	1024
311.847	1011
311.896	1283
311.937	1509
311.950	1444
312.004	1141
312.027	990
312.058	845
312.112	590
312.117	563
312.165	771
312.207	946
312.297	1622
312.386	46
312.476	491
312.566	1210
312.656	754
312.745	760
312.835	565
312.925	838
313.015	1403
313.104	1114
313.194	2297
313.284	609
313.374	869
313.463	510
313.553	1381
313.643	835
313.732	735
313.822	-229
313.912	1554
314.001	1321
314.091	1584
314.180	1088
314.270	1568
314.360	1252
314.449	860
314.539	826
314.628	1699
314.718	909
314.808	1394
314.897	816
314.987	1378
315.076	1177
315.166	1132
315.255	746
315.345	1770
315.434	691
315.524	1535
315.613	1210
315.703	1446
315.792	2456
315.881	6798
315.971	2484
316.060	2324
316.150	1582
316.239	2100
316.328	724
316.418	1025
316.507	1246
316.597	1524
316.686	1183
316.775	1125
316.865	1353
316.954	1460
317.043	803
317.133	1081
317.222	1088
317.311	744
317.400	-535
317.490	1630
317.579	524
317.668	962
317.757	1771
317.847	4485
317.936	12120
318.025	4437
318.114	2618
318.203	2097
318.293	1624
318.382	3080
318.471	2350
318.560	3559
318.649	6646
318.738	1582
318.828	1403
318.917	1186
319.006	622
319.095	2575
319.184	7372
319.273	3730
319.362	1164
319.451	851
319.540	820
319.629	734
319.718	1209
319.807	1302
319.896	2410
319.985	8893
320.074	3149
320.163	392
320.252	1121
320.341	1999
320.430	805
320.519	1412
320.608	-88
320.697	1313
320.786	656
320.875	961
320.964	1040
321.053	1341
321.142	1886
321.230	2013
321.319	1841
321.408	3744
321.497	2174
321.586	2165
321.675	1678
321.764	2899
321.852	1974
321.941	1973
322.030	2187
322.119	1659
322.207	3272
322.296	3981
322.385	3247
322.474	2964
322.562	3735
322.651	3583
322.740	2350
322.829	2596
322.917	1475
323.006	1504
323.095	2317
323.183	1230
323.272	2078
323.361	2833
323.449	5377
323.538	1159
323.626	3204
323.715	1884
323.804	1243
323.892	2934
323.981	1668
324.069	1110
324.158	2055
324.246	1579
324.335	112
324.424	1425
324.512	1866
324.601	843
324.689	1750
324.778	4022
324.866	1684
324.954	1169
325.043	277
325.131	128
325.220	1546
325.308	1477
325.397	1323
325.485	760
325.574	807
325.662	1096
325.750	178
325.839	1755
325.927	816
326.015	302
326.104	701
326.192	1428
326.280	920
326.369	609
326.457	97
326.545	1130
326.634	391
326.722	721
326.810	1071
326.898	268
326.987	1483
327.075	625
327.163	1185
327.251	883
327.340	1661
327.428	2485
327.516	704
327.604	1258
327.692	540
327.781	1101
327.869	874
327.957	1075
328.045	416
328.133	1009
328.221	626
328.309	725
328.397	1237
328.485	163
328.574	886
328.662	2041
328.750	1375
328.838	856
328.926	218
329.014	1383
329.102	1049
329.190	2079
329.278	102
329.366	1009
329.454	909
329.542	396
329.630	-195
329.718	1146
329.806	66
329.893	834
329.981	171
330.069	370
330.157	1033
330.245	2698
330.333	1576
330.421	1082
330.509	931
330.597	1385
330.684	934
330.772	867
330.860	1331
330.948	2339
331.036	1289
331.123	-2
331.211	393
331.299	1195
331.387	1324
331.475	1313
331.562	816
331.650	1048
331.738	378
331.825	1184
331.913	549
332.001	761
332.089	549
332.176	900
332.264	1178
332.352	1290
332.439	221
332.527	946
332.614	256
332.702	707
332.790	270
332.877	1026
332.965	3252
333.052	2044
333.140	1716
333.228	4385
333.315	1288
333.403	793
333.490	1391
333.578	2801
333.665	7087
333.753	3829
333.840	817
333.928	1154
334.015	1727
334.103	2774
334.190	9583
334.278	3530
334.365	2709
334.452	3443
334.540	1910
334.627	1979
334.715	3192
334.802	4085
334.889	10261
334.977	12705
335.064	5038
335.151	2544
335.239	2378
335.326	1246
335.413	5302
335.501	7212
335.588	2332
335.675	1213
335.762	1790
335.850	4672
335.937	5108
336.024	8654
336.111	16067
336.199	12670
336.286	4927
336.373	2831
336.460	884
336.547	1991
336.635	1147
336.722	1974
336.809	678
336.896	944
336.983	2313
337.070	6320
337.157	8921
337.245	4959
337.332	3334
337.419	419
337.506	412
337.593	780
337.680	1992
337.767	7999
337.854	1571
337.941	1629
338.028	1395
338.115	1035
338.202	1251
338.289	1593
338.376	2630
338.463	1953
338.550	2438
338.637	5077
338.724	1767
338.811	1610
338.898	1085
338.984	427
339.071	1209
339.158	1111
339.245	1260
339.332	1211
339.419	1133
339.506	815
339.593	-559
339.679	1140
339.766	413
339.853	534
339.940	896
340.027	779
340.113	646
340.200	1061
340.287	131
340.374	867
340.460	1543
340.547	-286
340.634	1230
340.720	2353
340.807	306
340.894	891
340.980	561
341.067	453
341.154	1255
341.240	475
341.327	-114
341.414	1190
341.500	1016
341.587	1522
341.674	588
341.760	844
341.847	640
341.933	1293
342.020	-892
342.106	766
342.193	-326
342.279	704
342.366	-62
342.452	372
342.539	277
342.625	411
342.712	876
342.798	1516
342.885	386
342.971	196
343.058	776
343.144	111
343.230	629
343.317	1244
343.403	277
343.490	595
343.576	-26
343.662	507
343.749	248
343.835	722
343.921	790
344.008	3477
344.094	7361
344.180	2345
344.267	850
344.353	1227
344.439	1595
344.525	662
344.612	3318
344.698	2822
344.784	1177
344.870	637
344.957	-236
345.043	1074
345.129	-523
345.215	1511
345.301	-8
345.387	37
345.474	198
345.560	773
345.646	-71
345.732	1373
345.818	635
345.904	966
345.990	59
346.076	710
346.162	51
346.249	921
346.335	-684
346.421	-257
346.507	933
346.593	2562
346.679	69
346.765	1498
346.851	554
346.937	-102
347.023	1588
347.108	330
347.194	1022
347.280	499
347.366	413
347.452	3408
347.538	3268
347.624	4460
347.710	2554
347.796	1004
347.882	302
347.967	1426
348.053	235
348.139	557
348.225	420
348.311	21
348.397	-70
348.482	1235
348.568	1256
348.654	1200
348.740	2502
348.825	2112
348.911	2504
348.997	2361
349.083	3852
349.168	890
349.254	703
349.340	895
349.425	167
349.511	196
349.597	400
349.682	417
349.768	2642
349.854	1553
349.939	587
350.025	170
350.110	650
350.196	241
350.282	-1269
350.367	1666
350.453	381
350.538	487
350.624	39
350.709	1393
350.795	484
350.880	-538
350.966	850
351.051	639
351.137	518
351.222	276
351.308	595
351.393	1256
351.479	-479
351.564	-427
351.649	210
351.735	1176
351.820	-170
351.906	-289
351.991	-11
352.076	687
352.162	551
352.247	771
352.332	1062
352.418	349
352.503	-195
352.588	2061
352.673	641
352.759	320
352.844	9
352.929	1298
353.014	-404
353.100	1301
353.185	522
353.270	-261
353.355	915
353.441	69
353.526	214
353.611	874
353.696	-285
353.781	908
353.866	-47
353.952	1796
354.037	-182
354.122	1527
354.207	-473
354.292	535
354.377	278
354.462	-64
354.547	-422
354.632	598
354.717	342
354.802	-490
354.887	826
354.972	525
355.057	742
355.142	446
355.227	860
355.312	314
355.397	703
355.482	404
355.567	282
355.652	1567
355.737	795
355.822	1502
355.907	628
355.991	2119
356.076	-119
356.161	884
356.246	171
356.331	728
356.416	-13
356.501	5213
356.585	3424
356.670	737
356.755	2198
356.840	1244
356.924	2360
357.009	8473
357.094	4349
357.179	1005
357.263	1205
357.348	1673
357.433	1038
357.517	591
357.602	705
357.687	879
357.771	1501
357.856	4727
357.941	2649
358.025	2925
358.110	9218
358.195	5132
358.279	1323
358.364	1693
358.448	2508
358.533	3653
358.617	1459
358.702	3515
358.787	1233
358.871	1796
358.956	1341
359.040	1194
359.125	448
359.209	2191
359.294	1907
359.378	4061
359.462	798
359.547	1668
359.631	106
359.716	-423
359.800	252
359.885	1595
359.969	-787
360.053	1984
360.138	-140
360.222	-18
360.306	-196
360.391	845
360.475	1524
360.559	2886
360.644	1344
360.728	-60
360.812	1888
360.896	5894
360.981	2210
361.065	669
361.149	757
361.233	332
361.318	-495
361.402	500
361.486	795
361.570	980
361.654	-102
361.739	348
361.823	2950
361.907	6595
361.991	951
362.075	1164
362.159	252
362.243	4274
362.327	7256
362.411	14463
362.495	4871
362.580	2039
362.664	2218
362.748	1119
362.832	3470
362.916	6382
363.000	25255
363.084	36697
363.168	15158
363.252	3878
363.336	2053
363.420	2242
363.503	7076
363.587	8220
363.671	1164
363.755	426
363.839	2155
363.923	257
364.007	1419
364.091	2996
364.175	4350
364.258	20104
364.342	28877
364.426	53370
364.510	25075
364.594	8779
364.677	4769
364.761	5571
364.845	4304
364.929	1008
365.013	1014
365.096	530
365.180	210
365.264	3019
365.347	11704
365.431	4250
365.515	704
365.598	-797
365.682	1167
365.766	496
365.849	1069
365.933	-132
366.017	2185
366.100	442
366.184	-931
366.267	645
366.351	405
366.435	735
366.518	-531
366.602	243
366.685	193
366.769	576
366.852	713
366.936	919
367.019	832
367.103	-78
367.186	2460
367.270	1087
367.353	-495
367.436	1002
367.520	347
367.603	741
367.687	-1026
367.770	426
367.853	829
367.937	3010
368.020	2625
368.104	139
368.187	1585
368.270	805
368.353	486
368.437	1075
368.520	2414
368.603	1240
368.687	402
368.770	1545
368.853	112
368.936	1704
369.020	2163
369.103	242
369.186	-183
369.269	267
369.352	734
369.436	143
369.519	488
369.602	-554
369.685	2048
369.768	-733
369.851	1363
369.934	-97
370.018	475
370.101	-1021
370.184	2329
370.267	1699
370.350	183
370.433	1317
370.516	3071
370.599	5542
370.682	-258
370.765	2791
370.848	3770
370.931	3163
371.014	3433
371.097	-149
371.180	1704
371.263	1635
371.346	-979
371.429	1569
371.511	701
371.594	1334
371.677	1971
371.760	2958
371.843	1454
371.926	5211
372.009	8888
372.091	8601
372.174	2438
372.257	6005
372.340	3208
372.423	3426
372.505	4975
372.588	1733
372.671	3202
372.754	3632
372.836	2196
372.919	3682
373.002	7353
373.085	2373
373.167	2196
373.250	1788
373.332	3706
373.415	7148
373.498	8506
373.580	4860
373.663	6658
373.746	8233
373.828	1278
373.911	1610
373.993	127
374.076	6308
374.159	4985
374.241	1549
374.324	2666
374.406	2276
374.489	2370
374.571	8868
374.654	2525
374.736	1263
374.819	4507
374.901	8364
374.983	7482
375.066	1976
375.148	1273
375.231	5569
375.313	9722
375.395	2635
375.478	1002
375.560	1776
375.643	646
375.725	1273
375.807	5022
375.890	6391
375.972	931
376.054	2173
376.136	1420
376.219	1268
376.301	2075
376.383	4281
376.465	1963
376.548	578
376.630	643
376.712	5204
376.794	1433
376.877	1084
376.959	-325
377.041	782
377.123	874
377.205	1935
377.287	-545
377.369	1087
377.452	-655
377.534	-250
377.616	272
377.698	-52
377.780	-396
377.862	534
377.944	2103
378.026	-366
378.108	204
378.190	8
378.272	553
378.354	454
378.436	14
378.518	-458
378.600	1057
378.682	1390
378.764	15
378.846	1548
378.928	250
379.010	-255
379.091	929
379.173	1178
379.255	-256
379.337	-120
379.419	135
379.501	2874
379.583	490
379.664	111
379.746	-909
379.828	2715
379.910	1346
379.991	2166
380.073	-143
380.155	813
380.237	342
380.318	574
380.400	69
380.482	215
380.564	711
380.645	332
380.727	-122
380.809	1421
380.890	151
380.972	-371
381.053	351
381.135	348
381.217	287
381.298	2063
381.380	368
381.461	1091
381.543	3519
381.624	5080
381.706	499
381.787	1752
381.869	1692
381.951	2762
382.032	6846
382.113	7408
382.195	-36
382.276	3136
382.358	1621
382.439	5086
382.521	6755
382.602	9833
382.684	5737
382.765	10364
382.846	21846
382.928	53034
383.009	28682
383.090	21629
383.172	63550
383.253	88111
383.334	28496
383.416	13861
383.497	9704
383.578	9514
383.659	17780
383.741	55142
383.822	112030
383.903	60165
383.984	16422
384.066	13159
384.147	6621
384.228	4521
384.309	2743
384.390	1899
384.471	2379
384.553	2182
384.634	1755
384.715	2504
384.796	1608
384.877	2136
384.958	2582
385.039	1704
385.120	1221
385.201	2986
385.282	1227
385.363	2583
385.444	2271
385.525	2125
385.606	3792
385.687	3854
385.768	1480
385.849	1098
385.930	5460
386.011	8220
386.092	1428
386.173	1941
386.254	1462
386.335	2152
386.416	1198
386.496	1388
386.577	1870
386.658	944
386.739	356
386.820	2209
386.901	-5
386.981	1387
387.062	143
387.143	731
387.224	1549
387.304	3363
387.385	2291
387.466	708
387.547	2433
387.627	1383
387.708	2418
387.789	4809
387.869	4640
387.950	3446
388.031	562
388.111	-389
388.192	1875
388.273	4033
388.353	1118
388.434	1729
388.514	446
388.595	4246
388.676	3779
388.756	2310
388.837	1792
388.917	1249
388.998	-1170
389.078	725
389.159	418
389.239	-962
389.320	2148
389.400	-663
389.480	1578
389.561	1401
389.641	2035
389.722	653
389.802	-277
389.883	1832
389.963	2761
390.043	1258
390.124	-781
390.204	783
390.284	1877
390.365	597
390.445	3598
390.525	7111
390.605	6194
390.686	991
390.766	1374
390.846	1704
390.927	-185
391.007	-625
391.087	987
391.167	1218
391.247	-262
391.328	822
391.408	1332
391.488	1572
391.568	-1044
391.648	172
391.728	1414
391.808	1770
391.888	-45
391.969	1317
392.049	1461
392.129	1829
392.209	891
392.289	3751
392.369	2165
392.449	3640
392.529	1547
392.609	2541
392.689	2464
392.769	4454
392.849	4043
392.929	6132
393.009	9073
393.089	10062
393.169	18056
393.248	46539
393.328	129644
393.408	132515
393.488	50330
393.568	17377
393.648	9251
393.728	5960
393.807	3015
393.887	3215
393.967	2318
394.047	2331
394.127	1890
394.206	4260
394.286	12020
394.366	51961
394.446	57302
394.525	13814
394.605	2550
394.685	2721
394.764	5019
394.844	7964
394.924	6698
395.003	1605
395.083	1248
395.163	1554
395.242	675
395.322	896
395.402	-410
395.481	2719
395.561	2014
395.640	10139
395.720	14696
395.799	11627
395.879	7189
395.958	5217
396.038	18503
396.117	67158
396.197	72186
396.276	23785
396.356	7581
396.435	5858
396.515	5165
396.594	5427
396.673	13163
396.753	47683
396.832	118178
396.912	84079
396.991	21948
397.070	8891
397.150	2998
397.229	3761
397.308	7582
397.388	17840
397.467	8221
397.546	2402
397.625	-196
397.705	2944
397.784	466
397.863	418
397.942	283
398.022	1027
398.101	1577
398.180	7113
398.259	2734
398.338	1409
398.417	-463
398.497	187
398.576	947
398.655	-311
398.734	693
398.813	694
398.892	1749
398.971	7566
399.050	2567
399.129	-403
399.208	202
399.287	257
399.366	-1216
399.445	694
399.524	294
399.603	-1813
399.682	-653
399.761	968
399.840	6845
399.919	6737
399.998	363
400.077	-991
400.156	-1074
400.235	1966
400.313	-1036
400.392	-1193
400.471	1004
400.550	1254
400.629	-1134
400.708	192
400.786	-1629
400.865	701
400.944	42
401.023	1203
401.102	-649
401.180	167
401.259	-523
401.338	-60
401.416	319
401.495	-1251
401.574	-312
401.652	-923
401.731	363
401.810	-423
401.888	-1019
401.967	-950
402.046	-647
402.124	248
402.203	-1352
402.281	421
402.360	-649
402.438	1933
402.517	-75
402.596	252
402.674	-780
402.753	-341
402.831	624
402.910	502
402.988	-544
403.066	30
403.145	1134
403.223	1155
403.302	-682
403.380	1161
403.459	188
403.537	374
403.615	-528
403.694	-1518
403.772	588
403.850	-390
403.929	-720
404.007	-483
404.085	1261
404.164	-474
404.242	298
404.320	4236
404.398	13109
404.477	10305
404.555	6948
404.633	6877
404.711	10197
404.789	7149
404.868	886
404.946	10
405.024	240
405.102	-652
405.180	-969
405.258	-985
405.336	465
405.415	-621
405.493	-38
405.571	123
405.649	-734
405.727	-1916
405.805	641
405.883	-119
405.961	51
406.039	-936
406.117	-1301
406.195	232
406.273	-1644
406.351	3217
406.429	2142
406.507	-976
406.585	-2033
406.663	-108
406.740	-1539
406.818	-1487
406.896	-1429
406.974	846
407.052	-1531
407.130	1511
407.208	1633
407.285	35
407.363	-921
407.441	-329
407.519	-398
407.596	-432
407.674	-295
407.752	294
407.830	1262
407.907	866
407.985	-1708
408.063	145
408.141	-778
408.218	111
408.296	-1192
408.373	-705
408.451	-269
408.529	367
408.606	-851
408.684	-108
408.762	-368
408.839	283
408.917	-769
408.994	27
409.072	-1210
409.149	-33
409.227	1207
409.304	1820
409.382	2320
409.459	1549
409.537	3122
409.614	3436
409.692	1866
409.769	2502
409.846	2880
409.924	5692
410.001	1719
410.079	1846
410.156	2608
410.233	952
410.311	-110
410.388	306
410.465	-117
410.543	-167
410.620	721
410.697	196
410.775	-253
410.852	-1557
410.929	978
411.006	837
411.083	-287
411.161	-99
411.238	1190
411.315	345
411.392	-269
411.469	1125
411.547	-216
411.624	-1437
411.701	-635
411.778	-225
411.855	-322
411.932	-1122
412.009	-1142
412.086	389
412.163	-761
412.240	-44
412.317	347
412.394	-628
412.471	-182
412.548	-393
412.625	-1200
412.702	-35
412.779	-160
412.856	-878
412.933	-933
413.010	-519
413.087	-1024
413.164	-634
413.241	33
413.318	-1191
413.395	28
413.471	-860
413.548	-183
413.625	88
413.702	-1667
413.779	-598
413.855	-609
413.932	-669
414.009	-1534
414.086	-480
414.162	-938
414.239	-395
414.316	-444
414.393	1254
414.469	-1451
414.546	-635
414.623	-1030
414.699	-508
414.776	-1924
414.853	-594
414.929	-662
415.006	-914
415.082	-1068
415.159	-816
415.236	-256
415.312	-823
415.389	-507
415.465	-758
415.542	-1229
415.618	-775
415.695	-1600
415.771	-1538
415.848	-1079
415.924	-522
416.000	-1388
416.077	-15
416.153	-1874
416.230	-1686
416.306	-1502
416.383	-826
416.459	-195
416.535	-875
416.612	-1112
416.688	-275
416.764	-922
416.841	-1045
416.917	-854
416.993	378
417.069	-591
417.146	-211
417.222	-318
417.298	-1477
417.374	-1630
417.451	-626
417.527	-1428
417.603	-1147
417.679	-1384
417.755	-837
417.831	-2156
417.908	-941
417.984	-1001
418.060	-2429
418.136	-735
418.212	-932
418.288	-244
418.364	-723
418.440	-1147
418.516	-376
418.592	-993
418.668	-27
418.744	-1648
418.820	-434
418.896	-814
418.972	-1469
419.048	-665
419.124	735
419.200	-2255
419.276	-742
419.352	-1198
419.428	-538
419.504	-1139
419.579	-1026
419.655	-590
419.731	-526
419.807	-514
419.883	-922
419.959	-697
420.034	-395
420.110	-663
420.186	-361
420.262	554
420.337	105
420.413	-808
420.489	312
420.565	-127
420.640	-238
420.716	505
420.792	-1408
420.867	-16
420.943	-356
421.019	135
421.094	-764
421.170	289
421.245	-65
421.321	-68
421.397	406
421.472	2118
421.548	1643
421.623	1173
421.699	2450
421.774	2221
421.850	1631
421.925	3297
422.001	4119
422.076	5309
422.152	6919
422.227	9214
422.302	13711
422.378	21689
422.453	36044
422.529	65858
422.604	90828
422.679	80749
422.755	89583
422.830	70129
422.905	41875
422.981	24198
423.056	15876
423.131	11237
423.207	8394
423.282	5833
423.357	4953
423.432	3840
423.508	3459
423.583	1587
423.658	2603
423.733	1712
423.808	1503
423.883	2009
423.959	1871
424.034	1248
424.109	2003
424.184	-15
424.259	570
424.334	969
424.409	540
424.484	263
424.559	309
424.634	-147
424.709	-480
424.784	108
424.859	43
424.934	-803
425.009	243
425.084	-92
425.159	751
425.234	924
425.309	-818
425.384	543
425.459	451
425.534	956
425.609	-612
425.683	-789
425.758	-101
425.833	-1122
425.908	45
425.983	-614
426.058	754
426.132	-499
426.207	-739
426.282	1001
426.357	-1014
426.431	-303
426.506	-51
426.581	-1193
426.655	-190
426.730	-1121
426.805	-695
426.879	69
426.954	-739
427.029	-522
427.103	606
427.178	1448
427.253	604
427.327	-666
427.402	-264
427.476	708
427.551	995
427.625	-285
427.700	-415
427.774	-1318
427.849	-322
427.923	-1453
427.998	-1212
428.072	-1070
428.147	1057
428.221	7201
428.296	28086
428.370	13926
428.444	737
428.519	-35
428.593	-331
428.667	-183
428.742	1510
428.816	2929
428.890	16511
428.965	26222
429.039	6665
429.113	626
429.188	46
429.262	-1039
429.336	136
429.410	-329
429.485	30
429.559	310
429.633	357
429.707	-252
429.781	1625
429.855	15511
429.930	25457
430.004	6825
430.078	7175
430.152	11209
430.226	35288
430.300	34806
430.374	6048
430.448	1352
430.522	1335
430.596	5480
430.670	5903
430.744	21027
430.818	23591
430.892	2746
430.966	-101
431.040	-835
431.114	-1248
431.188	-1444
431.262	-1363
431.336	-998
431.410	-466
431.484	-702
431.557	864
431.631	-882
431.705	747
431.779	4756
431.853	25572
431.927	17049
432.000	1828
432.074	-696
432.148	-596
432.222	-1276
432.295	-866
432.369	-596
432.443	-824
432.516	-5
432.590	2869
432.664	134
432.737	-327
432.811	-1651
432.885	-925
432.958	-1202
433.032	-1213
433.106	-1831
433.179	-1871
433.253	-1650
433.326	-894
433.400	-1864
433.473	-525
433.547	-1814
433.620	-189
433.694	-1524
433.767	-252
433.841	-1272
433.914	-399
433.988	-1738
434.061	-121
434.134	-1717
434.208	-1200
434.281	-1202
434.355	-1407
434.428	-1226
434.501	-1210
434.575	-1243
434.648	-1607
434.721	-1436
434.795	-1378
434.868	-1713
434.941	-1306
435.014	-1101
435.088	-1522
435.161	-618
435.234	-1146
435.307	-1139
435.381	-575
435.454	-873
435.527	572
435.600	930
435.673	914
435.746	-70
435.819	-299
435.892	-1315
435.966	-497
436.039	-1090
436.112	-679
436.185	-1632
436.258	-1766
436.331	-1994
436.404	-1272
436.477	-1000
436.550	-2377
436.623	-899
436.696	-1728
436.769	-1290
436.842	-1302
436.915	-1135
436.987	-1426
437.060	-1211
437.133	-1276
437.206	-783
437.279	-686
437.352	-1586
437.425	-946
437.498	-615
437.570	-1268
437.643	-733
437.716	-1217
437.789	-1637
437.861	-1011
437.934	-1093
438.007	-763
438.080	-1584
438.152	-760
438.225	-1127
438.298	1135
438.370	3689
438.443	786
438.516	-923
438.588	-1487
438.661	-1763
438.734	-602
438.806	-1211
438.879	-742
438.951	-710
439.024	-1438
439.096	-2025
439.169	-1261
439.241	-1939
439.314	-899
439.386	-2129
439.459	-657
439.531	-1754
439.604	-701
439.676	-1075
439.749	-1004
439.821	-2002
439.893	-758
439.966	-1477
440.038	-1214
440.110	-820
440.183	-1265
440.255	-1395
440.327	-768
440.400	-794
440.472	1634
440.544	-704
440.617	-1170
440.689	-369
440.761	-1588
440.833	-657
440.905	-767
440.978	-922
441.050	-1797
441.122	-815
441.194	-2045
441.266	-1318
441.338	-751
441.411	-1493
441.483	-318
441.555	-19
441.627	-887
441.699	-970
441.771	-715
441.843	-1279
441.915	-855
441.987	-1267
442.059	-308
442.131	-814
442.203	-607
442.275	-643
442.347	733
442.419	2325
442.491	18181
442.563	41472
442.635	15089
442.706	2122
442.778	604
442.850	-1355
442.922	-415
442.994	-492
443.066	-301
443.137	-822
443.209	-359
443.281	1240
443.353	4547
443.425	20444
443.496	65702
443.568	67530
443.640	25990
443.711	3435
443.783	1243
443.855	-191
443.926	-62
443.998	-1206
444.070	-195
444.141	-1125
444.213	-729
444.285	-511
444.356	-1341
444.428	-1320
444.499	-838
444.571	-1084
444.642	-693
444.714	-1717
444.785	-842
444.857	-677
444.928	286
445.000	-369
445.071	333
445.143	-387
445.214	1553
445.285	2959
445.357	11406
445.428	40957
445.500	79856
445.571	59219
445.642	37391
445.714	9919
445.785	3724
445.856	370
445.928	-433
445.999	-787
446.070	-878
446.141	-647
446.213	-786
446.284	-1117
446.355	-227
446.426	-1440
446.497	-916
446.569	-913
446.640	-751
446.711	-1779
446.782	-1477
446.853	-1158
446.924	-574
446.995	-2302
447.066	-1112
447.138	-1109
447.209	-913
447.280	-1583
447.351	-1890
447.422	-1463
447.493	-1345
447.564	-1577
447.635	-1087
447.706	-1672
447.777	-530
447.847	-1919
447.918	-2071
447.989	-800
448.060	-1456
448.131	-268
448.202	-638
448.273	-1501
448.344	-489
448.414	-1177
448.485	-1168
448.556	-1239
448.627	-1925
448.698	61
448.768	-1660
448.839	-1781
448.910	-1746
448.981	-542
449.051	-1663
449.122	-1665
449.193	-1341
449.263	-1245
449.334	-884
449.405	-826
449.475	-952
449.546	-1528
449.616	-1782
449.687	-537
449.758	-769
449.828	-1615
449.899	-832
449.969	-1569
450.040	-1040
450.110	-1286
450.181	-505
450.251	-1621
450.322	-1204
450.392	-870
450.463	-638
450.533	-1430
450.604	-1569
450.674	-1463
450.744	-530
450.815	-1154
450.885	-564
450.955	-1055
451.026	-1876
451.096	-1742
451.166	-817
451.237	-1147
451.307	408
451.377	-1397
451.447	-1380
451.518	-930
451.588	-1124
451.658	-1334
451.728	-1289
451.799	-565
451.869	589
451.939	-2135
452.009	-1372
452.079	-1756
452.149	-766
452.219	-1029
452.289	165
452.360	-1053
452.430	-852
452.500	-1385
452.570	-615
452.640	296
452.710	3941
452.780	4491
452.850	1517
452.920	-794
452.990	-414
453.060	-540
453.129	-848
453.199	-1420
453.269	504
453.339	1688
453.409	2874
453.479	3742
453.549	5620
453.619	5991
453.688	310
453.758	-1643
453.828	-720
453.898	-1639
453.968	-1512
454.037	-1418
454.087	-1497
454.107	-1537
454.168	-2051
454.177	-2136
454.247	-1302
454.249	-1280
454.316	-978
454.330	-1033
454.386	-1244
454.411	-1018
454.456	-706
454.492	-426
454.525	-150
454.574	-1086
454.595	-1521
454.655	-1138
454.665	-1081
454.734	-1513
454.736	-1499
454.804	-1373
454.817	-1173
454.873	-352
454.898	-138
454.943	239
454.979	-78
455.013	-376
455.060	-549
455.082	-631
455.141	-1157
455.152	-1265
455.221	166
455.222	172
455.291	-82
455.303	-58
455.360	-106
455.384	110
455.430	403
455.465	258
455.499	49
455.546	-63
455.569	-56
455.627	435
455.638	521
455.707	-1435
455.708	-1424
455.777	-720
455.789	-804
455.846	-1181
455.869	-986
455.916	-715
455.950	-976
455.985	-1234
456.031	-1042
456.054	-892
456.112	-691
456.124	-689
456.193	-813
456.193	-820
456.262	-1260
456.274	-1119
456.332	-502
456.355	-700
456.401	-1124
456.436	-855
456.470	-591
456.516	-931
456.540	-1113
456.597	-1100
456.609	-1115
456.678	-628
456.678	-634
456.747	-1337
456.759	-1367
456.817	-1164
456.840	-1236
456.886	-1659
456.920	-1361
456.955	-947
457.001	-755
457.024	-722
457.082	-871
457.093	-901
457.162	-946
457.163	-938
457.232	-446
457.243	-431
457.301	-444
457.324	-625
457.370	-838
457.405	-453
457.439	-269
457.485	-597
457.508	-667
457.566	-605
457.577	-579
457.646	-92
457.647	-78
457.715	1390
457.727	1656
457.784	3027
457.808	4528
457.853	6494
457.889	7942
457.922	8395
457.969	4913
457.991	4526
458.050	5599
458.060	5723
458.129	11413
458.130	11577
458.198	13208
458.211	11639
458.267	5623
458.292	3503
458.336	1336
458.372	1334
458.405	2393
458.453	4116
458.474	5303
458.533	10790
458.543	11212
458.611	20198
458.614	20253
458.680	12712
458.694	9692
458.749	2784
458.775	1797
458.818	653
458.855	93
458.887	-100
458.936	196
458.955	155
459.016	-195
459.024	-190
459.093	-54
459.097	-52
459.162	-540
459.177	-576
459.230	-199
459.257	-119
459.299	-229
459.338	20
459.368	141
459.418	-61
459.437	-147
459.499	-346
459.505	-356
459.574	-36
459.579	-55
459.643	-169
459.659	-69
459.711	-59
459.740	-353
459.780	-537
459.820	-490
459.849	-420
459.900	176
459.917	224
459.981	-390
459.986	-419
460.054	-10
460.061	-7
460.123	-12
460.141	-61
460.191	60
460.222	115
460.260	-242
460.302	-401
460.328	-200
460.382	265
460.397	199
460.462	-585
460.465	-561
460.534	521
460.543	681
460.602	2259
460.623	2783
460.671	4191
460.703	5966
460.739	5816
460.783	4165
460.808	3368
460.864	959
460.876	753
460.944	-128
460.945	-142
461.013	71
461.024	-57
461.081	-173
461.104	85
461.150	47
461.184	-284
461.218	-185
461.264	282
461.286	332
461.345	153
461.355	92
461.423	-59
461.425	-80
461.491	-430
461.505	-335
461.559	316
461.585	594
461.628	981
461.665	1289
461.696	1308
461.745	1491
461.764	1271
461.825	60
461.832	113
461.901	395
461.905	433
461.969	-505
461.985	-579
462.037	630
462.065	983
462.105	523
462.145	87
462.173	309
462.225	767
462.241	554
462.305	3
462.310	45
462.378	600
462.385	631
462.446	575
462.465	552
462.514	101
462.545	-45
462.582	241
462.625	398
462.650	376
462.705	452
462.718	349
462.785	-51
462.786	-43
462.854	-34
462.865	32
462.922	259
462.945	353
462.990	243
463.025	25
463.058	46
463.104	42
463.126	-167
463.184	-396
463.194	-273
463.262	107
463.264	138
463.330	426
463.344	430
463.398	988
463.424	1147
463.466	429
463.504	68
463.533	484
463.583	799
463.601	671
463.663	226
463.669	194
463.737	287
463.743	255
463.805	574
463.823	791
463.873	1290
463.903	1313
463.940	1402
463.982	1906
464.008	1799
464.062	1058
464.076	974
464.142	707
464.144	695
464.211	153
464.221	119
464.279	605
464.301	630
464.347	688
464.381	816
464.414	643
464.461	590
464.482	760
464.540	1061
464.550	1006
464.617	281
464.620	265
464.685	1109
464.699	1294
464.753	1293
464.779	1232
464.820	1651
464.859	2092
464.888	1586
464.938	613
464.956	1007
465.018	2534
465.023	2473
465.091	1524
465.098	1409
465.158	1650
465.177	1804
465.226	1295
465.257	905
465.293	1158
465.336	1338
465.361	1422
465.416	1838
465.428	1885
465.495	2021
465.496	2026
465.563	1768
465.575	1776
465.631	2441
465.654	2708
465.698	2046
465.734	1403
465.765	1257
465.813	959
465.833	1076
465.893	1659
465.900	1718
465.968	2121
465.972	2138
466.035	1132
466.052	877
466.102	1472
466.131	1766
466.170	1163
466.210	586
466.237	951
466.290	1670
466.304	1576
466.369	989
466.372	1017
466.439	1861
466.449	1963
466.506	1466
466.528	1301
466.573	1954
466.607	2404
466.641	2438
466.687	2519
466.708	2884
466.766	3838
466.775	3580
466.842	1586
466.845	1487
466.909	1968
466.925	2076
466.977	1677
467.004	1474
467.044	1498
467.083	1525
467.111	2054
467.163	3019
467.178	3062
467.242	3230
467.245	3223
467.312	2981
467.321	2945
467.379	2636
467.400	2516
467.446	1853
467.480	1368
467.559	2873
467.638	2118
467.717	2260
467.796	2811
467.875	2845
467.955	2073
468.034	2326
468.113	3448
468.192	4571
468.271	2601
468.350	3183
468.429	4364
468.508	4784
468.588	3149
468.667	1907
468.746	2544
468.825	2073
468.904	2319
468.983	1766
469.062	2174
469.141	3513
469.220	1855
469.299	1674
469.378	1515
469.456	2881
469.535	2900
469.614	2102
469.693	1957
469.772	2358
469.851	1979
469.930	2233
470.009	2139
470.088	2360
470.166	2393
470.245	3562
470.324	4974
470.403	3194
470.482	1762
470.560	1629
470.639	2450
470.718	2163
470.797	1799
470.875	1579
470.954	2017
471.033	2895
471.111	2100
471.190	2153
471.269	1940
471.347	1164
471.426	1458
471.505	1923
471.583	2345
471.662	2891
471.740	1793
471.819	2592
471.898	2110
471.976	2612
472.055	1708
472.133	1900
472.212	2636
472.290	2590
472.369	1532
472.447	2046
472.526	1278
472.604	3012
472.683	1130
472.761	1881
472.839	1577
472.918	2365
472.996	943
473.075	2717
473.153	2011
473.231	1074
473.310	1721
473.388	2130
473.466	1860
473.545	1742
473.623	1741
473.701	1908
473.780	1754
473.858	443
473.936	3758
474.014	1905
474.093	1682
474.171	1491
474.249	1978
474.327	1437
474.405	204
474.484	1514
474.562	945
474.640	1300
474.718	314
474.796	1629
474.874	2526
474.952	1294
475.030	1132
475.108	1640
475.187	1758
475.265	1420
475.343	1835
475.421	2517
475.499	1364
475.577	1645
475.655	2048
475.733	2768
475.811	2717
475.889	2048
475.966	2699
476.044	2140
476.122	687
476.200	1137
476.278	902
476.356	2135
476.434	1772
476.512	1853
476.590	708
476.667	2437
476.745	1067
476.823	2711
476.901	1310
476.979	1839
477.056	1889
477.134	568
477.212	1516
477.290	1279
477.367	1767
477.445	1635
477.523	1352
477.601	1045
477.678	775
477.756	1810
477.834	1651
477.911	1365
477.989	2252
478.066	1183
478.144	1699
478.222	530
478.299	787
478.377	1302
478.454	1854
478.532	1544
478.609	633
478.687	1711
478.764	1208
478.842	1449
478.919	939
478.997	1447
479.074	1307
479.152	1238
479.229	1329
479.307	659
479.384	672
479.461	1317
479.539	912
479.616	801
479.694	864
479.771	1441
479.848	1540
479.926	-65
480.003	2438
480.080	1206
480.157	1120
480.235	1224
480.312	1365
480.389	1126
480.467	904
480.544	2065
480.621	1446
480.698	1632
480.775	1318
480.853	778
480.930	1536
481.007	1467
481.084	192
481.161	1157
481.238	1265
481.315	1366
481.392	681
481.470	1706
481.547	511
481.624	458
481.701	1679
481.778	2111
481.855	691
481.932	1039
482.009	1605
482.086	1543
482.163	1256
482.240	2469
482.317	1530
482.393	673
482.470	1735
482.547	1355
482.624	1222
482.701	1066
482.778	1486
482.855	1156
482.932	1096
483.009	1107
483.085	1860
483.162	1528
483.239	1369
483.316	816
483.393	1713
483.469	1111
483.546	2063
483.623	2643
483.699	1508
483.776	565
483.853	1421
483.930	1419
484.006	1751
484.083	5864
484.160	5336
484.236	9294
484.313	6487
484.389	4580
484.466	4751
484.543	3641
484.619	4058
484.696	6240
484.772	3768
484.849	4089
484.925	3914
485.002	3913
485.078	3007
485.155	4271
485.231	3459
485.308	3449
485.384	3519
485.461	4803
485.537	3628
485.614	5108
485.690	3838
485.766	2770
485.843	3487
485.919	3730
485.995	3371
486.072	3165
486.148	2927
486.224	3389
486.301	3210
486.377	3692
486.453	2775
486.530	4118
486.606	4810
486.682	5482
486.758	4950
486.835	4988
486.911	2932
486.987	5733
487.063	4562
487.139	4093
487.215	3425
487.292	5780
487.368	3883
487.444	4567
487.520	5503
487.596	6351
487.672	13991
487.748	41891
487.824	60363
487.900	21175
487.976	6835
488.052	5016
488.128	4522
488.204	2503
488.280	5054
488.356	3376
488.432	4442
488.508	5787
488.584	2998
488.660	2878
488.736	2774
488.812	2246
488.888	3864
488.964	2865
489.039	3016
489.115	3641
489.191	2739
489.267	3315
489.343	2866
489.418	2017
489.494	3226
489.570	623
489.646	3464
489.722	3240
489.797	2067
489.873	2673
489.949	4208
490.024	3853
490.100	1577
490.176	3314
490.251	1980
490.327	2753
490.403	1449
490.478	2637
490.554	3028
490.629	2498
490.705	2238
490.781	2632
490.856	1804
490.932	3030
491.007	2515
491.083	1339
491.158	1389
491.234	2628
491.309	3275
491.385	3157
491.460	978
491.536	2820
491.611	1884
491.686	2113
491.762	2192
491.837	1925
491.913	2069
491.988	2351
492.063	1999
492.139	3064
492.214	2433
492.289	2056
492.365	1559
492.440	1707
492.515	1444
492.590	2387
492.666	1669
492.741	1920
492.816	1461
492.891	1310
492.967	2486
493.042	1433
493.117	954
493.192	2564
493.267	2535
493.342	5688
493.418	6144
493.493	2196
493.568	1396
493.643	1484
493.718	2314
493.793	1458
493.868	1706
493.943	1754
494.018	1775
494.093	821
494.168	2314
494.243	1477
494.318	1966
494.393	1917
494.468	1928
494.543	2166
494.618	1858
494.693	1503
494.768	1894
494.842	1387
494.917	1890
494.992	1249
495.067	1938
495.142	1692
495.217	1592
495.292	1055
495.366	1468
495.441	993
495.516	2780
495.591	1571
495.665	3013
495.740	3340
495.815	2132
495.890	1213
495.964	-157
496.039	3904
496.114	1723
496.188	2047
496.263	1085
496.338	1658
496.412	1256
496.487	2354
496.561	1467
496.636	1524
496.710	1331
496.785	1795
496.860	2203
496.934	1444
497.009	1242
497.083	1576
497.158	1743
497.232	2146
497.307	2628
497.381	2633
497.455	1731
497.530	2581
497.604	1863
497.679	1863
497.753	2200
497.827	1601
497.902	1625
497.976	2324
498.050	6941
498.125	21404
498.199	21779
498.273	3217
498.348	1785
498.422	2259
498.496	2759
498.570	4184
498.645	2119
498.719	32
498.793	2181
498.867	2565
498.941	2886
499.016	8433
499.090	21271
499.164	8896
499.238	2072
499.312	1603
499.386	1449
499.460	3055
499.534	2456
499.609	3211
499.683	2144
499.757	2154
499.831	3931
499.905	13703
499.979	12963
500.053	1431
500.127	2552
500.201	1016
500.275	2610
500.349	2440
500.422	1555
500.496	2843
500.570	3236
500.644	9175
500.718	15320
500.792	3731
500.866	1537
500.940	1063
501.013	1633
501.087	834
501.161	1443
501.235	-365
501.309	5827
501.382	12153
501.456	11522
501.530	2728
501.603	2897
501.677	1511
501.751	-563
501.825	2758
501.898	1187
501.972	4529
502.046	3267
502.119	300
502.193	2850
502.266	3851
502.340	2295
502.413	2576
502.487	4568
502.561	1660
502.634	1666
502.708	786
502.781	-502
502.855	1943
502.928	-789
503.002	215
503.075	-55
503.149	902
503.222	760
503.295	312
503.369	1145
503.442	1240
503.516	4058
503.589	8531
503.662	5449
503.736	2988
503.809	5323
503.882	3863
503.956	7271
504.029	10717
504.102	22111
504.175	33508
504.249	10918
504.322	4187
504.395	1850
504.468	2036
504.542	529
504.615	-14
504.688	1724
504.761	-948
504.834	1935
504.907	678
504.980	1347
505.053	869
505.127	-1492
505.200	3611
505.273	651
505.346	531
505.419	-276
505.492	1885
505.565	-217
505.638	1043
505.711	-408
505.784	-108
505.857	321
505.930	1435
506.003	-982
506.076	2633
506.149	-294
506.221	-1239
506.294	2420
506.367	298
506.440	5765
506.513	3173
506.586	1257
506.659	393
506.731	240
506.804	127
506.877	116
506.950	896
507.022	2027
507.095	33
507.168	1126
507.241	1054
507.313	-623
507.386	-662
507.459	2032
507.531	214
507.604	-286
507.677	2045
507.749	-595
507.822	1926
507.894	1333
507.967	3555
508.040	1204
508.112	2476
508.185	1165
508.257	117
508.330	2475
508.402	653
508.475	735
508.547	1229
508.620	1072
508.692	1294
508.765	1672
508.837	466
508.909	1230
508.982	1087
509.054	1480
509.127	-110
509.199	758
509.271	-722
509.344	289
509.416	557
509.488	608
509.560	1389
509.633	1282
509.705	54
509.777	1066
509.849	1660
509.922	-643
509.994	853
510.066	2298
510.138	571
510.210	4587
510.283	2690
510.355	2665
510.427	2011
510.499	2702
510.571	1750
510.643	472
510.715	1919
510.787	-597
510.859	1845
510.931	1061
511.003	664
511.076	2046
511.148	571
511.219	927
511.291	2357
511.363	1899
511.435	1597
511.507	369
511.579	1912
511.651	2318
511.723	451
511.795	114
511.867	817
511.939	1358
512.010	687
512.082	2354
512.154	-22
512.226	181
512.298	2692
512.369	3059
512.441	3132
512.513	2470
512.585	-206
512.656	3575
512.728	1253
512.800	725
512.871	2580
512.943	1094
513.015	807
513.086	1862
513.158	2074
513.230	-19
513.301	91
513.373	1832
513.444	1272
513.516	1523
513.588	850
513.659	1635
513.731	1371
513.802	-168
513.874	3113
513.945	1397
514.016	136
514.088	1582
514.159	364
514.231	2003
514.302	2876
514.374	2769
514.445	-262
514.516	4323
514.588	1237
514.659	1746
514.730	701
514.802	2112
514.873	-886
514.944	3816
515.016	1982
515.087	822
515.158	1569
515.229	3129
515.301	-63
515.372	2130
515.443	1465
515.514	716
515.585	373
515.656	1095
515.728	1898
515.799	631
515.870	1729
515.941	1661
516.012	784
516.083	3261
516.154	875
516.225	2870
516.296	3285
516.367	1991
516.438	1669
516.509	3227
516.580	5357
516.651	20534
516.722	63034
516.793	28727
516.864	4900
516.935	4967
517.006	5721
517.077	8213
517.148	17210
517.219	83864
517.289	127715
517.360	23470
517.431	7729
517.502	2401
517.573	4376
517.643	2512
517.714	2513
517.785	3450
517.856	3203
517.926	5712
517.997	6354
518.068	5152
518.138	10519
518.209	13187
518.280	55762
518.350	192766
518.421	76945
518.492	11023
518.562	6401
518.633	5391
518.703	6480
518.774	16929
518.845	43399
518.915	41904
518.986	11454
519.056	5594
519.127	4551
519.197	3961
519.268	6887
519.338	7376
519.408	2090
519.479	2099
519.549	1403
519.620	3803
519.690	1122
519.760	1325
519.831	1281
519.901	2009
519.971	2113
520.042	1063
520.112	1182
520.182	2114
520.253	1848
520.323	1688
520.393	221
520.463	3984
520.534	-780
520.604	4689
520.674	2338
520.744	1017
520.814	2092
520.885	3257
520.955	2456
521.025	8758
521.095	4146
521.165	2673
521.235	756
521.305	-146
521.375	1239
521.445	1977
521.515	73
521.585	2052
521.655	-848
521.725	1673
521.795	2362
521.865	-1600
521.935	2476
522.005	742
522.075	393
522.145	2252
522.215	609
522.285	975
522.355	1294
522.424	1709
522.494	1102
522.564	2060
522.634	912
522.704	3457
522.774	493
522.843	1526
522.913	1247
522.983	219
523.053	546
523.122	1269
523.192	-70
523.262	336
523.331	429
523.401	1530
523.471	874
523.540	2070
523.610	944
523.680	1314
523.749	1172
523.819	1430
523.888	887
523.958	-84
524.027	1438
524.097	1048
524.166	632
524.236	-813
524.305	2990
524.375	688
524.444	-41
524.514	2746
524.583	785
524.653	-278
524.722	1212
524.791	-522
524.861	2985
524.930	-728
524.999	73
525.069	2125
525.138	607
525.207	406
525.277	1123
525.346	438
525.415	1730
525.484	1452
525.554	607
525.623	1637
525.692	2493
525.761	2089
525.830	3897
525.900	3760
525.969	7279
526.038	14302
526.107	29690
526.176	92335
526.245	74871
526.314	20405
526.383	44394
526.452	61216
526.522	98224
526.591	91656
526.660	12256
526.729	6947
526.797	9205
526.867	10165
526.935	40187
527.004	158841
527.073	101450
527.142	10649
527.211	3890
527.280	3238
527.349	2115
527.418	1211
527.487	2437
527.555	389
527.624	375
527.693	-66
527.762	1646
527.831	663
527.899	976
527.968	601
528.037	-530
528.106	1638
528.174	725
528.243	1831
528.312	836
528.380	1071
528.449	-287
528.518	2186
528.586	-768
528.655	1106
528.723	1250
528.792	664
528.861	189
528.929	-321
528.998	2716
529.066	1826
529.135	5973
529.203	5393
529.272	7268
529.340	12478
529.409	11415
529.477	8267
529.545	7018
529.614	10686
529.682	9869
529.751	13159
529.819	15219
529.887	16526
529.956	14467
530.024	14540
530.092	12122
530.161	13051
530.229	12231
530.297	14378
530.365	15668
530.434	15925
530.502	16383
530.570	15069
530.638	11847
530.707	12025
530.775	11391
530.843	10375
530.911	12579
530.979	12359
531.047	14753
531.115	14497
531.183	13243
531.252	11991
531.320	11852
531.388	10621
531.456	12151
531.524	14403
531.592	16029
531.660	19186
531.728	14580
531.796	14012
531.864	14296
531.932	14822
532.000	14504
532.067	16095
532.135	17013
532.203	17778
532.271	18841
532.339	19072
532.407	17591
532.475	17464
532.542	15645
532.610	15986
532.678	15773
532.746	19264
532.814	20188
532.881	19824
532.949	17479
533.017	16203
533.084	16549
533.152	14893
533.220	14786
533.287	14507
533.355	16133
533.423	16088
533.490	16901
533.558	15973
533.625	14756
533.693	13110
533.761	13071
533.828	14163
533.896	12520
533.963	16247
534.031	16856
534.098	16907
534.166	15984
534.233	13347
534.300	15521
534.368	13959
534.435	11794
534.503	13103
534.570	13406
534.637	12834
534.705	14124
534.772	15048
534.840	17757
534.907	50010
534.974	62473
535.041	14844
535.109	9875
535.176	9735
535.243	10603
535.310	9937
535.378	10053
535.445	10720
535.512	9534
535.579	9823
535.646	7838
535.714	8307
535.781	9481
535.848	9477
535.915	9980
535.982	9982
536.049	10084
536.116	10148
536.183	7898
536.250	7600
536.317	7168
536.384	7874
536.451	7072
536.518	8145
536.585	6030
536.652	9340
536.719	8094
536.786	5188
536.853	5831
536.920	8181
536.987	5774
537.053	5218
537.120	8047
537.187	8183
537.254	5977
537.321	6047
537.388	7904
537.454	5403
537.521	4926
537.588	5030
537.654	6447
537.721	6258
537.788	5783
537.855	5214
537.921	5793
537.988	5467
538.055	6681
538.121	3830
538.188	4156
538.254	4216
538.321	4340
538.388	5421
538.454	4697
538.521	5189
538.587	4711
538.654	4855
538.720	5166
538.787	5258
538.853	4472
538.920	4234
538.986	3902
539.053	3596
539.119	3713
539.185	3174
539.252	5268
539.318	4317
539.385	6470
539.451	3030
539.517	4332
539.583	4377
539.650	4348
539.716	4675
539.782	4499
539.849	2931
539.915	4188
539.981	3203
540.047	3955
540.114	3280
540.180	5132
540.246	2029
540.312	3176
540.378	3478
540.444	5237
540.510	4000
540.576	4210
540.643	3204
540.709	3159
540.775	3492
540.841	3179
540.907	4026
540.973	4560
541.039	3673
541.105	4185
541.171	3407
541.237	2669
541.303	3539
541.369	5480
541.435	3388
541.500	3263
541.566	2086
541.632	3244
541.698	2950
541.764	4417
541.830	3826
541.896	2247
541.961	3328
542.027	2317
542.093	3697
542.159	4114
542.224	2762
542.290	4468
542.356	3447
542.421	3319
542.487	3832
542.553	3064
542.618	2983
542.684	1421
542.750	2762
542.815	4006
542.881	3447
542.947	3543
543.012	4656
543.078	3181
543.143	2641
543.209	3052
543.274	2110
543.340	3802
543.405	3483
543.471	3602
543.536	3504
543.602	3741
543.667	1259
543.732	4828
543.798	1645
543.863	3318
543.928	1956
543.994	2082
544.059	3514
544.124	3604
544.190	2330
544.255	3050
544.320	3242
544.386	2154
544.451	4236
544.516	3253
544.581	2754
544.646	3705
544.712	4949
544.777	3806
544.842	3327
544.907	3481
544.972	3148
545.037	4079
545.102	4453
545.168	4263
545.233	4882
545.298	5770
545.363	3802
545.428	4932
545.493	5340
545.558	3749
545.623	4090
545.688	3799
545.753	4146
545.818	4177
545.883	5354
545.947	4624
546.012	4564
546.077	5256
546.142	7110
546.207	4665
546.272	6360
546.337	6771
546.401	6392
546.466	7611
546.531	5976
546.596	8240
546.661	7989
546.725	9398
546.790	7587
546.855	10173
546.919	9652
546.984	12480
547.049	13020
547.113	16102
547.178	16103
547.243	18624
547.307	22355
547.372	23383
547.436	24215
547.501	25205
547.565	27854
547.630	25714
547.695	24556
547.759	24122
547.823	24959
547.888	25886
547.952	25491
548.017	27353
548.081	27618
548.146	26457
548.210	28727
548.274	30659
548.339	31260
548.403	28284
548.468	25371
548.532	25459
548.596	25927
548.660	26291
548.725	30143
548.789	31313
548.853	30651
548.917	29413
548.982	28897
549.046	25766
549.110	22613
549.174	23409
549.238	26419
549.303	30351
549.367	32159
549.431	29493
549.495	28532
549.559	28135
549.623	32754
549.687	35722
549.751	34901
549.815	41918
549.879	44028
549.943	40366
550.007	43247
550.071	44033
550.135	38762
550.199	35731
550.263	36134
550.327	34347
550.391	34384
550.455	38266
550.519	40748
550.582	43295
550.646	48991
550.710	49589
550.774	49126
550.838	49281
550.901	49985
550.965	54531
551.029	54117
551.093	58631
551.156	61970
551.220	65813
551.284	68680
551.347	57894
551.411	54355
551.475	52694
551.538	53190
551.602	51219
551.666	47575
551.729	44618
551.793	44431
551.856	43981
551.920	42341
551.983	44324
552.047	41525
552.110	43198
552.174	42889
552.237	44273
552.301	41538
552.364	40538
552.428	38540
552.491	39861
552.554	41251
552.618	40275
552.681	41597
552.745	40475
552.808	43130
552.871	47697
552.934	44596
552.998	41207
553.061	39473
553.124	38883
553.187	38068
553.251	39545
553.314	39817
553.377	38618
553.440	42294
553.503	47286
553.567	50709
553.630	43727
553.693	44498
553.756	44292
553.819	44169
553.882	42388
553.945	42867
554.008	42300
554.071	41920
554.134	44221
554.197	40515
554.260	40347
554.323	41129
554.386	40708
554.449	41374
554.512	42170
554.575	40387
554.638	39757
554.701	40440
554.764	39889
554.827	38679
554.889	37644
554.952	35629
555.015	33130
555.078	33670
555.141	35458
555.203	33864
555.266	34327
555.329	33715
555.391	32432
555.454	32860
555.517	30745
555.580	29857
555.642	28062
555.705	28094
555.768	28344
555.830	26989
555.893	26572
555.955	25699
556.018	24182
556.080	24886
556.143	26039
556.206	24030
556.268	24863
556.330	24192
556.393	23100
556.455	22440
556.518	22332
556.580	21944
556.643	19840
556.705	19713
556.767	19419
556.830	19655
556.892	17993
556.955	18551
557.017	18279
557.079	18001
557.142	17386
557.204	16183
557.266	17307
557.328	16205
557.391	14828
557.453	14810
557.515	15037
557.577	14964
557.639	14306
557.701	13387
557.764	13763
557.826	15091
557.888	16115
557.950	15020
558.012	15217
558.074	19507
558.136	35352
558.198	79683
558.260	33227
558.322	14648
558.384	15283
558.446	16098
558.508	17368
558.570	18372
558.632	20027
558.694	25201
558.756	41904
558.818	113715
558.880	240823
558.942	91922
559.003	80533
559.065	42436
559.127	17684
559.189	17423
559.251	19171
559.312	26711
559.374	59613
559.436	173146
559.498	89107
559.559	20518
559.621	17323
559.683	19084
559.744	29805
559.806	88939
559.868	130155
559.929	29131
559.991	17782
560.052	26041
560.114	71431
560.176	48510
560.237	41817
560.299	66688
560.360	17015
560.422	7635
560.483	6697
560.545	6692
560.606	6078
560.667	6273
560.729	5519
560.790	5573
560.852	5699
560.913	4467
560.974	5556
561.036	5303
561.097	5098
561.158	5376
561.220	5696
561.281	4758
561.342	4448
561.403	5538
561.465	4093
561.526	5414
561.587	5549
561.648	4035
561.709	3538
561.771	5064
561.832	4820
561.893	3865
561.954	4304
562.015	4212
562.076	4530
562.137	2775
562.198	3137
562.259	3598
562.320	4694
562.381	4038
562.442	4394
562.503	3430
562.564	3988
562.625	4102
562.686	3713
562.747	3310
562.808	4030
562.869	3596
562.930	3486
562.991	3046
563.051	2735
563.112	3217
563.173	3184
563.234	2621
563.294	3545
563.355	3158
563.416	2516
563.477	3805
563.537	3566
563.598	4078
563.659	3022
563.720	2927
563.780	3179
563.841	2852
563.901	3497
563.962	3294
564.023	3410
564.083	2632
564.144	3159
564.204	3641
564.265	2539
564.325	2128
564.386	3572
564.446	4213
564.507	2999
564.567	2474
564.628	2327
564.688	2878
564.749	2484
564.809	2844
564.869	2959
564.930	3214
564.990	3698
565.050	2623
565.111	3796
565.171	2572
565.231	2791
565.292	3899
565.352	2529
565.412	3863
565.472	3278
565.532	2461
565.593	2480
565.653	2785
565.713	2504
565.773	3196
565.833	2126
565.893	4218
565.953	3185
566.013	2581
566.074	2955
566.134	2445
566.194	3370
566.254	2856
566.314	2699
566.374	2460
566.434	2605
566.494	2018
566.554	2965
566.614	2085
566.673	2844
566.733	3362
566.793	2330
566.853	2676
566.913	2694
566.973	2643
567.033	4928
567.092	2912
567.152	2826
567.212	3550
567.272	2012
567.331	3841
567.391	3668
567.451	3550
567.511	3830
567.570	3391
567.630	3113
567.690	3302
567.749	2596
567.809	3195
567.868	3066
567.928	1962
567.988	2705
568.047	3005
568.107	2790
568.166	3496
568.226	3361
568.285	4097
568.345	3277
568.404	2786
568.464	2846
568.523	2916
568.582	3067
568.642	2621
568.701	2775
568.761	2480
568.820	3550
568.879	3179
568.939	3340
568.998	3510
569.057	2494
569.116	2728
569.176	2531
569.235	2022
569.294	2223
569.353	2437
569.413	1865
569.472	2365
569.531	2817
569.590	2155
569.649	2616
569.708	2607
569.767	2354
569.827	2579
569.886	1478
569.945	2985
570.004	2712
570.063	1893
570.122	3036
570.181	2446
570.240	2271
570.299	2952
570.358	2812
570.417	2182
570.475	2470
570.534	3142
570.593	2914
570.652	3474
570.711	3260
570.770	2248
570.829	3055
570.887	2654
570.946	2624
571.005	2400
571.064	3014
571.122	3231
571.181	2634
571.240	2001
571.299	2382
571.357	1983
571.416	2352
571.475	2030
571.533	2751
571.592	2898
571.650	2159
571.709	2365
571.768	2755
571.826	3274
571.885	3065
571.943	2596
572.002	2385
572.060	2864
572.119	2614
572.177	3638
572.236	2841
572.294	2743
572.352	3489
572.411	3095
572.469	3053
572.528	2143
572.586	2366
572.644	2003
572.703	2790
572.761	1802
572.819	2011
572.877	2098
572.936	1884
572.994	1830
573.052	2060
573.110	1845
573.169	2123
573.227	2153
573.285	2950
573.343	2569
573.401	1539
573.459	2693
573.517	1656
573.576	2309
573.634	2228
573.692	1432
573.750	2315
573.808	2076
573.866	1772
573.924	2170
573.982	2076
574.040	2340
574.098	1923
574.155	1588
574.213	1461
574.271	2259
574.329	2285
574.387	1507
574.445	1534
574.503	2225
574.560	2436
574.618	1112
574.676	995
574.734	1547
574.792	1786
574.849	2132
574.907	1782
574.965	1588
575.022	1085
575.080	1228
575.138	1599
575.195	603
575.253	1289
575.311	830
575.368	516
575.426	1668
575.483	2450
575.541	1170
575.598	1038
575.656	648
575.713	1490
575.771	1766
575.828	1186
575.886	806
575.943	1913
576.001	1351
576.058	887
576.115	1255
576.173	1056
576.230	820
576.287	1526
576.345	1340
576.402	1222
576.459	1922
576.517	1890
576.574	1033
576.631	1210
576.688	711
576.746	1311
576.803	838
576.860	783
576.917	1350
576.974	1681
577.031	836
577.089	1635
577.146	-66
577.203	1764
577.260	1629
577.317	1258
577.374	1026
577.431	766
577.488	743
577.545	866
577.602	1444
577.659	603
577.716	1572
577.773	1275
577.830	1873
577.886	2065
577.943	935
578.000	1689
578.057	1370
578.114	2329
578.171	3315
578.227	3844
578.284	4151
578.341	3268
578.398	1089
578.454	1229
578.511	1326
578.568	2079
578.625	908
578.681	1702
578.738	1181
578.794	1811
578.851	2114
578.908	2211
578.964	1316
579.021	1622
579.077	1086
579.134	1644
579.190	1884
579.247	2009
579.303	861
579.360	1393
579.416	1486
579.473	1145
579.529	1736
579.586	1478
579.642	2069
579.698	2559
579.755	2188
579.811	2663
579.867	3383
579.924	2079
579.980	1936
580.036	3378
580.093	4406
580.149	7087
580.205	7379
580.261	4461
580.317	3925
580.374	3449
580.430	3258
580.486	2602
580.542	1545
580.598	2298
580.619	2519
580.654	2905
580.692	2132
580.710	1749
580.765	2969
580.767	3008
580.823	2885
580.838	2744
580.879	2372
580.911	2420
580.935	2459
580.984	2334
580.991	2316
581.047	2925
581.057	2970
581.103	3171
581.130	3573
581.159	3966
581.203	4868
581.215	5123
581.270	4384
581.276	4321
581.326	3643
581.349	3927
581.382	4377
581.422	3776
581.438	3527
581.494	3492
581.494	3487
581.550	3014
581.567	3276
581.606	3786
581.640	3581
581.661	3482
581.713	4439
581.717	4520
581.773	3884
581.786	3893
581.829	3859
581.859	4118
581.885	4321
581.932	3989
581.940	3949
581.996	4170
582.004	4253
582.052	4617
582.077	4363
582.107	4074
582.150	4811
582.163	5015
582.219	4776
582.223	4780
582.274	4890
582.296	4705
582.330	4423
582.368	4825
582.386	5059
582.441	4557
582.441	4554
582.497	5690
582.514	5746
582.552	5909
582.587	5737
582.608	5645
582.659	4877
582.663	4811
582.719	6350
582.732	6202
582.774	5739
582.805	5940
582.830	6170
582.877	6441
582.885	6489
582.941	8129
582.950	8219
582.996	8764
583.023	9972
583.052	11407
583.095	11753
583.107	11730
583.162	11411
583.168	11435
583.218	11577
583.240	10341
583.273	8391
583.313	8176
583.328	8224
583.384	7603
583.385	7587
583.439	6734
583.458	6255
583.494	5595
583.531	5548
583.549	5613
583.603	6109
583.605	6112
583.660	5957
583.676	6097
583.715	6587
583.748	6536
583.770	6492
583.820	6042
583.825	5990
583.881	6469
583.893	6279
583.936	5773
583.965	5565
583.991	5304
584.038	6326
584.046	6539
584.101	6349
584.110	6350
584.156	6450
584.183	6667
584.211	6797
584.255	6862
584.266	6906
584.321	7277
584.328	7289
584.376	7191
584.400	6949
584.431	6623
584.472	6987
584.486	7187
584.541	8025
584.545	8003
584.596	7424
584.617	7530
584.651	8134
584.689	8889
584.706	9025
584.761	8318
584.762	8316
584.816	8679
584.834	8682
584.871	8878
584.906	8790
584.926	8614
584.978	8398
584.980	8403
585.035	8950
585.051	9132
585.090	9801
585.123	10160
585.145	10216
585.195	9413
585.200	9396
585.254	10064
585.267	10293
585.309	11288
585.340	11952
585.364	12300
585.412	13403
585.419	13637
585.473	15740
585.484	16280
585.528	20295
585.556	23989
585.583	32350
585.628	50922
585.637	58237
585.692	115310
585.700	124686
585.747	151503
585.772	134844
585.801	87721
585.845	33038
585.856	27681
585.910	17432
585.917	16294
585.965	13600
585.989	12806
586.019	12795
586.061	12175
586.074	11897
586.128	11895
586.133	11754
586.183	10406
586.205	10276
586.237	10253
586.277	10008
586.292	9969
586.346	9623
586.349	9609
586.401	9221
586.421	8978
586.455	8693
586.493	8469
586.509	8725
586.564	9272
586.565	9285
586.618	10154
586.637	10278
586.672	10257
586.709	10091
586.727	10118
586.781	10699
586.781	10712
586.835	8861
586.853	8681
586.889	8791
586.925	8186
586.944	7930
586.996	7393
586.998	7396
587.052	7801
587.068	7759
587.106	7833
587.140	7748
587.161	7655
587.212	7231
587.215	7251
587.269	7851
587.284	7998
587.323	7917
587.356	7838
587.377	7975
587.427	8531
587.431	8563
587.485	8265
587.499	8139
587.539	8083
587.571	8191
587.593	8341
587.643	8994
587.648	9091
587.702	8985
587.715	9170
587.755	9494
587.786	9483
587.810	9556
587.858	9521
587.864	9525
587.917	9548
587.930	9571
587.971	10129
588.001	10229
588.025	10044
588.073	9842
588.079	9935
588.133	11047
588.145	11125
588.187	11363
588.217	11656
588.241	11850
588.288	12015
588.295	12114
588.348	12955
588.360	13127
588.402	13863
588.431	14336
588.456	15016
588.503	16134
588.510	16297
588.564	17619
588.575	17908
588.617	19776
588.646	21009
588.671	22459
588.718	25938
588.725	27088
588.778	36609
588.789	38993
588.832	62111
588.861	80128
588.886	113296
588.932	185467
588.939	190708
588.993	220109
589.004	217491
589.047	128099
589.075	74758
589.100	56163
589.147	30910
589.154	30000
589.207	24195
589.218	23130
589.261	23430
589.290	24022
589.314	25163
589.361	27763
589.368	29223
589.421	41839
589.433	45136
589.475	81299
589.504	109178
589.528	137971
589.576	196931
589.582	191220
589.635	105159
589.647	87697
589.689	48319
589.718	25326
589.742	22192
589.790	16687
589.795	16519
589.849	15046
589.861	14687
589.902	14564
589.932	14421
589.955	13985
590.004	12864
590.009	12820
590.062	12225
590.075	12043
590.115	11821
590.146	11419
590.168	11430
590.218	11696
590.222	11773
590.275	12019
590.289	12140
590.328	12775
590.360	13136
590.381	12912
590.431	11972
590.435	11968
590.488	11543
590.503	11383
590.541	12425
590.574	13294
590.594	13227
590.645	12983
590.647	13030
590.700	13116
590.716	13086
590.753	13232
590.787	13507
590.806	13789
590.859	14367
590.859	14404
590.912	13973
590.930	13848
590.965	14335
591.001	14820
591.018	14678
591.071	13929
591.072	13881
591.124	13944
591.143	13988
591.177	14492
591.214	14872
591.230	15001
591.283	15370
591.285	15333
591.336	15063
591.356	14914
591.389	15297
591.427	15583
591.442	15463
591.495	14727
591.498	14639
591.547	14457
591.569	14311
591.600	14682
591.640	14928
591.653	15164
591.706	16070
591.711	16118
591.759	16758
591.782	16993
591.811	17197
591.853	17338
591.864	17362
591.917	17199
591.924	17124
591.969	17367
591.995	17386
592.022	17175
592.066	16737
592.075	16952
592.127	17939
592.137	18064
592.180	18594
592.208	18851
592.233	18987
592.279	19067
592.285	19161
592.338	19486
592.350	19487
592.390	19217
592.421	18948
592.443	19568
592.491	20739
592.495	20778
592.548	20468
592.562	20323
592.600	20666
592.633	20855
592.653	20720
592.704	20093
592.705	20227
592.775	21150
592.846	20489
592.916	21547
592.987	22155
593.058	22215
593.128	22239
593.199	22454
593.270	22503
593.341	24163
593.411	24143
593.482	24641
593.553	25393
593.623	26053
593.694	25450
593.764	26408
593.835	26414
593.906	27727
593.976	27034
594.047	26990
594.117	29815
594.188	30279
594.258	30079
594.329	28627
594.399	30570
594.470	31244
594.540	31254
594.611	32540
594.681	31975
594.751	32691
594.822	34907
594.892	36412
594.963	35932
595.033	38006
595.103	37755
595.174	39212
595.244	41092
595.314	42381
595.384	41964
595.455	42475
595.525	43751
595.595	45390
595.665	45917
595.736	45279
595.806	46368
595.876	46426
595.946	46726
596.016	50547
596.087	51758
596.157	50648
596.227	50790
596.297	54247
596.367	56956
596.437	59367
596.507	60106
596.577	61881
596.647	62874
596.717	65744
596.787	66667
596.857	66926
596.927	67707
596.997	66705
597.067	68625
597.137	70392
597.207	71731
597.277	71062
597.347	68965
597.417	67173
597.487	68020
597.557	69299
597.626	72841
597.696	73130
597.766	72070
597.836	69299
597.906	66673
597.975	65145
598.045	67162
598.115	71005
598.185	74984
598.254	82110
598.324	89433
598.394	89340
598.464	87610
598.533	87184
598.603	81754
598.672	81949
598.742	83223
598.812	85299
598.881	86904
598.951	87168
599.020	88329
599.090	90820
599.159	92881
599.229	92126
599.299	90438
599.368	93650
599.437	92788
599.507	88431
599.576	86754
599.646	85972
599.715	88950
599.785	86546
599.854	86643
599.924	84644
599.993	87723
600.062	89691
600.132	91503
600.201	96511
600.270	107754
600.340	111891
600.409	110774
600.478	112651
600.547	114645
600.617	107890
600.686	96192
600.755	92653
600.824	90029
600.894	92745
600.963	94367
601.032	95771
601.101	93989
601.170	93628
601.239	93012
601.308	96192
601.378	97520
601.447	98080
601.516	101850
601.585	104206
601.654	105534
601.723	108146
601.792	110788
601.861	115686
601.930	121620
601.999	124695
602.068	122567
602.137	124652
602.206	125186
602.275	128538
602.343	128758
602.412	129453
602.481	130507
602.550	131602
602.619	134585
602.688	134177
602.756	136350
602.825	136473
602.894	138647
602.963	138100
603.032	141447
603.100	142142
603.169	138175
603.238	144970
603.307	137057
603.375	140458
603.444	145517
603.513	135579
603.581	140632
603.650	145348
603.719	125178
603.787	119483
603.856	124067
603.924	125919
603.993	130334
604.061	132420
604.130	137215
604.198	140128
604.267	141967
604.335	145118
604.404	147013
604.472	149278
604.541	149435
604.609	155735
604.678	158106
604.746	161043
604.815	168358
604.883	161421
604.951	159160
605.020	163256
605.088	153841
605.156	147849
605.225	148922
605.293	148099
605.361	150350
605.429	149435
605.498	152498
605.566	148887
605.634	159991
605.702	157280
605.771	161738
605.839	165979
605.907	155620
605.975	160655
606.043	151542
606.111	148614
606.180	160067
606.248	144264
606.316	146150
606.384	154475
606.452	127984
606.520	113974
606.588	117013
606.656	117747
606.724	115897
606.792	108800
606.860	99250
606.928	91201
606.996	88654
607.064	86619
607.132	88205
607.200	95128
607.267	96788
607.335	98470
607.403	100041
607.471	97735
607.539	95740
607.607	95530
607.674	84099
607.742	85286
607.810	82935
607.878	83538
607.946	85695
608.013	88608
608.081	90653
608.149	90011
608.216	94828
608.284	97275
608.352	95866
608.419	94886
608.487	93849
608.555	90395
608.622	93523
608.690	98472
608.757	106800
608.825	108733
608.893	105816
608.960	98659
609.028	95019
609.095	97913
609.163	95177
609.230	85296
609.298	78668
609.365	81977
609.432	91502
609.500	97347
609.567	110852
609.635	126938
609.702	132489
609.769	124634
609.837	97396
609.904	84072
609.971	85461
610.039	94085
610.106	115200
610.173	190741
610.241	376464
610.308	230298
610.375	114923
610.442	93183
610.509	88551
610.577	90941
610.644	91395
610.711	94105
610.778	96562
610.845	99896
610.912	105507
610.980	107857
611.047	110326
611.114	108314
611.181	103575
611.248	103030
611.315	110773
611.382	112459
611.449	116556
611.516	118051
611.583	116785
611.650	116846
611.717	118816
611.784	119460
611.851	123143
611.918	129929
611.984	144982
612.051	184086
612.118	308849
612.185	603932
612.252	391666
612.319	170609
612.386	150639
612.452	138589
612.519	133687
612.586	131051
612.653	134105
612.719	139678
612.786	133040
612.853	123990
612.919	122345
612.986	124694
613.053	118341
613.120	110566
613.186	107040
613.253	108411
613.319	107490
613.386	109445
613.453	110231
613.519	111671
613.586	108047
613.652	110260
613.719	108667
613.785	111876
613.852	111798
613.918	110673
613.985	113125
614.051	118102
614.118	116333
614.184	112829
614.250	110664
614.317	115089
614.383	111530
614.449	114800
614.516	113848
614.582	115399
614.648	111179
614.715	112010
614.781	109197
614.847	107945
614.914	109135
614.980	106287
615.046	107379
615.112	110295
615.179	109671
615.245	110845
615.311	109751
615.377	111954
615.443	112444
615.509	114290
615.575	116519
615.642	113738
615.708	120601
615.774	123952
615.840	126894
615.906	132630
615.972	148708
616.038	200879
616.104	353178
616.170	670430
616.236	536043
616.302	218382
616.368	177248
616.434	139282
616.500	133805
616.565	143194
616.631	164969
616.697	146078
616.763	148341
616.829	198293
616.895	310916
616.961	284607
617.026	152304
617.092	122488
617.158	118272
617.224	116375
617.289	109209
617.355	103925
617.421	103275
617.487	104355
617.552	100691
617.618	99146
617.684	97659
617.749	101928
617.815	96103
617.880	93997
617.946	95300
618.012	98848
618.077	98612
618.143	95605
618.208	98286
618.274	103914
618.339	101957
618.405	86810
618.470	88164
618.536	87224
618.601	86944
618.667	81621
618.732	78396
618.798	75861
618.863	76201
618.928	76204
618.994	77417
619.059	75647
619.124	77003
619.190	77573
619.255	75166
619.320	77488
619.386	77979
619.451	75389
619.516	75272
619.581	76413
619.647	77983
619.712	77924
619.777	75199
619.842	77208
619.907	77647
619.972	79331
620.038	77723
620.103	75923
620.168	76131
620.233	78633
620.298	77831
620.363	79558
620.428	82029
620.493	82326
620.558	84500
620.623	84682
620.688	84160
620.753	83585
620.818	85591
620.883	85481
620.948	85987
621.013	84342
621.078	83809
621.143	83210
621.207	87421
621.272	84211
621.337	83012
621.402	82994
621.467	81490
621.532	81764
621.596	81679
621.661	79604
621.726	78525
621.791	80299
621.855	81361
621.920	79825
621.985	80393
622.049	83305
622.114	81979
622.179	84093
622.243	84390
622.308	86879
622.373	90799
622.437	87351
622.502	83979
622.566	84281
622.631	80548
622.695	84626
622.760	83239
622.824	83007
622.889	83416
622.953	83412
623.018	88402
623.082	88732
623.147	87332
623.211	84586
623.276	84926
623.340	81178
623.404	81633
623.469	80122
623.533	83165
623.597	80664
623.662	80230
623.726	74554
623.790	71609
623.854	69855
623.919	71295
623.983	71210
624.047	71052
624.111	72275
624.176	73855
624.240	73337
624.304	76589
624.368	74129
624.432	73120
624.496	75982
624.560	78735
624.625	77526
624.689	78029
624.753	81036
624.817	75848
624.881	75120
624.945	69854
625.009	68209
625.073	68903
625.137	70087
625.201	72844
625.265	71773
625.329	69304
625.393	70577
625.456	69228
625.520	72280
625.584	72696
625.648	74689
625.712	75467
625.776	78940
625.839	74830
625.903	61383
625.967	58165
626.031	64596
626.095	72728
626.158	63299
626.222	50965
626.286	50967
626.349	47975
626.413	44139
626.477	46642
626.540	45641
626.604	44966
626.668	46412
626.731	44050
626.795	43029
626.858	42608
626.922	41180
626.986	42378
627.049	41179
627.113	43926
627.176	43880
627.240	40382
627.303	40630
627.366	39284
627.430	41266
627.493	39152
627.557	38262
627.620	41348
627.684	40245
627.747	41719
627.810	35204
627.874	35140
627.937	33284
628.000	35644
628.064	33314
628.127	28624
628.190	30331
628.253	28399
628.317	27086
628.380	25996
628.443	25695
628.506	25281
628.569	24574
628.632	22724
628.696	24574
628.759	23143
628.822	21674
628.885	21209
628.948	21372
629.011	20943
629.074	21217
629.137	19164
629.200	19014
629.263	20082
629.326	17531
629.389	17927
629.452	18844
629.515	18857
629.578	18995
629.641	18936
629.704	18516
629.767	18992
629.830	17414
629.892	17114
629.955	16144
630.018	18792
630.081	16075
630.144	18082
630.207	14952
630.269	17596
630.332	15809
630.395	16152
630.458	15742
630.520	15271
630.583	16839
630.646	15800
630.708	15857
630.771	15222
630.834	17980
630.896	15357
630.959	16258
631.021	14867
631.084	15475
631.146	15794
631.209	16804
631.272	15195
631.334	15334
631.397	15265
631.459	15459
631.522	16859
631.584	15652
631.646	17540
631.709	17611
631.771	16879
631.834	17192
631.896	16205
631.958	14201
632.021	15423
632.083	14202
632.145	14942
632.208	14446
632.270	15307
632.332	13968
632.395	13520
632.457	15854
632.519	13417
632.581	15227
632.643	13651
632.706	14712
632.768	13018
632.830	15200
632.892	14120
632.954	13969
633.016	14774
633.078	14648
633.141	14076
633.203	14310
633.265	14439
633.327	15886
633.389	13874
633.451	14719
633.513	13910
633.575	14697
633.637	13204
633.698	14174
633.760	15263
633.822	16683
633.884	15970
633.946	16411
634.008	15424
634.070	16639
634.132	16892
634.193	17377
634.255	19467
634.317	18373
634.379	19089
634.441	17118
634.502	15074
634.564	15918
634.626	14334
634.687	13530
634.749	13659
634.811	14002
634.873	14063
634.934	14361
634.996	15302
635.057	12912
635.119	12953
635.181	14061
635.242	14283
635.304	12024
635.365	15986
635.427	13201
635.488	13260
635.550	13123
635.611	14327
635.673	12451
635.734	15505
635.796	14231
635.857	16152
635.918	15375
635.980	19465
636.041	16966
636.102	18742
636.164	19166
636.225	19558
636.286	14620
636.348	16277
636.409	14237
636.470	13571
636.531	13997
636.593	12608
636.654	13169
636.715	13090
636.776	13160
636.838	12473
636.899	13507
636.960	11511
637.021	11631
637.082	11743
637.143	12094
637.204	11034
637.265	11990
637.326	12295
637.387	12734
637.448	10944
637.509	12925
637.570	10997
637.631	13582
637.692	11208
637.753	10051
637.814	12640
637.875	10802
637.936	12184
637.997	10910
638.058	11396
638.119	13308
638.179	11711
638.240	11039
638.301	12116
638.362	10852
638.423	10417
638.483	12269
638.544	9464
638.605	10991
638.666	9760
638.726	11474
638.787	11569
638.848	11934
638.908	10940
638.969	10478
639.030	10182
639.090	9332
639.151	10285
639.211	10902
639.272	10290
639.332	10346
639.393	11639
639.453	10262
639.514	11938
639.574	11127
639.635	9575
639.695	11227
639.756	9311
639.816	10609
639.877	10153
639.937	11218
639.997	10128
640.058	8846
640.118	8233
640.178	11318
640.239	9147
640.299	9789
640.359	9247
640.420	11132
640.480	10246
640.540	11458
640.600	11783
640.661	11051
640.721	9294
640.781	10970
640.841	7941
640.901	10186
640.961	10636
641.021	10833
641.082	9579
641.142	9888
641.202	10833
641.262	8729
641.322	10386
641.382	8655
641.442	9806
641.502	9666
641.562	9604
641.622	9830
641.682	10380
641.742	11009
641.802	10052
641.861	10395
641.921	8758
641.981	8573
642.041	9795
642.101	8637
642.161	8011
642.221	8836
642.280	9267
642.340	9066
642.400	7850
642.460	9998
642.519	9175
642.579	9290
642.639	9077
642.698	7446
642.758	11286
642.818	9290
642.877	8258
642.937	9988
642.997	9545
643.056	8439
643.116	7737
643.175	11709
643.235	9096
643.294	9277
643.354	9959
643.414	10979
643.473	11333
643.532	13241
643.592	17777
643.651	25153
643.711	43441
643.770	80581
643.830	190276
643.889	332384
643.948	82386
644.008	22167
644.067	13911
644.126	10983
644.186	10727
644.245	11248
644.304	8258
644.363	11029
644.423	7398
644.482	8870
644.541	9946
644.600	8212
644.659	11731
644.719	12811
644.778	18871
644.837	30918
644.896	62687
644.955	132984
645.014	39083
645.073	12826
645.132	9810
645.191	10485
645.250	8330
645.309	10833
645.368	9768
645.427	14291
645.486	20741
645.545	32819
645.604	10818
645.663	9332
645.722	8317
645.781	9496
645.840	9926
645.898	12260
645.957	16018
646.016	22515
646.075	40304
646.134	76253
646.192	203529
646.251	247491
646.310	42146
646.369	15605
646.427	14401
646.486	10022
646.545	9353
646.603	9095
646.662	8384
646.721	8551
646.779	7427
646.838	6315
646.896	9720
646.955	12763
647.014	19795
647.072	36554
647.131	94325
647.189	36761
647.248	7979
647.306	8821
647.365	8045
647.423	4789
647.481	7293
647.540	5025
647.598	6514
647.657	5994
647.715	7253
647.773	5342
647.832	6471
647.890	4522
647.948	4779
648.007	5814
648.065	3797
648.123	4259
648.181	6118
648.240	5270
648.298	4105
648.356	4204
648.414	4931
648.472	5278
648.531	4860
648.589	4626
648.647	4377
648.705	4146
648.763	4179
648.821	5324
648.879	4486
648.937	5235
648.995	6763
649.053	7252
649.111	11252
649.169	18515
649.227	34330
649.285	71259
649.343	188554
649.401	73826
649.459	13065
649.516	8675
649.574	5649
649.632	7302
649.690	8244
649.748	9001
649.806	12329
649.863	24761
649.921	68692
649.979	35992
650.037	6950
650.094	3809
650.152	4591
650.210	4212
650.268	4054
650.325	3552
650.383	3564
650.440	2654
650.498	3843
650.556	3961
650.613	3074
650.671	3812
650.728	3799
650.786	2763
650.843	5028
650.901	2337
650.958	3580
651.016	2812
651.073	2924
651.131	2363
651.188	1890
651.246	2815
651.303	1854
651.360	3067
651.418	2228
651.475	3012
651.532	1954
651.590	2747
651.647	1527
651.704	2634
651.762	2760
651.819	1993
651.876	1873
651.933	1965
651.990	3075
652.048	335
652.105	2261
652.162	2718
652.219	1662
652.276	2104
652.333	2180
652.390	1677
652.448	3251
652.505	2399
652.562	1608
652.619	2103
652.676	2080
652.733	3328
652.790	1714
652.847	811
652.904	2356
652.961	1564
653.017	1652
653.074	2698
653.131	2870
653.188	1441
653.245	1799
653.302	1920
653.359	711
653.415	1983
653.472	826
653.529	2399
653.586	1399
653.642	1805
653.699	2020
653.756	1295
653.813	1032
653.869	1880
653.926	1344
653.983	1072
654.039	1514
654.096	1293
654.152	2347
654.209	618
654.266	1764
654.322	1160
654.379	2515
654.435	1633
654.492	1060
654.548	1510
654.605	1503
654.661	2064
654.717	1559
654.774	1806
654.830	1583
654.887	1371
654.943	1204
655.000	1036
655.056	2130
655.112	1388
655.168	260
655.225	1772
655.281	2115
655.337	1839
655.394	1482
655.450	1830
655.506	752
655.562	1573
655.618	2638
655.675	929
655.731	1553
655.787	1667
655.843	2283
655.899	822
655.955	1212
656.011	1475
656.067	488
656.123	1664
656.179	1539
656.235	2501
656.291	198
656.347	2320
656.403	535
656.459	1670
656.515	1438
656.571	1471
656.627	1529
656.683	1665
656.739	1818
656.795	1367
656.850	1613
656.906	1995
656.962	2325
657.018	1373
657.074	1777
657.129	3333
657.185	5310
657.241	10974
657.297	4673
657.352	1352
657.408	927
657.464	2063
657.519	1197
657.575	399
657.630	1339
657.686	1194
657.742	-175
657.797	1160
657.853	626
657.908	1573
657.964	752
658.019	956
658.075	967
658.130	1747
658.186	833
658.241	1906
658.297	187
658.352	822
658.407	1962
658.463	1161
658.518	1233
658.573	2062
658.629	1088
658.684	1158
658.739	1218
658.795	582
658.850	1255
658.905	1031
658.960	1573
659.016	745
659.071	327
659.126	760
659.181	57
659.236	2130
659.291	1507
659.346	743
659.401	1026
659.457	1391
659.512	753
659.567	2215
659.622	1011
659.677	588
659.732	-386
659.787	1340
659.842	396
659.897	587
659.952	973
660.007	756
660.061	774
660.116	457
660.171	922
660.226	1314
660.281	1179
660.336	-57
660.391	511
660.445	191
660.500	1058
660.555	880
660.610	815
660.664	1212
660.719	-85
660.774	391
660.828	1167
660.883	567
660.938	1234
660.992	-157
661.047	1195
661.101	579
661.156	384
661.211	-502
661.265	924
661.320	406
661.374	963
661.429	754
661.483	1289
661.538	-347
661.592	720
661.647	928
661.701	880
661.755	1219
661.810	577
661.864	602
661.919	-252
661.973	646
662.027	-254
662.081	184
662.136	110
662.190	1242
662.244	1185
662.299	997
662.353	402
662.407	327
662.461	-10
662.515	-68
662.569	482
662.624	2228
662.678	128
662.732	-56
662.786	1019
662.840	911
662.894	576
662.948	773
663.002	694
663.056	1102
663.110	76
663.164	277
663.218	637
663.272	380
663.326	21
663.380	48
663.434	878
663.488	535
663.542	301
663.595	422
663.649	334
663.703	372
663.757	502
663.811	-788
663.864	-97
663.918	530
663.972	858
664.026	397
664.079	483
664.133	564
664.187	486
664.240	18
664.294	314
664.348	813
664.401	1190
664.455	62
664.508	-433
664.562	277
664.615	731
664.669	350
664.722	398
664.776	514
664.829	-476
664.883	759
664.936	-205
664.990	668
665.043	686
665.097	212
665.150	1401
665.203	540
665.257	-230
665.310	856
665.363	644
665.417	331
665.470	385
665.523	543
665.576	961
665.630	268
665.683	1073
665.736	825
665.789	822
665.842	19
665.895	748
665.949	549
666.002	419
666.055	637
666.108	840
666.161	202
666.214	1124
666.267	929
666.320	1296
666.373	624
666.426	-413
666.479	257
666.532	861
666.585	835
666.638	238
666.691	301
666.744	691
666.796	629
666.849	25
666.902	-170
666.955	201
667.008	-212
667.060	-346
667.113	1319
667.166	337
667.219	1267
667.271	276
667.324	541
667.377	584
667.430	657
667.482	877
667.535	-250
667.587	1079
667.640	75
667.693	396
667.745	1000
667.798	690
667.850	-140
667.903	257
667.955	887
668.008	301
668.060	519
668.113	925
668.165	141
668.218	579
668.270	650
668.322	530
668.375	779
668.427	812
668.479	404
668.532	516
668.584	353
668.636	1045
668.689	820
668.741	-69
668.793	392
668.845	963
668.898	721
668.950	378
669.002	580
669.054	486
669.106	105
669.158	958
669.211	-164
669.263	555
669.315	732
669.367	271
669.419	815
669.471	618
669.523	994
669.575	1269
669.627	556
669.679	416
669.731	831
669.783	608
669.835	594
669.886	-145
669.938	1301
669.990	1116
670.042	392
670.094	723
670.146	983
670.197	1684
670.249	2283
670.301	1157
670.353	3034
670.404	3531
670.456	5612
670.508	9636
670.560	15898
670.611	26419
670.663	49277
670.715	113545
670.766	151648
670.818	45365
670.869	9906
670.921	5285
670.972	3766
671.024	1883
671.075	1373
671.127	2209
671.178	1397
671.230	1575
671.281	689
671.333	669
671.384	1742
671.436	1693
671.487	2846
671.538	4099
671.590	7183
671.641	12405
671.692	23265
671.744	42180
671.795	25659
671.846	8036
671.897	2931
671.949	2171
672.000	1481
672.051	954
672.102	1207
672.153	460
672.204	-420
672.256	6
672.307	546
672.358	339
672.409	16
672.460	-219
672.511	-233
672.562	121
672.613	-91
672.664	182
672.715	1140
672.766	152
672.817	-80
672.868	788
672.919	-306
672.970	402
673.021	583
673.071	179
673.122	213
673.173	366
673.224	164
673.275	176
673.326	-204
673.376	4
673.427	-108
673.478	-220
673.528	526
673.579	-388
673.630	-294
673.680	800
673.731	-604
673.782	164
673.832	29
673.883	-482
673.934	-228
673.984	-455
674.035	-270
674.085	47
674.136	615
674.186	36
674.237	551
674.287	274
674.338	89
674.388	-70
674.438	-516
674.489	-215
674.539	26
674.589	119
674.640	-520
674.690	-131
674.740	-580
674.791	125
674.841	-200
674.891	329
674.942	-577
674.992	-89
675.042	-1086
675.092	-673
675.142	-366
675.193	-12
675.243	-620
675.293	-579
675.343	84
675.393	-700
675.443	-183
675.493	-160
675.543	-258
675.593	-695
675.643	312
675.693	38
675.743	-479
675.793	174
675.843	-951
675.893	-268
675.943	-57
675.993	-312
676.043	170
676.093	-458
676.142	-31
676.192	-667
676.242	-615
676.292	-807
676.341	-871
676.391	-350
676.441	-1092
676.491	-503
676.540	-912
676.590	-765
676.640	-1108
676.689	-681
676.739	-876
676.789	-509
676.838	-1198
676.888	-685
676.937	-1197
676.987	-410
677.037	-637
677.086	-502
677.136	-616
677.185	-542
677.235	-1013
677.284	-1574
677.333	-689
677.383	-591
677.432	-1474
677.482	-192
677.531	-293
677.580	-727
677.630	-680
677.679	-568
677.728	-861
677.778	-656
677.827	-1179
677.876	-528
677.925	-299
677.975	-92
678.024	-698
678.073	-465
678.122	-652
678.171	-508
678.220	238
678.269	-292
678.319	-555
678.368	-681
678.417	-1017
678.466	-803
678.515	-806
678.564	-1076
678.613	-934
678.662	-776
678.711	-180
678.760	-734
678.809	48
678.857	-1673
678.906	-499
678.955	-1620
679.004	-491
679.053	-690
679.102	-478
679.151	-925
679.199	-630
679.248	-695
679.297	-309
679.346	-1131
679.394	-1725
679.443	-398
679.492	-1043
679.540	-679
679.589	-673
679.638	-1366
679.686	-497
679.735	-215
679.784	-382
679.832	-337
679.881	-1534
679.929	-898
679.978	-663
680.026	-587
680.075	-518
680.123	-1454
680.172	-946
680.220	-1183
680.268	-892
680.317	-698
680.365	-280
680.414	-886
680.462	-306
680.510	6
680.559	-1146
680.607	-517
680.655	-1439
680.703	-256
680.752	-32
680.800	-1803
680.848	-834
680.896	-789
680.945	-615
680.993	-769
681.041	-812
681.089	-550
681.137	-888
681.185	-1146
681.233	-1255
681.258	-1234
681.281	-1223
681.329	-1209
681.377	-1291
681.380	-1228
681.425	-241
681.473	-248
681.502	-579
681.521	-830
681.569	-622
681.617	-154
681.624	-88
681.665	286
681.713	-563
681.745	-613
681.761	-651
681.809	-709
681.857	43
681.867	-29
681.904	-323
681.952	-929
681.989	-892
682.000	-890
682.048	-543
682.096	-821
682.111	-799
682.143	-793
682.191	-460
682.233	-45
682.239	13
682.286	-681
682.334	-619
682.354	-574
682.382	-527
682.430	23
682.476	-375
682.477	-393
682.525	-295
682.572	-518
682.598	-794
682.620	-1029
682.667	-254
682.715	299
682.720	209
682.763	-703
682.810	-429
682.841	-458
682.857	-490
682.905	-532
682.952	-52
682.963	47
683.000	355
683.047	-568
683.085	325
683.095	565
683.142	322
683.190	-356
683.206	-193
683.237	58
683.284	194
683.328	-196
683.332	-231
683.379	-500
683.426	23
683.449	-125
683.473	-277
683.521	-424
683.568	507
683.571	505
683.615	325
683.662	-70
683.693	480
683.709	791
683.757	-310
683.804	138
683.814	163
683.851	202
683.898	-112
683.936	127
683.945	184
683.992	921
684.039	1212
684.057	767
684.086	34
684.133	356
684.179	-344
684.180	-372
684.227	356
684.274	510
684.300	173
684.321	-108
684.368	253
684.415	266
684.422	266
684.462	260
684.509	-274
684.543	-349
684.556	-384
684.603	-157
684.649	585
684.665	508
684.696	323
684.743	234
684.786	329
684.790	332
684.837	585
684.883	783
684.908	528
684.930	263
684.977	244
685.023	491
685.029	456
685.070	313
685.117	-159
685.150	555
685.164	790
685.210	374
685.257	1148
685.272	1074
685.303	896
685.350	67
685.393	471
685.396	505
685.443	325
685.490	668
685.514	705
685.536	686
685.583	895
685.629	624
685.636	632
685.675	719
685.722	666
685.757	573
685.768	549
685.815	95
685.861	649
685.878	678
685.908	699
685.954	617
686.000	1058
686.000	1064
686.047	386
686.093	720
686.121	935
686.139	1065
686.185	624
686.232	800
686.242	868
686.278	1127
686.324	1127
686.363	1009
686.370	960
686.416	467
686.463	892
686.484	604
686.509	370
686.555	927
686.601	826
686.606	820
686.647	727
686.693	878
686.727	1290
686.739	1455
686.785	665
686.831	798
686.848	1089
686.877	1534
686.923	1131
686.969	890
686.969	888
687.015	965
687.061	1011
687.090	656
687.107	417
687.153	953
687.199	910
687.211	820
687.245	707
687.291	903
687.332	1108
687.336	1120
687.382	1500
687.428	1634
687.453	1436
687.474	1239
687.520	1141
687.565	820
687.574	949
687.611	1546
687.657	1679
687.695	1736
687.702	1752
687.748	1809
687.794	1491
687.816	1551
687.839	1535
687.885	1837
687.931	1308
687.937	1334
687.976	1642
688.022	1603
688.058	1716
688.067	1711
688.113	1700
688.158	1047
688.179	1335
688.204	1732
688.249	1436
688.295	1572
688.300	1567
688.340	1377
688.386	1730
688.421	1458
688.431	1464
688.477	956
688.522	1986
688.542	1821
688.567	1572
688.613	2030
688.658	1888
688.663	1908
688.703	1723
688.749	1433
688.784	1372
688.794	1456
688.839	1502
688.884	1839
688.905	1894
688.930	1969
688.975	2110
689.020	1820
689.026	1860
689.065	1819
689.110	1560
689.146	1497
689.155	1556
689.201	1753
689.246	2040
689.267	1932
689.291	1703
689.336	1809
689.381	1804
689.388	1781
689.426	1792
689.471	1851
689.509	1906
689.516	1903
689.561	1732
689.606	1854
689.630	1872
689.651	1985
689.696	1672
689.741	2166
689.750	2163
689.785	2021
689.830	1787
689.871	1745
689.875	1747
689.920	1810
689.965	2108
689.992	1783
690.010	1644
690.054	2019
690.099	1983
690.112	1931
690.144	1738
690.189	2285
690.233	1877
690.233	1880
690.278	2043
690.323	2086
690.354	2226
690.367	2335
690.412	2222
690.457	2500
690.474	2554
690.501	2629
690.546	2452
690.590	2893
690.595	2848
690.635	2542
690.680	3000
690.716	2700
690.724	2729
690.769	3735
690.813	5118
690.836	5188
690.857	5723
690.902	7333
690.946	9158
690.957	9614
690.991	13540
691.035	19720
691.077	24734
691.080	24631
691.124	19961
691.168	16306
691.198	13535
691.213	12214
691.257	9532
691.301	5842
691.318	4620
691.346	4390
691.390	3812
691.434	3394
691.439	3336
691.478	3130
691.522	2954
691.559	2580
691.567	2569
691.611	2957
691.655	2993
691.680	2898
691.699	2798
691.743	3041
691.787	2995
691.800	2995
691.831	3046
691.875	2949
691.919	3243
691.921	3227
691.964	2773
692.008	2652
692.041	2258
692.052	2211
692.096	2594
692.139	2569
692.162	2662
692.183	2668
692.227	2703
692.271	2662
692.282	2603
692.315	2629
692.359	2758
692.402	2942
692.403	2950
692.447	2935
692.490	2855
692.523	2690
692.534	2626
692.578	2936
692.622	2733
692.643	2634
692.666	2608
692.709	2438
692.753	2622
692.763	2628
692.797	2742
692.840	2576
692.884	2628
692.884	2638
692.928	2773
692.971	3130
693.004	3123
693.015	3131
693.059	2964
693.102	3107
693.124	3188
693.146	3252
693.189	3164
693.233	3161
693.245	3281
693.276	3664
693.320	3591
693.363	3541
693.365	3520
693.407	3902
693.450	4945
693.485	5663
693.493	5919
693.537	7120
693.580	8130
693.605	8835
693.624	10614
693.667	14899
693.710	19327
693.725	20902
693.753	28704
693.797	41513
693.840	53643
693.845	54843
693.883	46642
693.926	36926
693.966	28680
693.970	27996
694.013	20788
694.056	13413
694.086	8328
694.099	7891
694.142	6334
694.185	5205
694.206	4677
694.229	4814
694.272	4682
694.315	4570
694.326	4540
694.358	4242
694.401	3970
694.444	3647
694.446	3615
694.487	3353
694.530	3219
694.566	3076
694.573	3105
694.616	3008
694.659	2961
694.686	2982
694.702	3013
694.745	3136
694.787	3155
694.806	3221
694.830	3361
694.873	3472
694.916	3432
694.926	3500
694.959	3524
695.002	3114
695.044	2946
695.046	2929
695.087	3010
695.130	2952
695.166	3106
695.172	3204
695.215	3406
695.258	4014
695.286	4293
695.301	4260
695.343	4028
695.386	4022
695.406	3935
695.428	3999
695.471	4097
695.514	4161
695.526	4126
695.556	4232
695.599	4691
695.641	5068
695.646	5084
695.684	4663
695.726	4137
695.766	3771
695.769	3781
695.811	3647
695.854	3521
695.886	3509
695.896	3599
695.938	3800
695.981	4116
696.005	4147
696.023	4250
696.065	4633
696.108	4952
696.125	5067
696.150	5062
696.192	5277
696.235	5151
696.245	5135
696.277	5140
696.319	5042
696.361	5262
696.365	5236
696.404	5406
696.446	5684
696.485	6017
696.488	6034
696.530	5884
696.572	5902
696.604	5664
696.614	5635
696.656	5869
696.698	5776
696.724	5691
696.740	5572
696.783	5362
696.825	5217
696.844	5079
696.867	5029
696.909	4883
696.951	4728
696.964	4695
696.992	4908
697.034	5032
697.076	5291
697.083	5326
697.118	5534
697.160	5623
697.202	5781
697.203	5769
697.244	5625
697.286	5386
697.323	5162
697.327	5197
697.369	5370
697.411	5496
697.442	5611
697.453	5589
697.494	5412
697.536	5221
697.562	5128
697.578	5230
697.620	5400
697.661	5535
697.682	5609
697.703	5610
697.744	5526
697.786	5646
697.801	5600
697.828	5677
697.869	5783
697.911	5866
697.921	5897
697.952	5756
697.994	5458
698.035	5178
698.040	5126
698.077	5350
698.118	5587
698.160	5868
698.160	5851
698.201	5996
698.243	6101
698.279	6202
698.284	6252
698.325	6554
698.367	6818
698.399	7018
698.408	6997
698.449	6810
698.491	6623
698.518	6470
698.532	6630
698.573	7070
698.614	7503
698.638	7741
698.656	7686
698.697	7485
698.738	7280
698.757	7162
698.779	7042
698.820	6791
698.862	6524
698.877	6406
698.903	6516
698.944	6664
698.985	6810
698.996	6831
699.026	6859
699.067	6873
699.116	6873
699.235	7025
699.354	6533
699.474	6497
699.593	6215
699.713	7007
699.832	5995
699.951	7032
700.070	7298
700.190	6563
700.309	6620
700.428	5544
700.547	5534
700.667	5887
700.786	5366
700.905	5613
701.024	5252
701.143	4990
701.262	6102
701.381	6227
701.500	6050
701.619	4996
701.738	5766
701.857	6353
701.976	5199
702.095	4781
702.214	5670
702.333	5947
702.452	6570
702.571	5852
702.690	6539
702.809	5373
702.928	5602
703.047	5559
703.165	5407
703.284	5632
703.403	4994
703.522	4480
703.640	5313
703.759	5177
703.878	5423
703.997	5028
704.115	5234
704.234	4725
704.353	5709
704.471	4600
704.590	4637
704.708	4712
704.827	5035
704.946	4091
705.064	4735
705.183	4177
705.301	5314
705.420	5744
705.538	5038
705.656	4669
705.775	4988
705.893	5309
706.012	5607
706.130	5198
706.249	5655
706.367	4828
706.485	4641
706.604	4050
706.722	4827
706.840	4299
706.958	5599
707.077	4983
707.195	5016
707.313	4116
707.431	3929
707.549	3929
707.668	4433
707.786	3711
707.904	4289
708.022	4082
708.140	4269
708.258	4076
708.376	4934
708.494	4754
708.612	5086
708.730	4405
708.848	3768
708.966	3324
709.084	4833
709.202	3898
709.320	4137
709.438	3511
709.556	4583
709.674	3443
709.791	4059
709.909	3810
710.027	5088
710.145	3560
710.263	3677
710.380	3663
710.498	3892
710.616	3344
710.733	3664
710.851	3836
710.969	4260
711.086	3724
711.204	4332
711.322	3308
711.439	3208
711.557	3331
711.674	3826
711.792	3695
711.909	3941
712.027	2737
712.144	3925
712.262	3293
712.379	3374
712.497	4006
712.614	4675
712.732	3974
712.849	3827
712.966	3802
713.084	3852
713.201	3186
713.318	3801
713.436	3029
713.553	3346
713.670	3453
713.787	4294
713.905	3601
714.022	3986
714.139	3986
714.256	4666
714.373	5908
714.490	12018
714.608	33308
714.725	137958
714.842	111305
714.959	8875
715.076	4170
715.193	4404
715.310	3457
715.427	3847
715.544	3848
715.661	3706
715.778	2896
715.895	3057
716.011	2624
716.128	2650
716.245	3485
716.362	3427
716.479	2472
716.596	2827
716.713	3885
716.829	3633
716.946	2747
717.063	3022
717.180	2833
717.296	2698
717.413	2854
717.530	3255
717.646	2429
717.763	2883
717.880	2109
717.996	2191
718.113	2385
718.229	2811
718.346	1888
718.462	2443
718.579	2867
718.695	2622
718.812	2369
718.928	3247
719.045	2251
719.161	1878
719.277	2673
719.394	3129
719.510	2775
719.626	2541
719.743	3337
719.859	5191
719.975	11471
720.092	44884
720.208	86972
720.324	8949
720.440	3001
720.557	3710
720.673	2711
720.789	2272
720.905	3806
721.021	2226
721.137	2037
721.253	1998
721.369	2393
721.486	2152
721.602	2720
721.718	2991
721.834	1711
721.950	2806
722.066	1640
722.181	2198
722.297	2131
722.413	1800
722.529	1955
722.645	2123
722.761	1540
722.877	1456
722.993	1408
723.108	2130
723.224	1671
723.340	2413
723.456	1611
723.571	2443
723.687	1934
723.803	2540
723.918	666
724.034	2253
724.150	2473
724.265	2014
724.381	2068
724.497	2972
724.612	1564
724.728	1257
724.843	1402
724.959	2460
725.074	1338
725.190	2296
725.305	837
725.421	1891
725.536	1972
725.651	1750
725.767	602
725.882	2649
725.997	1190
726.113	1768
726.228	1314
726.343	1937
726.459	1176
726.574	2193
726.689	1630
726.804	1768
726.920	1518
727.035	791
727.150	1449
727.265	1381
727.380	433
727.495	2068
727.610	1054
727.725	1616
727.841	1728
727.956	2307
728.071	2595
728.186	2051
728.301	944
728.416	1965
728.531	1267
728.645	996
728.760	1612
728.875	909
728.990	1485
729.105	507
729.220	1900
729.335	1558
729.449	1674
729.564	1443
729.679	1712
729.794	1389
729.908	1357
730.023	1695
730.138	1300
730.253	1067
730.367	1483
730.482	1097
730.596	1204
730.711	3055
730.826	2640
730.940	1694
731.055	1223
731.169	1800
731.284	964
731.398	1706
731.513	1830
731.627	1979
731.742	2586
731.856	3175
731.970	2264
732.085	3635
732.199	5049
732.313	7825
732.428	20573
732.542	63645
732.656	29530
732.771	5774
732.885	4537
732.999	3937
733.113	4610
733.227	4198
733.342	3186
733.456	4128
733.570	2991
733.684	3560
733.798	2821
733.912	3755
734.026	2605
734.140	3115
734.254	3005
734.368	3613
734.482	3960
734.596	3573
734.710	3589
734.824	3219
734.938	3725
735.052	3436
735.166	3676
735.280	3481
735.393	2697
735.507	3693
735.621	2643
735.735	2793
735.849	2824
735.962	2992
736.076	3246
736.190	3156
736.303	3094
736.417	3600
736.531	2484
736.644	2810
736.758	2829
736.872	2014
736.985	3266
737.099	2950
737.212	1997
737.326	3397
737.439	2999
737.553	2063
737.666	2752
737.780	2868
737.893	2900
738.007	3095
738.120	2867
738.233	1950
738.347	2278
738.460	2631
738.573	2964
738.687	2160
738.800	3053
738.913	3514
739.026	2279
739.140	2832
739.253	2396
739.366	3112
739.479	2009
739.592	1961
739.705	2384
739.818	3429
739.932	2624
740.045	2334
740.158	1786
740.271	2271
740.384	2750
740.497	2023
740.610	1970
740.723	2290
740.836	1632
740.949	1718
741.062	2527
741.174	2854
741.287	1383
741.400	2752
741.513	2146
741.626	1693
741.739	1933
741.851	1615
741.964	2024
742.077	1411
742.189	1555
742.302	2184
742.415	2166
742.527	1712
742.640	1550
742.753	1461
742.865	2313
742.978	2039
743.090	1390
743.203	2348
743.316	2092
743.428	2188
743.541	2414
743.653	1926
743.766	1588
743.878	2355
743.990	1459
744.103	2706
744.215	1574
744.327	1811
744.440	2380
744.552	2168
744.664	1283
744.777	2418
744.889	932
745.001	2651
745.113	1017
745.226	1919
745.338	2470
745.450	2057
745.562	1838
745.674	1893
745.786	1926
745.898	1062
746.010	1627
746.122	1538
746.234	1743
746.347	2159
746.459	2224
746.570	1548
746.682	2376
746.794	2984
746.906	1687
747.018	1978
747.130	2329
747.242	2518
747.354	811
747.466	2652
747.577	802
747.689	1719
747.801	1548
747.913	1612
748.024	696
748.136	1019
748.248	1352
748.359	1742
748.471	2455
748.583	1730
748.694	1350
748.806	2336
748.918	1251
749.029	2107
749.141	1788
749.252	2024
749.364	1728
749.475	2030
749.587	1402
749.698	1503
749.809	1344
749.921	1815
750.032	1557
750.144	1304
750.255	1751
750.366	166
750.478	1628
750.589	737
750.700	1023
750.811	1896
750.923	1311
751.034	1482
751.145	1223
751.256	1463
751.367	1382
751.479	1901
751.590	1179
751.701	1487
751.812	1668
751.923	1470
752.034	1087
752.145	1343
752.256	1843
752.367	2037
752.478	1651
752.589	1962
752.700	1009
752.811	1353
752.922	1369
753.032	1186
753.143	852
753.254	1432
753.365	1519
753.476	1663
753.586	2130
753.697	1648
753.808	1619
753.919	1270
754.029	2017
754.140	1427
754.251	1034
754.361	887
754.472	1569
754.582	1207
754.693	1158
754.804	2440
754.914	1489
755.025	1199
755.135	1895
755.246	1634
755.356	782
755.466	1675
755.577	1684
755.687	1807
755.798	1924
755.908	1673
756.018	1117
756.129	2419
756.239	1967
756.349	2354
756.460	1844
756.570	2722
756.680	1447
756.790	1980
756.900	1177
757.011	1229
757.121	1760
757.231	1853
757.341	1225
757.451	1209
757.561	1850
757.671	1729
757.781	1258
757.891	3034
758.001	2067
758.111	2319
758.221	2600
758.331	2693
758.441	1975
758.551	2805
758.661	2071
758.771	1857
758.880	2226
758.990	2101
759.100	2104
759.210	2440
759.320	2428
759.429	2012
759.539	3161
759.649	2590
759.758	3017
759.868	3285
759.978	2804
760.087	3234
760.197	2906
760.307	3560
760.416	3041
760.526	2211
760.635	2929
760.745	3106
760.854	3963
760.964	4355
761.073	3543
761.182	4178
761.292	3080
761.401	3802
761.511	3402
761.620	3236
761.729	3702
761.839	4034
761.948	3750
762.057	3418
762.166	4074
762.276	3324
762.385	5683
762.494	5131
762.603	4792
762.712	5538
762.822	4436
762.931	5129
763.040	5120
763.149	5195
763.258	5693
763.367	6236
763.476	6496
763.585	7719
763.694	6310
763.803	7343
763.912	7613
764.021	8490
764.130	8683
764.238	9594
764.347	10635
764.456	11202
764.565	11737
764.674	13714
764.783	14232
764.891	15993
765.000	18953
765.109	21559
765.217	24096
765.326	28959
765.435	33873
765.543	43157
765.652	53393
765.761	70176
765.869	93098
765.978	130756
766.086	188977
766.195	265029
766.303	317107
766.412	234852
766.520	259949
766.629	292313
766.737	225598
766.846	158125
766.954	110626
767.062	84229
767.171	64285
767.279	50966
767.387	39844
767.496	34203
767.604	30430
767.712	26068
767.820	22789
767.928	20569
768.037	18327
768.145	18217
768.253	17070
768.361	15409
768.469	16578
768.577	16247
768.685	17884
768.793	18455
768.901	19851
769.009	25010
769.117	29781
769.225	39552
769.333	55136
769.441	83229
769.549	133337
769.657	220524
769.765	281984
769.873	231568
769.981	254725
770.088	179798
770.196	111591
770.304	75891
770.412	54150
770.519	42412
770.627	32628
770.735	27454
770.842	21970
770.950	19177
771.058	16312
771.165	14779
771.273	12991
771.380	12528
771.488	11741
771.595	12083
771.703	9807
771.810	9714
771.918	9210
772.025	9526
772.133	8464
772.240	8081
772.348	7488
772.455	8078
772.562	6330
772.670	6966
772.777	7333
772.884	6957
772.991	6100
773.099	6234
773.206	4603
773.313	6007
773.420	5071
773.528	5171
773.635	4277
773.742	5458
773.849	5849
773.956	5294
774.063	5006
774.170	3837
774.277	4616
774.384	4379
774.491	4203
774.598	4619
774.705	4161
774.812	4552
774.919	4218
775.026	4146
775.133	3508
775.239	4047
775.346	3667
775.453	3807
775.560	3359
775.667	3757
775.773	3016
775.880	4344
775.987	2671
776.093	4097
776.200	3167
776.307	3247
776.413	4347
776.520	3004
776.627	3019
776.733	2977
776.840	1533
776.946	4603
777.053	3645
777.159	4043
777.266	1466
777.372	4279
777.478	3667
777.585	3205
777.691	2276
777.798	3029
777.904	2461
778.010	2912
778.117	2508
778.223	1617
778.329	2193
778.435	2141
778.542	2864
778.648	2718
778.754	1847
778.860	2935
778.966	2037
779.072	1474
779.178	2168
779.284	1724
779.391	1683
779.497	1718
779.603	4284
779.708	4084
779.815	8711
779.920	31151
780.026	42216
780.132	5562
780.238	2441
780.344	2976
780.450	2026
780.556	1734
780.661	426
780.767	2293
780.873	1018
780.979	2161
781.085	447
781.190	2365
781.296	1496
781.402	1641
781.507	1570
781.613	1455
781.719	152
781.824	2064
781.930	1855
782.035	2501
782.141	1684
782.246	589
782.352	839
782.457	2237
782.563	1309
782.668	2836
782.773	1273
782.879	1203
782.984	757
783.090	1909
783.195	1103
783.300	1309
783.405	211
783.511	479
783.616	1866
783.721	562
783.826	820
783.932	1847
784.037	188
784.142	752
784.247	1661
784.352	1129
784.457	375
784.562	596
784.667	1275
784.772	1811
784.877	111
784.982	1321
785.087	481
785.192	1114
785.297	408
785.402	1436
785.507	1313
785.611	728
785.716	1049
785.821	1338
785.926	608
786.031	831
786.135	1774
786.240	567
786.345	-649
786.450	964
786.554	585
786.659	693
786.763	-298
786.868	1145
786.973	1367
787.077	538
787.182	72
787.286	1330
787.391	657
787.495	429
787.600	808
787.704	993
787.809	350
787.913	406
788.017	694
788.122	1173
788.226	549
788.330	366
788.435	143
788.539	845
788.643	199
788.747	-536
788.852	343
788.956	168
789.060	759
789.164	868
789.268	103
789.372	1544
789.476	558
789.580	-9
789.684	364
789.788	1591
789.892	-1
789.996	1126
790.100	-240
790.204	1314
790.308	-616
790.412	317
790.516	200
790.620	680
790.724	459
790.828	426
790.931	-640
791.035	1971
791.139	279
791.242	-301
791.346	1642
791.450	205
791.554	-54
791.657	-289
791.761	667
791.864	728
791.968	405
792.072	481
792.175	-373
792.279	6
792.382	-144
792.486	559
792.589	-441
792.693	-23
792.796	55
792.899	968
793.003	1301
793.106	-1438
793.209	-575
793.313	2154
793.416	-874
793.519	1747
793.623	728
793.726	408
793.829	-244
793.932	-557
794.035	-939
794.138	1200
794.242	673
794.345	680
794.448	1168
794.551	1773
794.654	16084
794.757	22998
794.860	2122
794.963	937
795.066	47
795.169	449
795.272	-43
795.375	413
795.477	-212
795.580	303
795.683	-1315
795.786	1356
795.889	-627
795.991	1052
796.094	1092
796.197	-943
796.300	1070
796.402	564
796.505	-695
796.608	-825
796.710	13
796.813	96
796.915	-665
797.018	708
797.120	-178
797.223	-539
797.326	864
797.428	-639
797.530	-91
797.633	-386
797.735	-436
797.838	-786
797.940	167
798.042	-570
798.145	-747
798.247	237
798.349	-1275
798.452	520
798.554	-541
798.656	-1182
798.758	381
798.860	-413
798.962	-374
799.065	-107
799.167	-1095
799.269	581
799.371	233
799.473	744
799.575	-1083
799.677	-203
799.779	1239
799.881	-1356
799.983	-278
800.085	-55
800.187	-64
800.289	-44
800.390	-382
800.492	648
800.594	862
800.696	-1035
800.798	501
800.899	-275
801.001	-878
801.103	-20
801.205	-983
801.306	-416
801.408	-247
801.509	-21
801.611	23
801.713	219
801.814	-1151
801.916	152
802.017	130
802.119	-1561
802.220	-154
802.322	-1400
802.423	1213
802.525	-1296
802.626	-1214
802.727	472
802.829	83
802.930	-2917
803.031	1050
803.133	-27
803.234	-408
803.335	-1
803.436	-1607
803.538	414
803.639	-920
803.740	-732
803.841	-562
803.942	-92
804.043	-483
804.144	-1713
804.245	-352
804.346	-1034
804.447	-535
804.548	-336
804.649	299
804.750	-198
804.851	-985
804.952	-933
805.053	-578
805.154	-1027
805.255	1283
805.355	-616
805.456	-130
805.557	-731
805.658	-1305
805.758	652
805.859	-396
805.960	-361
806.061	-713
806.161	-1116
806.262	-368
806.362	-463
806.463	-1325
806.564	291
806.664	-655
806.765	-592
806.865	-1030
806.966	547
807.066	-1202
807.166	1018
807.267	-181
807.367	-318
807.468	407
807.568	-922
807.668	660
807.769	-258
807.869	-1160
807.969	-558
808.069	-892
808.170	272
808.270	-1422
808.370	20
808.470	-646
808.570	-1222
808.670	-648
808.770	5
808.870	-803
808.970	17
809.070	-918
809.170	-1366
809.271	-493
809.370	-774
809.470	-211
809.570	-1016
809.670	-1554
809.770	-815
809.870	469
809.970	-437
810.070	-617
810.169	330
810.269	-1565
810.369	672
810.469	-563
810.568	-850
810.668	-2007
810.768	-1192
810.867	-35
810.967	-1047
811.066	-994
811.166	-263
811.265	340
811.365	-1011
811.464	-653
811.564	-190
811.663	-246
811.763	-1861
811.862	-863
811.962	348
812.061	-1182
812.160	-1969
812.260	-1003
812.359	-1323
812.458	-1719
812.557	601
812.657	-554
812.756	-371
812.855	-842
812.954	-1169
813.053	-262
813.153	-710
813.252	-1605
813.351	-370
813.450	-624
813.549	-847
813.648	-1073
813.747	-432
813.846	-744
813.945	-1436
814.044	-612
814.143	-60
814.242	-742
814.341	-840
814.439	-580
814.538	445
814.637	-993
814.736	-876
814.835	-664
814.933	-1106
815.032	-508
815.131	123
815.229	432
815.328	1984
815.427	-339
815.525	850
815.624	725
815.722	-378
815.821	686
815.919	1482
816.018	-514
816.116	569
816.215	463
816.313	236
816.412	207
816.510	1092
816.609	2373
816.707	1129
816.805	434
816.904	614
817.002	862
817.100	1553
817.198	1473
817.296	81
817.395	669
817.493	1308
817.591	37
817.689	428
817.787	-476
817.885	285
817.983	217
818.081	1963
818.179	1613
818.277	5253
818.375	3542
818.473	656
818.571	355
818.669	-107
818.767	1422
818.865	334
818.963	53
819.061	593
819.158	812
819.256	3441
819.354	2574
819.452	8423
819.549	2747
819.647	2415
819.745	59
819.842	997
819.940	655
820.038	608
820.135	-146
820.233	1419
820.330	-335
820.428	-14
820.525	1474
820.623	507
820.720	-707
820.818	797
820.915	265
821.012	247
821.110	-683
821.207	987
821.304	-561
821.402	760
821.499	522
821.596	1079
821.693	217
821.791	813
821.888	575
821.985	504
822.082	-583
822.179	1249
822.276	-508
822.373	592
822.470	-4
822.567	336
822.664	-736
822.761	906
822.858	-474
822.955	531
823.052	199
823.149	518
823.246	155
823.343	190
823.440	607
823.536	85
823.633	-538
823.730	600
823.827	-14
823.923	333
824.020	913
824.117	-197
824.213	-379
824.310	930
824.407	309
824.503	973
824.600	-124
824.696	474
824.793	627
824.889	460
824.986	-493
825.082	-401
825.179	188
825.275	492
825.371	-277
825.468	643
825.564	-1044
825.660	-96
825.757	297
825.853	231
825.949	-978
826.045	575
826.142	-1288
826.238	-289
826.334	-257
826.430	-831
826.526	531
826.622	-506
826.718	-3
826.814	-127
826.910	521
827.006	300
827.102	-842
827.198	1038
827.294	361
827.390	939
827.486	1065
827.582	-1567
827.678	-1335
827.774	735
827.869	-1233
827.965	1337
828.061	-837
828.157	178
828.252	-386
828.348	-801
828.444	503
828.539	-1141
828.635	-529
828.731	1113
828.826	-843
828.922	394
829.017	-714
829.113	161
829.208	-1436
829.304	-995
829.399	1114
829.495	-885
829.590	706
829.685	-1466
829.781	293
829.876	-24
829.971	-733
830.066	-968
830.162	-1125
830.257	-647
830.352	-900
830.447	-34
830.543	-718
830.638	-1725
830.733	599
830.828	-1618
830.923	209
831.018	-161
831.113	-86
831.208	-1176
831.303	-705
831.398	-731
831.493	-642
831.588	363
831.683	-1272
831.778	-674
831.873	-547
831.967	726
832.062	-860
832.157	-1047
832.252	334
832.346	-942
832.441	-621
832.536	-305
832.631	530
832.725	-837
832.820	-980
832.914	-142
833.009	-1391
833.104	-732
833.198	-547
833.293	-613
833.387	405
833.482	-287
833.576	-343
833.670	976
833.765	-844
833.859	-1000
833.954	-201
834.048	-720
834.142	-845
834.237	-702
834.331	-735
834.425	-742
834.519	-1223
834.613	-71
834.708	-975
834.802	160
834.896	-1608
834.990	-62
835.084	-245
835.178	-416
835.272	-1770
835.366	-820
835.460	-234
835.554	-398
835.648	-853
835.742	-1331
835.836	-382
835.930	-1891
836.024	-694
836.117	-54
836.211	-2258
836.305	-319
836.399	-660
836.493	-1793
836.586	-674
836.680	-1646
836.774	-1004
836.867	185
836.961	-1254
837.055	-1929
837.148	-542
837.242	-338
837.335	-1069
837.429	-1131
837.522	-1031
837.616	-978
837.709	-42
837.803	-1313
837.896	-321
837.989	-576
838.083	-690
838.176	-554
838.269	-1528
838.363	-339
838.456	-2081
838.549	-715
838.642	-794
838.735	-888
838.829	-54
838.922	-873
839.015	-1127
839.108	-1999
839.201	-1442
839.294	-676
839.387	-583
839.480	-1251
839.573	-450
839.666	-1055
839.759	-1004
839.852	-1488
839.945	-814
840.038	-494
840.131	-818
840.223	-1577
840.316	-661
840.409	-387
840.502	-1752
840.594	53
840.687	-1928
840.780	-793
840.873	-2606
840.965	-487
841.058	-924
841.150	-239
841.243	-1744
841.336	-405
841.428	-595
841.521	-1253
841.613	-1057
841.706	-1114
841.798	-330
841.890	-960
841.983	-1236
842.075	236
842.167	-835
842.260	-1273
842.352	294
842.444	-1451
842.537	-192
842.629	-298
842.721	-2110
842.813	-863
842.905	-1798
842.997	-501
843.090	-1138
843.182	-1155
843.274	-1526
843.366	-217
843.458	-641
843.550	-219
843.642	-1239
843.734	-1171
843.826	-1342
843.918	-741
844.009	-363
844.101	-588
844.193	-856
844.285	-279
844.377	-65
844.469	-434
844.560	-1518
844.652	-944
844.744	-636
844.835	-979
844.927	-617
845.019	-1089
845.110	-676
845.202	-321
845.293	-1172
845.385	-955
845.476	-1045
845.568	-115
845.659	-369
845.751	-564
845.842	-1182
845.934	-1106
846.025	-1671
846.116	-720
846.208	-840
846.299	-1058
846.390	-1304
846.482	-1266
846.573	-1212
846.664	-1275
846.755	-847
846.846	-313
846.937	-2324
847.029	-1335
847.120	-924
847.211	-1060
847.302	-414
847.393	-2415
847.484	-443
847.575	-911
847.666	-1611
847.757	-561
847.847	-378
847.938	-1
848.029	-1294
848.120	-1086
848.211	-971
848.302	-1157
848.392	-829
848.483	-464
848.574	-2003
848.664	-1443
848.755	-326
848.846	-821
848.936	-1192
849.027	-914
849.118	-1448
849.208	-2326
849.299	-884
849.389	33
849.480	-276
849.570	861
849.661	2183
849.751	5220
849.841	-184
849.932	-662
850.022	-1452
850.112	-718
850.203	-1209
850.293	-565
850.383	-1398
850.474	-1829
850.564	-1649
850.654	-766
850.744	-1075
850.834	-408
850.924	-610
851.014	332
851.104	-874
851.194	-854
851.284	-697
851.374	-1627
851.464	-1107
851.554	-767
851.644	-723
851.734	-1068
851.824	-1008
851.914	-829
852.004	295
852.094	-1034
852.183	-766
852.273	-233
852.363	-1581
852.452	-256
852.542	-1101
852.632	-918
852.721	-1655
852.811	-995
852.901	-179
852.990	-329
853.080	-955
853.169	-2214
853.259	-990
853.348	-1355
853.438	-994
853.527	-172
853.617	-577
853.706	779
853.795	450
853.885	5706
853.974	9940
854.063	20016
854.152	29156
854.242	9374
854.331	642
854.420	-190
854.509	-939
854.598	-1455
854.687	-916
854.777	-400
854.866	-596
854.955	-816
855.044	-1129
855.133	-973
855.222	-1388
855.311	-1140
855.400	-1095
855.488	-862
855.577	-2227
855.666	-1261
855.755	-755
855.844	-1335
855.933	-1114
856.021	-1228
856.110	-563
856.199	-1778
856.288	-1207
856.376	-900
856.465	-1572
856.554	-1181
856.642	-1571
856.731	-899
856.819	-1738
856.908	-966
856.996	-1610
857.085	-1855
857.173	-887
857.262	-1165
857.350	-1089
857.438	-858
857.527	-1102
857.615	-602
857.703	-1444
857.792	-904
857.880	-854
857.968	-1025
858.056	-1145
858.145	-1132
858.233	-1614
858.321	-1453
858.409	-475
858.497	-1302
858.585	-1838
858.673	-559
858.761	-2082
858.849	-555
858.937	-974
859.025	-1253
859.113	-384
859.201	-1437
859.289	-1585
859.377	-867
859.465	-1104
859.552	-807
859.640	-1647
859.728	-436
859.816	-1929
859.903	-1123
859.991	-1480
860.079	-1122
860.166	-1124
860.254	-1492
860.342	-1436
860.429	-2028
860.517	-1618
860.604	-798
860.692	-1121
860.779	-1535
860.867	-1438
860.954	-1513
861.042	-2170
861.129	-1057
861.216	-1139
861.304	-375
861.391	-1846
861.478	-1384
861.565	-1125
861.653	172
861.740	-1165
861.827	-822
861.914	-1443
862.001	-1933
862.089	-1438
862.176	-1362
862.263	-1863
862.350	-1228
862.437	-1369
862.524	-1758
862.611	-1008
862.698	-1305
862.785	-1105
862.871	-804
862.958	-1098
863.045	-873
863.132	-1099
863.219	-807
863.306	-2558
863.392	-583
863.479	-981
863.566	-1226
863.652	-1112
863.739	-1917
863.826	-764
863.912	-2028
863.999	-2221
864.086	-1169
864.172	-1047
864.259	-1592
864.345	-974
864.432	-1051
864.518	-837
864.604	-1288
864.691	-1690
864.777	-836
864.863	-1178
864.950	116
865.036	-962
865.122	1155
865.209	-144
865.295	-252
865.381	-387
865.467	104
865.553	680
865.639	240
865.726	153
865.812	2058
865.898	5439
865.984	8279
866.070	15212
866.156	15565
866.242	2886
866.328	1068
866.414	54
866.499	528
866.585	-84
866.671	397
866.757	169
866.843	-44
866.928	-91
867.014	163
867.100	-703
867.186	-398
867.271	-169
867.357	-340
867.442	-277
867.528	343
867.614	-308
867.699	-368
867.785	210
867.870	524
867.956	-579
868.041	42
868.127	-122
868.212	-350
868.297	-76
868.383	354
868.468	-555
868.553	511
868.639	-344
868.724	-912
868.809	-291
868.894	-572
868.979	-670
869.065	-849
869.150	-1363
869.235	127
869.320	-920
869.405	-402
869.490	-1261
869.575	-525
869.660	-688
869.745	-184
869.830	-500
869.915	-254
870.000	193
870.085	-769
870.169	519
870.254	232
870.339	-1190
870.424	-665
870.509	-553
870.593	195
870.678	-129
870.763	-284
870.847	-765
870.932	-754
871.016	-780
871.101	-857
871.186	-852
871.270	-311
871.355	-543
871.439	-47
871.523	-519
871.608	-617
871.692	-754
871.777	768
871.861	-1042
871.945	-719
872.030	-142
872.114	-159
872.198	-216
872.282	-562
872.367	-1128
872.451	-269
872.535	-1091
872.619	-1481
872.703	-1193
872.787	-417
872.871	-879
872.955	244
873.039	-1491
873.123	-975
873.207	-61
873.291	-279
873.375	-553
873.459	-320
873.543	-1126
873.627	-657
873.711	-902
873.794	-85
873.878	-1631
873.962	-951
874.045	-422
874.129	-684
874.137	-739
874.213	-1287
874.245	-1133
874.296	-879
874.352	-979
874.380	-1032
874.460	-727
874.464	-715
874.547	-466
874.568	-330
874.631	91
874.676	-316
874.714	-667
874.784	-515
874.798	-482
874.881	-137
874.892	-244
874.965	-981
874.999	-865
875.048	-729
875.107	-819
875.131	-861
875.215	-772
875.215	-772
875.298	-1598
875.323	-1599
875.381	-1648
875.430	-999
875.465	-504
875.538	-1370
875.548	-1498
875.631	-1417
875.646	-1281
875.714	-628
875.753	-1024
875.798	-1487
875.861	-968
875.881	-802
875.964	-578
875.968	-586
876.047	-679
876.076	-567
876.130	-379
876.183	-763
876.213	-996
876.291	52
876.296	130
876.379	-896
876.398	-890
876.462	-932
876.506	-808
876.545	-668
876.613	-548
876.628	-527
876.711	-867
876.721	-835
876.794	-606
876.828	-750
876.877	-939
876.935	-887
876.960	-866
877.043	-384
877.043	-385
877.125	-457
877.150	-481
877.208	-484
877.258	-608
877.291	-773
877.365	-718
877.374	-712
877.456	-912
877.472	-978
877.539	-1042
877.579	-563
877.622	-123
877.687	-639
877.704	-801
877.787	-902
877.794	-886
877.869	-614
877.901	-680
877.952	-830
878.008	-1037
878.034	-1056
878.115	-741
878.117	-738
878.199	-1081
878.222	-808
878.282	99
878.329	54
878.364	-115
878.437	-474
878.447	-496
878.529	-1287
878.544	-1169
878.611	-1081
878.651	-1332
878.694	-1187
878.758	-479
878.776	-382
878.858	-928
878.865	-920
878.941	-684
878.972	-659
879.023	-683
879.078	-930
879.105	-975
879.185	-75
879.187	-56
879.269	-91
879.292	-294
879.351	-933
879.399	-607
879.433	-383
879.506	-418
879.516	-382
879.598	-652
879.613	-594
879.680	-715
879.720	-617
879.762	-467
879.827	-942
879.844	-1009
879.926	-311
879.933	-322
880.007	-595
880.040	-650
880.089	-614
880.147	-239
880.171	-133
880.253	-143
880.254	-147
880.335	-784
880.360	-437
880.417	522
880.467	731
880.499	886
880.574	1072
880.580	1058
880.662	-292
880.680	-288
880.744	-311
880.787	-518
880.825	-616
880.893	-499
880.907	-494
880.989	-775
881.000	-769
881.070	-379
881.106	-347
881.152	-580
881.213	-377
881.233	-191
881.315	-157
881.319	-144
881.396	-266
881.426	-521
881.478	-805
881.532	-560
881.559	-413
881.639	-403
881.641	-411
881.722	-442
881.745	-712
881.803	-1035
881.852	-487
881.885	-153
881.958	-496
881.966	-562
882.047	-497
882.064	-649
882.129	-861
882.171	-667
882.210	-713
882.277	-1044
882.291	-991
882.372	-325
882.383	-286
882.454	-581
882.489	-768
882.535	-780
882.596	-458
882.616	-343
882.697	-300
882.702	-296
882.778	-465
882.808	-511
882.859	-822
882.914	-1162
882.940	-986
883.020	-417
883.021	-415
883.102	-555
883.127	-599
883.183	-331
883.233	-293
883.264	-420
883.339	-155
883.345	-147
883.426	-714
883.445	-776
883.507	-564
883.551	-468
883.587	-512
883.657	-347
883.668	-267
883.749	-138
883.763	-52
883.830	35
883.869	-55
883.910	-230
883.975	-666
883.991	-720
884.072	-638
884.081	-619
884.152	-448
884.187	-582
884.233	-429
884.292	158
884.314	178
884.394	-241
884.398	-255
884.475	-210
884.504	-175
884.555	-8
884.610	-37
884.636	-190
884.716	-457
884.716	-450
884.797	65
884.821	94
884.877	-138
884.927	-63
884.958	191
885.033	406
885.038	376
885.118	-164
885.139	-279
885.199	-262
885.244	-30
885.279	207
885.350	102
885.359	122
885.439	541
885.456	529
885.520	-298
885.561	-521
885.600	-501
885.667	-634
885.680	-630
885.760	-449
885.773	-484
885.840	-537
885.878	-558
885.920	-760
885.984	-658
886.000	-491
886.080	-287
886.089	-250
886.160	-426
886.195	-432
886.240	-259
886.300	-214
886.320	-211
886.400	79
886.406	73
886.480	-94
886.511	-124
886.560	-428
886.616	-853
886.640	-919
886.720	-849
886.722	-855
886.800	-765
886.827	-663
886.879	-510
886.932	-475
886.959	-205
887.038	639
887.039	637
887.119	-30
887.143	-267
887.198	21
887.248	344
887.278	272
887.354	-64
887.358	-63
887.437	75
887.459	86
887.517	-175
887.564	-503
887.596	-409
887.669	-95
887.676	-118
887.755	-457
887.774	-539
887.835	-171
887.880	115
887.914	119
887.985	171
887.994	173
888.073	17
888.090	9
888.153	65
888.195	-49
888.232	-11
888.300	356
888.311	420
888.391	630
888.405	669
888.470	334
888.510	118
888.549	149
888.615	308
888.628	275
888.708	-104
888.720	-163
888.787	126
888.825	291
888.866	284
888.930	247
888.945	135
889.024	-425
889.035	-508
889.103	-772
889.140	-919
889.182	-491
889.245	171
889.261	106
889.340	-241
889.349	-281
889.419	-193
889.454	-152
889.498	202
889.559	682
889.577	648
889.656	500
889.664	483
889.735	452
889.768	435
889.814	93
889.873	-361
889.978	-316
890.083	552
890.187	784
890.292	-46
890.397	356
890.501	-386
890.606	534
890.710	-339
890.815	591
890.919	-288
891.024	116
891.128	28
891.233	388
891.337	893
891.442	165
891.546	-164
891.650	129
891.755	576
891.859	1375
891.963	496
892.068	601
892.172	253
892.276	-457
892.380	512
892.484	671
892.589	299
892.693	54
892.797	5
892.901	-440
893.005	-328
893.109	405
893.213	289
893.317	161
893.421	-150
893.525	-234
893.629	168
893.733	239
893.837	231
893.941	8
894.045	-70
894.148	-287
894.252	288
894.356	723
894.460	1053
894.564	-657
894.667	166
894.771	356
894.875	17
894.978	-366
895.082	-57
895.186	-67
895.289	259
895.393	846
895.496	934
895.600	785
895.703	-56
895.807	345
895.910	246
896.014	627
896.117	126
896.221	-456
896.324	50
896.427	-214
896.531	-267
896.634	115
896.737	545
896.840	81
896.944	906
897.047	-531
897.150	21
897.253	-594
897.356	180
897.460	-590
897.563	-2
897.666	-337
897.769	-186
897.872	562
897.975	-29
898.078	621
898.181	-996
898.284	-737
898.387	614
898.490	692
898.593	-146
898.695	-386
898.798	-210
898.901	123
899.004	524
899.107	-226
899.209	-214
899.312	300
899.415	199
899.518	-458
899.620	-556
899.723	-301
899.826	175
899.928	-231
900.031	131
900.133	-126
900.236	127
900.338	-395
900.441	361
900.543	-258
900.646	302
900.748	526
900.851	-258
900.953	-92
901.055	-577
901.158	-67
901.260	-3
901.362	360
901.465	-306
901.567	-392
901.669	244
901.771	-120
901.873	-185
901.976	-158
902.078	-24
902.180	-325
902.282	-479
902.384	-457
902.486	-675
902.588	-540
902.690	-144
902.792	-629
902.894	894
902.996	147
903.098	-325
903.200	-582
903.302	-360
903.404	-285
903.505	312
903.607	191
903.709	334
903.811	91
903.913	-201
904.014	476
904.116	-310
904.218	50
904.319	889
904.421	36
904.523	-478
904.624	-879
904.726	355
904.827	107
904.929	-394
905.030	150
905.132	373
905.233	383
905.335	1
905.436	-570
905.537	-114
905.639	-20
905.740	-1047
905.841	433
905.943	300
906.044	-189
906.145	49
906.247	-74
906.348	-214
906.449	155
906.550	-100
906.651	32
906.752	-215
906.854	-1238
906.955	-420
907.056	-319
907.157	210
907.258	1079
907.359	-65
907.460	253
907.561	-332
907.662	-15
907.762	-786
907.863	-833
907.964	-274
908.065	-673
908.166	-285
908.267	-94
908.367	-1067
908.468	-602
908.569	-28
908.670	20
908.770	357
908.871	-316
908.971	149
909.072	-542
909.173	-105
909.273	150
909.374	-329
909.474	-699
909.575	-461
909.675	-259
909.776	-122
909.876	-452
909.977	-106
910.077	117
910.177	54
910.278	169
910.378	-637
910.478	-348
910.579	231
910.679	-677
910.779	511
910.879	-515
910.980	482
911.080	-476
911.180	-718
911.280	-377
911.380	-386
911.480	-183
911.580	-648
911.680	-144
911.780	688
911.880	-386
911.980	-104
912.080	-123
912.180	14
912.280	107
912.380	-309
912.480	-495
912.580	-61
912.679	-484
912.779	-29
912.879	-694
912.979	-402
913.078	-226
913.178	-88
913.278	-209
913.377	-390
913.477	165
913.577	-159
913.676	379
913.776	-936
913.875	-216
913.975	-460
914.074	174
914.174	-33
914.273	-491
914.373	251
914.472	-25
914.572	-1209
914.671	35
914.770	-153
914.870	-1215
914.969	-889
915.068	-309
915.167	271
915.267	-301
915.366	789
915.465	-343
915.564	-607
915.663	-371
915.763	425
915.862	-617
915.961	-394
916.060	-485
916.159	-526
916.258	-852
916.357	152
916.456	-49
916.555	-72
916.654	-764
916.752	355
916.851	-542
916.950	-1311
917.049	2
917.148	-883
917.247	8
917.345	-635
917.444	-218
917.543	43
917.642	294
917.740	-929
917.839	288
917.937	-227
918.036	-876
918.135	-560
918.233	-416
918.332	-492
918.430	-948
918.529	196
918.627	-157
918.726	-91
918.824	248
918.923	17
919.021	-674
919.119	-534
919.218	-1219
919.316	-50
919.414	-417
919.512	-578
919.611	-549
919.709	-764
919.807	-735
919.905	-626
920.003	-161
920.102	-890
920.200	-299
920.298	-765
920.396	-245
920.494	-711
920.592	-804
920.690	-17
920.788	47
920.886	-26
920.984	-38
921.082	-1769
921.180	-233
921.277	-161
921.375	-410
921.473	1039
921.571	-209
921.669	176
921.766	-637
921.864	952
921.962	501
922.060	-162
922.157	25
922.255	276
922.352	-13
922.450	95
922.548	-323
922.645	-137
922.743	249
922.840	1105
922.938	886
923.035	1011
923.133	1187
923.230	773
923.327	1201
923.425	1752
923.522	1113
923.619	201
923.717	684
923.814	719
923.911	44
924.008	1348
924.106	655
924.203	1238
924.300	1145
924.397	736
924.494	2119
924.591	529
924.688	671
924.786	665
924.883	172
924.979	115
925.077	757
925.173	-85
925.270	680
925.367	454
925.464	876
925.561	834
925.658	842
925.755	741
925.852	54
925.948	639
926.045	677
926.142	257
926.239	582
926.335	201
926.432	975
926.529	862
926.625	1459
926.722	229
926.818	1195
926.915	649
927.011	-31
927.108	697
927.204	-314
927.301	688
927.397	1041
927.494	468
927.590	329
927.687	789
927.783	-122
927.879	818
927.976	206
928.072	-24
928.168	724
928.264	400
928.361	417
928.457	1089
928.553	98
928.649	113
928.745	474
928.841	-87
928.937	-443
929.033	363
929.129	152
929.225	-277
929.321	361
929.417	866
929.513	520
929.609	109
929.705	415
929.801	-161
929.897	-156
929.993	162
930.089	593
930.184	163
930.280	230
930.376	99
930.471	-345
930.567	-810
930.663	382
930.758	155
930.854	293
930.950	472
931.045	-334
931.141	1502
931.236	597
931.332	293
931.427	422
931.523	-235
931.618	535
931.714	-277
931.809	-91
931.905	710
932.000	365
932.095	-334
932.191	-820
932.286	360
932.381	768
932.476	135
932.572	670
932.667	671
932.762	69
932.857	115
932.952	365
933.047	-59
933.142	-183
933.237	66
933.332	775
933.427	638
933.522	234
933.617	35
933.712	-198
933.807	-36
933.902	60
933.997	690
934.092	-336
934.187	414
934.282	-350
934.376	-298
934.471	394
934.566	-190
934.661	-18
934.755	724
934.850	258
934.945	274
935.039	540
935.134	-349
935.228	-114
935.323	398
935.417	40
935.512	-130
935.606	-706
935.701	399
935.795	-154
935.890	-269
935.984	-11
936.079	-719
936.173	368
936.267	-95
936.362	-652
936.456	289
936.550	302
936.644	87
936.738	-42
936.833	-211
936.927	-430
937.021	-683
937.115	-56
937.209	-1416
937.303	348
937.397	-45
937.491	23
937.585	-35
937.679	436
937.773	298
937.867	-24
937.961	-214
938.055	470
938.149	298
938.243	-575
938.337	-101
938.430	199
938.524	446
938.618	-29
938.712	-294
938.805	-507
938.899	-178
938.993	-803
939.086	-622
939.180	361
939.274	183
939.367	233
939.461	406
939.554	-575
939.648	-260
939.741	-211
939.835	-626
939.928	-221
940.022	221
940.115	-210
940.208	-121
940.302	603
940.395	160
940.488	-1525
940.582	682
940.675	-142
940.768	-246
940.861	-231
940.954	186
941.048	143
941.141	14
941.234	-439
941.327	-543
941.420	57
941.513	-270
941.606	-632
941.699	596
941.792	205
941.885	56
941.978	-99
942.071	-541
942.164	-456
942.257	-179
942.349	148
942.442	-617
942.535	-1362
942.628	202
942.721	362
942.813	-1084
942.906	679
942.999	-417
943.091	-1127
943.184	-830
943.277	-545
943.369	51
943.462	-767
943.554	-62
943.647	-989
943.739	854
943.832	-215
943.924	-937
944.017	-309
944.109	-763
944.201	-194
944.294	-89
944.386	-539
944.478	-862
944.571	-879
944.663	-603
944.755	-739
944.847	85
944.940	-87
945.032	-1064
945.124	-843
945.216	570
945.308	-636
945.400	7
945.492	-483
945.584	-334
945.676	-400
945.768	-60
945.860	-361
945.952	-549
946.044	51
946.136	-181
946.228	-393
946.320	-881
946.412	154
946.503	-451
946.595	210
946.687	-541
946.779	-1035
946.870	67
946.962	-940
947.054	232
947.145	92
947.237	236
947.329	-386
947.420	-555
947.512	-397
947.603	-159
947.695	-143
947.786	-530
947.878	-563
947.969	-420
948.061	-929
948.152	-651
948.243	192
948.335	203
948.426	-515
948.517	-903
948.609	371
948.700	-50
948.791	-974
948.882	-730
948.973	-889
949.065	-488
949.156	509
949.247	-349
949.338	-258
949.429	-1168
949.520	-1615
949.611	-1064
949.702	-2
949.793	358
949.884	88
949.975	-194
950.066	-1071
950.157	-685
950.247	-78
950.338	-991
950.429	186
950.520	-108
950.611	-562
950.701	-286
950.792	617
950.883	178
950.973	-459
951.064	-397
951.155	-1265
951.245	-701
951.336	-442
951.427	-552
951.517	-530
951.608	-617
951.698	-1218
951.788	-948
951.879	-554
951.969	-705
952.060	-297
952.150	-880
952.240	-8
952.331	-1411
952.421	217
952.511	-711
952.602	-299
952.692	-1075
952.782	285
952.872	-953
952.962	89
953.052	-933
953.143	-765
953.233	-993
953.323	233
953.413	-176
953.503	-1323
953.593	-316
953.683	72
953.773	-1041
953.863	-263
953.953	-766
954.042	-641
954.132	-95
954.222	-21
954.312	-707
954.402	-205
954.492	-262
954.581	-802
954.671	-861
954.761	-438
954.850	1063
954.940	-604
955.030	-1021
955.119	-256
955.209	125
955.298	-162
955.388	-492
955.477	-328
955.567	-908
955.656	-618
955.746	81
955.835	-205
955.925	-1051
956.014	-878
956.103	-759
956.193	-263
956.282	85
956.371	-772
956.461	-734
956.550	-877
956.639	-581
956.728	-560
956.817	-522
956.906	-633
956.995	-250
957.085	-991
957.174	-160
957.263	-741
957.352	-337
957.441	-1201
957.530	-879
957.619	422
957.708	-1236
957.796	-197
957.885	22
957.974	-813
958.063	9
958.152	-1338
958.241	-676
958.329	-233
958.418	-982
958.507	-1710
958.596	-600
958.684	-1406
958.773	-120
958.861	-966
958.950	-771
959.039	-717
959.127	-586
959.216	-91
959.304	-949
959.393	-735
959.481	-165
959.570	565
959.658	-816
959.746	-338
959.835	-713
959.923	-429
960.011	-1035
960.100	646
960.188	-896
960.276	-512
960.365	385
960.453	-252
960.541	-1462
960.629	-642
960.717	-29
960.805	-1302
960.893	-434
960.981	-1101
961.069	-625
961.158	-974
961.245	-821
961.333	-509
961.421	-1033
961.509	-202
961.597	-274
961.685	-641
961.773	-707
961.861	-959
961.949	2
962.036	-1185
962.124	-310
962.212	-429
962.299	-820
962.387	-916
962.475	-659
962.562	-963
962.650	-762
962.738	-158
962.825	-915
962.913	-440
963.000	-518
963.088	-752
963.175	401
963.263	-786
963.350	-682
963.438	-603
963.525	-1298
963.612	154
963.700	106
963.787	-271
963.874	-964
963.962	48
964.049	134
964.136	-1067
964.223	-394
964.310	-1396
964.398	-1495
964.485	-535
964.572	-475
964.659	-689
964.746	-969
964.833	-676
964.920	-1169
965.007	-281
965.094	-1198
965.181	-606
965.268	-1129
965.355	-806
965.441	-1019
965.528	-1248
965.615	-4
965.702	-125
965.789	-1611
965.875	-562
965.962	-704
966.049	-1067
966.136	-547
966.222	-832
966.309	-203
966.395	-387
966.482	76
966.569	-720
966.655	-753
966.742	-585
966.828	-249
966.915	-1554
967.001	-65
967.087	-985
967.174	-575
967.260	-872
967.347	-366
967.433	-1123
967.519	-401
967.605	-1472
967.692	-710
967.778	-374
967.864	-526
967.950	-1156
968.036	-1332
968.123	-606
968.209	-1283
968.295	-1110
968.381	275
968.467	-183
968.553	-1591
968.639	-373
968.725	-1758
968.811	-659
968.897	305
968.983	-672
969.069	-726
969.154	-391
969.240	-340
969.326	-1714
969.412	-1280
969.497	-622
969.583	-634
969.669	271
969.755	-625
969.840	-862
969.926	-423
970.012	-1318
970.097	-544
970.183	-740
970.268	-256
970.354	-718
970.439	-766
970.525	150
970.610	-1420
970.696	-90
970.781	-1055
970.866	-1798
970.952	-160
971.037	-2208
971.122	-473
971.208	-654
971.293	-630
971.378	-2548
971.463	-611
971.549	185
971.634	-958
971.719	-28
971.804	-997
971.889	-189
971.974	-267
972.059	-569
972.144	203
972.229	-588
972.314	-529
972.399	-302
972.484	-1217
972.569	644
972.654	-2016
972.739	-76
972.824	-801
972.908	-113
972.993	-862
973.078	-724
973.163	-615
973.247	-193
973.332	-1624
973.417	1355
973.501	-1127
973.586	-419
973.671	101
973.755	-477
973.840	360
973.924	-142
974.009	-485
974.093	-1147
974.178	263
974.262	-331
974.346	-1030
974.431	-885
974.515	-977
974.600	-1149
974.684	-682
974.768	-429
974.852	73
974.937	-1719
975.021	-331
975.105	-1433
975.189	-761
975.273	188
975.358	-1145
975.442	-653
975.526	21
975.610	-1134
975.694	-1264
975.778	145
975.862	-1339
975.946	-2907
976.030	1028
976.114	-1042
976.198	-946
976.281	-532
976.365	-565
976.449	-1479
976.533	-426
976.617	-822
976.700	-1065
976.784	-729
976.868	-483
976.951	-1144
977.035	-1481
977.119	-163
977.202	-255
977.286	-16
977.369	-928
977.453	-357
977.536	-154
977.620	-812
977.703	-816
977.787	-1379
977.870	466
977.953	235
978.037	-2110
978.120	-602
978.203	-666
978.287	-1239
978.370	-1205
978.453	-1395
978.536	-853
978.620	-463
978.703	-532
978.786	-1255
978.869	-1121
978.952	-2012
979.035	164
979.118	-775
979.201	-894
979.284	-348
979.367	-1339
979.450	-420
979.533	-1528
979.616	-823
979.699	97
979.782	-389
979.865	-842
979.948	-846
980.030	-1682
980.113	-525
980.196	-1330
980.279	-287
980.361	-545
980.444	-670
980.526	26
980.609	-350
980.692	-197
980.774	-778
980.857	-1248
980.939	-108
981.022	-675
981.104	-1270
981.187	-1793
981.269	246
981.352	-241
981.434	-1926
981.516	-510
981.599	-75
981.681	-188
981.763	-803
981.846	-962
981.928	-979
982.010	-1241
982.092	-1429
982.174	101
982.256	-1858
982.339	-378
982.421	363
982.503	-694
982.585	-1406
982.667	-267
982.749	-1583
982.831	-900
982.913	-2468
982.995	-154
983.077	-1765
983.158	-474
983.240	-1379
983.322	-397
983.404	-486
983.486	-2001
983.568	-451
983.649	-544
983.731	-179
983.813	-813
983.894	-483
983.976	-1445
984.058	-1471
984.139	-222
984.221	-2098
984.302	-443
984.384	-1238
984.465	-741
984.547	-367
984.628	-1093
984.710	-629
984.791	-526
984.872	35
984.954	-1065
985.035	-61
985.116	-1081
985.198	-1120
985.279	699
985.360	-1054
985.441	-479
985.522	182
985.604	-1739
985.685	-2529
985.766	793
985.847	994
985.928	-1726
986.009	-653
986.090	-833
986.171	370
986.252	-1162
986.333	-1114
986.414	-1760
986.495	-332
986.576	-776
986.656	-502
986.737	-673
986.818	-1219
986.899	-1011
986.980	-373
987.060	-115
987.141	-703
987.222	-298
987.302	-1111
987.383	-182
987.464	-732
987.544	-382
987.625	-849
987.705	-432
987.786	-76
987.866	-674
987.947	-338
988.027	-478
988.108	-1375
988.188	147
988.268	158
988.349	-699
988.429	-1106
988.509	48
988.589	-395
988.670	-3184
988.750	-394
988.830	-89
988.910	176
988.990	-506
989.070	-1248
989.151	-920
989.231	-1204
989.311	-324
989.391	-867
989.471	-543
989.551	-988
989.631	-274
989.711	-946
989.791	-1511
989.870	-1513
989.950	726
990.030	-856
990.110	-699
990.190	-1223
990.269	-897
990.349	-700
990.429	-543
990.509	-164
990.588	-1123
990.668	-684
990.747	-497
990.827	-807
990.907	-1013
990.986	-518
991.066	15
991.145	-445
991.225	-1064
991.304	-1054
991.383	-462
991.463	-1509
991.542	102
991.622	-1227
991.701	-1533
991.780	-1133
991.859	-1595
991.939	-1273
992.018	-30
992.097	-925
992.176	-703
992.256	-1233
992.335	-1224
992.414	37
992.493	-1272
992.572	-1066
992.651	114
992.730	-979
992.809	-849
992.888	-1610
992.967	-1049
993.046	-465
993.125	-1172
993.203	-1005
993.282	-1367
993.361	-619
993.440	-425
993.519	-1519
993.597	-79
993.676	-2612
993.755	-584
993.834	-496
993.912	-1527
993.991	-139
994.069	-1476
994.148	-612
994.226	-1168
994.305	-134
994.384	-1722
994.462	461
994.540	-1802
994.619	-234
994.697	-1269
994.776	-1506
994.854	-369
994.932	-1748
995.011	-525
995.089	-1069
995.167	-1707
995.245	-474
995.324	-1625
995.402	-1745
995.480	-782
995.558	-19
995.636	-2346
995.714	-1515
995.792	85
995.870	-1261
995.948	-1310
996.026	-670
996.104	-2829
996.182	-707
996.260	-1201
996.338	-150
996.416	-1531
996.494	-1336
996.572	-280
996.649	-1527
996.727	-1906
996.805	-646
996.883	-1294
996.960	-1541
997.038	-841
997.116	76
997.193	-1407
997.271	-1362
997.348	-926
997.426	-991
997.504	-1393
997.581	-1593
997.658	-1004
997.736	-953
997.813	-519
997.891	-21
997.968	-1528
998.046	-965
998.123	-1359
998.200	-619
998.277	-1919
998.355	-512
998.432	-1871
998.509	-916
998.586	-490
998.663	-147
998.741	-860
998.818	-1186
998.895	-1745
998.972	-875
999.049	-1053
999.126	-1548
999.203	-404
999.280	-1155
999.357	-1500
999.434	-734
999.511	-379
999.587	-529
999.664	-188
999.741	-1240
999.818	-105
999.895	-873
999.971	-1107
1000.048	-1699
1000.125	-453
1000.202	-1701
1000.278	-1127
1000.355	-598
1000.431	-1643
1000.508	-996
1000.584	-1371
1000.661	-755
1000.738	-1538
1000.814	-801
1000.890	-738
1000.967	-962
1001.043	-1787
1001.120	-2322
1001.196	-217
1001.272	-1629
1001.349	-1397
1001.425	-691
1001.501	-279
1001.577	-1565
1001.654	-686
1001.730	-1014
1001.806	-301
1001.882	-1870
1001.958	-753
1002.034	-1087
1002.110	-1439
1002.186	-2453
1002.262	-1512
1002.338	-1668
1002.414	-913
1002.490	-328
1002.566	-1886
1002.642	-1244
1002.718	-457
1002.794	-676
1002.870	-1904
1002.945	-1072
1003.021	-640
1003.097	-1124
1003.173	-761
1003.248	-1830
1003.324	-856
1003.400	-831
1003.475	-1439
1003.551	-848
1003.626	-1324
1003.702	-1902
1003.777	-1072
1003.853	-798
1003.928	-1896
1004.004	-1457
1004.079	-611
1004.155	-996
1004.230	-1857
1004.305	157
1004.381	-1882
1004.456	-128
1004.531	-1113
1004.607	-1699
1004.682	-1509
1004.757	-1198
1004.832	-696
1004.907	-1160
1004.982	-779
1005.057	-196
1005.133	-1616
1005.208	-1162
1005.283	-1336
1005.358	-467
1005.433	-1181
1005.508	-380
1005.583	-1573
1005.657	-1947
1005.732	-880
1005.807	-1372
1005.882	-795
1005.957	-386
1006.032	-1253
1006.106	-837
1006.181	-1261
1006.256	-1303
1006.331	-1284
1006.405	-1599
1006.480	-1106
1006.554	-1435
1006.629	-1070
1006.704	-1772
1006.778	-1833
1006.853	-353
1006.927	-1145
1007.002	-1065
1007.076	-1130
1007.150	-1238
1007.225	-999
1007.299	-1024
1007.373	-871
1007.448	-927
1007.522	-769
1007.596	-1326
1007.671	-1278
1007.745	-862
1007.819	-1684
1007.893	-1208
1007.967	68
1008.041	-2438
1008.115	-974
1008.190	-1367
1008.264	-520
1008.338	-1244
1008.412	-1465
1008.486	-1811
1008.560	-618
1008.633	-1204
1008.707	-1772
1008.781	-927
1008.855	-1325
1008.929	-1554
1009.003	-1620
1009.076	-1488
1009.150	-864
1009.224	-1165
1009.298	-890
1009.371	-1851
1009.445	-573
1009.519	-552
1009.592	-1043
1009.666	-868
1009.739	-515
1009.813	-2427
1009.886	-215
1009.960	-1830
1010.033	-733
1010.107	-339
1010.180	-1899
1010.253	-1493
1010.327	-2036
1010.400	-1665
1010.473	-1450
1010.547	152
1010.620	-942
1010.693	-1707
1010.766	-989
1010.840	-1015
1010.913	-263
1010.986	-1277
1011.059	-765
1011.132	-722
1011.205	-645
1011.278	-681
1011.351	-1342
1011.424	-1042
1011.497	-942
1011.570	-2221
1011.643	-801
1011.716	-2080
1011.789	-1680
1011.862	-1266
1011.934	-1080
1012.007	-1702
1012.080	-1058
1012.153	-1304
1012.225	-930
1012.298	-2053
1012.371	-1700
1012.443	-309
1012.516	-2105
1012.588	-1746
1012.661	-1015
1012.733	-2091
1012.806	-427
1012.879	-1230
1012.951	-1143
1013.023	-1575
1013.096	-2006
1013.168	-1109
1013.241	-688
1013.313	-812
1013.385	-1420
1013.458	-1709
1013.530	-693
1013.602	-1652
1013.674	-395
1013.746	-2366
1013.819	-553
1013.891	-945
1013.963	-2577
1014.035	-1357
1014.107	-1795
1014.179	-708
1014.251	-1487
1014.323	-846
1014.395	-1122
1014.467	-2149
1014.539	-565
1014.611	-2110
1014.683	-1149
1014.754	-1182
1014.826	-2176
1014.898	-916
1014.970	-1946
1015.042	-889
1015.113	-1350
1015.185	-1854
1015.257	-2363
1015.328	-31
1015.400	-2276
1015.471	-866
1015.543	-2172
1015.615	-1790
1015.686	-1483
1015.757	-1307
1015.829	-1083
1015.901	-1475
1015.972	-1123
1016.043	-1814
1016.115	-1410
1016.186	-1294
1016.257	-1561
1016.328	-995
1016.400	-623
1016.471	-1601
1016.542	-1107
1016.613	-1439
1016.685	-1247
1016.756	-1172
1016.827	-1431
1016.898	-1617
1016.969	-275
1017.040	-1605
1017.111	-996
1017.182	-986
1017.253	-1966
1017.324	-1371
1017.395	-1502
1017.466	-1020
1017.537	-2081
1017.608	-1803
1017.678	-1308
1017.749	-1487
1017.820	-1614
1017.891	-2003
1017.961	-1562
1018.032	-954
1018.103	-701
1018.173	-1448
1018.244	-2065
1018.315	-1221
1018.385	-1005
1018.456	-2036
1018.526	-2408
1018.597	-1266
1018.667	-1170
1018.738	-2107
1018.808	-968
1018.878	-1519
1018.949	-1531
1019.019	-990
1019.089	-837
1019.160	-2075
1019.230	-1565
1019.300	-1228
1019.371	-2712
1019.441	-745
1019.511	-1798
1019.581	-906
1019.651	-803
1019.721	-1450
1019.791	-1416
1019.861	-940
1019.931	-1684
1020.001	-1809
1020.071	-1242
1020.141	-1733
1020.211	-941
1020.281	-2113
1020.351	-1685
1020.421	-1095
1020.491	-1149
1020.560	-1742
1020.630	-1091
1020.700	-2280
1020.770	-1818
1020.839	-2115
1020.909	-1628
1020.979	-1490
1021.048	-1391
1021.118	-1314
1021.187	-1979
1021.257	-2032
1021.326	-1255
1021.396	-1251
1021.465	-1033
1021.535	-699
1021.604	-1399
1021.674	-1375
1021.743	-1541
1021.812	-2209
1021.882	-1629
1021.951	-1058
1022.020	-1815
1022.089	-1051
1022.159	-2009
1022.228	-1763
1022.297	-1769
1022.366	-1984
1022.435	-1305
1022.504	-1898
1022.573	-1903
1022.642	-1516
1022.711	-2052
1022.781	-1383
1022.849	-1316
1022.918	-2098
1022.987	-1080
1023.056	-1868
1023.125	-1975
1023.194	-930
1023.263	-1575
1023.331	-1746
1023.400	-2057
1023.469	-2223
1023.538	-749
1023.606	-1896
1023.675	-1506
1023.744	-1952
1023.812	-1789
1023.881	-1741
1023.949	-1777
1024.018	-1957
1024.086	-964
1024.155	-2527
1024.223	-2011
1024.292	-1334
1024.360	-2139
1024.429	-1818
1024.497	-1768
1024.565	-1014
1024.634	-2152
1024.702	-1138
1024.770	-1510
1024.838	-2563
1024.907	-1400
1024.975	-1386
1025.043	-1480
1025.111	-1887
1025.179	-1490
1025.247	-2105
1025.315	-2214
1025.383	-1813
1025.451	-1792
1025.519	-2006
1025.587	-1988
1025.655	-2198
1025.723	-2565
1025.791	-1758
1025.859	-1169
1025.927	-1649
1025.995	-1649
1026.062	-1303
1026.130	-2063
1026.198	-2094
1026.266	-1753
1026.333	-829
1026.401	-1807
1026.469	-1888
1026.536	-1672
1026.604	-2099
1026.671	-1875
1026.739	-1823
1026.806	-1864
1026.874	-1395
1026.941	-1354
1027.009	-1990
1027.076	-2024
1027.144	-1988
1027.211	-1148
1027.278	-1942
1027.345	-1548
1027.413	-1792
1027.480	-2452
1027.547	-1280
1027.614	-1733
1027.682	-1295
1027.749	-1251
1027.816	-1766
1027.883	-2054
1027.950	-1601
1028.017	-2144
1028.084	-1092
1028.151	-1772
1028.218	-1639
1028.285	-1444
1028.352	-1448
1028.419	-2360
1028.486	-2006
1028.553	-1344
1028.619	-1992
1028.686	-1729
1028.753	-2158
1028.820	-2397
1028.886	-1884
1028.953	-1871
1029.020	-1544
1029.086	-1420
1029.153	-2221
1029.220	-1890
1029.286	-1307
1029.353	-1516
1029.419	-2268
1029.486	-1667
1029.552	-2366
1029.619	-2288
1029.685	-1777
1029.751	-2275
1029.818	-882
1029.884	-1658
1029.951	-716
1030.017	-1361
1030.083	-2178
1030.149	-1234
1030.216	-1970
1030.282	-1128
1030.348	-1371
1030.414	-2022
1030.480	-1915
1030.546	-1573
1030.612	-2002
1030.678	-1537
1030.744	-2649
1030.810	-2518
1030.876	-1462
1030.942	-1551
1031.008	-1616
1031.074	-2289
1031.140	-1912
1031.206	-1542
1031.272	-2500
1031.337	-1656
1031.403	-2073
1031.469	-1352
1031.534	-1098
1031.600	-1959
1031.666	-1747
1031.731	-1977
1031.797	-1851
1031.863	-1865
1031.928	-1777
1031.994	-1795
1032.059	-1836
1032.125	-1691
1032.190	-1844
1032.256	-2755
1032.321	-1741
1032.386	-1741
1032.452	-1168
1032.517	-1130
1032.582	-2089
1032.647	-1479
1032.713	-1677
1032.778	-1371
1032.843	-1815
1032.908	-1699
1032.974	-2392
1033.039	-1533
1033.104	-2233
1033.169	-2804
1033.234	-1648
1033.299	-1485
1033.364	-1144
1033.429	-1819
1033.494	-1857
1033.559	-2011
1033.624	-1937
1033.688	-1216
1033.753	-2794
1033.818	-1606
1033.883	-2325
1033.948	-2254
1034.013	-1616
1034.077	-1872
1034.142	-1859
1034.207	-1963
1034.271	-1452
1034.336	-2089
1034.400	-1599
1034.465	-1673
1034.530	-2418
1034.594	-1585
1034.658	-2445
1034.723	-1849
1034.787	-2110
1034.852	-1788
1034.916	-1206
1034.981	-1420
1035.045	-1176
1035.109	-1934
1035.173	-1447
1035.238	-2314
1035.302	-1051
1035.366	-1985
1035.430	-1854
1035.495	-2230
1035.559	-1387
1035.623	-1084
1035.687	-2046
1035.751	-1327
1035.815	-1688
1035.879	-2038
1035.943	-1159
1036.007	-1663
1036.071	-1716
1036.135	-2182
1036.198	-1949
1036.262	-2002
1036.326	-1839
1036.390	-2071
1036.454	-1576
1036.517	-2649
1036.581	-1117
1036.645	-1399
1036.709	-1855
1036.772	-1751
1036.836	-1974
1036.900	-2886
1036.963	-1690
1037.026	-1899
1037.090	-1808
1037.154	-1663
1037.217	-1864
1037.280	-1967
1037.344	-2036
1037.407	-2150
1037.471	-1440
1037.534	-2142
1037.597	-2052
1037.661	-2441
1037.724	-1597
1037.787	-2461
1037.850	-1592
1037.913	-1853
1037.977	-730
1038.040	-1348
1038.103	-1964
1038.166	-1953
1038.229	-2145
1038.292	-1622
1038.355	-1637
1038.418	-2102
1038.481	-1568
1038.544	-2048
1038.607	-1717
1038.670	-1678
1038.732	-1025
1038.795	-2181
1038.858	-1355
1038.921	-951
1038.984	-1796
1039.046	-2830
1039.109	-2309
1039.172	-1766
1039.234	-2151
1039.297	-1911
1039.360	-2181
1039.422	-2311
1039.485	-1461
1039.547	-1682
1039.610	-1399
1039.672	-2297
1039.734	-1480
1039.797	-2368
1039.859	-2310
1039.922	-1866
1039.984	-3087
1040.046	-2133
1040.109	-1435
1040.171	-2717
1040.233	-1061
1040.295	-1441
1040.358	-1939
1040.420	-1742
1040.482	-2040
1040.544	-2041
1040.606	-2219
1040.668	-2687
1040.730	-2731
1040.792	-1365
1040.854	-2318
1040.916	-2282
1040.978	-2422
1041.040	-1013
1041.102	-1502
1041.164	-968
1041.225	-2121
1041.287	-2211
1041.349	-2259
1041.411	-1776
1041.472	-2313
1041.534	-2339
1041.596	-2312
1041.657	-2013
1041.719	-1498
1041.781	-2124
1041.842	-1657
1041.904	-2383
1041.965	-1993
1042.027	-1804
1042.088	-2230
1042.150	-1485
1042.211	-2163
1042.272	-1898
1042.334	-2339
1042.395	-1928
1042.456	-2556
1042.518	-737
1042.579	-1552
1042.640	-1938
1042.701	-1167
1042.763	-2194
1042.824	-2622
1042.885	-2127
1042.946	-2412
1043.007	-2087
1043.068	-2647
1043.129	-1573
1043.190	-1778
1043.251	-2352
1043.312	-1989
1043.373	-1204
1043.434	-1361
1043.495	-2495
1043.556	-1865
1043.616	-1743
1043.677	-1008
1043.738	-1308
1043.799	-2316
1043.859	-1393
1043.920	-1548
1043.981	-2629
1044.041	-1646
1044.102	-2161
1044.162	-1438
1044.223	-1931
1044.284	-2190
1044.344	-1950
1044.405	-1596
1044.465	-1818
1044.525	-2119
1044.586	-2220
1044.646	-2010
1044.707	-2599
1044.767	-1801
1044.827	-2361
1044.887	-1979
1044.948	-1795
1045.008	-1771
1045.068	-2206
1045.128	-1459
1045.188	-1588
1045.249	-2068
1045.309	-2272
1045.369	-805
1045.429	-1518
1045.489	-1913
1045.549	-1204
1045.609	-1995
1045.669	-2697
1045.729	-1493
1045.789	-2187
1045.848	-1577
1045.908	-2001
1045.968	-1128
1046.028	-1349
1046.088	-1489
1046.147	-916
1046.207	-1192
1046.267	-1761
1046.326	-886
1046.386	-492
1046.446	-916
1046.505	-884
1046.565	-802
1046.624	-688
1046.684	-1565
1046.743	-767
1046.803	-295
1046.862	-594
1046.922	0
