'Start Wavelength	183.907
'End Wavelength	1046.922
'Gate Delay	5.000
'Gate Width (ms)	1.050
'Laser Output Level	0.000
'X Position	0.000
'Y Position	0.000
'Z Position	0.000
'Grid Point Number	1.000
'Shot Number	100.000
183.907	203.000
183.977	367.000
184.047	-430
184.116	521
184.186	191
184.256	533
184.325	18
184.395	-190
184.465	604
184.534	164
184.604	-148
184.674	806
184.743	-638
184.813	293
184.883	61
184.952	39
185.022	104
185.092	613
185.161	119
185.231	440
185.301	-99
185.370	476
185.440	-306
185.509	629
185.579	-473
185.649	609
185.718	756
185.788	770
185.857	-551
185.927	68
185.996	-807
186.066	-13
186.136	-368
186.205	489
186.275	134
186.344	942
186.414	-339
186.483	806
186.553	833
186.622	1175
186.692	490
186.761	667
186.831	294
186.900	180
186.970	292
187.039	629
187.109	-219
187.178	706
187.248	-163
187.317	904
187.387	258
187.456	349
187.526	179
187.595	317
187.664	-382
187.734	357
187.803	-283
187.873	1131
187.942	-364
188.012	771
188.081	-1215
188.150	-85
188.220	456
188.289	153
188.358	9
188.428	627
188.497	-645
188.567	792
188.636	-173
188.705	389
188.775	158
188.844	-216
188.913	290
188.983	601
189.052	-317
189.121	120
189.191	625
189.260	297
189.329	68
189.399	840
189.468	587
189.537	973
189.606	34
189.676	-382
189.745	31
189.814	317
189.883	-614
189.953	190
190.022	-604
190.091	134
190.161	170
190.230	357
190.299	-370
190.368	186
190.437	-189
190.507	-400
190.576	385
190.645	601
190.714	-496
190.783	299
190.853	-244
190.922	702
190.991	228
191.060	398
191.129	-46
191.198	-20
191.268	686
191.337	78
191.406	674
191.475	446
191.544	135
191.613	301
191.682	-26
191.752	836
191.821	344
191.890	139
191.959	460
192.028	387
192.097	-267
192.166	835
192.235	26
192.304	169
192.373	-591
192.442	-97
192.511	-307
192.580	559
192.650	-178
192.719	729
192.788	208
192.857	271
192.926	96
192.995	661
193.064	387
193.133	978
193.202	-112
193.271	764
193.340	117
193.409	832
193.478	246
193.547	654
193.615	548
193.684	412
193.753	413
193.822	753
193.891	-108
193.960	500
194.029	-206
194.098	-93
194.167	-343
194.236	981
194.305	95
194.374	370
194.443	23
194.512	450
194.580	-208
194.649	773
194.718	639
194.787	1218
194.856	29
194.925	689
194.994	-56
195.062	690
195.131	-586
195.200	303
195.269	-465
195.338	948
195.407	86
195.475	634
195.544	311
195.613	-192
195.682	207
195.751	378
195.819	164
195.888	556
195.957	474
196.026	58
196.094	-36
196.163	87
196.232	193
196.301	703
196.369	104
196.438	243
196.507	-218
196.576	510
196.644	103
196.713	500
196.782	-337
196.850	429
196.919	-59
196.988	1188
197.056	-851
197.125	275
197.194	491
197.262	290
197.331	498
197.400	972
197.468	-888
197.537	379
197.606	-202
197.674	1852
197.743	595
197.812	912
197.880	193
197.949	557
198.017	231
198.086	545
198.155	844
198.223	1337
198.292	551
198.360	337
198.429	-765
198.497	396
198.566	-870
198.635	963
198.703	49
198.772	300
198.840	-67
198.909	102
198.977	228
199.046	-210
199.114	234
199.183	709
199.251	76
199.320	845
199.388	-205
199.457	1199
199.525	85
199.594	63
199.662	331
199.731	-109
199.799	270
199.867	222
199.936	-420
200.004	862
200.073	335
200.141	653
200.210	-687
200.278	461
200.346	682
200.415	1232
200.483	-350
200.552	1182
200.620	902
200.688	318
200.757	-424
200.825	388
200.893	-182
200.962	-126
201.030	-324
201.098	167
201.167	134
201.235	441
201.303	65
201.372	908
201.440	-71
201.508	695
201.577	515
201.645	1610
201.713	483
201.781	811
201.850	1597
201.918	908
201.986	511
202.055	1279
202.123	-76
202.191	319
202.259	584
202.327	-31
202.396	680
202.464	863
202.532	378
202.600	1686
202.669	594
202.737	988
202.805	-332
202.873	1037
202.941	266
203.009	699
203.078	-431
203.146	1308
203.214	-418
203.282	-303
203.350	467
203.418	146
203.487	226
203.555	27
203.623	242
203.691	1111
203.759	-59
203.827	-240
203.895	465
203.963	630
204.031	-61
204.099	-225
204.168	-487
204.236	973
204.304	368
204.372	328
204.440	-50
204.508	844
204.576	-276
204.644	705
204.712	-881
204.780	189
204.848	149
204.916	939
204.984	-59
205.052	551
205.120	608
205.188	712
205.256	-542
205.324	261
205.392	130
205.460	258
205.528	-1001
205.596	657
205.664	653
205.732	-585
205.799	925
205.867	1868
205.935	-557
206.003	417
206.071	-540
206.139	210
206.207	-179
206.275	694
206.343	-280
206.411	297
206.478	416
206.546	663
206.614	-777
206.682	-232
206.750	-657
206.818	178
206.885	990
206.953	-61
207.021	236
207.089	422
207.157	-869
207.225	-37
207.292	-114
207.360	1072
207.428	-54
207.496	125
207.563	44
207.631	400
207.699	-996
207.767	-115
207.834	-410
207.902	125
207.970	102
208.038	498
208.105	608
208.173	509
208.241	-316
208.309	872
208.376	276
208.444	633
208.512	1074
208.579	-139
208.647	602
208.715	1352
208.782	-646
208.850	734
208.918	111
208.985	780
209.053	570
209.120	611
209.188	-405
209.256	948
209.323	474
209.391	-108
209.459	1109
209.526	1037
209.594	201
209.661	-10
209.729	-238
209.796	1165
209.864	521
209.932	-22
209.999	1070
210.067	452
210.134	-67
210.202	299
210.269	613
210.337	2063
210.404	553
210.472	-33
210.539	532
210.607	945
210.674	-173
210.742	1219
210.809	347
210.877	992
210.944	635
211.012	308
211.079	985
211.146	602
211.214	125
211.281	1759
211.349	-229
211.416	947
211.484	275
211.551	478
211.618	607
211.686	1138
211.753	-257
211.821	1529
211.888	176
211.955	565
212.023	-133
212.090	121
212.157	64
212.225	296
212.292	1038
212.359	1132
212.427	4182
212.494	1878
212.561	209
212.629	842
212.696	-153
212.763	741
212.831	-731
212.898	1203
212.965	-152
213.032	502
213.100	110
213.167	474
213.234	849
213.301	687
213.369	-626
213.436	625
213.503	-44
213.570	692
213.638	-143
213.705	732
213.772	-505
213.839	19
213.906	520
213.973	871
214.041	-597
214.108	407
214.175	981
214.242	133
214.309	-229
214.376	713
214.444	-557
214.511	326
214.578	-653
214.645	1551
214.712	891
214.779	468
214.846	-614
214.913	1307
214.980	919
215.048	865
215.115	828
215.182	1639
215.249	103
215.316	-187
215.383	682
215.450	1103
215.517	188
215.584	874
215.651	-360
215.718	743
215.785	-48
215.852	-39
215.919	334
215.986	174
216.053	-128
216.120	221
216.187	145
216.254	738
216.321	65
216.388	375
216.455	-191
216.522	188
216.589	137
216.656	1143
216.722	-22
216.789	530
216.856	-593
216.923	929
216.990	427
217.057	379
217.124	665
217.191	-14
217.258	1256
217.324	1546
217.391	1209
217.458	711
217.525	459
217.592	1148
217.659	-943
217.725	1051
217.792	-382
217.859	1509
217.926	53
217.993	236
218.059	650
218.126	609
218.193	-446
218.260	198
218.327	-680
218.393	728
218.460	103
218.527	427
218.594	-136
218.660	-74
218.727	265
218.794	690
218.860	-255
218.927	600
218.994	743
219.061	260
219.127	20
219.194	239
219.261	342
219.327	921
219.394	602
219.461	-63
219.527	221
219.594	355
219.661	-234
219.727	-279
219.794	153
219.860	-573
219.927	821
219.994	1522
220.060	2142
220.127	2694
220.193	1268
220.260	1137
220.326	553
220.393	2018
220.460	1521
220.526	1254
220.593	-244
220.659	2305
220.726	90
220.792	3074
220.859	1401
220.925	2890
220.992	3000
221.058	4010
221.125	3575
221.191	2717
221.258	268
221.324	944
221.391	-186
221.457	886
221.524	507
221.590	924
221.657	2370
221.723	1872
221.789	1237
221.856	2347
221.922	-682
221.989	1406
222.055	244
222.121	-385
222.188	1778
222.254	851
222.321	222
222.387	739
222.453	458
222.520	342
222.586	-489
222.652	1238
222.719	-978
222.785	564
222.851	-679
222.918	109
222.984	265
223.050	319
223.116	-1464
223.183	706
223.249	-505
223.315	564
223.382	258
223.448	264
223.514	-733
223.580	-152
223.647	-538
223.713	34
223.779	-705
223.845	-68
223.911	1055
223.978	-229
224.044	230
224.110	-731
224.176	204
224.242	34
224.309	-683
224.375	942
224.441	365
224.507	389
224.573	-1085
224.639	732
224.705	-586
224.772	121
224.838	-618
224.904	898
224.970	-265
225.036	-277
225.102	-862
225.168	1186
225.234	13
225.300	253
225.366	-287
225.432	607
225.499	-140
225.565	-7
225.631	-887
225.697	611
225.763	120
225.829	641
225.895	-1049
225.961	339
226.027	63
226.093	260
226.159	935
226.225	1845
226.291	3054
226.357	6851
226.423	3574
226.489	2016
226.554	778
226.620	1166
226.686	-352
226.752	838
226.818	2289
226.884	8855
226.950	8941
227.016	2707
227.082	934
227.148	1156
227.214	461
227.279	1263
227.345	442
227.411	1012
227.477	1946
227.543	5486
227.609	4000
227.674	2463
227.740	470
227.806	97
227.872	-343
227.938	647
228.003	-479
228.069	459
228.135	-190
228.201	711
228.267	-1081
228.332	446
228.398	-1439
228.464	1335
228.530	-163
228.595	448
228.661	-278
228.727	474
228.792	230
228.858	-134
228.924	-1327
228.990	1643
229.055	-1496
229.121	1384
229.187	-12
229.252	92
229.318	184
229.384	784
229.449	416
229.515	-1579
229.581	-1151
229.646	1563
229.712	-552
229.777	557
229.843	-516
229.909	865
229.974	97
230.040	438
230.105	-227
230.171	-198
230.236	1050
230.302	1263
230.368	-491
230.433	280
230.499	404
230.564	1270
230.630	-1113
230.695	577
230.761	74
230.826	-543
230.892	1006
230.957	-420
231.023	-189
231.088	-96
231.154	-349
231.219	867
231.284	-917
231.350	928
231.415	-482
231.481	665
231.546	-520
231.612	794
231.677	-592
231.742	-1181
231.808	815
231.873	241
231.939	-1599
232.004	1898
232.069	795
232.135	-328
232.200	-138
232.265	1129
232.331	-1097
232.396	-99
232.461	-556
232.527	-133
232.592	37
232.657	333
232.723	331
232.788	468
232.853	127
232.918	975
232.984	-534
233.049	307
233.114	-1063
233.179	846
233.245	243
233.310	1188
233.375	-860
233.440	920
233.506	302
233.571	4
233.636	-236
233.701	659
233.766	-291
233.832	1042
233.897	-439
233.962	-1271
234.027	356
234.092	-40
234.157	-1120
234.222	782
234.288	314
234.353	775
234.418	1014
234.483	1317
234.548	252
234.613	723
234.678	-362
234.743	-498
234.808	356
234.873	-408
234.938	414
235.004	1
235.069	-600
235.134	-566
235.199	713
235.264	979
235.329	-1408
235.394	197
235.459	714
235.524	-154
235.589	221
235.654	197
235.719	-1036
235.784	434
235.849	-542
235.913	876
235.978	-409
236.043	238
236.108	-263
236.173	-113
236.238	835
236.303	-443
236.368	-932
236.433	896
236.498	-664
236.563	1303
236.627	2456
236.692	11788
236.757	10462
236.822	3373
236.887	-335
236.952	2233
237.017	-938
237.081	2002
237.146	-88
237.211	4160
237.276	8993
237.341	20125
237.405	6289
237.470	2489
237.535	1045
237.600	1323
237.664	1011
237.729	289
237.794	159
237.859	2988
237.923	761
237.988	124
238.053	874
238.118	1165
238.182	397
238.247	3238
238.312	-1037
238.376	886
238.441	-1073
238.506	1666
238.570	-1319
238.635	1155
238.700	-159
238.764	228
238.829	349
238.893	-743
238.958	704
239.023	309
239.087	190
239.152	1427
239.216	-438
239.281	850
239.346	-106
239.410	440
239.475	-918
239.539	1525
239.604	445
239.668	1873
239.733	-268
239.797	3822
239.862	9655
239.926	7182
239.991	1723
240.055	1523
240.120	311
240.184	1332
240.249	-132
240.313	551
240.378	626
240.442	279
240.507	701
240.571	778
240.635	-479
240.700	963
240.764	41
240.829	651
240.893	-748
240.957	186
241.022	271
241.086	1618
241.151	-621
241.215	-140
241.279	372
241.344	-349
241.408	235
241.472	-445
241.537	873
241.601	704
241.665	-623
241.730	-443
241.794	356
241.858	636
241.922	308
241.987	-131
242.051	-406
242.115	-979
242.179	191
242.244	415
242.308	473
242.372	934
242.436	-724
242.501	919
242.565	-657
242.629	102
242.693	774
242.757	437
242.822	-421
242.886	24
242.950	-146
243.014	-916
243.078	-272
243.142	-239
243.206	-546
243.271	312
243.335	-591
243.399	1142
243.463	2892
243.527	13802
243.591	3570
243.655	1472
243.719	-654
243.783	1416
243.847	637
243.911	1517
243.975	-363
244.040	-895
244.104	1559
244.168	569
244.232	-997
244.296	921
244.360	731
244.424	-1054
244.488	428
244.552	918
244.615	-724
244.679	441
244.743	-226
244.807	-721
244.871	-586
244.935	1006
244.999	-622
245.063	133
245.127	404
245.191	1171
245.255	317
245.319	962
245.383	-1699
245.446	2017
245.510	-968
245.574	-61
245.638	334
245.702	-1111
245.766	358
245.829	1968
245.893	-445
245.957	-500
246.021	814
246.085	292
246.149	12
246.212	1952
246.276	907
246.340	271
246.404	107
246.467	1470
246.531	-2024
246.595	1130
246.659	242
246.722	-681
246.786	748
246.850	43
246.913	384
246.977	-641
247.041	189
247.104	-18
247.168	459
247.232	765
247.295	2380
247.359	1595
247.423	-200
247.486	1032
247.550	604
247.614	643
247.677	-179
247.741	854
247.804	163
247.868	1384
247.932	-27
247.995	3802
248.059	156
248.122	146
248.186	840
248.249	246
248.313	4449
248.376	5978
248.440	1896
248.503	143
248.567	906
248.630	387
248.694	-190
248.757	2181
248.821	5553
248.884	4099
248.948	1301
249.011	4370
249.075	5089
249.138	6841
249.202	1466
249.265	620
249.328	843
249.392	-140
249.455	1084
249.519	1244
249.582	440
249.645	1569
249.709	343
249.772	1291
249.835	284
249.899	1011
249.962	864
250.025	924
250.089	1857
250.152	3502
250.215	774
250.279	516
250.342	580
250.405	468
250.468	668
250.532	1037
250.595	1422
250.658	11276
250.721	25248
250.785	6917
250.848	2748
250.911	926
250.974	1826
251.038	932
251.101	3557
251.164	2008
251.227	1413
251.290	2195
251.354	3447
251.417	18537
251.480	20990
251.543	9649
251.606	36282
251.669	28418
251.732	7216
251.795	6019
251.859	7092
251.922	23038
251.985	12762
252.048	4393
252.111	2479
252.174	1414
252.237	2544
252.300	8169
252.363	7579
252.426	30877
252.489	9471
252.552	3913
252.615	1229
252.678	3795
252.741	5357
252.804	8901
252.867	31459
252.930	14399
252.993	4017
253.056	3159
253.119	1909
253.182	1744
253.245	1224
253.308	2371
253.371	79
253.434	608
253.497	1457
253.559	4111
253.622	1327
253.685	1571
253.748	1187
253.811	214
253.874	980
253.937	789
254.000	364
254.062	1285
254.125	2870
254.188	3335
254.251	1012
254.314	677
254.376	496
254.439	1821
254.502	290
254.565	1294
254.628	3693
254.690	615
254.753	1069
254.816	411
254.878	438
254.941	2081
255.004	1611
255.067	1285
255.129	90
255.192	582
255.255	-1209
255.317	99
255.380	-378
255.443	70
255.505	503
255.568	-228
255.631	199
255.693	444
255.756	-675
255.819	1382
255.881	-259
255.944	271
256.006	-162
256.069	332
256.132	-783
256.194	427
256.257	611
256.319	1067
256.382	360
256.444	1948
256.507	1335
256.569	408
256.632	-196
256.694	634
256.757	3680
256.819	19646
256.882	5392
256.944	1721
257.007	1765
257.069	962
257.132	703
257.194	2238
257.257	-397
257.319	321
257.381	384
257.444	4184
257.506	20474
257.569	24310
257.631	5051
257.693	3027
257.756	875
257.818	316
257.880	-200
257.943	1749
258.005	-168
258.067	538
258.130	628
258.192	671
258.254	-76
258.317	408
258.379	563
258.441	813
258.503	1530
258.566	1500
258.628	2049
258.690	-173
258.753	1030
258.815	1184
258.877	-647
258.939	477
259.001	1165
259.064	1006
259.126	263
259.188	138
259.250	-667
259.312	581
259.375	526
259.437	841
259.499	-39
259.561	692
259.623	400
259.685	503
259.747	316
259.809	1586
259.872	1994
259.934	5490
259.996	4992
260.058	1806
260.120	-546
260.182	796
260.244	-468
260.306	44
260.368	1155
260.430	-14
260.492	724
260.554	2716
260.616	559
260.678	1761
260.740	2814
260.802	287
260.864	548
260.926	-719
260.988	819
261.050	551
261.112	1626
261.174	5617
261.236	2905
261.298	287
261.359	828
261.421	1827
261.483	-348
261.545	1541
261.607	-1382
261.669	1089
261.731	-567
261.793	1223
261.854	-348
261.916	446
261.978	-11
262.040	1260
262.102	836
262.164	1373
262.225	537
262.287	1738
262.349	-290
262.411	272
262.472	1317
262.534	219
262.596	724
262.658	1116
262.719	-755
262.781	999
262.843	411
262.904	2280
262.966	1121
263.028	1958
263.090	4388
263.151	14854
263.213	4765
263.275	1750
263.336	688
263.398	1819
263.459	-376
263.521	1075
263.583	1215
263.644	887
263.706	-109
263.767	574
263.829	327
263.891	96
263.952	-112
264.014	132
264.075	-240
264.137	2824
264.198	975
264.260	364
264.321	504
264.383	1222
264.444	3666
264.506	1656
264.567	551
264.629	2041
264.690	2946
264.752	1681
264.813	186
264.875	-84
264.936	1104
264.998	526
265.059	384
265.120	1444
265.182	764
265.243	7686
265.305	9652
265.366	2014
265.427	630
265.489	1959
265.550	-1039
265.611	827
265.673	16
265.734	618
265.795	66
265.857	323
265.918	-559
265.979	2524
266.040	13490
266.102	14043
266.163	2525
266.224	1841
266.286	1265
266.347	459
266.408	680
266.469	345
266.530	272
266.592	529
266.653	726
266.714	729
266.775	1010
266.836	1714
266.898	-155
266.959	1094
267.020	729
267.081	1886
267.142	945
267.203	326
267.264	199
267.326	2291
267.387	869
267.448	1409
267.509	-13
267.570	918
267.631	408
267.692	805
267.753	271
267.814	-821
267.875	309
267.936	1364
267.997	549
268.058	676
268.119	-119
268.180	603
268.241	-368
268.302	873
268.363	103
268.424	850
268.485	389
268.546	288
268.607	-231
268.668	605
268.729	-1075
268.790	445
268.851	312
268.912	658
268.972	301
269.033	-75
269.094	-1377
269.155	770
269.216	276
269.277	310
269.338	174
269.398	64
269.459	-1069
269.520	35
269.581	448
269.642	867
269.702	-778
269.763	583
269.824	208
269.885	514
269.945	35
270.006	575
270.067	89
270.128	41
270.188	-175
270.249	270
270.310	-530
270.370	254
270.431	-613
270.492	-302
270.553	1
270.613	1226
270.674	1362
270.734	391
270.795	-547
270.856	422
270.916	-318
270.977	929
271.038	399
271.098	238
271.159	-77
271.219	-137
271.280	232
271.340	-172
271.401	-439
271.462	1055
271.522	-122
271.583	226
271.643	355
271.704	230
271.764	561
271.825	1069
271.885	2997
271.946	8334
272.006	2006
272.066	2783
272.127	6685
272.187	5325
272.248	2703
272.308	731
272.369	3865
272.429	2553
272.489	1370
272.550	1225
272.610	1094
272.671	1134
272.731	214
272.791	1386
272.852	316
272.912	1182
272.972	430
273.033	1743
273.093	1021
273.153	2009
273.214	1093
273.274	2342
273.334	3893
273.394	7979
273.455	3047
273.515	3694
273.575	5018
273.635	4189
273.696	4592
273.756	8131
273.816	4869
273.876	3463
273.936	2501
273.997	4417
274.057	1515
274.117	1089
274.177	1182
274.237	5487
274.297	5566
274.358	2488
274.418	2589
274.478	3422
274.538	460
274.598	-30
274.658	1588
274.718	2105
274.778	147
274.838	596
274.898	55
274.958	2909
275.018	3918
275.078	3356
275.138	868
275.198	1288
275.258	492
275.318	727
275.378	474
275.438	1025
275.498	-81
275.558	1707
275.618	3213
275.678	3671
275.738	872
275.798	1625
275.858	22
275.918	94
275.978	-12
276.038	1696
276.098	623
276.157	927
276.217	1544
276.277	1299
276.337	764
276.397	1258
276.457	1019
276.517	791
276.576	224
276.636	586
276.696	12
276.756	1694
276.815	1130
276.875	1258
276.935	656
276.995	1263
277.055	1733
277.114	1551
277.174	1139
277.234	1877
277.293	1559
277.353	947
277.413	767
277.472	1120
277.532	1152
277.592	2965
277.651	11593
277.711	28975
277.771	7986
277.830	25478
277.890	23988
277.950	15264
278.009	47115
278.069	20679
278.128	18268
278.188	30199
278.248	11508
278.307	30800
278.367	20419
278.426	5822
278.486	3452
278.545	2861
278.605	1894
278.664	1791
278.724	1208
278.783	3216
278.843	7053
278.902	3593
278.962	2105
279.021	3492
279.081	5885
279.140	7970
279.199	3627
279.259	4267
279.318	5541
279.378	7890
279.437	12008
279.496	35003
279.556	135089
279.615	128795
279.675	36320
279.734	17903
279.793	16352
279.853	21499
279.912	9188
279.971	7440
280.031	6347
280.090	9751
280.149	13184
280.208	18248
280.268	90267
280.327	110228
280.386	27732
280.445	13440
280.505	8377
280.564	6371
280.623	3829
280.682	4354
280.742	4771
280.801	3471
280.860	1563
280.919	1910
280.978	1587
281.037	1813
281.097	2019
281.156	2742
281.215	1705
281.274	1285
281.333	3516
281.392	4150
281.451	1280
281.510	1312
281.569	944
281.628	1311
281.688	1528
281.747	1884
281.806	1435
281.865	1930
281.924	913
281.983	1410
282.042	108
282.101	1421
282.160	1645
282.219	1350
282.278	700
282.337	1853
282.396	1279
282.454	1192
282.513	722
282.572	2081
282.631	1452
282.690	1220
282.749	-339
282.808	1381
282.867	948
282.926	2070
282.985	474
283.043	159
283.102	1062
283.161	1457
283.220	2031
283.279	4612
283.338	2268
283.396	1201
283.455	1531
283.514	2755
283.573	1939
283.631	1453
283.690	1647
283.749	2455
283.808	2681
283.866	3377
283.925	1896
283.984	2421
284.043	1966
284.101	3150
284.160	2604
284.219	4338
284.277	4539
284.336	3772
284.395	5506
284.453	7346
284.512	5302
284.570	7481
284.629	7797
284.688	11141
284.746	12115
284.805	14838
284.863	20074
284.922	25981
284.981	30062
285.039	41061
285.098	60258
285.156	92841
285.215	89635
285.273	78419
285.332	92707
285.390	71985
285.449	47449
285.507	35305
285.566	26177
285.624	20583
285.683	16082
285.741	12850
285.799	11054
285.858	9172
285.916	7879
285.975	6428
286.033	4960
286.091	5044
286.150	4313
286.208	4679
286.267	4106
286.325	3454
286.383	2911
286.442	3504
286.500	1912
286.558	2804
286.616	1506
286.675	2889
286.733	1858
286.791	1929
286.850	1868
286.908	2345
286.966	2553
287.024	1942
287.083	1189
287.141	1433
287.199	2265
287.257	2453
287.315	1120
287.374	954
287.432	1173
287.490	1554
287.548	100
287.606	1810
287.664	1642
287.723	1923
287.781	1522
287.839	1640
287.897	1470
287.955	2770
288.013	2904
288.071	6200
288.129	20851
288.187	83592
288.245	36396
288.303	9765
288.361	5186
288.419	3803
288.477	1963
288.535	2485
288.593	2163
288.651	1834
288.709	652
288.767	969
288.825	60
288.883	-60
288.941	426
288.999	684
289.057	936
289.115	659
289.173	393
289.231	1397
289.289	492
289.346	437
289.404	679
289.462	841
289.520	-140
289.578	1375
289.636	726
289.694	770
289.751	70
289.809	988
289.867	14
289.925	1202
289.983	1081
290.040	411
290.098	372
290.156	385
290.214	-129
290.271	-275
290.329	1208
290.387	1356
290.444	345
290.502	1012
290.560	423
290.617	191
290.675	524
290.733	868
290.790	325
290.848	839
290.906	5
290.963	917
291.021	585
291.078	343
291.136	80
291.194	1071
291.251	3655
291.309	1422
291.366	798
291.424	419
291.481	188
291.539	1088
291.596	2197
291.654	66
291.711	826
291.769	1517
291.826	351
291.884	1155
291.941	24
291.999	664
292.056	274
292.114	270
292.171	545
292.228	973
292.286	332
292.343	237
292.401	193
292.458	1175
292.515	-194
292.573	1175
292.630	539
292.687	103
292.745	518
292.802	895
292.859	2770
292.917	4203
292.974	1816
293.031	1365
293.089	607
293.146	382
293.203	333
293.260	644
293.318	511
293.375	1639
293.432	333
293.489	1202
293.546	-406
293.604	1667
293.661	3882
293.718	9130
293.775	3993
293.832	3395
293.889	3982
293.947	2832
294.004	981
294.061	1921
294.118	1389
294.175	5466
294.232	9829
294.289	5084
294.346	1556
294.403	1861
294.460	1254
294.517	1120
294.574	863
294.631	1085
294.688	99
294.745	1792
294.802	6613
294.859	10881
294.916	3136
294.973	1133
295.030	574
295.087	890
295.144	782
295.201	304
295.258	632
295.315	10
295.372	1985
295.429	4566
295.486	1918
295.542	1660
295.599	3212
295.656	8891
295.713	3642
295.770	4279
295.827	1498
295.883	1610
295.940	299
295.997	594
296.054	496
296.111	1133
296.167	876
296.224	435
296.281	389
296.338	721
296.394	-47
296.451	29
296.508	690
296.564	3167
296.621	2175
296.678	5483
296.734	8198
296.791	2916
296.848	558
296.904	1094
296.961	1554
297.018	4990
297.074	3649
297.131	1085
297.187	488
297.244	1511
297.301	4338
297.357	11345
297.414	3336
297.470	1936
297.527	702
297.583	1244
297.640	804
297.696	1095
297.753	-85
297.809	261
297.866	-1018
297.922	784
297.979	-413
298.035	128
298.092	657
298.148	1925
298.204	2358
298.261	1057
298.317	1545
298.374	7190
298.430	4148
298.486	1857
298.543	699
298.599	1302
298.656	395
298.712	1999
298.768	4025
298.824	5003
298.881	1252
298.937	930
298.993	591
299.050	-378
299.106	-5
299.162	824
299.218	32
299.275	603
299.331	133
299.387	2155
299.443	6890
299.500	16339
299.556	11386
299.612	4369
299.668	3651
299.724	10259
299.780	14091
299.837	5351
299.893	2540
299.949	8809
300.005	14193
300.061	10737
300.117	19803
300.173	9484
300.229	2908
300.285	2813
300.341	2173
300.397	2512
300.453	1068
300.510	1781
300.566	1367
300.622	3728
300.678	15549
300.734	23873
300.790	11131
300.845	8606
300.901	9288
300.957	16292
301.013	8072
301.069	2671
301.125	1323
301.181	1919
301.237	1730
301.293	1000
301.349	648
301.405	484
301.461	195
301.516	719
301.572	-283
301.628	1155
301.684	703
301.740	1433
301.796	1783
301.851	1137
301.907	1744
301.963	1907
302.019	3851
302.074	15802
302.130	17131
302.186	7480
302.242	3034
302.297	1612
302.353	1273
302.409	2088
302.464	2367
302.520	1546
302.576	3865
302.631	6023
302.687	1957
302.743	1682
302.798	537
302.854	1315
302.910	386
302.965	1799
303.021	1040
303.076	1745
303.132	1109
303.187	1935
303.243	258
303.299	867
303.354	364
303.410	1966
303.465	48
303.521	942
303.576	253
303.632	893
303.687	1087
303.743	5348
303.798	4483
303.853	1737
303.909	431
303.964	986
304.020	946
304.075	1715
304.130	282
304.186	897
304.241	2237
304.297	1628
304.352	492
304.358	597
304.407	1449
304.449	763
304.463	531
304.518	615
304.539	462
304.573	213
304.629	5
304.630	28
304.684	1096
304.720	2449
304.739	3119
304.794	6137
304.811	5321
304.850	3353
304.902	1368
304.905	1240
304.960	1391
304.992	688
305.015	187
305.071	1497
305.083	1205
305.126	110
305.173	885
305.181	1029
305.236	-267
305.264	257
305.292	749
305.347	1186
305.354	1219
305.402	1515
305.445	1313
305.457	1214
305.512	1182
305.535	1101
305.567	1056
305.622	774
305.626	808
305.678	1582
305.716	3472
305.733	4183
305.788	5132
305.807	4537
305.843	3578
305.897	5020
305.898	5034
305.953	5937
305.988	3619
306.008	2344
306.063	1750
306.078	1572
306.118	1140
306.168	1570
306.173	1624
306.228	284
306.259	836
306.283	1191
306.338	178
306.349	318
306.393	973
306.440	1335
306.448	1401
306.503	1587
306.530	1297
306.558	1164
306.613	2826
306.620	2947
306.668	3417
306.711	3903
306.723	3947
306.778	2523
306.801	2311
306.833	2145
306.888	540
306.892	585
306.943	1272
306.982	702
306.997	516
307.052	636
307.072	664
307.107	904
307.162	1616
307.163	1624
307.217	2306
307.253	2710
307.272	2864
307.327	2962
307.343	2795
307.381	2309
307.434	1903
307.436	1936
307.491	3622
307.524	4637
307.546	4721
307.600	4410
307.614	3828
307.655	2177
307.704	2289
307.710	2399
307.765	2090
307.795	2730
307.819	3335
307.874	5415
307.885	5525
307.929	4981
307.975	4196
307.984	4315
308.038	6257
308.065	7206
308.093	13023
308.148	28951
308.156	33077
308.202	52847
308.246	65813
308.257	64455
308.312	31187
308.336	19315
308.366	13011
308.421	6797
308.426	6448
308.475	4964
308.517	4181
308.530	3996
308.585	4048
308.607	3969
308.639	3934
308.694	4743
308.697	4757
308.748	6202
308.787	8579
308.803	8720
308.857	6774
308.877	6143
308.912	6151
308.967	6548
308.967	6576
309.021	11824
309.058	16150
309.076	19101
309.130	30309
309.148	33650
309.185	57012
309.238	97716
309.239	98023
309.293	113555
309.328	108494
309.348	95611
309.402	47984
309.418	36116
309.457	25852
309.508	17541
309.511	17517
309.566	21356
309.598	24686
309.620	32269
309.674	56449
309.688	62919
309.729	59588
309.778	44864
309.783	43450
309.837	25282
309.868	16506
309.892	13975
309.946	10202
309.959	9714
310.001	9088
310.049	8182
310.055	7917
310.109	5944
310.139	4649
310.163	3931
310.218	3072
310.229	2895
310.272	3059
310.319	3433
310.326	3357
310.381	2393
310.409	2181
310.435	2195
310.489	1931
310.499	1963
310.543	2196
310.589	1979
310.598	1961
310.652	2307
310.679	2338
310.706	2083
310.760	1735
310.769	1643
310.814	1891
310.859	2297
310.868	2241
310.923	1751
310.948	1613
310.977	1697
311.031	1749
311.038	1759
311.085	1474
311.128	1152
311.139	1205
311.193	1621
311.218	1683
311.247	1859
311.301	2472
311.308	2516
311.356	1873
311.398	1383
311.410	1431
311.464	1512
311.488	1613
311.518	1495
311.572	1223
311.578	1192
311.626	1340
311.668	1461
311.680	1489
311.734	1597
311.758	1632
311.788	1702
311.842	1893
311.847	1908
311.896	2029
311.937	2171
311.950	2140
312.004	1967
312.027	1909
312.058	1753
312.112	1460
312.117	1431
312.165	1544
312.207	1642
312.297	1747
312.386	1811
312.476	1731
312.566	2309
312.656	1635
312.745	1263
312.835	2079
312.925	2376
313.015	1481
313.104	2001
313.194	2444
313.284	1486
313.374	1733
313.463	2610
313.553	2523
313.643	1709
313.732	2534
313.822	2649
313.912	3254
314.001	2622
314.091	3096
314.180	3300
314.270	3094
314.360	2666
314.449	3106
314.539	2032
314.628	2857
314.718	2640
314.808	3459
314.897	2787
314.987	3809
315.076	3416
315.166	3779
315.255	3309
315.345	3519
315.434	3406
315.524	3442
315.613	3122
315.703	5059
315.792	17164
315.881	59826
315.971	14280
316.060	5760
316.150	5448
316.239	4733
316.328	2416
316.418	3153
316.507	2646
316.597	3828
316.686	4076
316.775	3498
316.865	5284
316.954	2656
317.043	3181
317.133	2487
317.222	2446
317.311	1956
317.400	1485
317.490	4222
317.579	2291
317.668	3748
317.757	7962
317.847	28997
317.936	94727
318.025	22379
318.114	19536
318.203	7774
318.293	3994
318.382	6298
318.471	5475
318.560	7333
318.649	13895
318.738	4037
318.828	2210
318.917	2341
319.006	2849
319.095	5296
319.184	16036
319.273	6454
319.362	2290
319.451	1605
319.540	1911
319.629	2074
319.718	2216
319.807	3209
319.896	5527
319.985	20734
320.074	5103
320.163	2600
320.252	2253
320.341	3243
320.430	2597
320.519	2318
320.608	2631
320.697	3359
320.786	3165
320.875	3799
320.964	4682
321.053	4249
321.142	5351
321.230	5262
321.319	6608
321.408	9280
321.497	7731
321.586	6025
321.675	5615
321.764	5803
321.852	4113
321.941	4963
322.030	4536
322.119	4854
322.207	7973
322.296	10317
322.385	9135
322.474	10454
322.562	12096
322.651	9019
322.740	5635
322.829	6575
322.917	6777
323.006	3837
323.095	3470
323.183	3277
323.272	3785
323.361	7352
323.449	19021
323.538	6674
323.626	12011
323.715	6949
323.804	3304
323.892	10457
323.981	4463
324.069	3290
324.158	6752
324.246	6166
324.335	2757
324.424	1710
324.512	2341
324.601	2935
324.689	3505
324.778	5398
324.866	3974
324.954	1959
325.043	1815
325.131	2245
325.220	5380
325.308	3851
325.397	3340
325.485	2770
325.574	1665
325.662	1645
325.750	918
325.839	1641
325.927	1244
326.015	1347
326.104	2547
326.192	2454
326.280	1787
326.369	1825
326.457	1655
326.545	2051
326.634	1799
326.722	1844
326.810	1953
326.898	2017
326.987	1787
327.075	1730
327.163	3575
327.251	1767
327.340	3309
327.428	4819
327.516	3652
327.604	2582
327.692	1954
327.781	2179
327.869	2439
327.957	1990
328.045	846
328.133	1803
328.221	1510
328.309	1509
328.397	1683
328.485	2345
328.574	3426
328.662	5308
328.750	2746
328.838	1591
328.926	1623
329.014	882
329.102	1444
329.190	3289
329.278	2395
329.366	1677
329.454	1477
329.542	2008
329.630	967
329.718	998
329.806	1103
329.893	2225
329.981	1089
330.069	1035
330.157	1164
330.245	2570
330.333	1590
330.421	1450
330.509	1063
330.597	2952
330.684	1215
330.772	1664
330.860	2477
330.948	3627
331.036	1339
331.123	457
331.211	2135
331.299	2084
331.387	1940
331.475	4116
331.562	2312
331.650	1958
331.738	1179
331.825	2589
331.913	1299
332.001	2235
332.089	1853
332.176	2434
332.264	5337
332.352	4015
332.439	2827
332.527	1561
332.614	1623
332.702	2374
332.790	2201
332.877	3833
332.965	9595
333.052	5503
333.140	6724
333.228	18372
333.315	4131
333.403	3202
333.490	5234
333.578	8371
333.665	27289
333.753	9368
333.840	2659
333.928	3175
334.015	4846
334.103	8918
334.190	24288
334.278	9449
334.365	10779
334.452	12119
334.540	6174
334.627	5734
334.715	6772
334.802	12741
334.889	37433
334.977	46937
335.064	19797
335.151	7410
335.239	5090
335.326	4675
335.413	14082
335.501	16665
335.588	4909
335.675	4271
335.762	5728
335.850	9049
335.937	11936
336.024	23880
336.111	57573
336.199	43254
336.286	15713
336.373	7994
336.460	4911
336.547	4170
336.635	3865
336.722	3298
336.809	2761
336.896	2594
336.983	6092
337.070	14864
337.157	23957
337.245	16809
337.332	10208
337.419	3108
337.506	1972
337.593	2578
337.680	5295
337.767	14107
337.854	3399
337.941	4529
338.028	4632
338.115	1997
338.202	3343
338.289	5326
338.376	12767
338.463	5068
338.550	8821
338.637	9136
338.724	3205
338.811	4576
338.898	1824
338.984	1696
339.071	1787
339.158	2230
339.245	2478
339.332	2300
339.419	3753
339.506	3147
339.593	525
339.679	1756
339.766	1163
339.853	2029
339.940	2145
340.027	1483
340.113	1868
340.200	1091
340.287	626
340.374	1422
340.460	1343
340.547	1192
340.634	1647
340.720	2732
340.807	1620
340.894	1826
340.980	1265
341.067	1335
341.154	1964
341.240	1102
341.327	1191
341.414	1790
341.500	627
341.587	1234
341.674	1726
341.760	1689
341.847	1321
341.933	1761
342.020	473
342.106	1647
342.193	1485
342.279	1289
342.366	1398
342.452	1931
342.539	637
342.625	1594
342.712	3602
342.798	1740
342.885	1081
342.971	1196
343.058	670
343.144	978
343.230	1688
343.317	497
343.403	1099
343.490	994
343.576	1314
343.662	1249
343.749	1179
343.835	1316
343.921	2404
344.008	11727
344.094	20760
344.180	4781
344.267	1485
344.353	4769
344.439	4484
344.525	2495
344.612	2429
344.698	2196
344.784	917
344.870	1693
344.957	1024
345.043	2052
345.129	1180
345.215	1812
345.301	1723
345.387	1553
345.474	1257
345.560	1655
345.646	1023
345.732	1085
345.818	803
345.904	1493
345.990	1550
346.076	1700
346.162	1470
346.249	1606
346.335	1523
346.421	2059
346.507	2532
346.593	6229
346.679	1628
346.765	3345
346.851	2570
346.937	1984
347.023	1883
347.108	1887
347.194	985
347.280	1570
347.366	2051
347.452	8151
347.538	11588
347.624	6753
347.710	4576
347.796	2119
347.882	1717
347.967	1300
348.053	1281
348.139	1313
348.225	953
348.311	898
348.397	924
348.482	2087
348.568	1475
348.654	3322
348.740	9861
348.825	8603
348.911	3526
348.997	5082
349.083	8589
349.168	1486
349.254	1566
349.340	1745
349.425	1114
349.511	2339
349.597	1051
349.682	1910
349.768	4082
349.854	2419
349.939	1552
350.025	1649
350.110	1631
350.196	1396
350.282	343
350.367	2207
350.453	1551
350.538	2127
350.624	634
350.709	1399
350.795	426
350.880	164
350.966	2536
351.051	2005
351.137	1580
351.222	1709
351.308	2330
351.393	3240
351.479	584
351.564	575
351.649	857
351.735	1245
351.820	1592
351.906	1344
351.991	1184
352.076	2197
352.162	3028
352.247	1375
352.332	1209
352.418	365
352.503	1527
352.588	4269
352.673	2527
352.759	1147
352.844	449
352.929	1780
353.014	194
353.100	2012
353.185	2033
353.270	1329
353.355	2399
353.441	1866
353.526	1241
353.611	2272
353.696	209
353.781	2068
353.866	1133
353.952	2278
354.037	630
354.122	2110
354.207	1402
354.292	1758
354.377	1102
354.462	1573
354.547	768
354.632	2699
354.717	2314
354.802	848
354.887	1829
354.972	1916
355.057	1143
355.142	1722
355.227	1585
355.312	1614
355.397	1246
355.482	2716
355.567	2205
355.652	1938
355.737	2315
355.822	5044
355.907	3346
355.991	2296
356.076	760
356.161	1597
356.246	1778
356.331	1824
356.416	2044
356.501	11088
356.585	8959
356.670	1289
356.755	3554
356.840	2515
356.924	7789
357.009	24100
357.094	8239
357.179	2546
357.263	2068
357.348	3146
357.433	1779
357.517	2421
357.602	1657
357.687	1404
357.771	2854
357.856	5418
357.941	3254
358.025	8910
358.110	32350
358.195	12255
358.279	1925
358.364	2093
358.448	3795
358.533	7016
358.617	4252
358.702	5837
358.787	2286
358.871	1717
358.956	1722
359.040	2086
359.125	1766
359.209	2568
359.294	2783
359.378	5058
359.462	3243
359.547	2400
359.631	1793
359.716	870
359.800	1202
359.885	3025
359.969	1248
360.053	2342
360.138	1707
360.222	1428
360.306	1834
360.391	2102
360.475	2681
360.559	3647
360.644	3566
360.728	1626
360.812	5871
360.896	14505
360.981	5477
361.065	2757
361.149	2805
361.233	1829
361.318	2177
361.402	2384
361.486	2969
361.570	1686
361.654	2144
361.739	2689
361.823	10100
361.907	15291
361.991	3606
362.075	3379
362.159	3724
362.243	9798
362.327	24861
362.411	44516
362.495	15016
362.580	5952
362.664	5014
362.748	5936
362.832	8845
362.916	19687
363.000	69252
363.084	113715
363.168	48032
363.252	11250
363.336	6540
363.420	6886
363.503	18350
363.587	20329
363.671	4858
363.755	3346
363.839	5199
363.923	3310
364.007	5733
364.091	7617
364.175	14352
364.258	48109
364.342	81808
364.426	165798
364.510	82620
364.594	21699
364.677	10633
364.761	15172
364.845	10336
364.929	3881
365.013	2759
365.096	2587
365.180	2879
365.264	8483
365.347	29460
365.431	10518
365.515	2632
365.598	1503
365.682	3434
365.766	3139
365.849	3307
365.933	1941
366.017	3892
366.100	1685
366.184	907
366.267	3573
366.351	1985
366.435	1952
366.518	1467
366.602	2159
366.685	1953
366.769	2091
366.852	2953
366.936	3564
367.019	2540
367.103	1615
367.186	4511
367.270	1978
367.353	909
367.436	3256
367.520	2148
367.603	2406
367.687	1822
367.770	2440
367.853	3003
367.937	5367
368.020	6030
368.104	1354
368.187	3022
368.270	2432
368.353	2132
368.437	3691
368.520	9405
368.603	4495
368.687	2332
368.770	5476
368.853	2743
368.936	2725
369.020	3263
369.103	1919
369.186	626
369.269	980
369.352	2600
369.436	1706
369.519	1868
369.602	291
369.685	3473
369.768	1126
369.851	1794
369.934	1508
370.018	933
370.101	733
370.184	4454
370.267	2872
370.350	2095
370.433	3734
370.516	11377
370.599	32168
370.682	9932
370.765	4974
370.848	5279
370.931	6569
371.014	5563
371.097	1106
371.180	3341
371.263	2853
371.346	252
371.429	2988
371.511	2325
371.594	1489
371.677	3789
371.760	5598
371.843	4395
371.926	13990
372.009	27326
372.091	12732
372.174	5688
372.257	12117
372.340	5631
372.423	5998
372.505	7410
372.588	4108
372.671	4825
372.754	7234
372.836	5283
372.919	8268
373.002	13902
373.085	4109
373.167	3872
373.250	4338
373.332	9446
373.415	16982
373.498	34467
373.580	17346
373.663	51102
373.746	48860
373.828	7388
373.911	4340
373.993	4564
374.076	13282
374.159	11851
374.241	3879
374.324	6223
374.406	5922
374.489	9705
374.571	23071
374.654	8817
374.736	6118
374.819	13994
374.901	24155
374.983	22390
375.066	5691
375.148	4703
375.231	13567
375.313	22263
375.395	7207
375.478	3514
375.560	3900
375.643	3798
375.725	6393
375.807	17690
375.890	16919
375.972	6873
376.054	5022
376.136	8153
376.219	3532
376.301	5900
376.383	11509
376.465	5411
376.548	2504
376.630	3299
376.712	9817
376.794	4594
376.877	1668
376.959	786
377.041	2524
377.123	2768
377.205	3729
377.287	971
377.369	2696
377.452	2047
377.534	1652
377.616	1716
377.698	1670
377.780	1290
377.862	1821
377.944	2894
378.026	620
378.108	2414
378.190	1879
378.272	2751
378.354	1423
378.436	704
378.518	2065
378.600	4068
378.682	4104
378.764	3325
378.846	3061
378.928	1820
379.010	1350
379.091	2121
379.173	2495
379.255	1086
379.337	2014
379.419	2098
379.501	6256
379.583	2148
379.664	2250
379.746	1422
379.828	5473
379.910	4101
379.991	4260
380.073	1269
380.155	1926
380.237	1993
380.318	1983
380.400	1045
380.482	3003
380.564	2486
380.645	1872
380.727	2458
380.809	3322
380.890	1592
380.972	644
381.053	2290
381.135	3504
381.217	2421
381.298	6083
381.380	3272
381.461	4091
381.543	10304
381.624	11848
381.706	3875
381.787	3937
381.869	4280
381.951	8722
382.032	26291
382.113	17547
382.195	4685
382.276	7203
382.358	6071
382.439	12402
382.521	16935
382.602	25871
382.684	16578
382.765	27701
382.846	83026
382.928	205611
383.009	104431
383.090	73262
383.172	269240
383.253	364031
383.334	97939
383.416	36653
383.497	25398
383.578	27140
383.659	59224
383.741	226100
383.822	502540
383.903	234318
383.984	49803
384.066	30549
384.147	17432
384.228	10926
384.309	8856
384.390	8267
384.471	7496
384.553	6673
384.634	6189
384.715	7006
384.796	5802
384.877	6009
384.958	8443
385.039	6881
385.120	4775
385.201	5476
385.282	4843
385.363	7128
385.444	7229
385.525	7259
385.606	10806
385.687	9057
385.768	6251
385.849	5036
385.930	14810
386.011	22606
386.092	7911
386.173	5522
386.254	4656
386.335	5224
386.416	3900
386.496	4837
386.577	5379
386.658	4757
386.739	3239
386.820	5044
386.901	3298
386.981	5936
387.062	6156
387.143	7496
387.224	7953
387.304	10023
387.385	8148
387.466	6499
387.547	8706
387.627	7751
387.708	8635
387.789	12866
387.869	11265
387.950	7169
388.031	5602
388.111	2882
388.192	7508
388.273	9348
388.353	5997
388.434	4144
388.514	4328
388.595	11352
388.676	10843
388.756	5922
388.837	4966
388.917	3317
388.998	1745
389.078	3628
389.159	2790
389.239	1439
389.320	4651
389.400	1288
389.480	4618
389.561	4919
389.641	5550
389.722	3385
389.802	2258
389.883	4018
389.963	6767
390.043	5263
390.124	2415
390.204	3269
390.284	5520
390.365	3728
390.445	8779
390.525	17863
390.605	12650
390.686	2983
390.766	3757
390.846	3997
390.927	2025
391.007	2169
391.087	3905
391.167	3061
391.247	1807
391.328	4603
391.408	5482
391.488	4750
391.568	2323
391.648	2635
391.728	4456
391.808	4858
391.888	3985
391.969	5909
392.049	6391
392.129	6640
392.209	6814
392.289	11002
392.369	8570
392.449	11191
392.529	9510
392.609	10368
392.689	11620
392.769	16427
392.849	18474
392.929	24803
393.009	35568
393.089	47441
393.169	95061
393.248	274948
393.328	682392
393.408	664082
393.488	251194
393.568	87950
393.648	43488
393.728	26532
393.807	17655
393.887	16482
393.967	13199
394.047	11058
394.127	9444
394.206	11534
394.286	30528
394.366	129521
394.446	124237
394.525	22862
394.605	8254
394.685	7400
394.764	10993
394.844	20450
394.924	18874
395.003	6497
395.083	4861
395.163	5068
395.242	4338
395.322	4905
395.402	2982
395.481	7133
395.561	9295
395.640	27883
395.720	40635
395.799	29032
395.879	16602
395.958	11424
396.038	40824
396.117	165674
396.197	161397
396.276	37657
396.356	15901
396.435	17156
396.515	21349
396.594	31355
396.673	73704
396.753	258685
396.832	600841
396.912	407935
396.991	107647
397.070	40643
397.150	21040
397.229	18400
397.308	31338
397.388	56644
397.467	24802
397.546	9570
397.625	4357
397.705	7402
397.784	5590
397.863	4547
397.942	3567
398.022	4740
398.101	7067
398.180	15690
398.259	8224
398.338	4319
398.417	2300
398.497	2165
398.576	3192
398.655	1638
398.734	2006
398.813	2505
398.892	6161
398.971	17004
399.050	7135
399.129	1611
399.208	2246
399.287	2429
399.366	1513
399.445	1521
399.524	1644
399.603	-389
399.682	2193
399.761	4683
399.840	18656
399.919	13756
399.998	2232
400.077	253
400.156	288
400.235	3886
400.313	367
400.392	261
400.471	3007
400.550	4202
400.629	-87
400.708	1527
400.786	120
400.865	2495
400.944	2274
401.023	3667
401.102	-260
401.180	1116
401.259	1031
401.338	861
401.416	1622
401.495	-56
401.574	2239
401.652	684
401.731	2009
401.810	212
401.888	512
401.967	227
402.046	288
402.124	1070
402.203	135
402.281	1490
402.360	472
402.438	2991
402.517	1112
402.596	1483
402.674	1265
402.753	642
402.831	1289
402.910	2049
402.988	1188
403.066	3584
403.145	3508
403.223	2604
403.302	2454
403.380	3157
403.459	3103
403.537	1436
403.615	666
403.694	7
403.772	2246
403.850	1001
403.929	-104
404.007	475
404.085	2896
404.164	899
404.242	1486
404.320	3830
404.398	9076
404.477	7797
404.555	12814
404.633	10629
404.711	7402
404.789	4416
404.868	335
404.946	215
405.024	198
405.102	-132
405.180	409
405.258	-531
405.336	937
405.415	-503
405.493	656
405.571	1362
405.649	-165
405.727	42
405.805	2441
405.883	2304
405.961	2397
406.039	1135
406.117	537
406.195	1344
406.273	1060
406.351	7998
406.429	5369
406.507	811
406.585	-8
406.663	592
406.740	110
406.818	-24
406.896	-132
406.974	1294
407.052	-665
407.130	4039
407.208	5021
407.285	1738
407.363	-102
407.441	525
407.519	435
407.596	986
407.674	2415
407.752	10945
407.830	8287
407.907	1776
407.985	167
408.063	1172
408.141	687
408.218	1880
408.296	468
408.373	554
408.451	1215
408.529	937
408.606	992
408.684	1571
408.762	643
408.839	478
408.917	1471
408.994	1242
409.072	569
409.149	2401
409.227	6161
409.304	9309
409.382	8332
409.459	10169
409.537	14943
409.614	12058
409.692	7088
409.769	8758
409.846	15777
409.924	20330
410.001	10090
410.079	6556
410.156	5047
410.233	3464
410.311	3052
410.388	1955
410.465	2728
410.543	1865
410.620	1772
410.697	2360
410.775	1169
410.852	1289
410.929	3069
411.006	2897
411.083	1971
411.161	1985
411.238	2520
411.315	1639
411.392	401
411.469	2100
411.547	1677
411.624	-1253
411.701	810
411.778	1402
411.855	901
411.932	531
412.009	486
412.086	-299
412.163	1106
412.240	426
412.317	1555
412.394	1213
412.471	946
412.548	582
412.625	693
412.702	405
412.779	800
412.856	643
412.933	-23
413.010	931
413.087	234
413.164	599
413.241	1990
413.318	309
413.395	1454
413.471	778
413.548	200
413.625	980
413.702	-278
413.779	109
413.855	779
413.932	469
414.009	-702
414.086	692
414.162	-36
414.239	1036
414.316	1552
414.393	3040
414.469	-148
414.546	-271
414.623	558
414.699	-186
414.776	-111
414.853	-61
414.929	241
415.006	-332
415.082	231
415.159	721
415.236	63
415.312	-357
415.389	714
415.465	172
415.542	199
415.618	-766
415.695	25
415.771	272
415.848	179
415.924	181
416.000	58
416.077	1221
416.153	-418
416.230	-256
416.306	186
416.383	635
416.459	-188
416.535	-1188
416.612	7
416.688	862
416.764	244
416.841	507
416.917	505
416.993	503
417.069	1059
417.146	-70
417.222	618
417.298	-71
417.374	11
417.451	1216
417.527	-625
417.603	-649
417.679	180
417.755	769
417.831	13
417.908	635
417.984	-175
418.060	-82
418.136	162
418.212	755
418.288	942
418.364	575
418.440	-662
418.516	573
418.592	435
418.668	1170
418.744	670
418.820	468
418.896	-11
418.972	-359
419.048	-427
419.124	1587
419.200	-276
419.276	797
419.352	-538
419.428	1083
419.504	48
419.579	-732
419.655	622
419.731	514
419.807	1095
419.883	907
419.959	1350
420.034	1108
420.110	999
420.186	1956
420.262	1824
420.337	369
420.413	1395
420.489	1802
420.565	1763
420.640	766
420.716	2641
420.792	393
420.867	2211
420.943	1073
421.019	1533
421.094	1880
421.170	2585
421.245	2905
421.321	2593
421.397	2665
421.472	5223
421.548	8562
421.623	6582
421.699	6138
421.774	5798
421.850	6053
421.925	8216
422.001	9511
422.076	11355
422.152	13601
422.227	18430
422.302	28744
422.378	43401
422.453	74633
422.529	147179
422.604	246143
422.679	246048
422.755	222884
422.830	146920
422.905	79057
422.981	47327
423.056	32381
423.131	23258
423.207	17222
423.282	13147
423.357	11698
423.432	9458
423.508	8206
423.583	6186
423.658	6006
423.733	5340
423.808	3930
423.883	4677
423.959	5340
424.034	7466
424.109	7154
424.184	3937
424.259	2453
424.334	3141
424.409	2340
424.484	1605
424.559	1964
424.634	1471
424.709	1496
424.784	2499
424.859	1538
424.934	466
425.009	2493
425.084	2450
425.159	438
425.234	866
425.309	1045
425.384	2096
425.459	1725
425.534	1495
425.609	385
425.683	226
425.758	512
425.833	667
425.908	966
425.983	1059
426.058	2886
426.132	1866
426.207	910
426.282	1783
426.357	-202
426.431	349
426.506	1092
426.581	760
426.655	529
426.730	350
426.805	-415
426.879	861
426.954	764
427.029	538
427.103	2026
427.178	4966
427.253	1882
427.327	1339
427.402	588
427.476	1594
427.551	747
427.625	745
427.700	178
427.774	-164
427.849	484
427.923	-571
427.998	773
428.072	1191
428.147	4842
428.221	28344
428.296	88287
428.370	43138
428.444	4878
428.519	1740
428.593	2419
428.667	2781
428.742	3586
428.816	9818
428.890	54863
428.965	79307
429.039	17143
429.113	3754
429.188	1581
429.262	485
429.336	1417
429.410	1051
429.485	1538
429.559	2549
429.633	2674
429.707	1465
429.781	9126
429.855	52137
429.930	70895
430.004	19436
430.078	16501
430.152	34099
430.226	115950
430.300	103223
430.374	16747
430.448	4653
430.522	6617
430.596	14089
430.670	18730
430.744	68567
430.818	68053
430.892	10268
430.966	1374
431.040	1338
431.114	-256
431.188	76
431.262	980
431.336	-457
431.410	1800
431.484	1207
431.557	2047
431.631	518
431.705	3149
431.779	21384
431.853	83329
431.927	49422
432.000	5375
432.074	217
432.148	627
432.222	-58
432.295	-798
432.369	-456
432.443	87
432.516	2650
432.590	5808
432.664	1917
432.737	-1651
432.811	-594
432.885	-657
432.958	-605
433.032	-1531
433.106	-735
433.179	-371
433.253	-280
433.326	-649
433.400	-543
433.473	-1028
433.547	-901
433.620	-418
433.694	-1060
433.767	398
433.841	-1037
433.914	-366
433.988	-449
434.061	-152
434.134	-836
434.208	-541
434.281	-412
434.355	-918
434.428	-298
434.501	185
434.575	-792
434.648	-656
434.721	-682
434.795	-793
434.868	-1067
434.941	-413
435.014	36
435.088	-395
435.161	1200
435.234	2226
435.307	2432
435.381	2000
435.454	3741
435.527	7699
435.600	8195
435.673	5278
435.746	3256
435.819	1421
435.892	1724
435.966	141
436.039	-661
436.112	852
436.185	-182
436.258	-589
436.331	-765
436.404	-834
436.477	-1175
436.550	-332
436.623	605
436.696	-63
436.769	-719
436.842	-155
436.915	-1001
436.987	-481
437.060	-961
437.133	-808
437.206	-1007
437.279	-276
437.352	-731
437.425	-335
437.498	26
437.570	90
437.643	-964
437.716	-87
437.789	-865
437.861	-1039
437.934	-145
438.007	-885
438.080	-248
438.152	-224
438.225	-689
438.298	3285
438.370	10639
438.443	4017
438.516	22
438.588	-257
438.661	-1366
438.734	-694
438.806	-580
438.879	-600
438.951	-379
439.024	-285
439.096	-950
439.169	-874
439.241	-845
439.314	-1070
439.386	-841
439.459	-68
439.531	-90
439.604	-401
439.676	-643
439.749	-1300
439.821	-588
439.893	-490
439.966	-469
440.038	-723
440.110	-291
440.183	-661
440.255	-865
440.327	-191
440.400	1155
440.472	4787
440.544	2123
440.617	-22
440.689	362
440.761	696
440.833	-84
440.905	245
440.978	-387
441.050	-142
441.122	266
441.194	-741
441.266	-553
441.338	-469
441.411	-377
441.483	622
441.555	1813
441.627	162
441.699	481
441.771	549
441.843	-34
441.915	35
441.987	-106
442.059	69
442.131	380
442.203	1404
442.275	1863
442.347	3512
442.419	9570
442.491	58800
442.563	124235
442.635	41715
442.706	7547
442.778	3649
442.850	1889
442.922	1576
442.994	998
443.066	926
443.137	1900
443.209	3278
443.281	5899
443.353	15169
443.425	65588
443.496	201673
443.568	192445
443.640	68802
443.711	12861
443.783	4313
443.855	2694
443.926	1623
443.998	826
444.070	1714
444.141	439
444.213	552
444.285	681
444.356	399
444.428	840
444.499	990
444.571	737
444.642	916
444.714	258
444.785	1147
444.857	1817
444.928	2876
445.000	2522
445.071	3107
445.143	3950
445.214	5307
445.285	10400
445.357	32685
445.428	130458
445.500	241027
445.571	165727
445.642	102513
445.714	30662
445.785	10439
445.856	3269
445.928	2015
445.999	2012
446.070	1732
446.141	626
446.213	313
446.284	446
446.355	767
446.426	615
446.497	-399
446.569	369
446.640	947
446.711	-148
446.782	-76
446.853	-77
446.924	42
446.995	-1043
447.066	392
447.138	200
447.209	484
447.280	-1311
447.351	561
447.422	-390
447.493	-702
447.564	-453
447.635	-934
447.706	-607
447.777	-514
447.847	-482
447.918	-986
447.989	-832
448.060	-158
448.131	-196
448.202	-231
448.273	11
448.344	-386
448.414	-544
448.485	-259
448.556	-685
448.627	-624
448.698	-480
448.768	-404
448.839	-349
448.910	-606
448.981	-374
449.051	60
449.122	-820
449.193	-291
449.263	-517
449.334	-720
449.405	-332
449.475	-602
449.546	-608
449.616	469
449.687	-36
449.758	-536
449.828	-1721
449.899	-1161
449.969	-841
450.040	-459
450.110	-455
450.181	-223
450.251	-133
450.322	-580
450.392	-221
450.463	-331
450.533	-200
450.604	-376
450.674	-424
450.744	340
450.815	-949
450.885	151
450.955	-171
451.026	-126
451.096	-488
451.166	292
451.237	238
451.307	2125
451.377	1274
451.447	-850
451.518	-1413
451.588	-233
451.658	-710
451.728	-321
451.799	956
451.869	1210
451.939	-286
452.009	-565
452.079	-360
452.149	-764
452.219	-261
452.289	1777
452.360	443
452.430	-138
452.500	437
452.570	1134
452.640	6209
452.710	17556
452.780	17132
452.850	6180
452.920	1792
452.990	1237
453.060	366
453.129	-42
453.199	-84
453.269	3953
453.339	6129
453.409	8333
453.479	9775
453.549	12926
453.619	13178
453.688	3797
453.758	-46
453.828	-718
453.898	-621
453.968	-640
454.037	-706
454.087	-525
454.107	-463
454.168	-1086
454.177	-1191
454.247	-424
454.249	-447
454.316	-1479
454.330	-1267
454.386	-458
454.411	-284
454.456	-153
454.492	-15
454.525	132
454.574	-53
454.595	-160
454.655	-206
454.665	-209
454.734	169
454.736	193
454.804	227
454.817	478
454.873	1317
454.898	1417
454.943	1550
454.979	761
455.013	43
455.060	121
455.082	185
455.141	-397
455.152	-523
455.221	1643
455.222	1689
455.291	2822
455.303	2816
455.360	2611
455.384	4011
455.430	6062
455.465	4325
455.499	2769
455.546	1992
455.569	1589
455.627	1342
455.638	1298
455.707	-415
455.708	-400
455.777	-265
455.789	-219
455.846	-97
455.869	-177
455.916	-341
455.950	-306
455.985	-357
456.031	-296
456.054	-283
456.112	-538
456.124	-540
456.193	205
456.193	188
456.262	170
456.274	293
456.332	1070
456.355	1130
456.401	1005
456.436	801
456.470	695
456.516	591
456.540	440
456.597	-16
456.609	-110
456.678	451
456.678	440
456.747	44
456.759	-20
456.817	-0
456.840	318
456.886	579
456.920	540
456.955	633
457.001	495
457.024	407
457.082	962
457.093	1039
457.162	1346
457.163	1362
457.232	1025
457.243	964
457.301	907
457.324	965
457.370	994
457.405	1224
457.439	1618
457.485	1491
457.508	1307
457.566	2067
457.577	2440
457.646	3556
457.647	3606
457.715	10794
457.727	12417
457.784	22894
457.808	30548
457.853	38420
457.889	42323
457.922	39900
457.969	24719
457.991	25102
458.050	34501
458.060	36297
458.129	65177
458.130	65932
458.198	57986
458.211	50964
458.267	24718
458.292	15926
458.336	10532
458.372	10629
458.405	17216
458.453	28234
458.474	36242
458.533	65958
458.543	67812
458.611	101931
458.614	102188
458.680	52656
458.694	39440
458.749	16128
458.775	10852
458.818	6285
458.855	4766
458.887	3946
458.936	3290
458.955	3027
459.016	2229
459.024	2188
459.093	3276
459.097	3238
459.162	1711
459.177	1715
459.230	2201
459.257	2312
459.299	2316
459.338	2052
459.368	1818
459.418	1863
459.437	1943
459.499	1869
459.505	1842
459.574	1781
459.579	1783
459.643	1424
459.659	1496
459.711	2020
459.740	2082
459.780	2057
459.820	2062
459.849	2110
459.900	2168
459.917	2138
459.981	1898
459.986	1879
460.054	2182
460.061	2227
460.123	2351
460.141	2261
460.191	2359
460.222	2614
460.260	2708
460.302	2645
460.328	2533
460.382	2236
460.397	2223
460.462	2334
460.465	2411
460.534	4415
460.543	4630
460.602	9811
460.623	12060
460.671	18787
460.703	24546
460.739	21281
460.783	14866
460.808	12156
460.864	3405
460.876	2839
460.944	2246
460.945	2234
461.013	1950
461.024	1949
461.081	1788
461.104	1885
461.150	2204
461.184	2171
461.218	2337
461.264	2662
461.286	2564
461.345	2379
461.355	2389
461.423	2222
461.425	2216
461.491	1632
461.505	1742
461.559	3296
461.585	3684
461.628	4693
461.665	5666
461.696	5690
461.745	6084
461.764	5521
461.825	2769
461.832	2745
461.901	2682
461.905	2697
461.969	2056
461.985	1965
462.037	2913
462.065	3386
462.105	3169
462.145	2890
462.173	3330
462.225	3859
462.241	3891
462.305	4493
462.310	4428
462.378	3389
462.385	3233
462.446	2619
462.465	2454
462.514	2550
462.545	2570
462.582	2684
462.625	3095
462.650	3016
462.705	2644
462.718	2673
462.785	2908
462.786	2911
462.854	2589
462.865	2646
462.922	3133
462.945	3214
462.990	3081
463.025	2808
463.058	2949
463.104	3275
463.126	3088
463.184	2478
463.194	2518
463.262	2849
463.264	2859
463.330	2318
463.344	2241
463.398	3490
463.424	3983
463.466	3274
463.504	2809
463.533	3099
463.583	3340
463.601	3287
463.663	2941
463.669	2919
463.737	2915
463.743	2907
463.805	4281
463.823	4705
463.873	6168
463.903	7128
463.940	7087
463.982	6896
464.008	6132
464.062	4244
464.076	4045
464.142	3085
464.144	3083
464.211	3074
464.221	3080
464.279	2945
464.301	2766
464.347	3350
464.381	3895
464.414	3699
464.461	3607
464.482	3709
464.540	3674
464.550	3662
464.617	3328
464.620	3329
464.685	3978
464.699	4024
464.753	4284
464.779	4457
464.820	4639
464.859	4748
464.888	4148
464.938	3443
464.956	3918
465.018	5015
465.023	4943
465.091	4142
465.098	4053
465.158	4621
465.177	4806
465.226	4316
465.257	3936
465.293	4196
465.336	4485
465.361	4484
465.416	4510
465.428	4681
465.495	5541
465.496	5558
465.563	6469
465.575	6688
465.631	8468
465.654	9193
465.698	7029
465.734	5002
465.765	4520
465.813	3899
465.833	3937
465.893	4087
465.900	4072
465.968	3719
465.972	3701
466.035	4331
466.052	4442
466.102	4194
466.131	4077
466.170	4047
466.210	3968
466.237	4291
466.290	4945
466.304	4777
466.369	3853
466.372	3879
466.439	4429
466.449	4496
466.506	4330
466.528	4259
466.573	5584
466.607	6535
466.641	7723
466.687	9355
466.708	10003
466.766	11786
466.775	11065
466.842	5421
466.845	5142
466.909	5286
466.925	5326
466.977	5275
467.004	5227
467.044	5451
467.083	5677
467.111	6214
467.163	7166
467.178	7219
467.242	7353
467.245	7321
467.312	6339
467.321	6195
467.379	6296
467.400	6313
467.446	6622
467.480	6824
467.559	7349
467.638	5894
467.717	6577
467.796	6980
467.875	7281
467.955	5791
468.034	8728
468.113	13212
468.192	18720
468.271	12387
468.350	15403
468.429	21136
468.508	23500
468.588	14150
468.667	10216
468.746	8614
468.825	7432
468.904	5965
468.983	6430
469.062	6716
469.141	8685
469.220	5190
469.299	6867
469.378	5905
469.456	7298
469.535	5862
469.614	6216
469.693	5849
469.772	7835
469.851	7758
469.930	7442
470.009	6450
470.088	8106
470.166	10631
470.245	17298
470.324	20502
470.403	13175
470.482	7667
470.560	6811
470.639	6416
470.718	6235
470.797	5185
470.875	6443
470.954	6823
471.033	8128
471.111	5363
471.190	5361
471.269	5006
471.347	5292
471.426	5518
471.505	6140
471.583	6435
471.662	6202
471.740	4866
471.819	5351
471.898	6570
471.976	6401
472.055	5163
472.133	5511
472.212	6450
472.290	6450
472.369	4812
472.447	5563
472.526	4847
472.604	5560
472.683	5099
472.761	4782
472.839	5609
472.918	5921
472.996	5911
473.075	6004
473.153	5628
473.231	5543
473.310	5658
473.388	5987
473.466	4571
473.545	6443
473.623	6093
473.701	5610
473.780	6283
473.858	5642
473.936	7598
474.014	6044
474.093	6054
474.171	7028
474.249	7500
474.327	6301
474.405	4559
474.484	5842
474.562	4912
474.640	4509
474.718	4618
474.796	5312
474.874	5936
474.952	5281
475.030	4721
475.108	5250
475.187	4983
475.265	6046
475.343	5633
475.421	6316
475.499	4217
475.577	5600
475.655	5649
475.733	8550
475.811	10881
475.889	9667
475.966	7269
476.044	5254
476.122	5888
476.200	5915
476.278	3822
476.356	5527
476.434	5673
476.512	5281
476.590	4916
476.667	5662
476.745	3698
476.823	5721
476.901	4741
476.979	5712
477.056	6270
477.134	5438
477.212	6328
477.290	5972
477.367	4134
477.445	5384
477.523	4744
477.601	4957
477.678	3750
477.756	5908
477.834	4842
477.911	4593
477.989	4211
478.066	5540
478.144	4185
478.222	4974
478.299	4322
478.377	5714
478.454	4386
478.532	5106
478.609	4088
478.687	5369
478.764	3378
478.842	4824
478.919	4621
478.997	5105
479.074	4131
479.152	4685
479.229	5491
479.307	4366
479.384	4581
479.461	4957
479.539	4136
479.616	5316
479.694	4444
479.771	3929
479.848	5269
479.926	4468
480.003	5793
480.080	4736
480.157	4511
480.235	4153
480.312	4457
480.389	5618
480.467	5063
480.544	6967
480.621	5883
480.698	6008
480.775	4896
480.853	5383
480.930	4545
481.007	5304
481.084	4743
481.161	6521
481.238	5543
481.315	5342
481.392	4720
481.470	4422
481.547	4830
481.624	5165
481.701	4785
481.778	4960
481.855	4494
481.932	6421
482.009	7416
482.086	6884
482.163	7077
482.240	8155
482.317	7782
482.393	6736
482.470	5522
482.547	5733
482.624	4988
482.701	6577
482.778	5241
482.855	5207
482.932	5470
483.009	6628
483.085	6442
483.162	7754
483.239	9019
483.316	7534
483.393	8486
483.469	6889
483.546	5658
483.623	6339
483.699	4633
483.776	5859
483.853	5013
483.930	5566
484.006	9655
484.083	16092
484.160	11264
484.236	16728
484.313	12385
484.389	10758
484.466	10873
484.543	11730
484.619	13982
484.696	17792
484.772	12528
484.849	11643
484.925	9480
485.002	10043
485.078	8975
485.155	8627
485.231	7949
485.308	8028
485.384	7503
485.461	9732
485.537	9881
485.614	13238
485.690	7493
485.766	8534
485.843	7567
485.919	8762
485.995	7432
486.072	8055
486.148	7290
486.224	7248
486.301	8247
486.377	8104
486.453	7113
486.530	9436
486.606	10125
486.682	10356
486.758	11911
486.835	11820
486.911	9859
486.987	13930
487.063	12121
487.139	11506
487.215	11620
487.292	14230
487.368	13400
487.444	15802
487.520	21734
487.596	30092
487.672	74753
487.748	243055
487.824	358587
487.900	102155
487.976	26985
488.052	16475
488.128	13220
488.204	10428
488.280	9670
488.356	9044
488.432	12536
488.508	16696
488.584	8636
488.660	7224
488.736	7852
488.812	7020
488.888	8143
488.964	8138
489.039	7697
489.115	10575
489.191	8249
489.267	7917
489.343	7112
489.418	7000
489.494	6542
489.570	5391
489.646	7349
489.722	6521
489.797	6480
489.873	8832
489.949	13146
490.024	11647
490.100	7059
490.176	5913
490.251	5817
490.327	7559
490.403	5843
490.478	6201
490.554	5548
490.629	7441
490.705	5664
490.781	6831
490.856	5526
490.932	7397
491.007	5480
491.083	5992
491.158	5274
491.234	7152
491.309	9874
491.385	10474
491.460	4776
491.536	6822
491.611	4780
491.686	5852
491.762	4974
491.837	5832
491.913	7793
491.988	9191
492.063	9901
492.139	7435
492.214	6648
492.289	5905
492.365	4106
492.440	5454
492.515	4670
492.590	6180
492.666	4860
492.741	6599
492.816	7050
492.891	5411
492.967	5631
493.042	5519
493.117	4629
493.192	6407
493.267	7379
493.342	17831
493.418	21729
493.493	7177
493.568	4990
493.643	5598
493.718	5614
493.793	6291
493.868	5694
493.943	5137
494.018	4166
494.093	4885
494.168	5742
494.243	4927
494.318	4929
494.393	5526
494.468	5171
494.543	5020
494.618	4963
494.693	6000
494.768	4657
494.842	6089
494.917	5631
494.992	6229
495.067	4813
495.142	4771
495.217	5250
495.292	4978
495.366	4540
495.441	4694
495.516	6983
495.591	6482
495.665	8772
495.740	13402
495.815	7974
495.890	5264
495.964	3221
496.039	7009
496.114	5397
496.188	7212
496.263	6762
496.338	5428
496.412	4866
496.487	7055
496.561	5546
496.636	6227
496.710	5333
496.785	5599
496.860	5602
496.934	4936
497.009	6420
497.083	6563
497.158	5720
497.232	6649
497.307	7505
497.381	8240
497.455	7563
497.530	7495
497.604	5798
497.679	7176
497.753	7792
497.827	7976
497.902	6368
497.976	9908
498.050	22419
498.125	81006
498.199	79853
498.273	10744
498.348	6663
498.422	7214
498.496	7418
498.570	9610
498.645	5424
498.719	4600
498.793	6331
498.867	9034
498.941	11101
499.016	32569
499.090	83405
499.164	30535
499.238	7495
499.312	6828
499.386	7016
499.460	7141
499.534	7777
499.609	10541
499.683	8542
499.757	8061
499.831	14256
499.905	53828
499.979	50444
500.053	8776
500.127	7237
500.201	5394
500.275	5801
500.349	6425
500.422	6552
500.496	8075
500.570	11776
500.644	34223
500.718	55766
500.792	13683
500.866	5729
500.940	6310
501.013	4730
501.087	5409
501.161	5620
501.235	5944
501.309	17896
501.382	43195
501.456	37790
501.530	9839
501.603	12898
501.677	7663
501.751	2976
501.825	5833
501.898	7104
501.972	16927
502.046	11091
502.119	4957
502.193	7852
502.266	18714
502.340	10534
502.413	9218
502.487	16415
502.561	8925
502.634	4244
502.708	3919
502.781	2991
502.855	5385
502.928	2688
503.002	3826
503.075	3151
503.149	4116
503.222	3804
503.295	3746
503.369	4858
503.442	6622
503.516	14024
503.589	31664
503.662	21959
503.736	12414
503.809	20018
503.882	21450
503.956	31634
504.029	52831
504.102	132532
504.175	195036
504.249	63377
504.322	21041
504.395	12277
504.468	8472
504.542	4942
504.615	4584
504.688	4275
504.761	2375
504.834	4605
504.907	5022
504.980	3565
505.053	3865
505.127	783
505.200	6217
505.273	3208
505.346	3657
505.419	1557
505.492	4792
505.565	1879
505.638	3512
505.711	1847
505.784	1867
505.857	2779
505.930	4326
506.003	2606
506.076	4574
506.149	2438
506.221	2708
506.294	4448
506.367	6378
506.440	22506
506.513	13502
506.586	3409
506.659	2083
506.731	3620
506.804	2473
506.877	2006
506.950	3499
507.022	3389
507.095	2227
507.168	3681
507.241	4492
507.313	2064
507.386	1659
507.459	3366
507.531	2550
507.604	1522
507.677	2778
507.749	1271
507.822	3985
507.894	3407
507.967	5845
508.040	3161
508.112	4571
508.185	4000
508.257	2940
508.330	4361
508.402	2621
508.475	3124
508.547	4676
508.620	3563
508.692	3662
508.765	3681
508.837	2384
508.909	3492
508.982	3403
509.054	3485
509.127	2803
509.199	2390
509.271	2151
509.344	2438
509.416	3796
509.488	2684
509.560	4081
509.633	3011
509.705	2993
509.777	3482
509.849	4048
509.922	2973
509.994	3026
510.066	5183
510.138	2048
510.210	7749
510.283	4725
510.355	4520
510.427	4966
510.499	3689
510.571	3683
510.643	2674
510.715	5316
510.787	2336
510.859	4935
510.931	3652
511.003	3551
511.076	4060
511.148	3918
511.219	3774
511.291	5658
511.363	6386
511.435	4994
511.507	1543
511.579	3657
511.651	3912
511.723	2992
511.795	3076
511.867	3237
511.939	3603
512.010	5504
512.082	4993
512.154	2048
512.226	2981
512.298	6454
512.369	5974
512.441	5180
512.513	5101
512.585	3012
512.656	4852
512.728	3451
512.800	3506
512.871	5167
512.943	3917
513.015	3737
513.086	3696
513.158	4296
513.230	2031
513.301	4220
513.373	4896
513.444	3598
513.516	3156
513.588	3005
513.659	3653
513.731	4134
513.802	2428
513.874	5236
513.945	4697
514.016	2904
514.088	3574
514.159	2981
514.231	4635
514.302	5845
514.374	4927
514.445	3854
514.516	8951
514.588	4950
514.659	4562
514.730	6040
514.802	5281
514.873	1293
514.944	5899
515.016	5500
515.087	2899
515.158	5046
515.229	7026
515.301	2233
515.372	5090
515.443	3984
515.514	3200
515.585	2653
515.656	4625
515.728	5765
515.799	2670
515.870	5352
515.941	5119
516.012	3514
516.083	7061
516.154	7084
516.225	8251
516.296	9768
516.367	9374
516.438	11750
516.509	15336
516.580	26318
516.651	102423
516.722	342166
516.793	134399
516.864	22187
516.935	21183
517.006	26255
517.077	33682
517.148	84414
517.219	416832
517.289	652018
517.360	103244
517.431	26258
517.502	11719
517.573	12245
517.643	11048
517.714	11384
517.785	13478
517.856	14264
517.926	19193
517.997	22704
518.068	27293
518.138	38763
518.209	65498
518.280	272791
518.350	927316
518.421	383565
518.492	46784
518.562	29713
518.633	28964
518.703	37840
518.774	89890
518.845	248759
518.915	230705
518.986	56229
519.056	22754
519.127	16860
519.197	15067
519.268	28542
519.338	21068
519.408	7285
519.479	6306
519.549	5849
519.620	6616
519.690	5183
519.760	4679
519.831	5347
519.901	3916
519.971	5394
520.042	3944
520.112	3218
520.182	5616
520.253	5319
520.323	4522
520.393	4332
520.463	7314
520.534	2394
520.604	9002
520.674	6210
520.744	4315
520.814	7013
520.885	7097
520.955	10183
521.025	30601
521.095	14136
521.165	5094
521.235	4648
521.305	2679
521.375	4084
521.445	3628
521.515	3412
521.585	4820
521.655	2547
521.725	4179
521.795	4052
521.865	1827
521.935	6663
522.005	3988
522.075	3733
522.145	4617
522.215	3195
522.285	4404
522.355	5588
522.424	9346
522.494	7057
522.564	3783
522.634	4886
522.704	8060
522.774	4064
522.843	4752
522.913	4461
522.983	3043
523.053	3472
523.122	4163
523.192	3450
523.262	4576
523.331	4065
523.401	4693
523.471	2781
523.540	4095
523.610	2709
523.680	3315
523.749	4262
523.819	4814
523.888	3704
523.958	3472
524.027	4108
524.097	4244
524.166	2821
524.236	3092
524.305	6768
524.375	2977
524.444	3260
524.514	6146
524.583	2893
524.653	3413
524.722	6038
524.791	2721
524.861	5389
524.930	2790
524.999	4244
525.069	4405
525.138	4763
525.207	4561
525.277	6132
525.346	5260
525.415	7194
525.484	7485
525.554	8457
525.623	9975
525.692	12200
525.761	14463
525.830	18997
525.900	23547
525.969	39271
526.038	72853
526.107	164925
526.176	474342
526.245	359401
526.314	97897
526.383	231589
526.452	310009
526.522	464302
526.591	417609
526.660	60378
526.729	34082
526.797	39244
526.867	56792
526.935	186502
527.004	713204
527.073	437474
527.142	46398
527.211	18632
527.280	13057
527.349	10393
527.418	6064
527.487	8793
527.555	4993
527.624	4901
527.693	3544
527.762	6475
527.831	3167
527.899	5278
527.968	3769
528.037	2852
528.106	4219
528.174	4660
528.243	4917
528.312	5290
528.380	3797
528.449	3661
528.518	5497
528.586	2875
528.655	5273
528.723	3041
528.792	3148
528.861	3276
528.929	2207
528.998	5159
529.066	5285
529.135	7176
529.203	6026
529.272	7847
529.340	10275
529.409	11391
529.477	7081
529.545	8140
529.614	10972
529.682	9704
529.751	10392
529.819	14768
529.887	13300
529.956	11599
530.024	11746
530.092	10089
530.161	11011
530.229	11313
530.297	12146
530.365	12984
530.434	12017
530.502	13130
530.570	10900
530.638	9338
530.707	10228
530.775	10647
530.843	8748
530.911	10652
530.979	11103
531.047	12118
531.115	11502
531.183	11246
531.252	10909
531.320	9989
531.388	9327
531.456	11606
531.524	11201
531.592	13302
531.660	14881
531.728	11300
531.796	10670
531.864	12366
531.932	12451
532.000	11831
532.067	12701
532.135	13588
532.203	14423
532.271	14290
532.339	15615
532.407	14987
532.475	13501
532.542	14161
532.610	12893
532.678	12626
532.746	18568
532.814	23116
532.881	15806
532.949	14794
533.017	13093
533.084	13254
533.152	12456
533.220	11784
533.287	11271
533.355	13350
533.423	13370
533.490	14528
533.558	13094
533.625	12354
533.693	12331
533.761	11280
533.828	12396
533.896	11941
533.963	15656
534.031	14787
534.098	16951
534.166	16780
534.233	14146
534.300	16992
534.368	16225
534.435	14699
534.503	16320
534.570	17365
534.637	18027
534.705	21836
534.772	26722
534.840	46625
534.907	211213
534.974	255600
535.041	32711
535.109	16965
535.176	13998
535.243	13913
535.310	12873
535.378	11965
535.445	11729
535.512	12430
535.579	12135
535.646	11365
535.714	11852
535.781	13460
535.848	12812
535.915	14664
535.982	12443
536.049	12217
536.116	13459
536.183	10613
536.250	10440
536.317	9815
536.384	11430
536.451	12067
536.518	12581
536.585	10729
536.652	12783
536.719	12793
536.786	9507
536.853	10642
536.920	12125
536.987	11298
537.053	10033
537.120	15633
537.187	15565
537.254	11516
537.321	11798
537.388	12367
537.454	9446
537.521	10472
537.588	10296
537.654	11741
537.721	11150
537.788	12521
537.855	10090
537.921	12084
537.988	9711
538.055	11330
538.121	8953
538.188	9709
538.254	8945
538.321	9018
538.388	9845
538.454	12148
538.521	11438
538.587	11495
538.654	11012
538.720	11296
538.787	11348
538.853	11391
538.920	9983
538.986	9439
539.053	9694
539.119	9158
539.185	9009
539.252	11926
539.318	10356
539.385	13855
539.451	9529
539.517	11175
539.583	10314
539.650	11569
539.716	12632
539.782	10870
539.849	8891
539.915	10636
539.981	9653
540.047	9409
540.114	9457
540.180	11167
540.246	9424
540.312	11108
540.378	10310
540.444	12300
540.510	11858
540.576	14202
540.643	9759
540.709	9487
540.775	9701
540.841	9559
540.907	10626
540.973	11624
541.039	10264
541.105	10379
541.171	10816
541.237	10387
541.303	11933
541.369	12739
541.435	11250
541.500	10207
541.566	9492
541.632	9141
541.698	9158
541.764	10700
541.830	9330
541.896	9173
541.961	9431
542.027	10073
542.093	10500
542.159	10420
542.224	8896
542.290	11543
542.356	9514
542.421	11156
542.487	9874
542.553	9346
542.618	9769
542.684	9648
542.750	9883
542.815	10936
542.881	10634
542.947	13495
543.012	13164
543.078	9056
543.143	8840
543.209	10173
543.274	9028
543.340	9952
543.405	10600
543.471	10956
543.536	10434
543.602	10310
543.667	8646
543.732	12102
543.798	8907
543.863	11533
543.928	9370
543.994	9531
544.059	10090
544.124	11737
544.190	9226
544.255	11778
544.320	10937
544.386	9751
544.451	10971
544.516	10999
544.581	11256
544.646	13284
544.712	14311
544.777	12207
544.842	11878
544.907	11787
544.972	11471
545.037	11097
545.102	12201
545.168	12477
545.233	12232
545.298	13870
545.363	11475
545.428	13793
545.493	14424
545.558	15058
545.623	14366
545.688	13553
545.753	14225
545.818	14474
545.883	15664
545.947	15631
546.012	16384
546.077	16160
546.142	18665
546.207	18450
546.272	19235
546.337	19593
546.401	21501
546.466	20752
546.531	21471
546.596	23411
546.661	24220
546.725	26676
546.790	26175
546.855	30584
546.919	31653
546.984	36284
547.049	38300
547.113	45964
547.178	49174
547.243	55649
547.307	65706
547.372	72463
547.436	72183
547.501	75207
547.565	82817
547.630	74839
547.695	71418
547.759	73459
547.823	71308
547.888	75266
547.952	75893
548.017	79625
548.081	80937
548.146	80462
548.210	82849
548.274	90641
548.339	88362
548.403	79696
548.468	73821
548.532	73854
548.596	75015
548.660	75844
548.725	82869
548.789	91764
548.853	87657
548.917	84578
548.982	82465
549.046	73133
549.110	64478
549.174	67993
549.238	79508
549.303	87765
549.367	89225
549.431	86236
549.495	80650
549.559	79474
549.623	93993
549.687	101823
549.751	101027
549.815	122078
549.879	121711
549.943	116921
550.007	121346
550.071	118972
550.135	107558
550.199	101014
550.263	100892
550.327	95664
550.391	96918
550.455	108451
550.519	114731
550.582	121197
550.646	137630
550.710	139504
550.774	136143
550.838	139707
550.901	142780
550.965	152280
551.029	157642
551.093	170708
551.156	183192
551.220	209618
551.284	240565
551.347	182303
551.411	154297
551.475	150168
551.538	150578
551.602	138171
551.666	130225
551.729	122433
551.793	120705
551.856	117536
551.920	116658
551.983	115856
552.047	113576
552.110	115660
552.174	114871
552.237	120170
552.301	108385
552.364	105290
552.428	101686
552.491	104901
552.554	107865
552.618	107863
552.681	110812
552.745	109284
552.808	126416
552.871	143306
552.934	118918
552.998	109407
553.061	105986
553.124	100344
553.187	100115
553.251	103216
553.314	102268
553.377	104896
553.440	113223
553.503	124003
553.567	127042
553.630	112759
553.693	109614
553.756	110794
553.819	108405
553.882	103537
553.945	104274
554.008	105588
554.071	105160
554.134	107518
554.197	100340
554.260	98019
554.323	101589
554.386	101014
554.449	105803
554.512	105549
554.575	100419
554.638	99877
554.701	98161
554.764	98414
554.827	95340
554.889	90940
554.952	84825
555.015	84341
555.078	85608
555.141	85757
555.203	84485
555.266	84230
555.329	84145
555.391	81034
555.454	79610
555.517	76235
555.580	74471
555.642	71096
555.705	69714
555.768	69299
555.830	66919
555.893	64337
555.955	61874
556.018	61309
556.080	61727
556.143	64504
556.206	62230
556.268	60464
556.330	61290
556.393	58010
556.455	56837
556.518	57109
556.580	54679
556.643	51721
556.705	50261
556.767	49394
556.830	49053
556.892	47877
556.955	47772
557.017	47475
557.079	45636
557.142	45293
557.204	45386
557.266	44408
557.328	41910
557.391	38831
557.453	39319
557.515	38381
557.577	39504
557.639	40662
557.701	39089
557.764	38705
557.826	40520
557.888	42154
557.950	43776
558.012	49679
558.074	64981
558.136	147112
558.198	331697
558.260	115081
558.322	45889
558.384	48241
558.446	49404
558.508	53826
558.570	60286
558.632	69463
558.694	90378
558.756	155378
558.818	446390
558.880	966292
558.942	368854
559.003	349534
559.065	161765
559.127	62060
559.189	58967
559.251	67002
559.312	100566
559.374	240098
559.436	713668
559.498	348089
559.559	69767
559.621	59483
559.683	70788
559.744	119983
559.806	377348
559.868	535958
559.929	107018
559.991	66970
560.052	113099
560.114	319403
560.176	196728
560.237	183713
560.299	285749
560.360	59421
560.422	24036
560.483	22053
560.545	20146
560.606	18724
560.667	17867
560.729	16832
560.790	15687
560.852	15466
560.913	14860
560.974	15024
561.036	14356
561.097	14545
561.158	14326
561.220	15995
561.281	12718
561.342	13605
561.403	14460
561.465	13948
561.526	14719
561.587	14855
561.648	11821
561.709	13018
561.771	13014
561.832	11685
561.893	11022
561.954	12269
562.015	11485
562.076	11683
562.137	11302
562.198	11708
562.259	11751
562.320	10830
562.381	10887
562.442	10972
562.503	10721
562.564	11218
562.625	10796
562.686	11088
562.747	10114
562.808	11009
562.869	9525
562.930	10280
562.991	10358
563.051	9280
563.112	10050
563.173	9975
563.234	8937
563.294	9978
563.355	9081
563.416	9530
563.477	10170
563.537	10060
563.598	9043
563.659	9281
563.720	9358
563.780	8940
563.841	9262
563.901	9290
563.962	8473
564.023	9432
564.083	9481
564.144	9044
564.204	8976
564.265	8929
564.325	8474
564.386	11082
564.446	10797
564.507	8944
564.567	8536
564.628	8863
564.688	8397
564.749	7438
564.809	8813
564.869	8688
564.930	7602
564.990	9276
565.050	8467
565.111	8012
565.171	7812
565.231	8175
565.292	8694
565.352	7905
565.412	8306
565.472	8088
565.532	7255
565.593	8259
565.653	7735
565.713	8203
565.773	7879
565.833	8187
565.893	8875
565.953	7881
566.013	6946
566.074	8399
566.134	8859
566.194	9378
566.254	8999
566.314	9398
566.374	7224
566.434	8079
566.494	7795
566.554	8015
566.614	7685
566.673	8040
566.733	8260
566.793	8811
566.853	8201
566.913	8656
566.973	7982
567.033	8289
567.092	7591
567.152	7625
567.212	8177
567.272	8727
567.331	8254
567.391	9081
567.451	8673
567.511	10003
567.570	9677
567.630	9042
567.690	7825
567.749	8285
567.809	8550
567.868	8394
567.928	7415
567.988	8754
568.047	9160
568.107	8193
568.166	8350
568.226	8195
568.285	8612
568.345	8329
568.404	8118
568.464	8968
568.523	7531
568.582	7653
568.642	8036
568.701	8059
568.761	8277
568.820	8540
568.879	8959
568.939	8928
568.998	8477
569.057	8341
569.116	8347
569.176	8700
569.235	7559
569.294	8387
569.353	7139
569.413	7703
569.472	6571
569.531	7374
569.590	6586
569.649	7582
569.708	6992
569.767	8379
569.827	7701
569.886	7836
569.945	7221
570.004	8389
570.063	7455
570.122	7477
570.181	7017
570.240	8212
570.299	7860
570.358	8325
570.417	7904
570.475	7888
570.534	8271
570.593	8607
570.652	8516
570.711	8519
570.770	7503
570.829	9022
570.887	7874
570.946	8154
571.005	8133
571.064	9934
571.122	9996
571.181	9403
571.240	7805
571.299	7219
571.357	7764
571.416	8243
571.475	7401
571.533	8244
571.592	7884
571.650	9775
571.709	7965
571.768	10503
571.826	10329
571.885	8870
571.943	7703
572.002	7633
572.060	7555
572.119	8111
572.177	7694
572.236	9186
572.294	8392
572.352	9183
572.411	9071
572.469	8443
572.528	7294
572.586	8164
572.644	7192
572.703	7381
572.761	8507
572.819	7427
572.877	7168
572.936	6491
572.994	6948
573.052	6448
573.110	7045
573.169	8386
573.227	7213
573.285	7771
573.343	7192
573.401	7809
573.459	8312
573.517	7606
573.576	7366
573.634	7340
573.692	6646
573.750	7984
573.808	7446
573.866	7658
573.924	7954
573.982	7272
574.040	6804
574.098	7332
574.155	6472
574.213	7853
574.271	7064
574.329	8151
574.387	6859
574.445	6995
574.503	6836
574.560	5901
574.618	6515
574.676	7045
574.734	6268
574.792	6511
574.849	6410
574.907	5687
574.965	5379
575.022	5863
575.080	4849
575.138	5403
575.195	4543
575.253	4559
575.311	5183
575.368	5209
575.426	5127
575.483	6064
575.541	5627
575.598	5598
575.656	5541
575.713	6160
575.771	5386
575.828	5663
575.886	4653
575.943	5528
576.001	4838
576.058	4897
576.115	4562
576.173	5512
576.230	5591
576.287	6170
576.345	5027
576.402	5459
576.459	5219
576.517	5793
576.574	5139
576.631	5689
576.688	4931
576.746	4652
576.803	4679
576.860	4798
576.917	4902
576.974	4110
577.031	5093
577.089	5603
577.146	4982
577.203	5107
577.260	4906
577.317	4707
577.374	4909
577.431	4793
577.488	4155
577.545	5149
577.602	5650
577.659	4495
577.716	4834
577.773	4859
577.830	4573
577.886	4877
577.943	3865
578.000	4088
578.057	5275
578.114	4684
578.171	5705
578.227	7218
578.284	5682
578.341	6370
578.398	5295
578.454	5885
578.511	5126
578.568	6082
578.625	4915
578.681	5236
578.738	4617
578.794	5277
578.851	5130
578.908	4659
578.964	4336
579.021	5574
579.077	4567
579.134	4334
579.190	4863
579.247	5662
579.303	3913
579.360	5024
579.416	4644
579.473	5298
579.529	4179
579.586	4982
579.642	5620
579.698	5566
579.755	4555
579.811	5310
579.867	5457
579.924	5681
579.980	4898
580.036	5935
580.093	6893
580.149	9921
580.205	8434
580.261	7405
580.317	6137
580.374	6351
580.430	6638
580.486	6274
580.542	5856
580.598	6872
580.619	6407
580.654	5605
580.692	5385
580.710	5283
580.765	4942
580.767	4935
580.823	5773
580.838	6019
580.879	6709
580.911	6683
580.935	6673
580.984	6746
580.991	6770
581.047	6667
581.057	6629
581.103	6415
581.130	6621
581.159	6877
581.203	6369
581.215	6239
581.270	6912
581.276	6766
581.326	5416
581.349	5448
581.382	5500
581.422	6026
581.438	6246
581.494	5718
581.494	5714
581.550	5626
581.567	5900
581.606	6543
581.640	6316
581.661	6152
581.713	6352
581.717	6377
581.773	6196
581.786	6454
581.829	7237
581.859	6313
581.885	5605
581.932	6896
581.940	7125
581.996	6302
582.004	6508
582.052	7583
582.077	6849
582.107	6033
582.150	6701
582.163	6907
582.219	6466
582.223	6488
582.274	6742
582.296	6639
582.330	6511
582.368	6955
582.386	7219
582.441	7124
582.441	7124
582.497	7559
582.514	7407
582.552	7225
582.587	6981
582.608	6810
582.659	7096
582.663	7121
582.719	7768
582.732	7669
582.774	7441
582.805	7339
582.830	7242
582.877	8127
582.885	8258
582.941	8978
582.950	8943
582.996	8905
583.023	9700
583.052	10624
583.095	10675
583.107	10609
583.162	10399
583.168	10394
583.218	10609
583.240	9996
583.273	8885
583.313	8285
583.328	8204
583.384	8681
583.385	8648
583.439	7146
583.458	7305
583.494	7838
583.531	7447
583.549	7224
583.603	7313
583.605	7319
583.660	7018
583.676	7173
583.715	7657
583.748	7671
583.770	7496
583.820	7160
583.825	7150
583.881	7093
583.893	7092
583.936	7093
583.965	7219
583.991	7247
584.038	6821
584.046	6778
584.101	6522
584.110	6609
584.156	7010
584.183	6992
584.211	6858
584.255	7186
584.266	7381
584.321	7973
584.328	8022
584.376	8168
584.400	8450
584.431	8712
584.472	8650
584.486	8589
584.541	8411
584.545	8427
584.596	9036
584.617	8872
584.651	8882
584.689	9951
584.706	10146
584.761	9056
584.762	9057
584.816	9494
584.834	9751
584.871	10310
584.906	10641
584.926	10679
584.978	10610
584.980	10633
585.035	12118
585.051	12496
585.090	13300
585.123	14341
585.145	14983
585.195	15152
585.200	15257
585.254	17745
585.267	18794
585.309	21746
585.340	23267
585.364	24846
585.412	28489
585.419	29078
585.473	36427
585.484	38464
585.528	49847
585.556	63188
585.583	86850
585.628	143704
585.637	163130
585.692	339744
585.700	369043
585.747	466653
585.772	382276
585.801	228399
585.845	78134
585.856	58739
585.910	30525
585.917	27859
585.965	21541
585.989	19502
586.019	17560
586.061	15528
586.074	15183
586.128	14745
586.133	14643
586.183	13242
586.205	12913
586.237	12857
586.277	12826
586.292	12772
586.346	12448
586.349	12450
586.401	12430
586.421	12310
586.455	11931
586.493	11974
586.509	12412
586.564	13148
586.565	13206
586.618	15942
586.637	16233
586.672	16803
586.709	18089
586.727	18474
586.781	20013
586.781	20010
586.835	14747
586.853	13733
586.889	12466
586.925	11721
586.944	11592
586.996	11422
586.998	11422
587.052	11142
587.068	11222
587.106	11499
587.140	11363
587.161	11368
587.212	11689
587.215	11700
587.269	11496
587.284	11538
587.323	11539
587.356	11658
587.377	11758
587.427	12031
587.431	12066
587.485	12069
587.499	12146
587.539	12748
587.571	13443
587.593	13768
587.643	13898
587.648	13916
587.702	14221
587.715	14286
587.755	14103
587.786	13978
587.810	14099
587.858	14378
587.864	14414
587.917	14370
587.930	14493
587.971	14759
588.001	14756
588.025	14716
588.073	14573
588.079	14620
588.133	15142
588.145	15304
588.187	15681
588.217	15628
588.241	15804
588.288	16616
588.295	16685
588.348	17097
588.360	17271
588.402	18455
588.431	18783
588.456	18804
588.503	19785
588.510	20000
588.564	21115
588.575	21521
588.617	23590
588.646	24913
588.671	26130
588.718	29032
588.725	29701
588.778	36533
588.789	38456
588.832	60128
588.861	78215
588.886	114712
588.932	197422
588.939	204757
588.993	252595
589.004	248633
589.047	128950
589.075	63113
589.100	46553
589.147	28941
589.154	28391
589.207	24874
589.218	24449
589.261	25769
589.290	26694
589.314	27321
589.361	29779
589.368	31049
589.421	42263
589.433	45520
589.475	81120
589.504	110215
589.528	146952
589.576	225358
589.582	218653
589.635	106384
589.647	84959
589.689	44619
589.718	23195
589.742	21684
589.790	19241
589.795	19105
589.849	18274
589.861	18130
589.902	18189
589.932	17893
589.955	17301
590.004	16546
590.009	16522
590.062	15946
590.075	15832
590.115	16132
590.146	16064
590.168	15543
590.218	15032
590.222	15081
590.275	15300
590.289	15403
590.328	16597
590.360	17447
590.381	17135
590.431	16561
590.435	16600
590.488	16806
590.503	16869
590.541	16936
590.574	17066
590.594	17234
590.645	17736
590.647	17768
590.700	18184
590.716	18327
590.753	18534
590.787	18631
590.806	19046
590.859	20424
590.859	20445
590.912	20519
590.930	20648
590.965	20638
591.001	20486
591.018	20184
591.071	19339
591.072	19318
591.124	19407
591.143	19479
591.177	19529
591.214	19610
591.230	19886
591.283	20955
591.285	20966
591.336	20912
591.356	20953
591.389	20682
591.427	20274
591.442	20108
591.495	19456
591.498	19396
591.547	19947
591.569	20245
591.600	20986
591.640	21676
591.653	21639
591.706	21656
591.711	21639
591.759	21861
591.782	21929
591.811	22614
591.853	23499
591.864	23602
591.917	24117
591.924	24159
591.969	23685
591.995	23376
592.022	23536
592.066	23820
592.075	23944
592.127	24582
592.137	24669
592.180	24546
592.208	24472
592.233	25134
592.279	26324
592.285	26345
592.338	26363
592.350	26342
592.390	26173
592.421	26038
592.443	26375
592.491	27028
592.495	27102
592.548	27836
592.562	28013
592.600	26593
592.633	25352
592.653	25678
592.704	26366
592.705	26525
592.775	26990
592.846	28423
592.916	27751
592.987	29106
593.058	29465
593.128	30252
593.199	30707
593.270	30041
593.341	30077
593.411	32860
593.482	32507
593.553	33902
593.623	32877
593.694	35387
593.764	36644
593.835	35176
593.906	35099
593.976	37103
594.047	36569
594.117	40495
594.188	40185
594.258	39603
594.329	40824
594.399	42333
594.470	42279
594.540	44117
594.611	44564
594.681	44916
594.751	44037
594.822	47095
594.892	48861
594.963	49902
595.033	51240
595.103	53314
595.174	53349
595.244	55775
595.314	57028
595.384	56778
595.455	59076
595.525	61356
595.595	64351
595.665	64419
595.736	62006
595.806	63187
595.876	64921
595.946	65491
596.016	67640
596.087	69576
596.157	69267
596.227	70124
596.297	73662
596.367	79676
596.437	84839
596.507	85038
596.577	85591
596.647	87414
596.717	90235
596.787	91862
596.857	91908
596.927	92816
596.997	94087
597.067	93843
597.137	95993
597.207	97400
597.277	96618
597.347	92787
597.417	89422
597.487	91218
597.557	92005
597.626	95500
597.696	95998
597.766	97113
597.836	91308
597.906	85766
597.975	84083
598.045	86761
598.115	91317
598.185	97096
598.254	108077
598.324	116614
598.394	118320
598.464	116536
598.533	114643
598.603	105016
598.672	103541
598.742	106156
598.812	106759
598.881	108937
598.951	109032
599.020	112209
599.090	115226
599.159	117111
599.229	112752
599.299	111139
599.368	115742
599.437	112683
599.507	103342
599.576	101726
599.646	99013
599.715	100622
599.785	98822
599.854	96390
599.924	95792
599.993	95024
600.062	96527
600.132	100765
600.201	107155
600.270	122068
600.340	128125
600.409	126871
600.478	125588
600.547	129857
600.617	117561
600.686	95270
600.755	87245
600.824	84130
600.894	82997
600.963	85128
601.032	83849
601.101	82599
601.170	80976
601.239	78953
601.308	78510
601.378	79018
601.447	79926
601.516	80639
601.585	83771
601.654	84344
601.723	83901
601.792	87464
601.861	90134
601.930	95141
601.999	96316
602.068	95943
602.137	96796
602.206	98565
602.275	98692
602.343	100088
602.412	101307
602.481	101662
602.550	103089
602.619	104915
602.688	105944
602.756	108661
602.825	107593
602.894	111645
602.963	110157
603.032	113920
603.100	112357
603.169	112381
603.238	114484
603.307	114016
603.375	115264
603.444	118489
603.513	117076
603.581	119518
603.650	121733
603.719	113716
603.787	113437
603.856	117217
603.924	118712
603.993	124841
604.061	128219
604.130	135073
604.198	137284
604.267	139751
604.335	141152
604.404	143524
604.472	145556
604.541	147380
604.609	150370
604.678	150727
604.746	153386
604.815	158426
604.883	157803
604.951	158512
605.020	161674
605.088	160439
605.156	159136
605.225	161833
605.293	160055
605.361	163475
605.429	162220
605.498	167819
605.566	168858
605.634	178586
605.702	182709
605.771	188435
605.839	189585
605.907	183231
605.975	179355
606.043	174401
606.111	173822
606.180	176406
606.248	169888
606.316	169625
606.384	171556
606.452	163727
606.520	162292
606.588	167803
606.656	168910
606.724	165462
606.792	153522
606.860	139620
606.928	127103
606.996	123735
607.064	120777
607.132	124561
607.200	130756
607.267	137474
607.335	139189
607.403	143411
607.471	136114
607.539	133437
607.607	134095
607.674	117618
607.742	116337
607.810	115866
607.878	114920
607.946	119732
608.013	125473
608.081	128116
608.149	127569
608.216	133249
608.284	137315
608.352	137489
608.419	135363
608.487	132142
608.555	129841
608.622	134379
608.690	144563
608.757	159672
608.825	160540
608.893	155416
608.960	144966
609.028	141183
609.095	140468
609.163	140785
609.230	122500
609.298	113766
609.365	121600
609.432	131758
609.500	143437
609.567	163621
609.635	188363
609.702	195977
609.769	187175
609.837	141847
609.904	124126
609.971	128808
610.039	143680
610.106	183225
610.173	327385
610.241	668618
610.308	362881
610.375	160244
610.442	135418
610.509	129254
610.577	128302
610.644	131362
610.711	136011
610.778	139115
610.845	145661
610.912	153941
610.980	161805
611.047	159460
611.114	158151
611.181	153741
611.248	151202
611.315	161493
611.382	164671
611.449	171490
611.516	174393
611.583	169136
611.650	172369
611.717	175551
611.784	177804
611.851	184638
611.918	195044
611.984	226912
612.051	299168
612.118	526837
612.185	1046201
612.252	659328
612.319	262847
612.386	224845
612.452	206450
612.519	196008
612.586	193942
612.653	197575
612.719	203628
612.786	192721
612.853	180032
612.919	176789
612.986	180212
613.053	170014
613.120	157679
613.186	152647
613.253	154434
613.319	155560
613.386	157127
613.453	157161
613.519	157606
613.586	154342
613.652	156405
613.719	154441
613.785	157620
613.852	160855
613.918	158260
613.985	162104
614.051	168367
614.118	167740
614.184	160508
614.250	157180
614.317	163311
614.383	159446
614.449	164373
614.516	161655
614.582	161736
614.648	158790
614.715	157572
614.781	153670
614.847	155114
614.914	151668
614.980	148016
615.046	150296
615.112	154730
615.179	154588
615.245	155628
615.311	153603
615.377	155715
615.443	158551
615.509	160436
615.575	166147
615.642	163336
615.708	167922
615.774	175729
615.840	186325
615.906	198043
615.972	231767
616.038	330098
616.104	611804
616.170	1163085
616.236	910295
616.302	352378
616.368	282671
616.434	209984
616.500	197709
616.565	220932
616.631	270937
616.697	221638
616.763	231180
616.829	344179
616.895	579634
616.961	512605
617.026	232159
617.092	172915
617.158	165023
617.224	160802
617.289	148028
617.355	140225
617.421	139087
617.487	138737
617.552	133714
617.618	130758
617.684	130712
617.749	134260
617.815	126071
617.880	124349
617.946	123272
618.012	128001
618.077	127902
618.143	122379
618.208	124391
618.274	135132
618.339	134105
618.405	109353
618.470	111135
618.536	110295
618.601	107809
618.667	100073
618.732	95770
618.798	92980
618.863	93466
618.928	92067
618.994	95708
619.059	94789
619.124	93472
619.190	92920
619.255	92006
619.320	93351
619.386	93081
619.451	92628
619.516	89418
619.581	91849
619.647	92241
619.712	94442
619.777	88861
619.842	89372
619.907	92292
619.972	92468
620.038	92315
620.103	89864
620.168	89536
620.233	92261
620.298	90598
620.363	92197
620.428	95281
620.493	98165
620.558	100296
620.623	101486
620.688	99200
620.753	99357
620.818	102692
620.883	102472
620.948	100592
621.013	99592
621.078	96928
621.143	98296
621.207	101795
621.272	100219
621.337	96511
621.402	95183
621.467	95574
621.532	94180
621.596	94709
621.661	91848
621.726	89465
621.791	90995
621.855	92573
621.920	92301
621.985	92570
622.049	96581
622.114	94440
622.179	96197
622.243	99031
622.308	101510
622.373	106438
622.437	102544
622.502	96761
622.566	96018
622.631	94902
622.695	98369
622.760	96364
622.824	95620
622.889	97964
622.953	96241
623.018	104367
623.082	104202
623.147	103820
623.211	101160
623.276	100426
623.340	95746
623.404	93954
623.469	94422
623.533	95544
623.597	91725
623.662	91743
623.726	84592
623.790	79094
623.854	76441
623.919	79794
623.983	80800
624.047	80983
624.111	81462
624.176	84433
624.240	83594
624.304	88100
624.368	83063
624.432	84920
624.496	85802
624.560	90620
624.625	90645
624.689	91887
624.753	96262
624.817	91411
624.881	89276
624.945	79709
625.009	76947
625.073	78974
625.137	79782
625.201	85406
625.265	83788
625.329	82071
625.393	81056
625.456	83747
625.520	85098
625.584	88322
625.648	90417
625.712	93449
625.776	96640
625.839	91955
625.903	72518
625.967	68260
626.031	75099
626.095	91060
626.158	79172
626.222	61551
626.286	57615
626.349	54494
626.413	50650
626.477	52835
626.540	52351
626.604	51320
626.668	50466
626.731	49636
626.795	50578
626.858	50382
626.922	48473
626.986	49299
627.049	47838
627.113	52238
627.176	49550
627.240	47733
627.303	48137
627.366	47519
627.430	48444
627.493	48273
627.557	45988
627.620	49623
627.684	50729
627.747	51429
627.810	43943
627.874	41269
627.937	39759
628.000	43471
628.064	40419
628.127	35046
628.190	36340
628.253	34253
628.317	32703
628.380	31136
628.443	30104
628.506	29604
628.569	28105
628.632	27224
628.696	27773
628.759	27578
628.822	25397
628.885	25203
628.948	25245
629.011	24926
629.074	23354
629.137	22780
629.200	20912
629.263	23541
629.326	22114
629.389	22553
629.452	22672
629.515	22306
629.578	21411
629.641	22779
629.704	21833
629.767	21533
629.830	20977
629.892	20342
629.955	19123
630.018	22047
630.081	18817
630.144	21642
630.207	18581
630.269	21623
630.332	19525
630.395	19774
630.458	18937
630.520	17754
630.583	19262
630.646	19304
630.708	18898
630.771	19140
630.834	22011
630.896	19951
630.959	20576
631.021	18966
631.084	19177
631.146	20279
631.209	20632
631.272	20224
631.334	20802
631.397	19649
631.459	19939
631.522	21982
631.584	22922
631.646	24863
631.709	24401
631.771	25158
631.834	24794
631.896	22860
631.958	20412
632.021	21006
632.083	19526
632.145	19305
632.208	19409
632.270	19582
632.332	18104
632.395	18678
632.457	19552
632.519	18838
632.581	20328
632.643	17514
632.706	18795
632.768	16568
632.830	18195
632.892	18757
632.954	18523
633.016	19173
633.078	19757
633.141	17941
633.203	18371
633.265	19246
633.327	19410
633.389	19213
633.451	19920
633.513	18180
633.575	19681
633.637	18411
633.698	19929
633.760	20624
633.822	22588
633.884	21917
633.946	21712
634.008	22397
634.070	24447
634.132	25675
634.193	28191
634.255	31841
634.317	29483
634.379	31629
634.441	26950
634.502	23991
634.564	21102
634.626	20170
634.687	19415
634.749	18721
634.811	19066
634.873	17885
634.934	18936
634.996	19986
635.057	16801
635.119	17940
635.181	18167
635.242	19247
635.304	17674
635.365	21396
635.427	18428
635.488	18364
635.550	16844
635.611	19483
635.673	17376
635.734	21385
635.796	20691
635.857	24953
635.918	24911
635.980	29393
636.041	30268
636.102	33546
636.164	32056
636.225	32889
636.286	25789
636.348	23829
636.409	22002
636.470	19405
636.531	18673
636.593	18117
636.654	17916
636.715	17082
636.776	17025
636.838	15229
636.899	15396
636.960	16004
637.021	15014
637.082	15372
637.143	14874
637.204	14232
637.265	13908
637.326	15415
637.387	15035
637.448	14298
637.509	15337
637.570	14656
637.631	15055
637.692	13048
637.753	12829
637.814	14939
637.875	13048
637.936	13920
637.997	13117
638.058	14124
638.119	13610
638.179	13436
638.240	12384
638.301	12834
638.362	12039
638.423	12559
638.483	14150
638.544	11009
638.605	12692
638.666	11376
638.726	12081
638.787	13745
638.848	12886
638.908	11514
638.969	11815
639.030	11148
639.090	10319
639.151	11313
639.211	12664
639.272	12690
639.332	12746
639.393	13085
639.453	12690
639.514	15556
639.574	12644
639.635	10767
639.695	11253
639.756	10196
639.816	11378
639.877	10357
639.937	11889
639.997	11831
640.058	9628
640.118	9842
640.178	11180
640.239	10674
640.299	10708
640.359	10529
640.420	12521
640.480	13903
640.540	15936
640.600	15368
640.661	13325
640.721	11588
640.781	14086
640.841	9441
640.901	12153
640.961	11430
641.021	11483
641.082	12641
641.142	10603
641.202	11837
641.262	8181
641.322	10156
641.382	8555
641.442	11106
641.502	9865
641.562	10811
641.622	9372
641.682	11194
641.742	12767
641.802	12758
641.861	10819
641.921	9700
641.981	9392
642.041	10077
642.101	9388
642.161	8601
642.221	9109
642.280	9589
642.340	8968
642.400	8013
642.460	10095
642.519	9655
642.579	8816
642.639	11106
642.698	7812
642.758	12556
642.818	10481
642.877	9959
642.937	9628
642.997	10084
643.056	9806
643.116	7937
643.175	11441
643.235	10216
643.294	11236
643.354	12317
643.414	13352
643.473	15880
643.532	19894
643.592	26864
643.651	44295
643.711	75783
643.770	146494
643.830	350120
643.889	612557
643.948	157596
644.008	35867
644.067	21753
644.126	15303
644.186	14616
644.245	12318
644.304	9634
644.363	12409
644.423	9726
644.482	11501
644.541	12953
644.600	10629
644.659	15943
644.719	20080
644.778	31635
644.837	56565
644.896	122087
644.955	259601
645.014	74010
645.073	19038
645.132	12446
645.191	12110
645.250	12083
645.309	13963
645.368	13723
645.427	20089
645.486	36896
645.545	61637
645.604	16392
645.663	10423
645.722	10871
645.781	11931
645.840	13769
645.898	17425
645.957	25753
646.016	39155
646.075	73171
646.134	141110
646.192	369784
646.251	461716
646.310	78548
646.369	25051
646.427	21648
646.486	14628
646.545	11736
646.603	10919
646.662	10418
646.721	9382
646.779	9864
646.838	9886
646.896	14064
646.955	20819
647.014	34123
647.072	68775
647.131	183717
647.189	73792
647.248	12221
647.306	9662
647.365	8839
647.423	6199
647.481	8700
647.540	5071
647.598	7577
647.657	6641
647.715	7785
647.773	6234
647.832	7402
647.890	4375
647.948	5463
648.007	5862
648.065	4748
648.123	4452
648.181	6793
648.240	6225
648.298	4762
648.356	5197
648.414	4983
648.472	4147
648.531	5679
648.589	4879
648.647	4838
648.705	4988
648.763	5207
648.821	5192
648.879	5813
648.937	7029
648.995	8237
649.053	11645
649.111	19318
649.169	33040
649.227	63038
649.285	136998
649.343	355148
649.401	145963
649.459	21046
649.516	12609
649.574	8349
649.632	11480
649.690	12513
649.748	15559
649.806	23239
649.863	48504
649.921	133624
649.979	74889
650.037	11605
650.094	3900
650.152	5100
650.210	3502
650.268	5328
650.325	3810
650.383	4132
650.440	3159
650.498	4474
650.556	3318
650.613	3139
650.671	3451
650.728	3439
650.786	4169
650.843	6977
650.901	3366
650.958	3859
651.016	3346
651.073	3876
651.131	2343
651.188	1854
651.246	2118
651.303	2272
651.360	3070
651.418	2090
651.475	2669
651.532	2759
651.590	3032
651.647	2869
651.704	1531
651.762	1849
651.819	2304
651.876	2379
651.933	2119
651.990	2822
652.048	948
652.105	2135
652.162	2147
652.219	1893
652.276	1991
652.333	2805
652.390	882
652.448	2351
652.505	1446
652.562	1860
652.619	1994
652.676	2655
652.733	2831
652.790	1702
652.847	688
652.904	1831
652.961	640
653.017	458
653.074	2223
653.131	1479
653.188	1486
653.245	1911
653.302	1783
653.359	923
653.415	1553
653.472	1590
653.529	2768
653.586	999
653.642	1355
653.699	2863
653.756	1273
653.813	1613
653.869	2869
653.926	1472
653.983	1349
654.039	2255
654.096	1241
654.152	2827
654.209	48
654.266	1241
654.322	542
654.379	2256
654.435	1212
654.492	1835
654.548	1830
654.605	550
654.661	1148
654.717	1642
654.774	2277
654.830	1590
654.887	907
654.943	784
655.000	1832
655.056	1395
655.112	1628
655.168	1322
655.225	1204
655.281	1995
655.337	1991
655.394	1229
655.450	1435
655.506	1101
655.562	1495
655.618	2885
655.675	727
655.731	1604
655.787	284
655.843	1965
655.899	563
655.955	2241
656.011	1677
656.067	696
656.123	1675
656.179	1100
656.235	2835
656.291	327
656.347	1918
656.403	1339
656.459	701
656.515	1904
656.571	557
656.627	1376
656.683	728
656.739	1511
656.795	1620
656.850	889
656.906	1208
656.962	2476
657.018	787
657.074	2055
657.129	4739
657.185	7690
657.241	19526
657.297	8544
657.352	1164
657.408	1350
657.464	1407
657.519	1465
657.575	210
657.630	673
657.686	552
657.742	61
657.797	1106
657.853	126
657.908	2362
657.964	-217
658.019	928
658.075	804
658.130	77
658.186	127
658.241	762
658.297	-276
658.352	587
658.407	1512
658.463	429
658.518	1876
658.573	872
658.629	-49
658.684	673
658.739	864
658.795	22
658.850	603
658.905	923
658.960	966
659.016	291
659.071	747
659.126	47
659.181	-4
659.236	1618
659.291	1387
659.346	162
659.401	1004
659.457	118
659.512	846
659.567	1712
659.622	493
659.677	435
659.732	-464
659.787	426
659.842	403
659.897	901
659.952	1097
660.007	837
660.061	735
660.116	-753
660.171	295
660.226	134
660.281	2033
660.336	563
660.391	1294
660.445	645
660.500	815
660.555	42
660.610	-77
660.664	399
660.719	-487
660.774	594
660.828	1026
660.883	-215
660.938	1581
660.992	-875
661.047	847
661.101	-49
661.156	398
661.211	-288
661.265	-223
661.320	-118
661.374	345
661.429	3
661.483	833
661.538	-852
661.592	151
661.647	184
661.701	749
661.755	158
661.810	509
661.864	-288
661.919	-104
661.973	533
662.027	1088
662.081	-42
662.136	270
662.190	195
662.244	791
662.299	-282
662.353	954
662.407	-67
662.461	839
662.515	10
662.569	422
662.624	48
662.678	-146
662.732	171
662.786	-471
662.840	-165
662.894	788
662.948	-917
663.002	540
663.056	545
663.110	51
663.164	76
663.218	839
663.272	488
663.326	362
663.380	-255
663.434	1098
663.488	-232
663.542	340
663.595	396
663.649	-300
663.703	-166
663.757	904
663.811	-651
663.864	-51
663.918	319
663.972	-438
664.026	-503
664.079	-120
664.133	440
664.187	284
664.240	473
664.294	415
664.348	520
664.401	937
664.455	185
664.508	-605
664.562	562
664.615	577
664.669	-6
664.722	480
664.776	-456
664.829	291
664.883	-270
664.936	-611
664.990	87
665.043	656
665.097	-449
665.150	1454
665.203	20
665.257	-60
665.310	296
665.363	836
665.417	817
665.470	1180
665.523	158
665.576	1219
665.630	408
665.683	36
665.736	451
665.789	101
665.842	-387
665.895	77
665.949	1011
666.002	844
666.055	262
666.108	766
666.161	398
666.214	1495
666.267	606
666.320	844
666.373	1222
666.426	758
666.479	540
666.532	479
666.585	257
666.638	645
666.691	-300
666.744	1281
666.796	284
666.849	491
666.902	1158
666.955	-154
667.008	73
667.060	-653
667.113	-282
667.166	1276
667.219	195
667.271	1150
667.324	490
667.377	410
667.430	-198
667.482	-11
667.535	-265
667.587	503
667.640	362
667.693	344
667.745	1137
667.798	546
667.850	433
667.903	489
667.955	631
668.008	962
668.060	161
668.113	719
668.165	436
668.218	1560
668.270	268
668.322	610
668.375	-10
668.427	837
668.479	250
668.532	924
668.584	654
668.636	698
668.689	349
668.741	292
668.793	181
668.845	242
668.898	662
668.950	981
669.002	601
669.054	-97
669.106	-163
669.158	750
669.211	8
669.263	99
669.315	826
669.367	634
669.419	-1
669.471	1115
669.523	810
669.575	1420
669.627	272
669.679	591
669.731	295
669.783	837
669.835	1125
669.886	629
669.938	471
669.990	324
670.042	-650
670.094	1349
670.146	807
670.197	1320
670.249	846
670.301	846
670.353	2107
670.404	2735
670.456	4780
670.508	7389
670.560	11880
670.611	21854
670.663	38694
670.715	99644
670.766	141673
670.818	33734
670.869	5237
670.921	3938
670.972	2738
671.024	1949
671.075	948
671.127	1228
671.178	1203
671.230	1001
671.281	1295
671.333	1715
671.384	2115
671.436	3736
671.487	6183
671.538	9288
671.590	16058
671.641	26625
671.692	53241
671.744	99025
671.795	57653
671.846	16845
671.897	7327
671.949	4189
672.000	3217
672.051	1718
672.102	1590
672.153	393
672.204	336
672.256	1363
672.307	684
672.358	1440
672.409	-273
672.460	-323
672.511	992
672.562	-358
672.613	362
672.664	254
672.715	270
672.766	419
672.817	-463
672.868	108
672.919	-66
672.970	-95
673.021	-54
673.071	-293
673.122	-794
673.173	-554
673.224	-131
673.275	-387
673.326	-484
673.376	-590
673.427	-553
673.478	-43
673.528	288
673.579	400
673.630	-324
673.680	1020
673.731	-227
673.782	-517
673.832	234
673.883	22
673.934	-557
673.984	-473
674.035	-105
674.085	-485
674.136	494
674.186	232
674.237	-471
674.287	-249
674.338	340
674.388	-76
674.438	-250
674.489	816
674.539	-548
674.589	540
674.640	-106
674.690	312
674.740	-819
674.791	-633
674.841	-259
674.891	420
674.942	146
674.992	-394
675.042	-240
675.092	-732
675.142	-721
675.193	-561
675.243	-967
675.293	302
675.343	-570
675.393	-494
675.443	-34
675.493	-176
675.543	-827
675.593	-603
675.643	602
675.693	-91
675.743	-20
675.793	-39
675.843	-601
675.893	270
675.943	237
675.993	-826
676.043	-117
676.093	816
676.142	-1222
676.192	293
676.242	-589
676.292	-350
676.341	-939
676.391	-888
676.441	-1041
676.491	-162
676.540	-1330
676.590	-405
676.640	-925
676.689	-152
676.739	-992
676.789	-945
676.838	-1241
676.888	-1226
676.937	-386
676.987	-249
677.037	-1546
677.086	-860
677.136	-949
677.185	-210
677.235	-910
677.284	-785
677.333	-1855
677.383	-827
677.432	-1756
677.482	-286
677.531	-717
677.580	-984
677.630	-404
677.679	-1245
677.728	-1117
677.778	-821
677.827	-975
677.876	-787
677.925	-341
677.975	-809
678.024	-435
678.073	-701
678.122	176
678.171	-189
678.220	-460
678.269	431
678.319	98
678.368	-435
678.417	-135
678.466	-306
678.515	305
678.564	-300
678.613	-1160
678.662	-945
678.711	-674
678.760	-851
678.809	-1517
678.857	-764
678.906	-714
678.955	-1095
679.004	-420
679.053	-869
679.102	-824
679.151	-101
679.199	-1059
679.248	-629
679.297	-1281
679.346	-1218
679.394	-725
679.443	-686
679.492	-744
679.540	-387
679.589	-530
679.638	-656
679.686	-810
679.735	-179
679.784	-632
679.832	4
679.881	-1208
679.929	-365
679.978	-1837
680.026	-475
680.075	-976
680.123	-978
680.172	-1445
680.220	-1310
680.268	-1198
680.317	-1170
680.365	-1010
680.414	-1198
680.462	-494
680.510	-380
680.559	-402
680.607	-991
680.655	-668
680.703	-955
680.752	-783
680.800	-1046
680.848	-194
680.896	-1267
680.945	-923
680.993	-1288
681.041	-943
681.089	-564
681.137	-1021
681.185	-752
681.233	-1148
681.258	-1097
681.281	-1068
681.329	-1363
681.377	-771
681.380	-753
681.425	-787
681.473	-720
681.502	-810
681.521	-915
681.569	-516
681.617	-49
681.624	-34
681.665	-69
681.713	-64
681.745	-45
681.761	-67
681.809	-1348
681.857	499
681.867	416
681.904	56
681.952	171
681.989	-61
682.000	-161
682.048	240
682.096	-435
682.111	-370
682.143	-290
682.191	-373
682.233	522
682.239	639
682.286	-97
682.334	-260
682.354	-591
682.382	-1093
682.430	894
682.476	360
682.477	331
682.525	-409
682.572	-760
682.598	-314
682.620	52
682.667	112
682.715	518
682.720	447
682.763	-442
682.810	231
682.841	31
682.857	-98
682.905	412
682.952	15
682.963	111
683.000	401
683.047	212
683.085	1600
683.095	1972
683.142	100
683.190	1154
683.206	988
683.237	564
683.284	1123
683.328	433
683.332	362
683.379	685
683.426	369
683.449	787
683.473	1220
683.521	923
683.568	1090
683.571	1071
683.615	513
683.662	1506
683.693	1336
683.709	1230
683.757	1036
683.804	1348
683.814	1301
683.851	1098
683.898	1298
683.936	1251
683.945	1241
683.992	658
684.039	1270
684.057	1380
684.086	1470
684.133	2226
684.179	989
684.180	935
684.227	1962
684.274	2095
684.300	1544
684.321	1102
684.368	1412
684.415	1312
684.422	1265
684.462	943
684.509	1644
684.543	1599
684.556	1550
684.603	1592
684.649	1801
684.665	1792
684.696	1827
684.743	1739
684.786	2314
684.790	2342
684.837	2026
684.883	2303
684.908	2468
684.930	2614
684.977	2814
685.023	1584
685.029	1685
685.070	2316
685.117	1781
685.150	2223
685.164	2406
685.210	2152
685.257	2570
685.272	2512
685.303	2360
685.350	2835
685.393	2403
685.396	2358
685.443	2567
685.490	2157
685.514	2321
685.536	2425
685.583	2344
685.629	2266
685.636	2328
685.675	2706
685.722	2849
685.757	2508
685.768	2405
685.815	3280
685.861	1985
685.878	2376
685.908	3020
685.954	2299
686.000	2784
686.000	2786
686.047	2477
686.093	3141
686.121	3315
686.139	3451
686.185	3158
686.232	3037
686.242	3196
686.278	3658
686.324	3131
686.363	2702
686.370	2641
686.416	2572
686.463	3927
686.484	3728
686.509	3465
686.555	3505
686.601	3172
686.606	3267
686.647	3916
686.693	3412
686.727	3384
686.739	3451
686.785	2772
686.831	3595
686.848	3563
686.877	3439
686.923	3653
686.969	3690
686.969	3689
687.015	3783
687.061	3559
687.090	3843
687.107	3995
687.153	4170
687.199	4209
687.211	4006
687.245	3418
687.291	4130
687.332	3783
687.336	3771
687.382	4226
687.428	3598
687.453	3992
687.474	4159
687.520	4180
687.565	4434
687.574	4187
687.611	3450
687.657	4364
687.695	4496
687.702	4515
687.748	4644
687.794	4875
687.816	4603
687.839	4272
687.885	4454
687.931	4716
687.937	4672
687.976	4488
688.022	4261
688.058	4555
688.067	4631
688.113	4915
688.158	4639
688.179	4723
688.204	4796
688.249	5006
688.295	4915
688.300	4937
688.340	5087
688.386	4886
688.421	4521
688.431	4451
688.477	4882
688.522	4494
688.542	4815
688.567	5344
688.613	5247
688.658	5922
688.663	5889
688.703	5407
688.749	5103
688.784	5286
688.794	5332
688.839	5343
688.884	5402
688.905	5581
688.930	5775
688.975	5163
689.020	5282
689.026	5231
689.065	5193
689.110	5247
689.146	5413
689.155	5422
689.201	5419
689.246	5628
689.267	5556
689.291	5556
689.336	5494
689.381	5504
689.388	5449
689.426	5119
689.471	5172
689.509	5145
689.516	5168
689.561	5416
689.606	5654
689.630	5578
689.651	5480
689.696	5409
689.741	5519
689.750	5469
689.785	5540
689.830	6178
689.871	5840
689.875	5780
689.920	5724
689.965	5646
689.992	5553
690.010	5582
690.054	5969
690.099	5395
690.112	5497
690.144	5773
690.189	5694
690.233	5397
690.233	5405
690.278	5945
690.323	5741
690.354	5495
690.367	5509
690.412	5596
690.457	5976
690.474	6035
690.501	6065
690.546	6000
690.590	6328
690.595	6300
690.635	6168
690.680	6217
690.716	6063
690.724	6145
690.769	7180
690.813	7801
690.836	7811
690.857	8315
690.902	10131
690.946	12187
690.957	12526
690.991	15949
691.035	20759
691.077	25731
691.080	25644
691.124	21494
691.168	18232
691.198	15663
691.213	14582
691.257	12541
691.301	9587
691.318	8360
691.346	7843
691.390	7512
691.434	7137
691.439	7041
691.478	6854
691.522	7295
691.559	6648
691.567	6563
691.611	7166
691.655	7014
691.680	7061
691.699	7003
691.743	7160
691.787	7073
691.800	6977
691.831	6987
691.875	7044
691.919	7065
691.921	7054
691.964	7068
692.008	6850
692.041	6875
692.052	6910
692.096	6810
692.139	6824
692.162	6780
692.183	6740
692.227	6651
692.271	6818
692.282	6758
692.315	6864
692.359	6983
692.402	7151
692.403	7168
692.447	7514
692.490	7448
692.523	7609
692.534	7609
692.578	6915
692.622	6499
692.643	6549
692.666	6859
692.709	7033
692.753	7345
692.763	7308
692.797	7157
692.840	7462
692.884	7534
692.884	7553
692.928	7504
692.971	7792
693.004	7680
693.015	7625
693.059	7345
693.102	7694
693.124	7658
693.146	7778
693.189	7513
693.233	8013
693.245	8052
693.276	8131
693.320	8252
693.363	8267
693.365	8248
693.407	8862
693.450	9595
693.485	9902
693.493	10078
693.537	11268
693.580	12084
693.605	12725
693.624	14392
693.667	18139
693.710	22136
693.725	23428
693.753	30122
693.797	40966
693.840	51655
693.845	52722
693.883	45256
693.926	37028
693.966	29749
693.970	29177
694.013	22618
694.056	15983
694.086	11325
694.099	11176
694.142	10782
694.185	10025
694.206	10010
694.229	9996
694.272	9004
694.315	8465
694.326	8353
694.358	8459
694.401	8371
694.444	8168
694.446	8141
694.487	8176
694.530	8142
694.566	8095
694.573	8107
694.616	7967
694.659	7987
694.686	7865
694.702	7886
694.745	8272
694.787	8364
694.806	8332
694.830	8224
694.873	8157
694.916	8013
694.926	7958
694.959	8162
695.002	8347
695.044	8573
695.046	8569
695.087	8927
695.130	8773
695.166	8947
695.172	9017
695.215	9019
695.258	9276
695.286	9413
695.301	9433
695.343	9470
695.386	9194
695.406	9205
695.428	9705
695.471	10279
695.514	10971
695.526	11157
695.556	11752
695.599	12840
695.641	13371
695.646	13433
695.684	12983
695.726	12177
695.766	11607
695.769	11630
695.811	11399
695.854	11250
695.886	11093
695.896	11138
695.938	11074
695.981	11298
696.005	11180
696.023	11436
696.065	12194
696.108	12981
696.125	13202
696.150	13305
696.192	13685
696.235	13800
696.245	13822
696.277	14073
696.319	14460
696.361	14615
696.365	14594
696.404	14151
696.446	13723
696.485	13259
696.488	13313
696.530	13467
696.572	13640
696.604	13849
696.614	13843
696.656	13444
696.698	13205
696.724	12972
696.740	13150
696.783	13500
696.825	13912
696.844	14094
696.867	14058
696.909	13726
696.951	13504
696.964	13410
696.992	13597
697.034	13723
697.076	13932
697.083	13912
697.118	14084
697.160	14280
697.202	14558
697.203	14523
697.244	14475
697.286	14400
697.323	14246
697.327	14249
697.369	14029
697.411	13684
697.442	13419
697.453	13553
697.494	13947
697.536	14332
697.562	14544
697.578	14605
697.620	14572
697.661	14630
697.682	14607
697.703	14932
697.744	15478
697.786	16108
697.801	16249
697.828	16343
697.869	16475
697.911	16579
697.921	16546
697.952	16389
697.994	16214
698.035	16049
698.040	15976
698.077	15516
698.118	14957
698.160	14423
698.160	14378
698.201	15281
698.243	16160
698.279	16897
698.284	16955
698.325	17051
698.367	17192
698.399	17198
698.408	17300
698.449	17582
698.491	17819
698.518	17956
698.532	18013
698.573	18034
698.614	18059
698.638	18005
698.656	18143
698.697	18372
698.738	18586
698.757	18642
698.779	18614
698.820	18453
698.862	18304
698.877	18190
698.903	18584
698.944	19153
698.985	19716
698.996	19819
699.026	19394
699.067	18729
699.116	17886
699.235	18328
699.354	18122
699.474	16859
699.593	16966
699.713	16912
699.832	17848
699.951	17860
700.070	17167
700.190	16883
700.309	16606
700.428	15500
700.547	14810
700.667	15755
700.786	15799
700.905	15559
701.024	14934
701.143	14919
701.262	16103
701.381	15507
701.500	15770
701.619	16486
701.738	15370
701.857	14804
701.976	14561
702.095	14983
702.214	16056
702.333	15186
702.452	16019
702.571	15350
702.690	16213
702.809	15119
702.928	14256
703.047	14375
703.165	13487
703.284	14119
703.403	13871
703.522	13569
703.640	13509
703.759	14556
703.878	14358
703.997	12863
704.115	13445
704.234	13889
704.353	14631
704.471	12672
704.590	11635
704.708	11797
704.827	13498
704.946	12303
705.064	12478
705.183	12676
705.301	12457
705.420	12984
705.538	12274
705.656	12152
705.775	11804
705.893	13857
706.012	14086
706.130	11950
706.249	12614
706.367	12241
706.485	11867
706.604	11110
706.722	10401
706.840	12665
706.958	12172
707.077	10933
707.195	10614
707.313	11642
707.431	10620
707.549	11248
707.668	9979
707.786	11716
707.904	10088
708.022	10626
708.140	10254
708.258	11367
708.376	11080
708.494	9725
708.612	11876
708.730	12332
708.848	11443
708.966	10973
709.084	11489
709.202	10206
709.320	10838
709.438	10488
709.556	9792
709.674	9564
709.791	9879
709.909	9716
710.027	9849
710.145	9548
710.263	9947
710.380	9814
710.498	8858
710.616	10381
710.733	8398
710.851	9959
710.969	10004
711.086	9441
711.204	9795
711.322	9208
711.439	9446
711.557	8973
711.674	9627
711.792	8291
711.909	9079
712.027	9203
712.144	8002
712.262	9288
712.379	9127
712.497	10326
712.614	9955
712.732	9307
712.849	8909
712.966	9501
713.084	9428
713.201	8174
713.318	9794
713.436	9855
713.553	9159
713.670	9995
713.787	10450
713.905	8836
714.022	10775
714.139	9776
714.256	12999
714.373	18065
714.490	34426
714.608	101338
714.725	399359
714.842	299515
714.959	29314
715.076	15032
715.193	11805
715.310	10808
715.427	8883
715.544	9224
715.661	8899
715.778	8033
715.895	8647
716.011	8349
716.128	8269
716.245	8121
716.362	7439
716.479	7435
716.596	7970
716.713	7966
716.829	7851
716.946	7168
717.063	6912
717.180	7369
717.296	7236
717.413	7183
717.530	7024
717.646	6931
717.763	6472
717.880	7264
717.996	5843
718.113	6925
718.229	6057
718.346	6236
718.462	5781
718.579	6720
718.695	6342
718.812	7132
718.928	6140
719.045	6480
719.161	6101
719.277	6431
719.394	6466
719.510	7326
719.626	7332
719.743	10730
719.859	16556
719.975	34791
720.092	146997
720.208	263713
720.324	26921
720.440	9914
720.557	7662
720.673	7797
720.789	7185
720.905	10589
721.021	7646
721.137	6183
721.253	6096
721.369	5647
721.486	5578
721.602	6060
721.718	6011
721.834	6071
721.950	5026
722.066	5491
722.181	4773
722.297	5594
722.413	4958
722.529	5315
722.645	4477
722.761	5491
722.877	5578
722.993	6521
723.108	7109
723.224	6386
723.340	4919
723.456	5525
723.571	5355
723.687	5228
723.803	5595
723.918	4807
724.034	4881
724.150	5206
724.265	4788
724.381	5689
724.497	5810
724.612	4056
724.728	4182
724.843	4050
724.959	4405
725.074	5982
725.190	5915
725.305	4987
725.421	4441
725.536	4696
725.651	4428
725.767	5034
725.882	4518
725.997	4708
726.113	4597
726.228	4061
726.343	3742
726.459	3632
726.574	4199
726.689	4005
726.804	4651
726.920	4706
727.035	4364
727.150	3774
727.265	4199
727.380	4318
727.495	4309
727.610	4214
727.725	3805
727.841	4636
727.956	5387
728.071	5567
728.186	4685
728.301	3893
728.416	4414
728.531	4602
728.645	2945
728.760	4173
728.875	4458
728.990	4131
729.105	4398
729.220	3727
729.335	4679
729.449	4261
729.564	4609
729.679	3631
729.794	3611
729.908	4534
730.023	3929
730.138	4141
730.253	4881
730.367	3767
730.482	4517
730.596	4318
730.711	5125
730.826	5686
730.940	6489
731.055	5161
731.169	4448
731.284	5143
731.398	5202
731.513	5996
731.627	5301
731.742	7723
731.856	9696
731.970	9015
732.085	11362
732.199	16706
732.313	29236
732.428	84953
732.542	250208
732.656	117026
732.771	22671
732.885	13166
732.999	12468
733.113	14255
733.227	12776
733.342	11251
733.456	10509
733.570	10898
733.684	10064
733.798	9564
733.912	9431
734.026	9728
734.140	9978
734.254	9497
734.368	10106
734.482	10964
734.596	8671
734.710	9198
734.824	8397
734.938	9197
735.052	8568
735.166	8742
735.280	9240
735.393	8584
735.507	8782
735.621	9004
735.735	8658
735.849	8633
735.962	7480
736.076	8468
736.190	8089
736.303	8749
736.417	8885
736.531	8078
736.644	7642
736.758	7632
736.872	7948
736.985	7712
737.099	6740
737.212	7580
737.326	7413
737.439	8232
737.553	7280
737.666	8411
737.780	7033
737.893	7324
738.007	6794
738.120	7408
738.233	7578
738.347	6813
738.460	6528
738.573	7956
738.687	7366
738.800	7047
738.913	7747
739.026	7107
739.140	7047
739.253	6857
739.366	6894
739.479	7344
739.592	7218
739.705	6698
739.818	6723
739.932	6980
740.045	7174
740.158	6158
740.271	6431
740.384	5966
740.497	4931
740.610	6467
740.723	5990
740.836	5803
740.949	6010
741.062	7146
741.174	5827
741.287	5949
741.400	6609
741.513	5999
741.626	5734
741.739	5822
741.851	5487
741.964	6335
742.077	5469
742.189	5994
742.302	6227
742.415	5124
742.527	4940
742.640	5367
742.753	5863
742.865	6080
742.978	6089
743.090	5570
743.203	5996
743.316	5392
743.428	4823
743.541	5612
743.653	4782
743.766	6119
743.878	4365
743.990	4394
744.103	5855
744.215	5231
744.327	4190
744.440	5803
744.552	5317
744.664	4371
744.777	5308
744.889	5183
745.001	5324
745.113	5710
745.226	4163
745.338	4994
745.450	5756
745.562	4153
745.674	4688
745.786	6229
745.898	4723
746.010	4774
746.122	5164
746.234	5184
746.347	4009
746.459	5906
746.570	4510
746.682	5072
746.794	5044
746.906	4250
747.018	4778
747.130	4871
747.242	3773
747.354	3960
747.466	4673
747.577	4418
747.689	4610
747.801	5546
747.913	4540
748.024	4724
748.136	4256
748.248	3661
748.359	3736
748.471	4942
748.583	3705
748.694	4357
748.806	4891
748.918	4128
749.029	3792
749.141	4503
749.252	4412
749.364	3970
749.475	3920
749.587	3967
749.698	5039
749.809	5042
749.921	4554
750.032	4045
750.144	2898
750.255	3003
750.366	3162
750.478	3848
750.589	4220
750.700	3819
750.811	3660
750.923	3488
751.034	3366
751.145	3801
751.256	2787
751.367	3575
751.479	3629
751.590	3140
751.701	3586
751.812	3186
751.923	3741
752.034	4091
752.145	3825
752.256	3878
752.367	2823
752.478	3736
752.589	3390
752.700	3341
752.811	2975
752.922	3838
753.032	3971
753.143	4365
753.254	2612
753.365	4288
753.476	3471
753.586	3419
753.697	2759
753.808	3589
753.919	3528
754.029	2927
754.140	3381
754.251	3125
754.361	3477
754.472	4037
754.582	2863
754.693	3253
754.804	3960
754.914	2913
755.025	3446
755.135	3436
755.246	3779
755.356	3066
755.466	3282
755.577	3556
755.687	3990
755.798	2713
755.908	2892
756.018	2739
756.129	4497
756.239	3424
756.349	3901
756.460	3568
756.570	4054
756.680	2895
756.790	3054
756.900	3146
757.011	2606
757.121	2796
757.231	3085
757.341	3134
757.451	3161
757.561	2008
757.671	3238
757.781	2518
757.891	3530
758.001	3175
758.111	3828
758.221	4523
758.331	3834
758.441	3445
758.551	3456
758.661	4290
758.771	3640
758.880	4203
758.990	4102
759.100	2804
759.210	3896
759.320	3848
759.429	4979
759.539	4672
759.649	4635
759.758	5264
759.868	5983
759.978	5445
760.087	5032
760.197	5247
760.307	5136
760.416	5243
760.526	4450
760.635	5013
760.745	5837
760.854	5365
760.964	6595
761.073	5792
761.182	5893
761.292	5657
761.401	4700
761.511	4836
761.620	3979
761.729	3954
761.839	3459
761.948	5160
762.057	4183
762.166	4333
762.276	3361
762.385	5972
762.494	4512
762.603	4174
762.712	5463
762.822	4677
762.931	5365
763.040	4705
763.149	5054
763.258	4697
763.367	5840
763.476	6089
763.585	5316
763.694	5924
763.803	5646
763.912	7377
764.021	6834
764.130	6682
764.238	8095
764.347	8749
764.456	7859
764.565	8710
764.674	9777
764.783	10169
764.891	11185
765.000	13525
765.109	14273
765.217	15841
765.326	18659
765.435	22404
765.543	26475
765.652	33674
765.761	44079
765.869	59585
765.978	87511
766.086	134828
766.195	216983
766.303	334339
766.412	338960
766.520	283324
766.629	271908
766.737	180213
766.846	116577
766.954	80145
767.062	58424
767.171	43758
767.279	34551
767.387	28332
767.496	24222
767.604	20340
767.712	18074
767.820	15399
767.928	15040
768.037	14451
768.145	14245
768.253	13288
768.361	11557
768.469	12223
768.577	11934
768.685	13416
768.793	14252
768.901	14905
769.009	17679
769.117	20943
769.225	26075
769.333	37429
769.441	54823
769.549	95265
769.657	178594
769.765	309186
769.873	276500
769.981	238151
770.088	142126
770.196	80917
770.304	52760
770.412	38203
770.519	28382
770.627	23084
770.735	18708
770.842	16082
770.950	13832
771.058	13043
771.165	12971
771.273	11633
771.380	10855
771.488	12333
771.595	12010
771.703	11088
771.810	9980
771.918	10116
772.025	10673
772.133	11519
772.240	10445
772.348	11739
772.455	11140
772.562	10061
772.670	8685
772.777	10019
772.884	9347
772.991	9482
773.099	8829
773.206	7904
773.313	8484
773.420	9051
773.528	7211
773.635	7625
773.742	8826
773.849	7820
773.956	7327
774.063	7927
774.170	7815
774.277	7830
774.384	7137
774.491	7599
774.598	7555
774.705	7492
774.812	6625
774.919	7006
775.026	6828
775.133	7801
775.239	6914
775.346	6943
775.453	7104
775.560	5617
775.667	6874
775.773	6412
775.880	7031
775.987	5899
776.093	6549
776.200	6627
776.307	4944
776.413	6557
776.520	6833
776.627	6585
776.733	5288
776.840	4808
776.946	7899
777.053	6879
777.159	6764
777.266	4335
777.372	8150
777.478	6422
777.585	6970
777.691	4999
777.798	6227
777.904	5139
778.010	5567
778.117	5258
778.223	5538
778.329	5191
778.435	4943
778.542	5652
778.648	4675
778.754	5056
778.860	5716
778.966	5423
779.072	3989
779.178	4957
779.284	4260
779.391	4679
779.497	4712
779.603	6208
779.708	4245
779.815	7956
779.920	22489
780.026	37089
780.132	7279
780.238	3955
780.344	4440
780.450	5785
780.556	3159
780.661	4540
780.767	4727
780.873	3066
780.979	4638
781.085	4245
781.190	3848
781.296	3246
781.402	3571
781.507	4405
781.613	4203
781.719	4268
781.824	4437
781.930	4950
782.035	4250
782.141	5328
782.246	2643
782.352	3438
782.457	4091
782.563	3736
782.668	3885
782.773	3404
782.879	2716
782.984	3814
783.090	4352
783.195	4085
783.300	4068
783.405	4242
783.511	3014
783.616	4256
783.721	3260
783.826	3453
783.932	3715
784.037	3183
784.142	3614
784.247	3591
784.352	2618
784.457	1693
784.562	2691
784.667	3536
784.772	2395
784.877	2351
784.982	4535
785.087	3655
785.192	3220
785.297	3949
785.402	3842
785.507	2477
785.611	3196
785.716	3484
785.821	2579
785.926	3328
786.031	2944
786.135	2675
786.240	2985
786.345	1637
786.450	1831
786.554	2650
786.659	2157
786.763	1695
786.868	3402
786.973	3522
787.077	1620
787.182	1816
787.286	3383
787.391	3084
787.495	2307
787.600	2150
787.704	2101
787.809	3211
787.913	2027
788.017	3360
788.122	3350
788.226	2276
788.330	974
788.435	2520
788.539	2599
788.643	1889
788.747	1148
788.852	1565
788.956	2472
789.060	3178
789.164	1846
789.268	2211
789.372	3263
789.476	2834
789.580	1581
789.684	1758
789.788	1951
789.892	2519
789.996	2107
790.100	1880
790.204	2845
790.308	2695
790.412	1149
790.516	1931
790.620	1300
790.724	2788
790.828	1911
790.931	753
791.035	3398
791.139	1660
791.242	967
791.346	2776
791.450	2157
791.554	1481
791.657	975
791.761	2922
791.864	2486
791.968	2669
792.072	2213
792.175	1672
792.279	1613
792.382	1553
792.486	1842
792.589	2428
792.693	2025
792.796	1204
792.899	2141
793.003	1797
793.106	734
793.209	1295
793.313	2774
793.416	437
793.519	2460
793.623	2086
793.726	1379
793.829	1644
793.932	1341
794.035	515
794.138	3221
794.242	2126
794.345	1531
794.448	2398
794.551	3182
794.654	11354
794.757	19298
794.860	2953
794.963	2160
795.066	1152
795.169	2727
795.272	882
795.375	1666
795.477	1096
795.580	1691
795.683	287
795.786	2363
795.889	580
795.991	2710
796.094	2070
796.197	179
796.300	3198
796.402	1523
796.505	1093
796.608	446
796.710	1715
796.813	1776
796.915	785
797.018	1654
797.120	2191
797.223	196
797.326	3920
797.428	850
797.530	1112
797.633	612
797.735	2905
797.838	877
797.940	2263
798.042	601
798.145	671
798.247	1739
798.349	121
798.452	1337
798.554	1106
798.656	1517
798.758	3272
798.860	1418
798.962	768
799.065	343
799.167	653
799.269	971
799.371	2157
799.473	2531
799.575	1544
799.677	617
799.779	2274
799.881	-702
799.983	2033
800.085	987
800.187	1069
800.289	172
800.390	1082
800.492	2012
800.594	2244
800.696	870
800.798	2107
800.899	722
801.001	1093
801.103	884
801.205	1161
801.306	1581
801.408	45
801.509	1305
801.611	786
801.713	2278
801.814	429
801.916	698
802.017	797
802.119	308
802.220	1424
802.322	-887
802.423	2727
802.525	-265
802.626	1065
802.727	961
802.829	1804
802.930	-1228
803.031	1967
803.133	730
803.234	1111
803.335	1361
803.436	329
803.538	1000
803.639	491
803.740	2170
803.841	239
803.942	1333
804.043	1724
804.144	618
804.245	1189
804.346	189
804.447	654
804.548	52
804.649	1469
804.750	121
804.851	504
804.952	116
805.053	1289
805.154	-663
805.255	1898
805.355	326
805.456	575
805.557	-242
805.658	655
805.758	1439
805.859	1090
805.960	463
806.061	-369
806.161	636
806.262	978
806.362	593
806.463	1036
806.564	1873
806.664	1704
806.765	979
806.865	274
806.966	455
807.066	570
807.166	1441
807.267	778
807.367	-77
807.468	508
807.568	-785
807.668	1848
807.769	1520
807.869	185
807.969	446
808.069	554
808.170	74
808.270	562
808.370	572
808.470	829
808.570	-738
808.670	394
808.770	575
808.870	193
808.970	1497
809.070	-43
809.170	-263
809.271	979
809.370	463
809.470	255
809.570	-167
809.670	-301
809.770	-179
809.870	1361
809.970	686
810.070	452
810.169	1066
810.269	-66
810.369	1377
810.469	1292
810.568	282
810.668	371
810.768	-616
810.867	586
810.967	-850
811.066	321
811.166	287
811.265	1516
811.365	702
811.464	624
811.564	428
811.663	610
811.763	-1130
811.862	572
811.962	1760
812.061	302
812.160	1103
812.260	403
812.359	1019
812.458	120
812.557	955
812.657	1316
812.756	860
812.855	472
812.954	58
813.053	524
813.153	439
813.252	-395
813.351	1235
813.450	716
813.549	-273
813.648	1047
813.747	-242
813.846	858
813.945	282
814.044	664
814.143	498
814.242	1574
814.341	-191
814.439	501
814.538	897
814.637	159
814.736	656
814.835	1257
814.933	282
815.032	1309
815.131	2380
815.229	3554
815.328	5955
815.427	3841
815.525	3887
815.624	3353
815.722	3374
815.821	4028
815.919	3824
816.018	3361
816.116	4423
816.215	3598
816.313	4156
816.412	4266
816.510	4825
816.609	6563
816.707	5801
816.805	5060
816.904	4453
817.002	4878
817.100	5883
817.198	5843
817.296	4333
817.395	4530
817.493	4922
817.591	4497
817.689	4739
817.787	3714
817.885	4079
817.983	4201
818.081	4781
818.179	5655
818.277	10573
818.375	7594
818.473	4179
818.571	4161
818.669	4323
818.767	4963
818.865	3833
818.963	3949
819.061	4234
819.158	4163
819.256	6719
819.354	7742
819.452	15603
819.549	8045
819.647	5065
819.745	3710
819.842	3847
819.940	4330
820.038	2726
820.135	3140
820.233	4701
820.330	3056
820.428	3194
820.525	4535
820.623	3658
820.720	2758
820.818	3601
820.915	4002
821.012	2586
821.110	2184
821.207	4313
821.304	2370
821.402	3438
821.499	4070
821.596	2792
821.693	2916
821.791	3571
821.888	2987
821.985	4016
822.082	2349
822.179	3768
822.276	3579
822.373	2633
822.470	2320
822.567	3264
822.664	2080
822.761	3060
822.858	2758
822.955	3152
823.052	2618
823.149	3038
823.246	3331
823.343	1785
823.440	2956
823.536	3100
823.633	1779
823.730	2408
823.827	2710
823.923	2891
824.020	2583
824.117	2968
824.213	2672
824.310	2757
824.407	1817
824.503	3030
824.600	2302
824.696	1763
824.793	3179
824.889	2674
824.986	2136
825.082	1434
825.179	2796
825.275	3112
825.371	2695
825.468	2231
825.564	160
825.660	2761
825.757	3434
825.853	2132
825.949	1784
826.045	2036
826.142	2151
826.238	2120
826.334	2951
826.430	1486
826.526	2585
826.622	560
826.718	2963
826.814	2528
826.910	2943
827.006	698
827.102	1263
827.198	2963
827.294	3106
827.390	2018
827.486	1719
827.582	359
827.678	1280
827.774	3540
827.869	195
827.965	2524
828.061	503
828.157	2276
828.252	2497
828.348	1272
828.444	2249
828.539	795
828.635	1743
828.731	2957
828.826	711
828.922	2691
829.017	2827
829.113	2417
829.208	651
829.304	1968
829.399	3888
829.495	2435
829.590	2102
829.685	433
829.781	2774
829.876	2287
829.971	78
830.066	202
830.162	1303
830.257	2615
830.352	1075
830.447	1721
830.543	1257
830.638	1040
830.733	2687
830.828	1338
830.923	1752
831.018	2108
831.113	1994
831.208	286
831.303	326
831.398	595
831.493	997
831.588	2612
831.683	532
831.778	823
831.873	389
831.967	2143
832.062	1097
832.157	-54
832.252	1910
832.346	741
832.441	1859
832.536	1764
832.631	2192
832.725	1089
832.820	822
832.914	1145
833.009	432
833.104	623
833.198	1598
833.293	1266
833.387	2074
833.482	751
833.576	123
833.670	1878
833.765	883
833.859	1156
833.954	1349
834.048	1559
834.142	570
834.237	-21
834.331	1391
834.425	316
834.519	577
834.613	1246
834.708	257
834.802	552
834.896	1144
834.990	929
835.084	1773
835.178	-89
835.272	701
835.366	784
835.460	1813
835.554	915
835.648	839
835.742	142
835.836	28
835.930	453
836.024	951
836.117	1512
836.211	362
836.305	770
836.399	1224
836.493	-968
836.586	1336
836.680	481
836.774	961
836.867	1247
836.961	286
837.055	646
837.148	579
837.242	355
837.335	398
837.429	1213
837.522	710
837.616	-112
837.709	1535
837.803	179
837.896	1751
837.989	394
838.083	-101
838.176	456
838.269	-39
838.363	153
838.456	-726
838.549	1366
838.642	-210
838.735	921
838.829	769
838.922	435
839.015	419
839.108	-995
839.201	650
839.294	1157
839.387	954
839.480	178
839.573	-475
839.666	156
839.759	-16
839.852	-315
839.945	1207
840.038	-337
840.131	-746
840.223	259
840.316	953
840.409	276
840.502	-558
840.594	1737
840.687	-133
840.780	221
840.873	-121
840.965	-49
841.058	1210
841.150	1428
841.243	-967
841.336	888
841.428	-61
841.521	-322
841.613	806
841.706	522
841.798	402
841.890	752
841.983	-433
842.075	469
842.167	-93
842.260	762
842.352	1434
842.444	-118
842.537	203
842.629	738
842.721	-119
842.813	789
842.905	-454
842.997	640
843.090	719
843.182	325
843.274	-216
843.366	1008
843.458	2477
843.550	1655
843.642	40
843.734	877
843.826	448
843.918	-38
844.009	813
844.101	-619
844.193	-233
844.285	-203
844.377	739
844.469	245
844.560	363
844.652	-230
844.744	137
844.835	130
844.927	148
845.019	373
845.110	586
845.202	89
845.293	252
845.385	-1271
845.476	-166
845.568	329
845.659	104
845.751	960
845.842	215
845.934	-518
846.025	-710
846.116	39
846.208	381
846.299	-20
846.390	364
846.482	-272
846.573	980
846.664	-153
846.755	-214
846.846	533
846.937	-1210
847.029	-660
847.120	-766
847.211	5
847.302	1031
847.393	-861
847.484	1349
847.575	89
847.666	-873
847.757	200
847.847	468
847.938	1080
848.029	554
848.120	-66
848.211	-467
848.302	-1146
848.392	143
848.483	305
848.574	-492
848.664	43
848.755	442
848.846	587
848.936	-261
849.027	38
849.118	-561
849.208	-219
849.299	1101
849.389	2347
849.480	5338
849.570	11984
849.661	23236
849.751	32223
849.841	8253
849.932	613
850.022	-450
850.112	558
850.203	-311
850.293	736
850.383	-157
850.474	-360
850.564	-214
850.654	-82
850.744	-609
850.834	211
850.924	-222
851.014	986
851.104	-254
851.194	-344
851.284	-523
851.374	-870
851.464	-107
851.554	213
851.644	-53
851.734	-13
851.824	633
851.914	-639
852.004	927
852.094	-149
852.183	184
852.273	596
852.363	-151
852.452	-251
852.542	-172
852.632	-319
852.721	-139
852.811	-99
852.901	210
852.990	-311
853.080	475
853.169	-140
853.259	215
853.348	618
853.438	1203
853.527	2408
853.617	2557
853.706	5606
853.795	11654
853.885	27216
853.974	48332
854.063	90828
854.152	110523
854.242	37631
854.331	8854
854.420	3665
854.509	1894
854.598	1886
854.687	1488
854.777	837
854.866	-445
854.955	118
855.044	-390
855.133	-144
855.222	-462
855.311	-441
855.400	779
855.488	-257
855.577	-745
855.666	-559
855.755	-654
855.844	197
855.933	-84
856.021	-108
856.110	-541
856.199	-871
856.288	-1208
856.376	-384
856.465	-605
856.554	-866
856.642	-85
856.731	-101
856.819	583
856.908	770
856.996	-509
857.085	-423
857.173	130
857.262	-739
857.350	-87
857.438	-931
857.527	520
857.615	-994
857.703	155
857.792	26
857.880	-867
857.968	-294
858.056	-208
858.145	-499
858.233	-178
858.321	-583
858.409	338
858.497	-432
858.585	-715
858.673	464
858.761	-997
858.849	-913
858.937	-1650
859.025	146
859.113	-268
859.201	-224
859.289	1008
859.377	-809
859.465	-37
859.552	-1033
859.640	-64
859.728	-100
859.816	-5
859.903	-729
859.991	302
860.079	70
860.166	144
860.254	223
860.342	161
860.429	-836
860.517	-800
860.604	-316
860.692	-329
860.779	-1262
860.867	-144
860.954	-89
861.042	-157
861.129	336
861.216	330
861.304	-597
861.391	-131
861.478	-73
861.565	855
861.653	395
861.740	-510
861.827	-515
861.914	388
862.001	-1079
862.089	-425
862.176	371
862.263	-169
862.350	410
862.437	-133
862.524	-1043
862.611	-701
862.698	424
862.785	760
862.871	576
862.958	-925
863.045	-294
863.132	-139
863.219	-120
863.306	-321
863.392	419
863.479	-290
863.566	-512
863.652	1
863.739	-564
863.826	341
863.912	345
863.999	168
864.086	743
864.172	490
864.259	557
864.345	50
864.432	318
864.518	499
864.604	633
864.691	385
864.777	1271
864.863	1151
864.950	2054
865.036	1775
865.122	4905
865.209	5287
865.295	4688
865.381	4298
865.467	3745
865.553	5530
865.639	6082
865.726	8909
865.812	16184
865.898	28816
865.984	40380
866.070	76089
866.156	64873
866.242	18065
866.328	7146
866.414	5492
866.499	5079
866.585	4527
866.671	3766
866.757	3090
866.843	4223
866.928	2972
867.014	3462
867.100	3617
867.186	3389
867.271	2997
867.357	2628
867.442	3266
867.528	3120
867.614	3438
867.699	2736
867.785	4458
867.870	2625
867.956	2967
868.041	3827
868.127	3521
868.212	4111
868.297	3811
868.383	3144
868.468	3695
868.553	3488
868.639	3567
868.724	2712
868.809	3456
868.894	2934
868.979	2526
869.065	3085
869.150	2171
869.235	2527
869.320	3187
869.405	2293
869.490	2878
869.575	2366
869.660	1688
869.745	3683
869.830	2287
869.915	1347
870.000	2500
870.085	1558
870.169	2982
870.254	3281
870.339	798
870.424	1593
870.509	2283
870.593	3153
870.678	2414
870.763	1743
870.847	1642
870.932	2731
871.016	2227
871.101	1757
871.186	2582
871.270	3308
871.355	2161
871.439	1631
871.523	2437
871.608	1377
871.692	2107
871.777	3593
871.861	2641
871.945	1955
872.030	2515
872.114	1193
872.198	1856
872.282	2197
872.367	1714
872.451	1573
872.535	1523
872.619	2218
872.703	1989
872.787	2213
872.871	2160
872.955	1981
873.039	1753
873.123	1651
873.207	2526
873.291	767
873.375	1997
873.459	2470
873.543	1068
873.627	1494
873.711	1636
873.794	2602
873.878	1474
873.962	828
874.045	521
874.129	806
874.137	861
874.213	1416
874.245	1348
874.296	1229
874.352	1073
874.380	1002
874.460	1329
874.464	1341
874.547	1431
874.568	1592
874.631	2079
874.676	2068
874.714	2045
874.784	2703
874.798	2839
874.881	2153
874.892	2044
874.965	1268
874.999	1458
875.048	1760
875.107	1637
875.131	1552
875.215	689
875.215	689
875.298	913
875.323	979
875.381	1072
875.430	1812
875.465	2354
875.538	1569
875.548	1450
875.631	521
875.646	498
875.714	479
875.753	190
875.798	-126
875.861	1701
875.881	2249
875.964	1170
875.968	1156
876.047	991
876.076	1232
876.130	1681
876.183	1505
876.213	1383
876.291	1386
876.296	1391
876.379	1315
876.398	1300
876.462	1108
876.506	1005
876.545	1041
876.613	1178
876.628	1179
876.711	1442
876.721	1419
876.794	1332
876.828	1253
876.877	1028
876.935	862
876.960	859
877.043	695
877.043	697
877.125	1204
877.150	1385
877.208	1844
877.258	1302
877.291	929
877.365	579
877.374	532
877.456	533
877.472	550
877.539	682
877.579	1130
877.622	1664
877.687	1326
877.704	1173
877.787	1085
877.794	1081
877.869	1202
877.901	1098
877.952	892
878.008	903
878.034	886
878.115	981
878.117	989
878.199	722
878.222	960
878.282	1537
878.329	1568
878.364	1506
878.437	1355
878.447	1333
878.529	988
878.544	965
878.611	922
878.651	825
878.694	806
878.758	1241
878.776	1311
878.858	865
878.865	861
878.941	1218
878.972	1122
879.023	558
879.078	342
879.105	541
879.185	1853
879.187	1866
879.269	1684
879.292	1501
879.351	1116
879.399	943
879.433	923
879.506	1185
879.516	1211
879.598	1043
879.613	1001
879.680	903
879.720	1258
879.762	1671
879.827	1730
879.844	1646
879.926	916
879.933	884
880.007	1068
880.040	1167
880.089	1192
880.147	1730
880.171	2104
880.253	3722
880.254	3725
880.335	3965
880.360	4429
880.417	6832
880.467	9409
880.499	10766
880.574	11792
880.580	11540
880.662	5099
880.680	4008
880.744	1451
880.787	933
880.825	1209
880.893	1224
880.907	1163
880.989	1032
881.000	964
881.070	1039
881.106	1185
881.152	1076
881.213	1129
881.233	1218
881.315	1625
881.319	1620
881.396	1379
881.426	1123
881.478	929
881.532	1624
881.559	1805
881.639	1365
881.641	1361
881.722	967
881.745	1073
881.803	1300
881.852	1046
881.885	935
881.958	656
881.966	627
882.047	1054
882.064	1046
882.129	990
882.171	848
882.210	537
882.277	495
882.291	590
882.372	823
882.383	920
882.454	1626
882.489	1370
882.535	790
882.596	866
882.616	958
882.697	979
882.702	964
882.778	999
882.808	1201
882.859	944
882.914	373
882.940	426
883.020	862
883.021	867
883.102	756
883.127	961
883.183	1678
883.233	1906
883.264	1568
883.339	1152
883.345	1176
883.426	865
883.445	837
883.507	781
883.551	909
883.587	1201
883.657	1649
883.668	1644
883.749	1680
883.763	1588
883.830	1079
883.869	1040
883.910	935
883.975	540
883.991	622
884.072	1474
884.081	1521
884.152	1314
884.187	1178
884.233	1554
884.292	2192
884.314	2015
884.394	694
884.398	662
884.475	724
884.504	662
884.555	706
884.610	544
884.636	636
884.716	1694
884.716	1701
884.797	1792
884.821	1730
884.877	1481
884.927	1244
884.958	1115
885.033	948
885.038	930
885.118	487
885.139	443
885.199	1085
885.244	1494
885.279	1640
885.350	1850
885.359	1862
885.439	2122
885.456	2065
885.520	1648
885.561	1524
885.600	1280
885.667	1025
885.680	1065
885.760	952
885.773	969
885.840	1276
885.878	1364
885.920	1127
885.984	965
886.000	1068
886.080	1405
886.089	1445
886.160	1944
886.195	2065
886.240	1846
886.300	1756
886.320	1691
886.400	1217
886.406	1186
886.480	955
886.511	867
886.560	1117
886.616	1432
886.640	1485
886.720	1489
886.722	1486
886.800	1215
886.827	1160
886.879	956
886.932	663
886.959	1226
887.038	2737
887.039	2735
887.119	1828
887.143	1583
887.198	1638
887.248	1737
887.278	1758
887.354	1655
887.358	1640
887.437	1236
887.459	1109
887.517	1585
887.564	1989
887.596	1795
887.669	1430
887.676	1339
887.755	83
887.774	-211
887.835	629
887.880	1266
887.914	1244
887.985	1073
887.994	1157
888.073	2105
888.090	2257
888.153	2147
888.195	2037
888.232	1793
888.300	1437
888.311	1319
888.391	348
888.405	181
888.470	941
888.510	1436
888.549	1425
888.615	1370
888.628	1405
888.708	1623
888.720	1647
888.787	1077
888.825	687
888.866	805
888.930	1076
888.945	1132
889.024	1486
889.035	1513
889.103	1500
889.140	1521
889.182	1382
889.245	1132
889.261	1297
889.340	2099
889.349	2185
889.419	1627
889.454	1354
889.498	1784
889.559	2368
889.577	2193
889.656	1414
889.664	1336
889.735	1957
889.768	2252
889.814	1978
889.873	1601
889.978	1494
890.083	844
890.187	1809
890.292	1345
890.397	1173
890.501	1091
890.606	1266
890.710	1659
890.815	1754
890.919	1572
891.024	2053
891.128	1098
891.233	1626
891.337	1208
891.442	1991
891.546	1105
891.650	968
891.755	527
891.859	2095
891.963	1398
892.068	1727
892.172	996
892.276	811
892.380	1502
892.484	2370
892.589	1775
892.693	1233
892.797	600
892.901	1201
893.005	1622
893.109	2405
893.213	2638
893.317	1232
893.421	258
893.525	440
893.629	495
893.733	2323
893.837	1187
893.941	2060
894.045	1220
894.148	512
894.252	1412
894.356	2390
894.460	2125
894.564	1139
894.667	825
894.771	674
894.875	1168
894.978	719
895.082	552
895.186	1702
895.289	1527
895.393	1395
895.496	1893
895.600	1436
895.703	-23
895.807	1696
895.910	703
896.014	1983
896.117	1735
896.221	1851
896.324	1105
896.427	1455
896.531	720
896.634	1534
896.737	1473
896.840	1149
896.944	733
897.047	1825
897.150	1019
897.253	864
897.356	214
897.460	502
897.563	516
897.666	1753
897.769	797
897.872	803
897.975	836
898.078	1135
898.181	369
898.284	1578
898.387	643
898.490	1206
898.593	1014
898.695	298
898.798	1011
898.901	465
899.004	304
899.107	1197
899.209	553
899.312	1916
899.415	874
899.518	789
899.620	323
899.723	179
899.826	1146
899.928	821
900.031	599
900.133	1597
900.236	393
900.338	1144
900.441	788
900.543	1100
900.646	336
900.748	503
900.851	974
900.953	1515
901.055	279
901.158	903
901.260	762
901.362	1434
901.465	-24
901.567	862
901.669	405
901.771	570
901.873	931
901.976	941
902.078	1227
902.180	838
902.282	402
902.384	1143
902.486	1846
902.588	1965
902.690	571
902.792	1319
902.894	552
902.996	549
903.098	748
903.200	389
903.302	578
903.404	777
903.505	371
903.607	1397
903.709	1657
903.811	980
903.913	931
904.014	858
904.116	165
904.218	690
904.319	537
904.421	2393
904.523	829
904.624	1198
904.726	538
904.827	651
904.929	-224
905.030	925
905.132	1249
905.233	1052
905.335	-695
905.436	673
905.537	149
905.639	617
905.740	-292
905.841	1519
905.943	1686
906.044	261
906.145	1022
906.247	69
906.348	733
906.449	1151
906.550	963
906.651	830
906.752	-425
906.854	719
906.955	515
907.056	234
907.157	1904
907.258	1249
907.359	166
907.460	942
907.561	-72
907.662	908
907.762	1603
907.863	804
907.964	119
908.065	798
908.166	445
908.267	1079
908.367	-229
908.468	531
908.569	-30
908.670	1075
908.770	1448
908.871	841
908.971	1330
909.072	572
909.173	-563
909.273	1165
909.374	1759
909.474	500
909.575	396
909.675	136
909.776	517
909.876	662
909.977	897
910.077	1718
910.177	791
910.278	895
910.378	-645
910.478	486
910.579	349
910.679	1522
910.779	609
910.879	824
910.980	217
911.080	1869
911.180	-105
911.280	174
911.380	-470
911.480	1065
911.580	-11
911.680	651
911.780	1271
911.880	1407
911.980	241
912.080	1196
912.180	653
912.280	389
912.380	987
912.480	-140
912.580	-487
912.679	1091
912.779	424
912.879	855
912.979	3
913.078	603
913.178	-1
913.278	1002
913.377	499
913.477	1537
913.577	299
913.676	1622
913.776	663
913.875	289
913.975	840
914.074	886
914.174	36
914.273	-425
914.373	840
914.472	1014
914.572	603
914.671	323
914.770	46
914.870	940
914.969	-526
915.068	1362
915.167	780
915.267	863
915.366	500
915.465	1277
915.564	-256
915.663	436
915.763	-403
915.862	939
915.961	972
916.060	528
916.159	62
916.258	137
916.357	-65
916.456	1445
916.555	820
916.654	582
916.752	396
916.851	821
916.950	-28
917.049	477
917.148	-99
917.247	488
917.345	30
917.444	341
917.543	616
917.642	-217
917.740	679
917.839	812
917.937	1670
918.036	941
918.135	72
918.233	843
918.332	-235
918.430	1199
918.529	-353
918.627	955
918.726	271
918.824	741
918.923	-83
919.021	1037
919.119	202
919.218	411
919.316	1004
919.414	784
919.512	221
919.611	1364
919.709	560
919.807	1547
919.905	182
920.003	1524
920.102	1501
920.200	1310
920.298	1112
920.396	529
920.494	822
920.592	1031
920.690	50
920.788	334
920.886	976
920.984	1390
921.082	112
921.180	1712
921.277	1813
921.375	1722
921.473	2281
921.571	1860
921.669	1292
921.766	2334
921.864	1680
921.962	2450
922.060	1250
922.157	2524
922.255	1610
922.352	2354
922.450	1996
922.548	2312
922.645	3028
922.743	3793
922.840	5537
922.938	7476
923.035	6275
923.133	6086
923.230	6402
923.327	8738
923.425	7345
923.522	7542
923.619	6645
923.717	6589
923.814	6250
923.911	6077
924.008	6882
924.106	6068
924.203	5818
924.300	6576
924.397	5486
924.494	6602
924.591	5878
924.688	5986
924.786	5888
924.883	6047
924.979	5569
925.077	6076
925.173	5804
925.270	6289
925.367	5400
925.464	6767
925.561	6545
925.658	6444
925.755	5411
925.852	6996
925.948	5538
926.045	6026
926.142	6019
926.239	6052
926.335	4869
926.432	5464
926.529	5582
926.625	6498
926.722	5094
926.818	5726
926.915	5288
927.011	5521
927.108	4915
927.204	5756
927.301	4229
927.397	5422
927.494	5944
927.590	4303
927.687	4474
927.783	6682
927.879	5342
927.976	5033
928.072	3866
928.168	6063
928.264	4535
928.361	5948
928.457	5123
928.553	5189
928.649	4508
928.745	5835
928.841	4674
928.937	5370
929.033	5028
929.129	4389
929.225	4745
929.321	5426
929.417	4298
929.513	5127
929.609	4230
929.705	4830
929.801	5406
929.897	3952
929.993	4679
930.089	4659
930.184	2806
930.280	5091
930.376	5800
930.471	5168
930.567	3070
930.663	4992
930.758	2998
930.854	4032
930.950	3795
931.045	3418
931.141	3771
931.236	5527
931.332	4437
931.427	2768
931.523	5315
931.618	4536
931.714	2662
931.809	4598
931.905	4129
932.000	3592
932.095	2463
932.191	5259
932.286	5066
932.381	4134
932.476	3353
932.572	4310
932.667	3365
932.762	3698
932.857	4406
932.952	4664
933.047	3167
933.142	2454
933.237	3789
933.332	4060
933.427	4607
933.522	3653
933.617	2570
933.712	3733
933.807	3992
933.902	4453
933.997	5049
934.092	3468
934.187	3383
934.282	3414
934.376	3194
934.471	4429
934.566	3262
934.661	3728
934.755	4085
934.850	4157
934.945	3608
935.039	2821
935.134	1831
935.228	3804
935.323	5099
935.417	3825
935.512	1547
935.606	1356
935.701	3558
935.795	4772
935.890	3793
935.984	2519
936.079	2226
936.173	3580
936.267	2532
936.362	2535
936.456	3068
936.550	4178
936.644	3736
936.738	3184
936.833	2262
936.927	1665
937.021	1868
937.115	2778
937.209	3078
937.303	4050
937.397	2166
937.491	2902
937.585	4401
937.679	4219
937.773	2495
937.867	2295
937.961	1897
938.055	4515
938.149	3554
938.243	2037
938.337	2247
938.430	2105
938.524	4432
938.618	3342
938.712	2337
938.805	2664
938.899	2982
938.993	3527
939.086	2224
939.180	1856
939.274	1663
939.367	3466
939.461	3524
939.554	3326
939.648	2057
939.741	2443
939.835	2893
939.928	3828
940.022	3148
940.115	2350
940.208	2661
940.302	4778
940.395	4472
940.488	2179
940.582	2289
940.675	1247
940.768	1900
940.861	2292
940.954	3646
941.048	2436
941.141	2186
941.234	1662
941.327	1572
941.420	3524
941.513	3050
941.606	2211
941.699	2363
941.792	3473
941.885	3325
941.978	3961
942.071	2223
942.164	1449
942.257	2401
942.349	2460
942.442	2144
942.535	1890
942.628	1407
942.721	2477
942.813	1893
942.906	3441
942.999	1435
943.091	1742
943.184	2160
943.277	2446
943.369	2246
943.462	1322
943.554	1260
943.647	2069
943.739	2873
943.832	3289
943.924	1164
944.017	1882
944.109	728
944.201	1760
944.294	2310
944.386	2363
944.478	1553
944.571	2131
944.663	1765
944.755	1597
944.847	2155
944.940	1702
945.032	532
945.124	1677
945.216	2277
945.308	1803
945.400	2384
945.492	2336
945.584	2286
945.676	2871
945.768	1703
945.860	2127
945.952	2435
946.044	2687
946.136	1067
946.228	2268
946.320	1564
946.412	2145
946.503	1965
946.595	2797
946.687	906
946.779	1098
946.870	1206
946.962	1329
947.054	1753
947.145	2006
947.237	1643
947.329	2523
947.420	1827
947.512	1777
947.603	563
947.695	1717
947.786	1045
947.878	1343
947.969	2184
948.061	1992
948.152	1714
948.243	1691
948.335	1771
948.426	1200
948.517	1239
948.609	2021
948.700	1053
948.791	1005
948.882	1391
948.973	1803
949.065	1853
949.156	2768
949.247	1274
949.338	1842
949.429	313
949.520	972
949.611	1330
949.702	2456
949.793	1666
949.884	1316
949.975	1303
950.066	943
950.157	1269
950.247	1417
950.338	1009
950.429	1096
950.520	1380
950.611	1230
950.701	1423
950.792	2394
950.883	2296
950.973	1592
951.064	1240
951.155	1717
951.245	2699
951.336	1835
951.427	1251
951.517	3554
951.608	2018
951.698	1259
951.788	836
951.879	1266
951.969	1357
952.060	689
952.150	1889
952.240	1952
952.331	942
952.421	2123
952.511	927
952.602	837
952.692	443
952.782	1448
952.872	1100
952.962	1669
953.052	778
953.143	843
953.233	1631
953.323	2441
953.413	548
953.503	2233
953.593	1605
953.683	1684
953.773	-64
953.863	1930
953.953	1448
954.042	1873
954.132	1241
954.222	1817
954.312	721
954.402	1598
954.492	1187
954.581	1717
954.671	1674
954.761	933
954.850	1469
954.940	992
955.030	954
955.119	539
955.209	668
955.298	1097
955.388	1879
955.477	2110
955.567	-16
955.656	1604
955.746	757
955.835	751
955.925	914
956.014	1387
956.103	1663
956.193	2749
956.282	2058
956.371	1239
956.461	734
956.550	496
956.639	1290
956.728	1522
956.817	1076
956.906	1298
956.995	2059
957.085	966
957.174	1124
957.263	1321
957.352	1062
957.441	1592
957.530	995
957.619	1545
957.708	837
957.796	2165
957.885	1038
957.974	1292
958.063	888
958.152	571
958.241	1291
958.329	1444
958.418	1177
958.507	1418
958.596	2331
958.684	356
958.773	1698
958.861	1004
958.950	-47
959.039	886
959.127	186
959.216	1390
959.304	648
959.393	1454
959.481	1144
959.570	1435
959.658	-177
959.746	740
959.835	1357
959.923	479
960.011	343
960.100	2173
960.188	729
960.276	1376
960.365	334
960.453	1155
960.541	-281
960.629	1233
960.717	468
960.805	185
960.893	513
960.981	652
961.069	1926
961.158	1313
961.245	1868
961.333	2208
961.421	966
961.509	1339
961.597	1023
961.685	1402
961.773	222
961.861	1124
961.949	1825
962.036	20
962.124	254
962.212	499
962.299	231
962.387	860
962.475	381
962.562	371
962.650	1105
962.738	684
962.825	-98
962.913	1418
963.000	151
963.088	672
963.175	-304
963.263	728
963.350	199
963.438	935
963.525	827
963.612	1586
963.700	-495
963.787	3111
963.874	373
963.962	1008
964.049	-22
964.136	1126
964.223	97
964.310	816
964.398	848
964.485	756
964.572	229
964.659	1035
964.746	257
964.833	957
964.920	501
965.007	656
965.094	-104
965.181	387
965.268	1009
965.355	417
965.441	1121
965.528	203
965.615	874
965.702	1786
965.789	-309
965.875	981
965.962	1089
966.049	-29
966.136	927
966.222	470
966.309	1224
966.395	817
966.482	1877
966.569	1515
966.655	741
966.742	1000
966.828	308
966.915	611
967.001	509
967.087	-476
967.174	773
967.260	1769
967.347	230
967.433	474
967.519	1515
967.605	773
967.692	300
967.778	1209
967.864	333
967.950	544
968.036	-260
968.123	1357
968.209	569
968.295	330
968.381	667
968.467	665
968.553	-668
968.639	1675
968.725	-269
968.811	1158
968.897	1149
968.983	554
969.069	36
969.154	248
969.240	260
969.326	-577
969.412	96
969.497	131
969.583	-424
969.669	2308
969.755	722
969.840	184
969.926	1303
970.012	2618
970.097	2479
970.183	1560
970.268	708
970.354	1838
970.439	202
970.525	1864
970.610	-240
970.696	2266
970.781	1228
970.866	-131
970.952	448
971.037	345
971.122	896
971.208	793
971.293	464
971.378	-339
971.463	57
971.549	1180
971.634	9
971.719	1140
971.804	91
971.889	1744
971.974	-289
972.059	-263
972.144	-80
972.229	901
972.314	-66
972.399	1122
972.484	-396
972.569	360
972.654	-90
972.739	1565
972.824	-52
972.908	103
972.993	-57
973.078	-189
973.163	209
973.247	1577
973.332	-580
973.417	1732
973.501	-462
973.586	797
973.671	471
973.755	-53
973.840	523
973.924	1220
974.009	1742
974.093	726
974.178	1713
974.262	332
974.346	61
974.431	972
974.515	650
974.600	275
974.684	374
974.768	229
974.852	1036
974.937	-5
975.021	684
975.105	414
975.189	109
975.273	691
975.358	-725
975.442	-649
975.526	871
975.610	-271
975.694	-262
975.778	1549
975.862	-127
975.946	-1563
976.030	1669
976.114	-114
976.198	-229
976.281	179
976.365	1054
976.449	594
976.533	656
976.617	383
976.700	-151
976.784	119
976.868	345
976.951	732
977.035	-214
977.119	717
977.202	195
977.286	850
977.369	274
977.453	2370
977.536	1117
977.620	432
977.703	842
977.787	-89
977.870	1410
977.953	1801
978.037	-516
978.120	1836
978.203	390
978.287	411
978.370	395
978.453	-379
978.536	-37
978.620	1595
978.703	1088
978.786	505
978.869	-99
978.952	-398
979.035	1275
979.118	1514
979.201	-483
979.284	1657
979.367	261
979.450	1004
979.533	-20
979.616	784
979.699	-240
979.782	949
979.865	247
979.948	174
980.030	-507
980.113	801
980.196	-909
980.279	1349
980.361	434
980.444	332
980.526	1343
980.609	1336
980.692	2082
980.774	2010
980.857	80
980.939	1719
981.022	245
981.104	568
981.187	731
981.269	1859
981.352	915
981.434	11
981.516	590
981.599	1053
981.681	511
981.763	328
981.846	818
981.928	1064
982.010	761
982.092	-266
982.174	1073
982.256	669
982.339	100
982.421	868
982.503	644
982.585	-279
982.667	344
982.749	1225
982.831	583
982.913	-230
982.995	322
983.077	448
983.158	1823
983.240	646
983.322	1131
983.404	2172
983.486	636
983.568	1246
983.649	1761
983.731	1633
983.813	1057
983.894	1408
983.976	315
984.058	1014
984.139	1150
984.221	33
984.302	1791
984.384	1095
984.465	20
984.547	1755
984.628	-8
984.710	2266
984.791	649
984.872	911
984.954	-77
985.035	1060
985.116	435
985.198	675
985.279	1732
985.360	677
985.441	411
985.522	2265
985.604	1011
985.685	207
985.766	1124
985.847	1497
985.928	-208
986.009	562
986.090	125
986.171	1521
986.252	501
986.333	890
986.414	223
986.495	1304
986.576	604
986.656	927
986.737	919
986.818	1355
986.899	356
986.980	698
987.060	1206
987.141	1244
987.222	1356
987.302	1091
987.383	2362
987.464	1212
987.544	1825
987.625	1740
987.705	1981
987.786	1780
987.866	428
987.947	1773
988.027	1231
988.108	1473
988.188	1106
988.268	1103
988.349	1226
988.429	1366
988.509	1355
988.589	703
988.670	-623
988.750	3079
988.830	969
988.910	1052
988.990	968
989.070	1305
989.151	1008
989.231	510
989.311	1572
989.391	1110
989.471	1523
989.551	955
989.631	340
989.711	2202
989.791	-35
989.870	699
989.950	1571
990.030	722
990.110	223
990.190	772
990.269	1088
990.349	1707
990.429	1289
990.509	1640
990.588	-280
990.668	1265
990.747	817
990.827	950
990.907	1208
990.986	476
991.066	937
991.145	638
991.225	1315
991.304	1367
991.383	948
991.463	693
991.542	1442
991.622	911
991.701	567
991.780	613
991.859	62
991.939	947
992.018	6
992.097	1354
992.176	33
992.256	376
992.335	-219
992.414	1214
992.493	149
992.572	54
992.651	947
992.730	-111
992.809	709
992.888	-82
992.967	-211
993.046	462
993.125	-728
993.203	886
993.282	435
993.361	509
993.440	522
993.519	51
993.597	399
993.676	-130
993.755	1517
993.834	1044
993.912	-422
993.991	1460
994.069	-403
994.148	215
994.226	-623
994.305	639
994.384	15
994.462	1994
994.540	-1213
994.619	-345
994.697	12
994.776	493
994.854	690
994.932	-667
995.011	443
995.089	515
995.167	-442
995.245	672
995.324	-950
995.402	644
995.480	-1680
995.558	1377
995.636	-1092
995.714	-11
995.792	745
995.870	-643
995.948	-669
996.026	58
996.104	-1156
996.182	541
996.260	-520
996.338	170
996.416	-642
996.494	-424
996.572	1809
996.649	-395
996.727	-960
996.805	137
996.883	-15
996.960	-217
997.038	-215
997.116	250
997.193	-756
997.271	307
997.348	-398
997.426	45
997.504	-620
997.581	-399
997.658	454
997.736	-1555
997.813	-1743
997.891	864
997.968	-868
998.046	198
998.123	-553
998.200	506
998.277	-1027
998.355	-287
998.432	-1400
998.509	-98
998.586	-550
998.663	499
998.741	-1166
998.818	-1041
998.895	-2049
998.972	-86
999.049	-20
999.126	-1023
999.203	-609
999.280	51
999.357	-813
999.434	-643
999.511	-1220
999.587	-304
999.664	-1319
999.741	69
999.818	-425
999.895	-670
999.971	-995
1000.048	-114
1000.125	8
1000.202	-1241
1000.278	-229
1000.355	-561
1000.431	-852
1000.508	-1171
1000.584	-910
1000.661	-794
1000.738	-1587
1000.814	-866
1000.890	-163
1000.967	-671
1001.043	-444
1001.120	-1510
1001.196	-495
1001.272	-2031
1001.349	-860
1001.425	-225
1001.501	-621
1001.577	-449
1001.654	-276
1001.730	-593
1001.806	-596
1001.882	-1348
1001.958	-417
1002.034	-75
1002.110	-837
1002.186	-1190
1002.262	-1773
1002.338	-1530
1002.414	-394
1002.490	-126
1002.566	-2141
1002.642	-1624
1002.718	-608
1002.794	-389
1002.870	-1716
1002.945	-1049
1003.021	-1318
1003.097	-920
1003.173	-1066
1003.248	-925
1003.324	-1181
1003.400	42
1003.475	-2077
1003.551	-916
1003.626	-1786
1003.702	-915
1003.777	-1189
1003.853	-421
1003.928	-1962
1004.004	-839
1004.079	-1164
1004.155	-279
1004.230	-2231
1004.305	176
1004.381	-2826
1004.456	-968
1004.531	-1134
1004.607	-415
1004.682	-1353
1004.757	-520
1004.832	-1161
1004.907	-873
1004.982	-813
1005.057	-974
1005.133	-1556
1005.208	-739
1005.283	-1444
1005.358	-946
1005.433	-2463
1005.508	-731
1005.583	-2115
1005.657	-908
1005.732	-1113
1005.807	-1117
1005.882	-1248
1005.957	-1028
1006.032	-1131
1006.106	-1263
1006.181	-1432
1006.256	-1113
1006.331	-1993
1006.405	-1592
1006.480	-1014
1006.554	-1038
1006.629	-753
1006.704	-1357
1006.778	-1199
1006.853	-362
1006.927	-1894
1007.002	-1396
1007.076	-2020
1007.150	-1161
1007.225	-1589
1007.299	-1069
1007.373	-2166
1007.448	-588
1007.522	-1154
1007.596	-1751
1007.671	-2292
1007.745	-533
1007.819	-2092
1007.893	-1780
1007.967	-1454
1008.041	-2220
1008.115	-1211
1008.190	-1511
1008.264	-1277
1008.338	-2087
1008.412	-1381
1008.486	-1245
1008.560	-1107
1008.633	-1523
1008.707	-1896
1008.781	-603
1008.855	-2227
1008.929	-1677
1009.003	-1561
1009.076	-1161
1009.150	-2111
1009.224	-859
1009.298	-940
1009.371	-535
1009.445	-1119
1009.519	-942
1009.592	-2099
1009.666	-658
1009.739	-2053
1009.813	-935
1009.886	-763
1009.960	-1824
1010.033	-1038
1010.107	-604
1010.180	-2074
1010.253	-1754
1010.327	-2179
1010.400	-982
1010.473	-1446
1010.547	-407
1010.620	-1890
1010.693	-1678
1010.766	-1270
1010.840	-1160
1010.913	-2013
1010.986	-1836
1011.059	-2102
1011.132	-2296
1011.205	-888
1011.278	-1141
1011.351	-2175
1011.424	-1168
1011.497	-1893
1011.570	-1933
1011.643	-1801
1011.716	-1853
1011.789	-1770
1011.862	-1284
1011.934	-1277
1012.007	-1984
1012.080	-1164
1012.153	-1144
1012.225	-926
1012.298	-2216
1012.371	-2151
1012.443	-1026
1012.516	-2729
1012.588	-1038
1012.661	-1412
1012.733	-1359
1012.806	-554
1012.879	-1643
1012.951	-2201
1013.023	-1562
1013.096	-1198
1013.168	-1374
1013.241	-1857
1013.313	-1942
1013.385	-2191
1013.458	-1019
1013.530	-1194
1013.602	-1940
1013.674	-1748
1013.746	-1793
1013.819	-2348
1013.891	-660
1013.963	-2617
1014.035	-1138
1014.107	-1807
1014.179	-429
1014.251	-1890
1014.323	-1356
1014.395	-1816
1014.467	-1591
1014.539	-1396
1014.611	-1976
1014.683	-1525
1014.754	-1103
1014.826	-1503
1014.898	-1274
1014.970	-2561
1015.042	-1098
1015.113	-2110
1015.185	-607
1015.257	-2335
1015.328	-1445
1015.400	-1512
1015.471	-1632
1015.543	-2762
1015.615	-826
1015.686	-1993
1015.757	-958
1015.829	-1902
1015.901	-1549
1015.972	-1849
1016.043	-875
1016.115	-1772
1016.186	-1856
1016.257	-1648
1016.328	-705
1016.400	-1107
1016.471	-2117
1016.542	-964
1016.613	-977
1016.685	-1560
1016.756	-876
1016.827	-2329
1016.898	-1955
1016.969	-1743
1017.040	-903
1017.111	-1981
1017.182	-1426
1017.253	-1411
1017.324	-1344
1017.395	-2102
1017.466	-838
1017.537	-2139
1017.608	-1087
1017.678	-1483
1017.749	-1615
1017.820	-1299
1017.891	-1023
1017.961	-1381
1018.032	-1581
1018.103	-1801
1018.173	-2018
1018.244	-2499
1018.315	-1382
1018.385	-1570
1018.456	-1369
1018.526	-1631
1018.597	-436
1018.667	-1420
1018.738	-1463
1018.808	-1998
1018.878	-2085
1018.949	-1794
1019.019	-737
1019.089	-1209
1019.160	-1549
1019.230	-1149
1019.300	-1166
1019.371	-1410
1019.441	-1440
1019.511	-958
1019.581	-1654
1019.651	-2274
1019.721	-1323
1019.791	-2174
1019.861	-1819
1019.931	-1166
1020.001	-1970
1020.071	-1871
1020.141	-1440
1020.211	-1965
1020.281	-1216
1020.351	-1876
1020.421	-1407
1020.491	-1321
1020.560	-1701
1020.630	-1990
1020.700	-1507
1020.770	-1744
1020.839	-1591
1020.909	-2551
1020.979	-1353
1021.048	-2540
1021.118	-1524
1021.187	-1908
1021.257	-1483
1021.326	-1336
1021.396	-1195
1021.465	-1803
1021.535	-1154
1021.604	-2660
1021.674	-1208
1021.743	-1379
1021.812	-615
1021.882	-1948
1021.951	-1138
1022.020	-1673
1022.089	-1301
1022.159	-1751
1022.228	-1574
1022.297	-1505
1022.366	-1293
1022.435	-1756
1022.504	-1835
1022.573	-1631
1022.642	-1147
1022.711	-2945
1022.781	-827
1022.849	-1938
1022.918	-1291
1022.987	-1948
1023.056	-1480
1023.125	-1587
1023.194	-1859
1023.263	-2021
1023.331	-593
1023.400	-2464
1023.469	-1753
1023.538	-2128
1023.606	-2131
1023.675	-1941
1023.744	-1433
1023.812	-1978
1023.881	-1414
1023.949	-1430
1024.018	-1562
1024.086	-2516
1024.155	-1789
1024.223	-2332
1024.292	-1280
1024.360	-1957
1024.429	-1254
1024.497	-2083
1024.565	-1270
1024.634	-2274
1024.702	-749
1024.770	-985
1024.838	-2172
1024.907	-2101
1024.975	-1970
1025.043	-1495
1025.111	-2253
1025.179	-1608
1025.247	-1139
1025.315	-1703
1025.383	-1619
1025.451	-1413
1025.519	-1446
1025.587	-2130
1025.655	-1565
1025.723	-1448
1025.791	-600
1025.859	-1834
1025.927	-770
1025.995	-1873
1026.062	-1479
1026.130	-1960
1026.198	-1674
1026.266	-1547
1026.333	-602
1026.401	-1874
1026.469	-1269
1026.536	-2003
1026.604	-2152
1026.671	-1528
1026.739	-1200
1026.806	-2046
1026.874	-1637
1026.941	-2176
1027.009	-2497
1027.076	-2383
1027.144	-924
1027.211	-2434
1027.278	-1300
1027.345	-1925
1027.413	-944
1027.480	-1595
1027.547	-1481
1027.614	-2322
1027.682	-1691
1027.749	-2306
1027.816	-1210
1027.883	-1846
1027.950	-1384
1028.017	-2641
1028.084	-980
1028.151	-1727
1028.218	-2449
1028.285	-1990
1028.352	-421
1028.419	-2432
1028.486	-1603
1028.553	-1654
1028.619	-1802
1028.686	-2355
1028.753	-1865
1028.820	-2315
1028.886	-2008
1028.953	-1351
1029.020	-1118
1029.086	-1640
1029.153	-1330
1029.220	-1997
1029.286	-1092
1029.353	-1919
1029.419	-2724
1029.486	-2013
1029.552	-2442
1029.619	-2111
1029.685	-1018
1029.751	-1946
1029.818	-1276
1029.884	-1745
1029.951	-1007
1030.017	-1473
1030.083	-1530
1030.149	-1780
1030.216	-2417
1030.282	-1243
1030.348	-2761
1030.414	-2328
1030.480	-1857
1030.546	-2382
1030.612	-1921
1030.678	-2143
1030.744	-1802
1030.810	-1803
1030.876	-1649
1030.942	-2375
1031.008	-1473
1031.074	-2371
1031.140	-1733
1031.206	-1844
1031.272	-1913
1031.337	-2089
1031.403	-1439
1031.469	-1635
1031.534	-1991
1031.600	-1749
1031.666	-1778
1031.731	-2213
1031.797	-1619
1031.863	-1533
1031.928	-2518
1031.994	-2531
1032.059	-1857
1032.125	-1538
1032.190	-1846
1032.256	-2608
1032.321	-2128
1032.386	-2453
1032.452	-1244
1032.517	-1854
1032.582	-2032
1032.647	-2775
1032.713	-1746
1032.778	-2778
1032.843	-1935
1032.908	-2244
1032.974	-2066
1033.039	-2224
1033.104	-1335
1033.169	-2492
1033.234	-1806
1033.299	-1415
1033.364	-881
1033.429	-2018
1033.494	-2646
1033.559	-2466
1033.624	-1863
1033.688	-1811
1033.753	-1908
1033.818	-2741
1033.883	-1762
1033.948	-1586
1034.013	-1613
1034.077	-1295
1034.142	-926
1034.207	-398
1034.271	1396
1034.336	812
1034.400	96
1034.465	-1317
1034.530	-959
1034.594	-2186
1034.658	-1790
1034.723	-2320
1034.787	-2869
1034.852	-2722
1034.916	-2111
1034.981	-2229
1035.045	-1635
1035.109	-2091
1035.173	-2322
1035.238	-2346
1035.302	-2353
1035.366	-2594
1035.430	-1856
1035.495	-2675
1035.559	-1552
1035.623	-1737
1035.687	-2119
1035.751	-2478
1035.815	-1326
1035.879	-2439
1035.943	-2279
1036.007	-3168
1036.071	-1689
1036.135	-2769
1036.198	-1767
1036.262	-2392
1036.326	-2141
1036.390	-1980
1036.454	-2107
1036.517	-1776
1036.581	-933
1036.645	-1595
1036.709	-1094
1036.772	-2022
1036.836	-2654
1036.900	-2064
1036.963	-1830
1037.026	-2389
1037.090	-1878
1037.154	-2594
1037.217	-2589
1037.280	-2132
1037.344	-1957
1037.407	-2508
1037.471	-1364
1037.534	-3082
1037.597	-2199
1037.661	-2381
1037.724	-1830
1037.787	-2017
1037.850	-1591
1037.913	-2069
1037.977	-2037
1038.040	-2682
1038.103	-1650
1038.166	-1803
1038.229	-1587
1038.292	-2494
1038.355	-1796
1038.418	-2511
1038.481	-2086
1038.544	-2376
1038.607	-2964
1038.670	-2268
1038.732	-2183
1038.795	-2391
1038.858	-2616
1038.921	-1821
1038.984	-913
1039.046	-2519
1039.109	-2220
1039.172	-1864
1039.234	-2396
1039.297	-2681
1039.360	-1956
1039.422	-2513
1039.485	-1511
1039.547	-2880
1039.610	-2381
1039.672	-2050
1039.734	-2313
1039.797	-3008
1039.859	-2040
1039.922	-2364
1039.984	-2095
1040.046	-1436
1040.109	-2053
1040.171	-1969
1040.233	-2408
1040.295	-2730
1040.358	-1896
1040.420	-1839
1040.482	-2575
1040.544	-2963
1040.606	-1785
1040.668	-2345
1040.730	-1978
1040.792	-2771
1040.854	-2394
1040.916	-2560
1040.978	-2776
1041.040	-2367
1041.102	-2149
1041.164	-3183
1041.225	-2232
1041.287	-2105
1041.349	-1903
1041.411	-2288
1041.472	-2671
1041.534	-2064
1041.596	-3174
1041.657	-3451
1041.719	-1855
1041.781	-2897
1041.842	-3037
1041.904	-2623
1041.965	-2230
1042.027	-2240
1042.088	-2213
1042.150	-1816
1042.211	-2253
1042.272	-2380
1042.334	-1777
1042.395	-2817
1042.456	-2135
1042.518	-2441
1042.579	-1909
1042.640	-2236
1042.701	-2108
1042.763	-3318
1042.824	-2976
1042.885	-2543
1042.946	-1772
1043.007	-2308
1043.068	-2147
1043.129	-1859
1043.190	-1860
1043.251	-2444
1043.312	-2463
1043.373	-2171
1043.434	-2512
1043.495	-2070
1043.556	-2221
1043.616	-2463
1043.677	-1781
1043.738	-1550
1043.799	-2355
1043.859	-2328
1043.920	-2052
1043.981	-3075
1044.041	-2431
1044.102	-2601
1044.162	-2266
1044.223	-2825
1044.284	-2842
1044.344	-3018
1044.405	-1932
1044.465	-2281
1044.525	-2678
1044.586	-2141
1044.646	-2130
1044.707	-1683
1044.767	-1358
1044.827	-2325
1044.887	-2262
1044.948	-2035
1045.008	-2225
1045.068	-2237
1045.128	-1398
1045.188	-2643
1045.249	-2300
1045.309	-2662
1045.369	-2049
1045.429	-2845
1045.489	-1859
1045.549	-2370
1045.609	-2229
1045.669	-1612
1045.729	-2719
1045.789	-1839
1045.848	-1886
1045.908	-2019
1045.968	-1237
1046.028	-2265
1046.088	-789
1046.147	-1567
1046.207	-1965
1046.267	-2537
1046.326	-2286
1046.386	-2389
1046.446	-1429
1046.505	-1636
1046.565	-1049
1046.624	-1252
1046.684	-1498
1046.743	-1229
1046.803	-793
1046.862	-461
1046.922	0
