'Start Wavelength	183.907
'End Wavelength	1046.922
'Gate Delay	5.000
'Gate Width (ms)	1.050
'Laser Output Level	0.000
'X Position	0.000
'Y Position	0.000
'Z Position	0.000
'Grid Point Number	1.000
'Shot Number	100.000
183.907	496.000
183.977	-643.000
184.047	112
184.116	830
184.186	714
184.256	-18
184.325	-210
184.395	-912
184.465	382
184.534	-293
184.604	144
184.674	449
184.743	-778
184.813	335
184.883	274
184.952	-212
185.022	240
185.092	-441
185.161	-67
185.231	-245
185.301	-564
185.370	-113
185.440	-594
185.509	-342
185.579	400
185.649	-145
185.718	127
185.788	-293
185.857	40
185.927	449
185.996	-44
186.066	20
186.136	-44
186.205	-700
186.275	-331
186.344	-692
186.414	-207
186.483	-219
186.553	893
186.622	688
186.692	517
186.761	-854
186.831	-37
186.900	-565
186.970	-145
187.039	231
187.109	-9
187.178	-430
187.248	-377
187.317	-170
187.387	317
187.456	85
187.526	255
187.595	173
187.664	-351
187.734	197
187.803	145
187.873	-185
187.942	-35
188.012	69
188.081	-343
188.150	24
188.220	-348
188.289	36
188.358	-151
188.428	-771
188.497	-629
188.567	-161
188.636	-712
188.705	-30
188.775	-420
188.844	-620
188.913	413
188.983	-291
189.052	123
189.121	-405
189.191	-162
189.260	-475
189.329	-310
189.399	-263
189.468	-418
189.537	-779
189.606	-1128
189.676	-744
189.745	-337
189.814	-188
189.883	-503
189.953	-718
190.022	73
190.091	-763
190.161	-839
190.230	218
190.299	-287
190.368	-437
190.437	-553
190.507	-680
190.576	-455
190.645	-343
190.714	-85
190.783	-1255
190.853	137
190.922	92
190.991	-59
191.060	-212
191.129	-935
191.198	-9
191.268	-164
191.337	-771
191.406	203
191.475	-142
191.544	163
191.613	-47
191.682	-515
191.752	-484
191.821	-742
191.890	-597
191.959	-157
192.028	70
192.097	-320
192.166	455
192.235	-569
192.304	237
192.373	-478
192.442	60
192.511	-350
192.580	686
192.650	109
192.719	-757
192.788	-662
192.857	-813
192.926	-196
192.995	-173
193.064	298
193.133	-353
193.202	-275
193.271	-460
193.340	243
193.409	-221
193.478	1
193.547	-39
193.615	-825
193.684	331
193.753	-483
193.822	324
193.891	-985
193.960	-628
194.029	-323
194.098	-319
194.167	-185
194.236	134
194.305	272
194.374	-851
194.443	-681
194.512	688
194.580	19
194.649	150
194.718	378
194.787	-765
194.856	-158
194.925	21
194.994	115
195.062	-317
195.131	-388
195.200	49
195.269	390
195.338	-488
195.407	-112
195.475	-342
195.544	511
195.613	-877
195.682	501
195.751	-534
195.819	-725
195.888	-105
195.957	615
196.026	-113
196.094	-432
196.163	-818
196.232	-74
196.301	-221
196.369	-144
196.438	58
196.507	-468
196.576	-508
196.644	-71
196.713	-513
196.782	315
196.850	413
196.919	359
196.988	-419
197.056	-777
197.125	-276
197.194	-187
197.262	-88
197.331	-568
197.400	-487
197.468	-579
197.537	-841
197.606	-539
197.674	-286
197.743	-537
197.812	-740
197.880	-292
197.949	-1127
198.017	67
198.086	-511
198.155	-707
198.223	-68
198.292	-395
198.360	-347
198.429	-440
198.497	-461
198.566	-258
198.635	-436
198.703	146
198.772	-368
198.840	-42
198.909	-133
198.977	-211
199.046	-624
199.114	22
199.183	-866
199.251	-490
199.320	-1336
199.388	-814
199.457	-1129
199.525	-9
199.594	-426
199.662	124
199.731	-30
199.799	-770
199.867	421
199.936	-688
200.004	-17
200.073	207
200.141	-103
200.210	-175
200.278	-391
200.346	736
200.415	-64
200.483	-203
200.552	-251
200.620	163
200.688	-1124
200.757	-516
200.825	-575
200.893	-480
200.962	-28
201.030	427
201.098	-641
201.167	185
201.235	-382
201.303	-52
201.372	-462
201.440	442
201.508	-352
201.577	-684
201.645	-398
201.713	-496
201.781	-571
201.850	859
201.918	-110
201.986	158
202.055	398
202.123	-377
202.191	-534
202.259	-507
202.327	-81
202.396	-294
202.464	43
202.532	-124
202.600	726
202.669	1125
202.737	82
202.805	-959
202.873	-522
202.941	-366
203.009	-117
203.078	-562
203.146	-1195
203.214	-990
203.282	-592
203.350	7
203.418	-357
203.487	-15
203.555	-764
203.623	-379
203.691	-661
203.759	-315
203.827	-621
203.895	-76
203.963	-183
204.031	-641
204.099	17
204.168	-240
204.236	-257
204.304	-311
204.372	-394
204.440	-130
204.508	-363
204.576	-672
204.644	-444
204.712	95
204.780	-613
204.848	-68
204.916	-704
204.984	-491
205.052	-964
205.120	-180
205.188	-1265
205.256	-147
205.324	-179
205.392	-105
205.460	-297
205.528	-572
205.596	6
205.664	-489
205.732	-901
205.799	-346
205.867	-669
205.935	-1137
206.003	311
206.071	-1330
206.139	-399
206.207	76
206.275	-1098
206.343	-636
206.411	-614
206.478	-320
206.546	-845
206.614	-580
206.682	-615
206.750	-1053
206.818	-148
206.885	982
206.953	-1511
207.021	-125
207.089	220
207.157	-718
207.225	-274
207.292	-358
207.360	-679
207.428	-538
207.496	-190
207.563	-1047
207.631	-533
207.699	-1313
207.767	-519
207.834	-713
207.902	-165
207.970	-820
208.038	-102
208.105	-342
208.173	-902
208.241	-828
208.309	-259
208.376	115
208.444	-311
208.512	-699
208.579	-1013
208.647	459
208.715	314
208.782	-1242
208.850	22
208.918	-290
208.985	-557
209.053	-946
209.120	-296
209.188	-689
209.256	-1533
209.323	-690
209.391	-1357
209.459	495
209.526	-188
209.594	-287
209.661	-655
209.729	-48
209.796	-532
209.864	-433
209.932	-1972
209.999	1518
210.067	-611
210.134	-1134
210.202	-520
210.269	-459
210.337	348
210.404	-496
210.472	-548
210.539	-218
210.607	-541
210.674	168
210.742	242
210.809	100
210.877	-1125
210.944	384
211.012	-1429
211.079	1146
211.146	-437
211.214	-770
211.281	-110
211.349	134
211.416	211
211.484	20
211.551	-707
211.618	-662
211.686	-385
211.753	-466
211.821	187
211.888	-690
211.955	392
212.023	-842
212.090	-864
212.157	-1104
212.225	-545
212.292	63
212.359	-722
212.427	1214
212.494	-606
212.561	-499
212.629	-1166
212.696	-845
212.763	-499
212.831	-1241
212.898	-390
212.965	-324
213.032	-76
213.100	-937
213.167	-910
213.234	103
213.301	-204
213.369	-691
213.436	-301
213.503	-505
213.570	-237
213.638	-614
213.705	-1258
213.772	-1413
213.839	-1027
213.906	63
213.973	-328
214.041	-1161
214.108	-23
214.175	-873
214.242	-963
214.309	41
214.376	28
214.444	-949
214.511	-278
214.578	-243
214.645	-487
214.712	-731
214.779	-898
214.846	-1313
214.913	-373
214.980	-397
215.048	763
215.115	625
215.182	-204
215.249	-46
215.316	-972
215.383	-277
215.450	-312
215.517	-822
215.584	-789
215.651	-287
215.718	-559
215.785	-126
215.852	-946
215.919	-168
215.986	-764
216.053	-455
216.120	-163
216.187	-437
216.254	-530
216.321	-814
216.388	-341
216.455	-411
216.522	-771
216.589	-1242
216.656	-280
216.722	-237
216.789	-964
216.856	-327
216.923	-1013
216.990	-582
217.057	-537
217.124	-623
217.191	-1534
217.258	171
217.324	-1318
217.391	-523
217.458	-811
217.525	-925
217.592	-986
217.659	-1501
217.725	-266
217.792	-121
217.859	711
217.926	-1045
217.993	-1234
218.059	-407
218.126	-480
218.193	-1224
218.260	-719
218.327	-805
218.393	-1199
218.460	-136
218.527	-1307
218.594	-676
218.660	-551
218.727	-276
218.794	-998
218.860	157
218.927	-733
218.994	365
219.061	-722
219.127	-430
219.194	-40
219.261	-167
219.327	-1201
219.394	-209
219.461	-1766
219.527	-254
219.594	-10
219.661	-1042
219.727	-2213
219.794	-699
219.860	-1700
219.927	-55
219.994	551
220.060	891
220.127	744
220.193	413
220.260	-815
220.326	-528
220.393	-908
220.460	-429
220.526	296
220.593	-1159
220.659	1052
220.726	-1521
220.792	-266
220.859	-507
220.925	-770
220.992	-435
221.058	-182
221.125	150
221.191	-372
221.258	-355
221.324	169
221.391	300
221.457	-1031
221.524	225
221.590	-352
221.657	588
221.723	-511
221.789	-112
221.856	-512
221.922	-1276
221.989	-485
222.055	-1267
222.121	-880
222.188	1615
222.254	-216
222.321	-793
222.387	-592
222.453	-649
222.520	-650
222.586	-1158
222.652	-102
222.719	-945
222.785	-264
222.851	-938
222.918	-539
222.984	-704
223.050	-1231
223.116	-1843
223.183	-311
223.249	-932
223.315	-601
223.382	-795
223.448	516
223.514	-1073
223.580	-357
223.647	-176
223.713	-776
223.779	-855
223.845	-874
223.911	-647
223.978	-1742
224.044	-60
224.110	-1514
224.176	-903
224.242	-91
224.309	-2068
224.375	-549
224.441	-618
224.507	-1480
224.573	-1536
224.639	-320
224.705	-1467
224.772	-239
224.838	-2076
224.904	-349
224.970	96
225.036	-357
225.102	-694
225.168	-834
225.234	-354
225.300	-435
225.366	-763
225.432	-532
225.499	-648
225.565	-676
225.631	-175
225.697	-1722
225.763	-732
225.829	-1099
225.895	-977
225.961	-949
226.027	-445
226.093	-1071
226.159	-93
226.225	-660
226.291	-756
226.357	-529
226.423	-393
226.489	-892
226.554	-923
226.620	-389
226.686	-739
226.752	-864
226.818	-911
226.884	481
226.950	-195
227.016	-760
227.082	-159
227.148	301
227.214	-398
227.279	-743
227.345	-779
227.411	-242
227.477	296
227.543	2757
227.609	3570
227.674	1478
227.740	-183
227.806	295
227.872	-1329
227.938	-1183
228.003	-532
228.069	-445
228.135	-1207
228.201	-724
228.267	-830
228.332	-683
228.398	-2423
228.464	-24
228.530	-1032
228.595	47
228.661	-894
228.727	-1687
228.792	274
228.858	-1629
228.924	-2085
228.990	1001
229.055	-1158
229.121	-891
229.187	-580
229.252	-856
229.318	-727
229.384	-399
229.449	-703
229.515	-2327
229.581	-934
229.646	135
229.712	-447
229.777	-983
229.843	-1541
229.909	-177
229.974	-43
230.040	-1135
230.105	-308
230.171	-538
230.236	-33
230.302	-534
230.368	-202
230.433	-1500
230.499	-331
230.564	-183
230.630	-1179
230.695	-1601
230.761	834
230.826	-1610
230.892	957
230.957	-1839
231.023	-477
231.088	-113
231.154	-1140
231.219	320
231.284	-638
231.350	-803
231.415	-1366
231.481	-287
231.546	-679
231.612	-1090
231.677	-1396
231.742	-1401
231.808	1196
231.873	-1276
231.939	-1755
232.004	116
232.069	-391
232.135	-1047
232.200	-1871
232.265	-216
232.331	-252
232.396	-1428
232.461	-1213
232.527	-711
232.592	-621
232.657	-638
232.723	-1189
232.788	-1370
232.853	-18
232.918	-808
232.984	-860
233.049	-929
233.114	-1317
233.179	-495
233.245	364
233.310	-1049
233.375	-1808
233.440	33
233.506	-735
233.571	-665
233.636	-1269
233.701	-1156
233.766	-1411
233.832	-164
233.897	-219
233.962	-1668
234.027	343
234.092	-404
234.157	-1114
234.222	-842
234.288	-526
234.353	-900
234.418	80
234.483	-142
234.548	-837
234.613	-948
234.678	187
234.743	-1691
234.808	473
234.873	-1930
234.938	810
235.004	-1054
235.069	-1074
235.134	-1326
235.199	-392
235.264	-432
235.329	-2553
235.394	-408
235.459	-163
235.524	-1894
235.589	-420
235.654	-254
235.719	-1870
235.784	-485
235.849	-402
235.913	-789
235.978	-355
236.043	-675
236.108	-697
236.173	-1407
236.238	237
236.303	-1576
236.368	-943
236.433	-40
236.498	-1736
236.563	-1147
236.627	-360
236.692	1193
236.757	1603
236.822	-151
236.887	-1855
236.952	212
237.017	-956
237.081	46
237.146	-2028
237.211	-250
237.276	736
237.341	3156
237.405	-146
237.470	98
237.535	328
237.600	243
237.664	-678
237.729	-1796
237.794	-1872
237.859	-66
237.923	-142
237.988	-317
238.053	300
238.118	-1250
238.182	-722
238.247	1100
238.312	-1184
238.376	-330
238.441	-2435
238.506	216
238.570	-1534
238.635	511
238.700	-234
238.764	-1773
238.829	-1038
238.893	-1575
238.958	-414
239.023	-1002
239.087	-564
239.152	-813
239.216	-751
239.281	-105
239.346	-920
239.410	-892
239.475	-466
239.539	999
239.604	-801
239.668	561
239.733	162
239.797	1961
239.862	7001
239.926	4233
239.991	908
240.055	-79
240.120	-66
240.184	-178
240.249	-629
240.313	-1380
240.378	-507
240.442	-893
240.507	-399
240.571	-440
240.635	-953
240.700	-1164
240.764	-491
240.829	-46
240.893	-1179
240.957	-94
241.022	55
241.086	686
241.151	-1561
241.215	-1807
241.279	-36
241.344	-1232
241.408	-1105
241.472	-1777
241.537	427
241.601	-317
241.665	-1786
241.730	-1289
241.794	-45
241.858	-1227
241.922	-1057
241.987	-206
242.051	-1350
242.115	-1330
242.179	-89
242.244	-648
242.308	-73
242.372	-540
242.436	-1577
242.501	-276
242.565	-1649
242.629	-1627
242.693	-444
242.757	-1884
242.822	-102
242.886	-400
242.950	-597
243.014	-1623
243.078	-1199
243.142	-1543
243.206	-1170
243.271	132
243.335	-1002
243.399	-42
243.463	185
243.527	1060
243.591	-995
243.655	-331
243.719	-623
243.783	-776
243.847	-1429
243.911	760
243.975	-1193
244.040	-1893
244.104	634
244.168	-458
244.232	-891
244.296	-701
244.360	-93
244.424	-1734
244.488	-197
244.552	447
244.615	-1783
244.679	-2
244.743	-901
244.807	-1583
244.871	-251
244.935	-825
244.999	-2097
245.063	-1553
245.127	587
245.191	-722
245.255	-1438
245.319	132
245.383	-2787
245.446	9
245.510	-828
245.574	-556
245.638	-158
245.702	-1730
245.766	-837
245.829	408
245.893	-1510
245.957	-1127
246.021	-197
246.085	-234
246.149	-986
246.212	795
246.276	-565
246.340	-807
246.404	-394
246.467	-243
246.531	-2946
246.595	530
246.659	-313
246.722	-1776
246.786	-563
246.850	-878
246.913	-842
246.977	-1614
247.041	-391
247.104	-665
247.168	-77
247.232	299
247.295	706
247.359	675
247.423	-383
247.486	-219
247.550	-77
247.614	-1245
247.677	-279
247.741	-1022
247.804	-655
247.868	1163
247.932	-1057
247.995	1397
248.059	-646
248.122	-1449
248.186	583
248.249	44
248.313	1448
248.376	2400
248.440	-67
248.503	-942
248.567	565
248.630	-413
248.694	-729
248.757	851
248.821	2186
248.884	1842
248.948	-444
249.011	1479
249.075	2380
249.138	2412
249.202	-140
249.265	-869
249.328	205
249.392	-1537
249.455	-383
249.519	-791
249.582	-1344
249.645	243
249.709	-147
249.772	-1146
249.835	-151
249.899	-807
249.962	43
250.025	-805
250.089	-111
250.152	1447
250.215	-245
250.279	-1364
250.342	63
250.405	-864
250.468	-1240
250.532	-419
250.595	489
250.658	572
250.721	5983
250.785	-420
250.848	770
250.911	-1125
250.974	-275
251.038	-823
251.101	1286
251.164	-637
251.227	-758
251.290	-1157
251.354	-161
251.417	2965
251.480	4500
251.543	1299
251.606	8926
251.669	6498
251.732	1828
251.795	920
251.859	1318
251.922	4371
251.985	2863
252.048	861
252.111	-680
252.174	-934
252.237	958
252.300	2563
252.363	1627
252.426	8138
252.489	1657
252.552	321
252.615	-1007
252.678	266
252.741	2210
252.804	1680
252.867	7967
252.930	3341
252.993	677
253.056	105
253.119	-215
253.182	-627
253.245	-58
253.308	32
253.371	-991
253.434	-138
253.497	263
253.559	1378
253.622	191
253.685	-868
253.748	-557
253.811	-1169
253.874	72
253.937	-773
254.000	-735
254.062	12
254.125	495
254.188	778
254.251	-411
254.314	-858
254.376	-1227
254.439	-423
254.502	84
254.565	-785
254.628	1553
254.690	-410
254.753	-1458
254.816	-991
254.878	-711
254.941	-626
255.004	743
255.067	-464
255.129	-831
255.192	-599
255.255	-1184
255.317	-437
255.380	298
255.443	-919
255.505	-834
255.568	-1210
255.631	-461
255.693	-394
255.756	-735
255.819	285
255.881	-728
255.944	185
256.006	-822
256.069	-755
256.132	-1105
256.194	-561
256.257	-507
256.319	-339
256.382	-310
256.444	768
256.507	343
256.569	-599
256.632	-812
256.694	-1311
256.757	273
256.819	1950
256.882	-181
256.944	197
257.007	720
257.069	-329
257.132	-187
257.194	57
257.257	-1188
257.319	-1101
257.381	-631
257.444	932
257.506	2492
257.569	3534
257.631	1430
257.693	727
257.756	-291
257.818	-538
257.880	-1010
257.943	42
258.005	-944
258.067	-5
258.130	-606
258.192	-47
258.254	-518
258.317	-141
258.379	-754
258.441	-251
258.503	-80
258.566	-314
258.628	279
258.690	-1065
258.753	46
258.815	281
258.877	-971
258.939	-484
259.001	128
259.064	-254
259.126	-877
259.188	-741
259.250	359
259.312	-702
259.375	-628
259.437	-1256
259.499	-136
259.561	-958
259.623	-387
259.685	-1656
259.747	167
259.809	224
259.872	177
259.934	965
259.996	1942
260.058	-94
260.120	-1056
260.182	-1117
260.244	-480
260.306	-89
260.368	501
260.430	-1712
260.492	-557
260.554	50
260.616	-509
260.678	-216
260.740	715
260.802	-728
260.864	618
260.926	-2155
260.988	651
261.050	-673
261.112	-297
261.174	746
261.236	339
261.298	-91
261.359	418
261.421	374
261.483	-233
261.545	1144
261.607	-1336
261.669	-138
261.731	-798
261.793	-11
261.854	-1920
261.916	-904
261.978	-1269
262.040	-1142
262.102	-135
262.164	-746
262.225	-400
262.287	147
262.349	-69
262.411	306
262.472	570
262.534	-922
262.596	-456
262.658	167
262.719	-650
262.781	1036
262.843	-894
262.904	107
262.966	228
263.028	88
263.090	646
263.151	914
263.213	900
263.275	-805
263.336	-122
263.398	495
263.459	-553
263.521	-700
263.583	-108
263.644	29
263.706	-671
263.767	-1391
263.829	-355
263.891	-464
263.952	-22
264.014	-522
264.075	-420
264.137	-515
264.198	95
264.260	-800
264.321	144
264.383	-217
264.444	-5
264.506	-1225
264.567	146
264.629	-272
264.690	-1842
264.752	-1028
264.813	-776
264.875	-847
264.936	85
264.998	-417
265.059	-447
265.120	142
265.182	106
265.243	-72
265.305	295
265.366	24
265.427	98
265.489	60
265.550	-2015
265.611	-605
265.673	-647
265.734	-475
265.795	7
265.857	-856
265.918	-1087
265.979	282
266.040	1081
266.102	429
266.163	-250
266.224	-62
266.286	-513
266.347	-826
266.408	-46
266.469	-404
266.530	613
266.592	-82
266.653	-491
266.714	-403
266.775	244
266.836	170
266.898	-203
266.959	56
267.020	-197
267.081	1333
267.142	-640
267.203	-8
267.264	-402
267.326	1160
267.387	335
267.448	-57
267.509	120
267.570	68
267.631	510
267.692	-609
267.753	352
267.814	-814
267.875	299
267.936	377
267.997	-725
268.058	-647
268.119	-566
268.180	-774
268.241	-412
268.302	145
268.363	-477
268.424	-645
268.485	-770
268.546	-778
268.607	-267
268.668	-221
268.729	-317
268.790	-1072
268.851	-450
268.912	-1226
268.972	-713
269.033	-606
269.094	-980
269.155	-661
269.216	-36
269.277	-1378
269.338	-633
269.398	-511
269.459	-1013
269.520	-306
269.581	57
269.642	-790
269.702	-343
269.763	-714
269.824	-7
269.885	-420
269.945	-58
270.006	-1152
270.067	-1153
270.128	-990
270.188	-491
270.249	-1104
270.310	-625
270.370	-321
270.431	-328
270.492	-1211
270.553	-896
270.613	-363
270.674	-150
270.734	-1288
270.795	425
270.856	-590
270.916	-380
270.977	-242
271.038	-331
271.098	-938
271.159	-951
271.219	-1122
271.280	-796
271.340	-584
271.401	-1319
271.462	-287
271.522	-343
271.583	-526
271.643	-523
271.704	43
271.764	-242
271.825	-769
271.885	1991
271.946	4082
272.006	649
272.066	431
272.127	3514
272.187	4115
272.248	1408
272.308	-22
272.369	2091
272.429	667
272.489	-53
272.550	204
272.610	1076
272.671	392
272.731	531
272.791	-378
272.852	-467
272.912	184
272.972	14
273.033	55
273.093	190
273.153	435
273.214	-118
273.274	817
273.334	2576
273.394	2789
273.455	2552
273.515	2019
273.575	2375
273.635	2463
273.696	3122
273.756	4718
273.816	3257
273.876	1712
273.936	1131
273.997	1612
274.057	391
274.117	579
274.177	229
274.237	1564
274.297	1844
274.358	767
274.418	570
274.478	602
274.538	-657
274.598	-294
274.658	337
274.718	1246
274.778	-259
274.838	704
274.898	-36
274.958	734
275.018	1355
275.078	2482
275.138	274
275.198	-163
275.258	7
275.318	196
275.378	-647
275.438	-397
275.498	-101
275.558	-1022
275.618	1537
275.678	47
275.738	462
275.798	-511
275.858	-850
275.918	-581
275.978	-65
276.038	270
276.098	-453
276.157	-336
276.217	758
276.277	42
276.337	-769
276.397	223
276.457	-204
276.517	83
276.576	263
276.636	271
276.696	-182
276.756	1277
276.815	-355
276.875	962
276.935	320
276.995	71
277.055	412
277.114	537
277.174	855
277.234	660
277.293	906
277.353	153
277.413	478
277.472	48
277.532	654
277.592	1846
277.651	8463
277.711	21208
277.771	6320
277.830	18819
277.890	18130
277.950	10240
278.009	35163
278.069	15385
278.128	13942
278.188	23385
278.248	8645
278.307	21771
278.367	15726
278.426	3692
278.486	2176
278.545	973
278.605	1587
278.664	583
278.724	1338
278.783	2297
278.843	4197
278.902	2261
278.962	1215
279.021	2219
279.081	6988
279.140	6561
279.199	3270
279.259	2863
279.318	4894
279.378	6852
279.437	11482
279.496	29145
279.556	109758
279.615	102660
279.675	30429
279.734	15126
279.793	15171
279.853	18560
279.912	9123
279.971	6720
280.031	5681
280.090	6885
280.149	10968
280.208	15696
280.268	73998
280.327	88133
280.386	23391
280.445	10221
280.505	6997
280.564	3912
280.623	4333
280.682	3503
280.742	3283
280.801	1284
280.860	1186
280.919	1679
280.978	1544
281.037	1521
281.097	1227
281.156	2496
281.215	827
281.274	1096
281.333	1709
281.392	1625
281.451	748
281.510	514
281.569	613
281.628	974
281.688	1551
281.747	1054
281.806	370
281.865	1394
281.924	680
281.983	847
282.042	375
282.101	652
282.160	923
282.219	839
282.278	632
282.337	822
282.396	132
282.454	417
282.513	680
282.572	1042
282.631	439
282.690	79
282.749	44
282.808	104
282.867	904
282.926	269
282.985	545
283.043	22
283.102	1258
283.161	654
283.220	1076
283.279	1776
283.338	1339
283.396	443
283.455	1360
283.514	1699
283.573	1392
283.631	1326
283.690	695
283.749	522
283.808	964
283.866	1711
283.925	390
283.984	1534
284.043	762
284.101	2190
284.160	1549
284.219	3530
284.277	2913
284.336	1785
284.395	3565
284.453	4600
284.512	3844
284.570	5151
284.629	6605
284.688	7800
284.746	10518
284.805	12433
284.863	16733
284.922	21133
284.981	25362
285.039	33627
285.098	50954
285.156	79931
285.215	75966
285.273	68233
285.332	81505
285.390	61143
285.449	41787
285.507	28511
285.566	20745
285.624	16979
285.683	13511
285.741	9532
285.799	8169
285.858	6191
285.916	5221
285.975	4557
286.033	3943
286.091	3485
286.150	2849
286.208	2812
286.267	1861
286.325	1949
286.383	2005
286.442	1640
286.500	1453
286.558	1668
286.616	1538
286.675	1502
286.733	1012
286.791	721
286.850	1114
286.908	811
286.966	1174
287.024	1262
287.083	844
287.141	809
287.199	1219
287.257	661
287.315	1286
287.374	809
287.432	1164
287.490	832
287.548	90
287.606	351
287.664	255
287.723	176
287.781	680
287.839	416
287.897	572
287.955	86
288.013	434
288.071	1590
288.129	4858
288.187	21432
288.245	9075
288.303	1455
288.361	867
288.419	864
288.477	179
288.535	172
288.593	-731
288.651	-185
288.709	-953
288.767	97
288.825	-491
288.883	346
288.941	773
288.999	-93
289.057	-313
289.115	-292
289.173	448
289.231	61
289.289	-802
289.346	-119
289.404	-124
289.462	-207
289.520	327
289.578	402
289.636	195
289.694	-410
289.751	-442
289.809	196
289.867	-255
289.925	-511
289.983	411
290.040	-357
290.098	-500
290.156	-814
290.214	104
290.271	-955
290.329	337
290.387	392
290.444	-853
290.502	-283
290.560	-322
290.617	-416
290.675	-219
290.733	550
290.790	-274
290.848	335
290.906	296
290.963	754
291.021	-180
291.078	-1096
291.136	-107
291.194	-52
291.251	957
291.309	-377
291.366	-183
291.424	-288
291.481	887
291.539	-44
291.596	1169
291.654	-47
291.711	224
291.769	225
291.826	-282
291.884	72
291.941	98
291.999	-1015
292.056	-430
292.114	-1087
292.171	-364
292.228	735
292.286	35
292.343	-723
292.401	547
292.458	-679
292.515	-483
292.573	341
292.630	647
292.687	212
292.745	68
292.802	-1388
292.859	761
292.917	2191
292.974	1090
293.031	51
293.089	-471
293.146	297
293.203	573
293.260	204
293.318	-386
293.375	118
293.432	-381
293.489	228
293.546	538
293.604	104
293.661	2780
293.718	5703
293.775	2250
293.832	1737
293.889	2522
293.947	1666
294.004	-59
294.061	232
294.118	1521
294.175	1248
294.232	3762
294.289	2011
294.346	586
294.403	422
294.460	610
294.517	-404
294.574	315
294.631	-724
294.688	-397
294.745	-9
294.802	2418
294.859	1734
294.916	114
294.973	-626
295.030	-1152
295.087	304
295.144	191
295.201	483
295.258	220
295.315	-403
295.372	411
295.429	1938
295.486	-116
295.542	147
295.599	-854
295.656	-1069
295.713	-35
295.770	1241
295.827	-209
295.883	393
295.940	93
295.997	-91
296.054	-494
296.111	14
296.167	35
296.224	-637
296.281	-676
296.338	-225
296.394	-763
296.451	-926
296.508	-870
296.564	75
296.621	-102
296.678	2175
296.734	4843
296.791	1361
296.848	214
296.904	-408
296.961	220
297.018	1004
297.074	646
297.131	39
297.187	-198
297.244	23
297.301	1483
297.357	5238
297.414	798
297.470	914
297.527	318
297.583	-279
297.640	-664
297.696	-737
297.753	-325
297.809	-775
297.866	-548
297.922	-464
297.979	-698
298.035	-828
298.092	-917
298.148	24
298.204	393
298.261	-107
298.317	1446
298.374	3160
298.430	2614
298.486	262
298.543	160
298.599	-431
298.656	-417
298.712	-598
298.768	106
298.824	-632
298.881	-602
298.937	-228
298.993	-350
299.050	-738
299.106	91
299.162	-134
299.218	-121
299.275	-761
299.331	365
299.387	59
299.443	3371
299.500	10061
299.556	8510
299.612	2808
299.668	1655
299.724	6309
299.780	11162
299.837	3756
299.893	1381
299.949	5783
300.005	10633
300.061	7120
300.117	14336
300.173	6315
300.229	1702
300.285	933
300.341	1047
300.397	821
300.453	769
300.510	667
300.566	567
300.622	1939
300.678	12710
300.734	18733
300.790	8593
300.845	5396
300.901	6928
300.957	11646
301.013	4448
301.069	606
301.125	658
301.181	126
301.237	-343
301.293	506
301.349	1059
301.405	-429
301.461	164
301.516	376
301.572	-444
301.628	-574
301.684	-496
301.740	377
301.796	764
301.851	127
301.907	777
301.963	989
302.019	2222
302.074	9497
302.130	11451
302.186	3902
302.242	802
302.297	179
302.353	304
302.409	-47
302.464	1477
302.520	161
302.576	751
302.631	1883
302.687	-124
302.743	-128
302.798	379
302.854	-653
302.910	-502
302.965	-298
303.021	-62
303.076	-290
303.132	-36
303.187	-508
303.243	109
303.299	-151
303.354	-226
303.410	-557
303.465	-749
303.521	-913
303.576	-718
303.632	-530
303.687	44
303.743	1674
303.798	2206
303.853	669
303.909	-473
303.964	-792
304.020	324
304.075	-56
304.130	-1060
304.186	24
304.241	981
304.297	-625
304.352	-584
304.358	-563
304.407	-390
304.449	-468
304.463	-497
304.518	-84
304.539	-326
304.573	-704
304.629	-296
304.630	-293
304.684	-192
304.720	503
304.739	843
304.794	3302
304.811	2848
304.850	1731
304.902	416
304.905	335
304.960	38
304.992	-201
305.015	-421
305.071	0
305.083	-39
305.126	-71
305.173	-390
305.181	-467
305.236	-663
305.264	-474
305.292	-231
305.347	-82
305.354	-52
305.402	142
305.445	-62
305.457	-133
305.512	-175
305.535	-210
305.567	-255
305.622	-53
305.626	-26
305.678	603
305.716	818
305.733	844
305.788	1601
305.807	1445
305.843	1410
305.897	2124
305.898	2127
305.953	2905
305.988	1755
306.008	1176
306.063	146
306.078	130
306.118	47
306.168	-622
306.173	-675
306.228	104
306.259	-131
306.283	-273
306.338	-308
306.349	-304
306.393	-235
306.440	-43
306.448	-35
306.503	229
306.530	68
306.558	-51
306.613	258
306.620	262
306.668	437
306.711	892
306.723	934
306.778	668
306.801	587
306.833	601
306.888	-15
306.892	9
306.943	376
306.982	212
306.997	114
307.052	-171
307.072	-162
307.107	-24
307.162	-249
307.163	-245
307.217	152
307.253	28
307.272	-6
307.327	386
307.343	395
307.381	398
307.434	223
307.436	227
307.491	559
307.524	853
307.546	979
307.600	771
307.614	880
307.655	795
307.704	221
307.710	220
307.765	40
307.795	156
307.819	335
307.874	961
307.885	932
307.929	488
307.975	926
307.984	1118
308.038	2300
308.065	2553
308.093	4416
308.148	9417
308.156	10710
308.202	17148
308.246	22470
308.257	21990
308.312	9755
308.336	5463
308.366	3739
308.421	2950
308.426	2832
308.475	1815
308.517	1837
308.530	1968
308.585	2143
308.607	2344
308.639	2651
308.694	2641
308.697	2667
308.748	3237
308.787	3657
308.803	3666
308.857	3404
308.877	3223
308.912	3863
308.967	5939
308.967	5956
309.021	10532
309.058	14510
309.076	16854
309.130	25625
309.148	27772
309.185	38664
309.238	56502
309.239	56799
309.293	72178
309.328	74871
309.348	67095
309.402	37655
309.418	29767
309.457	22813
309.508	16289
309.511	16488
309.566	22556
309.598	27246
309.620	37358
309.674	67276
309.688	74950
309.729	68704
309.778	51434
309.783	49834
309.837	29320
309.868	18537
309.892	15215
309.946	9923
309.959	8872
310.001	7533
310.049	6303
310.055	6125
310.109	4570
310.139	3791
310.163	3499
310.218	2959
310.229	2840
310.272	2638
310.319	2661
310.326	2586
310.381	1905
310.409	1530
310.435	1414
310.489	1359
310.499	1306
310.543	1193
310.589	1300
310.598	1257
310.652	880
310.679	681
310.706	916
310.760	1479
310.769	1543
310.814	1278
310.859	1089
310.868	1156
310.923	1382
310.948	1555
310.977	1494
311.031	1372
311.038	1354
311.085	1366
311.128	1151
311.139	1106
311.193	1096
311.218	1084
311.247	1191
311.301	1309
311.308	1320
311.356	1055
311.398	811
311.410	955
311.464	1712
311.488	1974
311.518	1599
311.572	978
311.578	906
311.626	914
311.668	904
311.680	864
311.734	660
311.758	582
311.788	1052
311.842	1877
311.847	1960
311.896	1725
311.937	1484
311.950	1466
312.004	1386
312.027	1351
312.058	1253
312.112	1059
312.117	1038
312.165	1388
312.207	1683
312.297	441
312.386	1179
312.476	607
312.566	1462
312.656	802
312.745	1369
312.835	1126
312.925	1335
313.015	1400
313.104	1249
313.194	1761
313.284	1238
313.374	1481
313.463	1743
313.553	1286
313.643	1537
313.732	1842
313.822	1296
313.912	2710
314.001	3502
314.091	2583
314.180	2333
314.270	2903
314.360	2441
314.449	2566
314.539	2009
314.628	2143
314.718	2596
314.808	2302
314.897	3661
314.987	3047
315.076	4295
315.166	3250
315.255	3438
315.345	3256
315.434	2770
315.524	3352
315.613	3874
315.703	7061
315.792	22262
315.881	85163
315.971	21164
316.060	5513
316.150	3765
316.239	2413
316.328	2762
316.418	2249
316.507	2612
316.597	2986
316.686	3258
316.775	3097
316.865	3248
316.954	2935
317.043	3491
317.133	1899
317.222	2823
317.311	1553
317.400	1792
317.490	3456
317.579	3762
317.668	4689
317.757	10136
317.847	39099
317.936	129785
318.025	32191
318.114	29842
318.203	11021
318.293	3799
318.382	5098
318.471	5515
318.560	3702
318.649	4783
318.738	2227
318.828	2700
318.917	1057
319.006	1114
319.095	1523
319.184	3042
319.273	2008
319.362	1739
319.451	1183
319.540	1415
319.629	1957
319.718	2876
319.807	751
319.896	1842
319.985	3203
320.074	2433
320.163	2112
320.252	1956
320.341	1840
320.430	1616
320.519	2153
320.608	2171
320.697	2536
320.786	2726
320.875	4122
320.964	4369
321.053	4241
321.142	4717
321.230	5694
321.319	6146
321.408	7581
321.497	7831
321.586	5912
321.675	4493
321.764	3822
321.852	4433
321.941	3697
322.030	3476
322.119	4254
322.207	6863
322.296	6209
322.385	7552
322.474	10593
322.562	11623
322.651	7974
322.740	6243
322.829	4519
322.917	4413
323.006	2967
323.095	3049
323.183	2391
323.272	2999
323.361	2144
323.449	3759
323.538	1334
323.626	2614
323.715	1455
323.804	2187
323.892	2130
323.981	2614
324.069	1157
324.158	2382
324.246	1905
324.335	2158
324.424	2012
324.512	1630
324.601	1586
324.689	1720
324.778	1950
324.866	2037
324.954	1686
325.043	1174
325.131	352
325.220	2084
325.308	1049
325.397	1744
325.485	731
325.574	1444
325.662	1854
325.750	1011
325.839	1400
325.927	1445
326.015	1182
326.104	1330
326.192	843
326.280	1535
326.369	858
326.457	1619
326.545	1426
326.634	2020
326.722	1360
326.810	1437
326.898	976
326.987	2372
327.075	545
327.163	1476
327.251	1655
327.340	2284
327.428	2697
327.516	3269
327.604	1736
327.692	2016
327.781	926
327.869	1055
327.957	327
328.045	1584
328.133	840
328.221	1255
328.309	1006
328.397	1784
328.485	1365
328.574	2860
328.662	4943
328.750	2801
328.838	1148
328.926	1126
329.014	882
329.102	1378
329.190	1199
329.278	1369
329.366	1283
329.454	1054
329.542	936
329.630	1007
329.718	1915
329.806	813
329.893	981
329.981	1062
330.069	1089
330.157	2046
330.245	1772
330.333	1736
330.421	676
330.509	1952
330.597	1353
330.684	1362
330.772	1060
330.860	325
330.948	937
331.036	1524
331.123	585
331.211	1969
331.299	1543
331.387	1203
331.475	1185
331.562	1376
331.650	1395
331.738	2125
331.825	1052
331.913	1089
332.001	1878
332.089	909
332.176	1226
332.264	1001
332.352	1030
332.439	1642
332.527	1653
332.614	1218
332.702	1068
332.790	2726
332.877	2279
332.965	8370
333.052	6700
333.140	8670
333.228	23159
333.315	5636
333.403	2146
333.490	3191
333.578	9100
333.665	37160
333.753	12598
333.840	2492
333.928	2825
334.015	2911
334.103	3391
334.190	5011
334.278	6477
334.365	10562
334.452	12146
334.540	5634
334.627	4574
334.715	6629
334.802	9675
334.889	18990
334.977	30094
335.064	18371
335.151	6737
335.239	5102
335.326	2982
335.413	5002
335.501	3928
335.588	3452
335.675	4233
335.762	5430
335.850	7201
335.937	12267
336.024	21577
336.111	42198
336.199	39844
336.286	15653
336.373	7023
336.460	5117
336.547	3446
336.635	3803
336.722	2781
336.809	1742
336.896	1947
336.983	2978
337.070	2629
337.157	2478
337.245	2959
337.332	3093
337.419	1566
337.506	2704
337.593	1737
337.680	2030
337.767	3369
337.854	2182
337.941	1067
338.028	2099
338.115	1417
338.202	2988
338.289	1933
338.376	1729
338.463	1861
338.550	1110
338.637	1772
338.724	1988
338.811	2320
338.898	1089
338.984	1619
339.071	2165
339.158	791
339.245	1846
339.332	1700
339.419	1667
339.506	984
339.593	1022
339.679	1237
339.766	939
339.853	1167
339.940	1524
340.027	805
340.113	1653
340.200	1620
340.287	1506
340.374	1241
340.460	1817
340.547	127
340.634	1669
340.720	2242
340.807	1819
340.894	1931
340.980	645
341.067	1084
341.154	2259
341.240	821
341.327	1378
341.414	1896
341.500	1086
341.587	1704
341.674	2129
341.760	1709
341.847	1649
341.933	814
342.020	490
342.106	2006
342.193	1875
342.279	2130
342.366	1531
342.452	1269
342.539	1168
342.625	869
342.712	1878
342.798	1538
342.885	1907
342.971	839
343.058	1422
343.144	1252
343.230	1684
343.317	1111
343.403	983
343.490	1310
343.576	1351
343.662	789
343.749	1387
343.835	1053
343.921	3105
344.008	8043
344.094	15681
344.180	3632
344.267	1781
344.353	2404
344.439	2794
344.525	2052
344.612	1137
344.698	994
344.784	928
344.870	2183
344.957	1710
345.043	2123
345.129	1219
345.215	1157
345.301	1555
345.387	1066
345.474	1414
345.560	1214
345.646	999
345.732	620
345.818	1014
345.904	1164
345.990	1178
346.076	1007
346.162	1384
346.249	1789
346.335	450
346.421	1311
346.507	1877
346.593	3786
346.679	522
346.765	2394
346.851	3726
346.937	2017
347.023	2126
347.108	1157
347.194	1302
347.280	1329
347.366	2261
347.452	7809
347.538	9613
347.624	5250
347.710	2882
347.796	1997
347.882	1438
347.967	1689
348.053	1008
348.139	1599
348.225	1313
348.311	615
348.397	1588
348.482	1926
348.568	1721
348.654	2481
348.740	11114
348.825	7883
348.911	4256
348.997	3667
349.083	5061
349.168	1465
349.254	2130
349.340	1143
349.425	952
349.511	1179
349.597	1049
349.682	1450
349.768	3462
349.854	1345
349.939	2453
350.025	1033
350.110	1494
350.196	1477
350.282	585
350.367	1803
350.453	1638
350.538	813
350.624	270
350.709	1130
350.795	583
350.880	535
350.966	2098
351.051	1025
351.137	1745
351.222	1164
351.308	1995
351.393	2407
351.479	1320
351.564	636
351.649	1681
351.735	1056
351.820	929
351.906	1013
351.991	937
352.076	986
352.162	2322
352.247	1553
352.332	1695
352.418	106
352.503	1553
352.588	3112
352.673	2548
352.759	1155
352.844	606
352.929	380
353.014	854
353.100	1114
353.185	2270
353.270	756
353.355	2202
353.441	1455
353.526	1374
353.611	346
353.696	645
353.781	1734
353.866	1247
353.952	1509
354.037	525
354.122	1980
354.207	1833
354.292	1178
354.377	1520
354.462	1177
354.547	1318
354.632	1584
354.717	1874
354.802	1056
354.887	1637
354.972	846
355.057	1578
355.142	1062
355.227	1222
355.312	527
355.397	1266
355.482	2514
355.567	1722
355.652	2182
355.737	2629
355.822	2954
355.907	1707
355.991	1975
356.076	1004
356.161	1245
356.246	1812
356.331	1490
356.416	1828
356.501	7336
356.585	4893
356.670	336
356.755	3475
356.840	1554
356.924	6318
357.009	15355
357.094	5316
357.179	945
357.263	1250
357.348	1706
357.433	1373
357.517	684
357.602	879
357.687	242
357.771	1599
357.856	1154
357.941	2288
358.025	6102
358.110	24163
358.195	9384
358.279	2523
358.364	2218
358.448	3367
358.533	5942
358.617	3423
358.702	3319
358.787	2746
358.871	1034
358.956	1958
359.040	1849
359.125	1629
359.209	1254
359.294	1910
359.378	2900
359.462	3591
359.547	1223
359.631	1277
359.716	525
359.800	1584
359.885	1849
359.969	959
360.053	1566
360.138	1795
360.222	469
360.306	1009
360.391	1211
360.475	1573
360.559	1196
360.644	2052
360.728	675
360.812	5017
360.896	9517
360.981	2921
361.065	1862
361.149	1867
361.233	1959
361.318	1695
361.402	1377
361.486	2015
361.570	1436
361.654	2007
361.739	2178
361.823	7272
361.907	10860
361.991	3022
362.075	2720
362.159	3779
362.243	10198
362.327	25678
362.411	45525
362.495	15059
362.580	5622
362.664	5693
362.748	4753
362.832	8748
362.916	19875
363.000	73948
363.084	114642
363.168	42419
363.252	10718
363.336	6704
363.420	5573
363.503	4044
363.587	3027
363.671	3768
363.755	2579
363.839	5478
363.923	2632
364.007	5151
364.091	6248
364.175	10590
364.258	26396
364.342	78935
364.426	170954
364.510	83262
364.594	20378
364.677	9914
364.761	10564
364.845	7517
364.929	3484
365.013	3498
365.096	1968
365.180	1518
365.264	2070
365.347	3900
365.431	2043
365.515	783
365.598	1309
365.682	3811
365.766	126
365.849	1766
365.933	876
366.017	3498
366.100	1315
366.184	2023
366.267	2450
366.351	2474
366.435	1097
366.518	1376
366.602	2090
366.685	2775
366.769	1796
366.852	2058
366.936	1535
367.019	1778
367.103	712
367.186	2972
367.270	1899
367.353	1249
367.436	3017
367.520	2348
367.603	2431
367.687	1297
367.770	2541
367.853	4058
367.937	4125
368.020	4613
368.104	992
368.187	2877
368.270	2034
368.353	1376
368.437	1268
368.520	2556
368.603	1520
368.687	1282
368.770	3112
368.853	1712
368.936	2074
369.020	1933
369.103	611
369.186	1197
369.269	1285
369.352	1895
369.436	1428
369.519	1786
369.602	-133
369.685	3323
369.768	490
369.851	2408
369.934	1494
370.018	1756
370.101	17
370.184	3842
370.267	2223
370.350	2512
370.433	3174
370.516	13430
370.599	42516
370.682	15978
370.765	5500
370.848	4669
370.931	4035
371.014	4065
371.097	528
371.180	2592
371.263	2057
371.346	717
371.429	2808
371.511	2403
371.594	1862
371.677	2793
371.760	4133
371.843	3306
371.926	11567
372.009	22620
372.091	11425
372.174	4805
372.257	7426
372.340	3969
372.423	4188
372.505	4958
372.588	2570
372.671	5079
372.754	4523
372.836	3825
372.919	3063
373.002	4785
373.085	2380
373.167	4287
373.250	3420
373.332	6458
373.415	13453
373.498	24943
373.580	17434
373.663	65844
373.746	59692
373.828	8677
373.911	5579
373.993	3036
374.076	2486
374.159	3038
374.241	2885
374.324	4954
374.406	4325
374.489	7495
374.571	15305
374.654	6325
374.736	4142
374.819	9260
374.901	16971
374.983	16990
375.066	4583
375.148	3494
375.231	3338
375.313	5141
375.395	3714
375.478	2947
375.560	4079
375.643	3815
375.725	5367
375.807	11006
375.890	9637
375.972	2375
376.054	1923
376.136	3344
376.219	1835
376.301	5082
376.383	6481
376.465	4358
376.548	2225
376.630	2927
376.712	6178
376.794	2426
376.877	1389
376.959	841
377.041	1970
377.123	1348
377.205	1400
377.287	1911
377.369	2560
377.452	2263
377.534	1794
377.616	1527
377.698	2162
377.780	654
377.862	2039
377.944	3021
378.026	1366
378.108	2455
378.190	1773
378.272	2531
378.354	2259
378.436	1612
378.518	496
378.600	2063
378.682	2358
378.764	2581
378.846	2810
378.928	2119
379.010	429
379.091	3027
379.173	1876
379.255	1259
379.337	1463
379.419	2569
379.501	5193
379.583	2540
379.664	1760
379.746	1691
379.828	3714
379.910	2670
379.991	4298
380.073	1669
380.155	1606
380.237	2033
380.318	2623
380.400	1974
380.482	2978
380.564	3217
380.645	2387
380.727	2455
380.809	3486
380.890	2133
380.972	1127
381.053	3106
381.135	4282
381.217	2325
381.298	5646
381.380	3317
381.461	2919
381.543	7902
381.624	8890
381.706	4850
381.787	3813
381.869	5021
381.951	8102
382.032	19339
382.113	13994
382.195	4120
382.276	7343
382.358	7352
382.439	11007
382.521	14857
382.602	21629
382.684	17878
382.765	30458
382.846	104004
382.928	255133
383.009	131230
383.090	97568
383.172	318637
383.253	413266
383.334	119356
383.416	42447
383.497	30261
383.578	36759
383.659	77401
383.741	269150
383.822	552722
383.903	269193
383.984	62822
384.066	33664
384.147	18680
384.228	13471
384.309	11640
384.390	10009
384.471	9221
384.553	8493
384.634	8083
384.715	7831
384.796	7874
384.877	7606
384.958	9780
385.039	6754
385.120	7420
385.201	6994
385.282	6041
385.363	7373
385.444	8990
385.525	8425
385.606	10945
385.687	9190
385.768	6746
385.849	5408
385.930	13643
386.011	18615
386.092	8312
386.173	6779
386.254	5194
386.335	5293
386.416	4838
386.496	4532
386.577	5861
386.658	4581
386.739	4197
386.820	5966
386.901	4770
386.981	6530
387.062	8177
387.143	8245
387.224	8720
387.304	9626
387.385	8870
387.466	6410
387.547	8961
387.627	9191
387.708	9055
387.789	11619
387.869	9816
387.950	8598
388.031	6045
388.111	2883
388.192	7683
388.273	9118
388.353	7848
388.434	3731
388.514	3845
388.595	8255
388.676	7791
388.756	4283
388.837	4433
388.917	3441
388.998	1342
389.078	3065
389.159	2623
389.239	1664
389.320	4777
389.400	1297
389.480	4139
389.561	4008
389.641	3967
389.722	3403
389.802	2368
389.883	4325
389.963	5515
390.043	2677
390.124	1573
390.204	2860
390.284	4977
390.365	1867
390.445	3686
390.525	3980
390.605	5036
390.686	2486
390.766	3711
390.846	3950
390.927	2732
391.007	1726
391.087	4076
391.167	2832
391.247	2089
391.328	3335
391.408	4196
391.488	3808
391.568	2150
391.648	3622
391.728	5854
391.808	4913
391.888	5396
391.969	5461
392.049	5870
392.129	6520
392.209	7376
392.289	10063
392.369	8091
392.449	9390
392.529	9787
392.609	12296
392.689	13640
392.769	16871
392.849	20958
392.929	27814
393.009	37561
393.089	59411
393.169	116594
393.248	310145
393.328	684615
393.408	654150
393.488	279484
393.568	104235
393.648	52730
393.728	31503
393.807	22431
393.887	18214
393.967	14499
394.047	11143
394.127	10133
394.206	10432
394.286	15476
394.366	50803
394.446	49580
394.525	11646
394.605	6580
394.685	6050
394.764	7670
394.844	11671
394.924	13888
395.003	6744
395.083	4730
395.163	4930
395.242	4773
395.322	5056
395.402	3706
395.481	6265
395.561	6202
395.640	19868
395.720	36310
395.799	14748
395.879	7117
395.958	7461
396.038	18871
396.117	71668
396.197	69592
396.276	18144
396.356	13127
396.435	16650
396.515	24018
396.594	37705
396.673	89316
396.753	287686
396.832	603853
396.912	417228
396.991	123013
397.070	47616
397.150	26158
397.229	21888
397.308	36266
397.388	57670
397.467	24637
397.546	9878
397.625	5773
397.705	7985
397.784	6127
397.863	5191
397.942	4555
398.022	3923
398.101	3087
398.180	3952
398.259	3670
398.338	3914
398.417	3192
398.497	2334
398.576	3302
398.655	1534
398.734	2599
398.813	2435
398.892	2584
398.971	3443
399.050	1320
399.129	1198
399.208	2741
399.287	2870
399.366	1275
399.445	1490
399.524	995
399.603	6
399.682	1542
399.761	1216
399.840	2696
399.919	2025
399.998	1543
400.077	339
400.156	506
400.235	3050
400.313	648
400.392	-164
400.471	2271
400.550	2659
400.629	752
400.708	2520
400.786	703
400.865	640
400.944	-152
401.023	3086
401.102	673
401.180	173
401.259	1155
401.338	357
401.416	1424
401.495	149
401.574	1670
401.652	-307
401.731	1863
401.810	-273
401.888	689
401.967	201
402.046	1171
402.124	1040
402.203	-207
402.281	1587
402.360	684
402.438	943
402.517	-432
402.596	364
402.674	278
402.753	75
402.831	1653
402.910	2095
402.988	1589
403.066	3040
403.145	3397
403.223	2234
403.302	3433
403.380	3047
403.459	3242
403.537	1205
403.615	1526
403.694	362
403.772	1656
403.850	953
403.929	822
404.007	384
404.085	2482
404.164	488
404.242	1111
404.320	2680
404.398	2653
404.477	2059
404.555	8233
404.633	5621
404.711	2028
404.789	1465
404.868	1426
404.946	309
405.024	1085
405.102	254
405.180	-146
405.258	-630
405.336	969
405.415	-642
405.493	1139
405.571	1093
405.649	874
405.727	-416
405.805	2913
405.883	1218
405.961	1583
406.039	76
406.117	-933
406.195	882
406.273	863
406.351	4998
406.429	2795
406.507	-20
406.585	101
406.663	749
406.740	410
406.818	-880
406.896	245
406.974	1161
407.052	-737
407.130	2692
407.208	3355
407.285	1696
407.363	528
407.441	409
407.519	686
407.596	444
407.674	2473
407.752	5505
407.830	4151
407.907	1165
407.985	15
408.063	149
408.141	375
408.218	621
408.296	-141
408.373	56
408.451	1420
408.529	423
408.606	838
408.684	59
408.762	1701
408.839	1089
408.917	1276
408.994	979
409.072	1272
409.149	2804
409.227	7460
409.304	10098
409.382	10270
409.459	11863
409.537	17259
409.614	12410
409.692	8114
409.769	9436
409.846	17152
409.924	20636
410.001	9760
410.079	6705
410.156	5625
410.233	3128
410.311	2112
410.388	1969
410.465	2116
410.543	1453
410.620	3275
410.697	2366
410.775	2049
410.852	1272
410.929	3707
411.006	2846
411.083	2542
411.161	1461
411.238	2041
411.315	1020
411.392	1261
411.469	1389
411.547	1310
411.624	-732
411.701	-410
411.778	703
411.855	853
411.932	12
412.009	633
412.086	764
412.163	992
412.240	-771
412.317	692
412.394	-256
412.471	1440
412.548	103
412.625	253
412.702	835
412.779	642
412.856	218
412.933	515
413.010	434
413.087	750
413.164	20
413.241	1342
413.318	-175
413.395	1023
413.471	-175
413.548	517
413.625	780
413.702	-872
413.779	399
413.855	614
413.932	-38
414.009	262
414.086	178
414.162	317
414.239	937
414.316	925
414.393	1845
414.469	-61
414.546	59
414.623	-558
414.699	120
414.776	-262
414.853	-481
414.929	1056
415.006	-821
415.082	261
415.159	129
415.236	514
415.312	529
415.389	463
415.465	340
415.542	-228
415.618	0
415.695	261
415.771	-606
415.848	49
415.924	633
416.000	-251
416.077	-64
416.153	-918
416.230	-484
416.306	547
416.383	-425
416.459	351
416.535	-331
416.612	596
416.688	975
416.764	1490
416.841	297
416.917	661
416.993	-328
417.069	808
417.146	-1206
417.222	-329
417.298	-813
417.374	-941
417.451	216
417.527	-819
417.603	-784
417.679	299
417.755	-1023
417.831	-345
417.908	51
417.984	-233
418.060	-931
418.136	615
418.212	-606
418.288	237
418.364	454
418.440	-383
418.516	171
418.592	272
418.668	-80
418.744	-353
418.820	215
418.896	-559
418.972	-1345
419.048	-377
419.124	371
419.200	-682
419.276	97
419.352	-521
419.428	-272
419.504	-161
419.579	-474
419.655	72
419.731	352
419.807	564
419.883	589
419.959	1156
420.034	153
420.110	457
420.186	30
420.262	1582
420.337	409
420.413	750
420.489	397
420.565	2065
420.640	404
420.716	1354
420.792	744
420.867	2335
420.943	1002
421.019	1514
421.094	1084
421.170	1852
421.245	1397
421.321	2160
421.397	2545
421.472	4924
421.548	6015
421.623	5046
421.699	4279
421.774	4722
421.850	5538
421.925	8051
422.001	8258
422.076	11430
422.152	13305
422.227	18882
422.302	29150
422.378	44657
422.453	79631
422.529	153993
422.604	237232
422.679	229820
422.755	226107
422.830	149370
422.905	78221
422.981	47538
423.056	31319
423.131	23805
423.207	16065
423.282	12829
423.357	10503
423.432	8679
423.508	7998
423.583	5918
423.658	5642
423.733	5018
423.808	3956
423.883	4296
423.959	4308
424.034	7270
424.109	5911
424.184	3597
424.259	1893
424.334	1843
424.409	1044
424.484	1010
424.559	815
424.634	1231
424.709	883
424.784	1510
424.859	555
424.934	822
425.009	724
425.084	1638
425.159	401
425.234	1421
425.309	-395
425.384	818
425.459	-1012
425.534	338
425.609	116
425.683	458
425.758	727
425.833	601
425.908	925
425.983	498
426.058	927
426.132	619
426.207	-1010
426.282	1449
426.357	-635
426.431	-187
426.506	136
426.581	509
426.655	340
426.730	109
426.805	-907
426.879	289
426.954	-981
427.029	-429
427.103	1077
427.178	2853
427.253	698
427.327	278
427.402	-285
427.476	285
427.551	-303
427.625	-79
427.700	-610
427.774	-580
427.849	262
427.923	-176
427.998	424
428.072	511
428.147	3969
428.221	29732
428.296	87903
428.370	40615
428.444	4390
428.519	1053
428.593	346
428.667	1084
428.742	1964
428.816	9314
428.890	53117
428.965	76007
429.039	14466
429.113	1875
429.188	-15
429.262	1020
429.336	459
429.410	707
429.485	633
429.559	598
429.633	394
429.707	1231
429.781	8287
429.855	50566
429.930	66482
430.004	13744
430.078	6356
430.152	29842
430.226	117617
430.300	102304
430.374	16315
430.448	4206
430.522	1903
430.596	2411
430.670	15414
430.744	69614
430.818	65106
430.892	8500
430.966	772
431.040	926
431.114	-433
431.188	-41
431.262	-1025
431.336	14
431.410	25
431.484	-244
431.557	469
431.631	599
431.705	2652
431.779	23228
431.853	82399
431.927	48372
432.000	4243
432.074	889
432.148	-1065
432.222	-504
432.295	-232
432.369	-837
432.443	-1709
432.516	282
432.590	2354
432.664	508
432.737	-609
432.811	-1225
432.885	-769
432.958	-287
433.032	-1848
433.106	-483
433.179	-581
433.253	-650
433.326	-964
433.400	-849
433.473	16
433.547	-1232
433.620	-813
433.694	-1258
433.767	-599
433.841	-1195
433.914	-1257
433.988	-386
434.061	-1013
434.134	-582
434.208	-1739
434.281	-1469
434.355	-1309
434.428	-527
434.501	-687
434.575	-592
434.648	-491
434.721	-860
434.795	-1766
434.868	-1016
434.941	-1369
435.014	-942
435.088	-404
435.161	2090
435.234	2140
435.307	2234
435.381	2117
435.454	4608
435.527	8571
435.600	8911
435.673	5272
435.746	3005
435.819	1383
435.892	618
435.966	339
436.039	-500
436.112	-342
436.185	-213
436.258	-1126
436.331	-961
436.404	-1488
436.477	-285
436.550	-1067
436.623	86
436.696	-1680
436.769	-587
436.842	-934
436.915	-584
436.987	-567
437.060	-796
437.133	-1841
437.206	-1348
437.279	-586
437.352	-474
437.425	-992
437.498	-718
437.570	-1172
437.643	-397
437.716	-916
437.789	-1156
437.861	-1066
437.934	-1533
438.007	-693
438.080	-1133
438.152	-1358
438.225	-166
438.298	1011
438.370	6114
438.443	704
438.516	-1178
438.588	-1304
438.661	-778
438.734	-1139
438.806	-879
438.879	-1342
438.951	-1125
439.024	-1530
439.096	-1012
439.169	-1588
439.241	-1035
439.314	-694
439.386	-1448
439.459	-765
439.531	-1369
439.604	-1719
439.676	-413
439.749	-1343
439.821	-1235
439.893	-1288
439.966	-1108
440.038	-2030
440.110	-583
440.183	-1648
440.255	-1234
440.327	59
440.400	-229
440.472	1428
440.544	1062
440.617	-1167
440.689	524
440.761	-341
440.833	-695
440.905	-72
440.978	-802
441.050	-1416
441.122	275
441.194	-961
441.266	-952
441.338	-690
441.411	-174
441.483	-67
441.555	29
441.627	-197
441.699	-331
441.771	-1670
441.843	-20
441.915	-284
441.987	-283
442.059	-470
442.131	-223
442.203	1230
442.275	862
442.347	2571
442.419	10548
442.491	63696
442.563	125039
442.635	38237
442.706	5867
442.778	2329
442.850	1022
442.922	273
442.994	1329
443.066	719
443.137	1727
443.209	2623
443.281	5028
443.353	15479
443.425	70455
443.496	207863
443.568	192417
443.640	65150
443.711	11495
443.783	3555
443.855	2622
443.926	1724
443.998	1174
444.070	286
444.141	10
444.213	139
444.285	263
444.356	476
444.428	453
444.499	-8
444.571	288
444.642	575
444.714	52
444.785	156
444.857	251
444.928	1188
445.000	1480
445.071	1715
445.143	3032
445.214	4231
445.285	10846
445.357	32140
445.428	135968
445.500	243319
445.571	168239
445.642	100696
445.714	27206
445.785	7627
445.856	2479
445.928	1598
445.999	1604
446.070	739
446.141	936
446.213	604
446.284	-282
446.355	346
446.426	374
446.497	42
446.569	-636
446.640	-328
446.711	-120
446.782	-717
446.853	-511
446.924	-984
446.995	-689
447.066	-729
447.138	-1091
447.209	-336
447.280	-1231
447.351	-1684
447.422	-897
447.493	-748
447.564	-691
447.635	-1572
447.706	-874
447.777	-1066
447.847	-777
447.918	-1540
447.989	-1352
448.060	-1186
448.131	-934
448.202	-468
448.273	-1028
448.344	-431
448.414	-865
448.485	-1120
448.556	-470
448.627	-976
448.698	535
448.768	-1513
448.839	-922
448.910	-1181
448.981	-683
449.051	-1147
449.122	-599
449.193	-1075
449.263	-822
449.334	-1357
449.405	-1203
449.475	-1052
449.546	98
449.616	-295
449.687	74
449.758	-538
449.828	-1066
449.899	-1565
449.969	-867
450.040	-1962
450.110	-389
450.181	-1715
450.251	-271
450.322	-1015
450.392	-824
450.463	-344
450.533	-1354
450.604	-1107
450.674	-724
450.744	-170
450.815	-221
450.885	-498
450.955	596
451.026	-600
451.096	-1141
451.166	-936
451.237	530
451.307	932
451.377	-415
451.447	-707
451.518	-855
451.588	-1152
451.658	-1120
451.728	-1222
451.799	-667
451.869	-1012
451.939	-485
452.009	-1377
452.079	-1125
452.149	-925
452.219	-432
452.289	76
452.360	-928
452.430	-736
452.500	254
452.570	729
452.640	6201
452.710	19150
452.780	16160
452.850	4859
452.920	1729
452.990	411
453.060	-443
453.129	-611
453.199	-967
453.269	-741
453.339	-727
453.409	-714
453.479	-59
453.549	-574
453.619	329
453.688	-956
453.758	-327
453.828	-1625
453.898	-1023
453.968	-1050
454.037	-988
454.087	-1337
454.107	-1496
454.168	-1387
454.177	-1386
454.247	-977
454.249	-986
454.316	-1695
454.330	-1593
454.386	-1239
454.411	-1234
454.456	-1303
454.492	-1059
454.525	-838
454.574	-381
454.595	-219
454.655	-1130
454.665	-1278
454.734	-228
454.736	-226
454.804	-959
454.817	-1016
454.873	-1265
454.898	-1188
454.943	-1127
454.979	-1080
455.013	-1039
455.060	-1063
455.082	-1143
455.141	-875
455.152	-822
455.221	-938
455.222	-917
455.291	-638
455.303	-640
455.360	-634
455.384	-331
455.430	28
455.465	-273
455.499	-522
455.546	-413
455.569	-405
455.627	-362
455.638	-386
455.707	-1017
455.708	-1003
455.777	-873
455.789	-719
455.846	-162
455.869	-215
455.916	-342
455.950	-163
455.985	-20
456.031	-483
456.054	-754
456.112	-889
456.124	-889
456.193	-81
456.193	-95
456.262	580
456.274	504
456.332	165
456.355	139
456.401	52
456.436	-323
456.470	-781
456.516	-466
456.540	-291
456.597	24
456.609	47
456.678	799
456.678	786
456.747	-249
456.759	-238
456.817	-9
456.840	-15
456.886	-51
456.920	240
456.955	565
457.001	575
457.024	454
457.082	790
457.093	843
457.162	551
457.163	569
457.232	331
457.243	317
457.301	416
457.324	602
457.370	830
457.405	1126
457.439	1581
457.485	1566
457.508	1510
457.566	1973
457.577	2205
457.646	4253
457.647	4297
457.715	11992
457.727	14066
457.784	27614
457.808	36428
457.853	44820
457.889	49006
457.922	45230
457.969	26834
457.991	27851
458.050	40864
458.060	43211
458.129	78424
458.130	79312
458.198	66263
458.211	57371
458.267	26021
458.292	16551
458.336	11445
458.372	11327
458.405	19006
458.453	32788
458.474	42802
458.533	79094
458.543	81197
458.611	118682
458.614	118875
458.680	57373
458.694	42124
458.749	17144
458.775	11465
458.818	6573
458.855	5095
458.887	4404
458.936	3584
458.955	3254
459.016	2407
459.024	2394
459.093	2356
459.097	2390
459.162	1769
459.177	1739
459.230	2372
459.257	2497
459.299	2469
459.338	2341
459.368	2164
459.418	2068
459.437	2091
459.499	1906
459.505	1870
459.574	2039
459.579	2001
459.643	1274
459.659	1399
459.711	2277
459.740	2491
459.780	2195
459.820	2197
459.849	2505
459.900	2173
459.917	1891
459.981	1840
459.986	1853
460.054	1841
460.061	1871
460.123	1887
460.141	1854
460.191	2188
460.222	2449
460.260	2288
460.302	1653
460.328	1660
460.382	2686
460.397	2798
460.462	2282
460.465	2309
460.534	3472
460.543	3622
460.602	8679
460.623	10834
460.671	16693
460.703	20994
460.739	17684
460.783	12215
460.808	9902
460.864	3246
460.876	2837
460.944	2454
460.945	2454
461.013	2039
461.024	2094
461.081	2043
461.104	2109
461.150	2384
461.184	2496
461.218	2411
461.264	2333
461.286	2456
461.345	2428
461.355	2304
461.423	1681
461.425	1666
461.491	1838
461.505	1951
461.559	2007
461.585	1917
461.628	2136
461.665	2294
461.696	2178
461.745	2309
461.764	2446
461.825	2561
461.832	2599
461.901	3106
461.905	3134
461.969	2694
461.985	2589
462.037	3087
462.065	3178
462.105	2264
462.145	1875
462.173	2253
462.225	2440
462.241	2413
462.305	2643
462.310	2667
462.378	2581
462.385	2639
462.446	3251
462.465	3279
462.514	2987
462.545	2952
462.582	2870
462.625	2643
462.650	2694
462.705	3114
462.718	3090
462.785	2529
462.786	2525
462.854	2306
462.865	2258
462.922	2613
462.945	2845
462.990	3040
463.025	2941
463.058	2833
463.104	3128
463.126	3113
463.184	2733
463.194	2807
463.262	3330
463.264	3340
463.330	2034
463.344	1861
463.398	3297
463.424	3720
463.466	2764
463.504	2076
463.533	2559
463.583	3281
463.601	3131
463.663	2786
463.669	2833
463.737	2941
463.743	2978
463.805	3333
463.823	3423
463.873	3520
463.903	3588
463.940	3396
463.982	3008
464.008	3164
464.062	3771
464.076	3667
464.142	2942
464.144	2959
464.211	3189
464.221	3258
464.279	3363
464.301	3367
464.347	3445
464.381	3485
464.414	3086
464.461	2777
464.482	2814
464.540	2408
464.550	2468
464.617	3118
464.620	3136
464.685	3518
464.699	3590
464.753	3134
464.779	2876
464.820	3299
464.859	3733
464.888	3403
464.938	2682
464.956	3076
465.018	4746
465.023	4779
465.091	4817
465.098	4815
465.158	3833
465.177	3575
465.226	3593
465.257	3568
465.293	3763
465.336	3837
465.361	3755
465.416	3751
465.428	3749
465.495	3434
465.496	3441
465.563	3459
465.575	3418
465.631	3743
465.654	3999
465.698	3662
465.734	3213
465.765	3478
465.813	3831
465.833	3694
465.893	3331
465.900	3437
465.968	4359
465.972	4402
466.035	3795
466.052	3647
466.102	3948
466.131	4118
466.170	3510
466.210	2788
466.237	2976
466.290	3411
466.304	3557
466.369	4075
466.372	4089
466.439	4307
466.449	4321
466.506	3888
466.528	3688
466.573	3735
466.607	3805
466.641	3585
466.687	3253
466.708	3654
466.766	4687
466.775	4613
466.842	3982
466.845	3945
466.909	4803
466.925	4983
466.977	4324
467.004	3959
467.044	4315
467.083	4664
467.111	4616
467.163	4492
467.178	4702
467.242	5513
467.245	5491
467.312	4808
467.321	4706
467.379	5547
467.400	5837
467.446	5760
467.480	5683
467.559	5379
467.638	5025
467.717	4793
467.796	4510
467.875	5770
467.955	4859
468.034	6776
468.113	6714
468.192	9585
468.271	10950
468.350	16735
468.429	25355
468.508	27056
468.588	15282
468.667	8889
468.746	7268
468.825	5440
468.904	5142
468.983	4960
469.062	5160
469.141	5722
469.220	4847
469.299	5741
469.378	3370
469.456	6170
469.535	5162
469.614	4629
469.693	4719
469.772	6082
469.851	5905
469.930	6198
470.009	6471
470.088	7681
470.166	11545
470.245	20886
470.324	26730
470.403	15602
470.482	7913
470.560	6764
470.639	5184
470.718	5522
470.797	4793
470.875	5552
470.954	5160
471.033	5009
471.111	4835
471.190	4903
471.269	5058
471.347	4801
471.426	4284
471.505	5230
471.583	4277
471.662	5591
471.740	4708
471.819	4994
471.898	4588
471.976	5469
472.055	4538
472.133	4799
472.212	4770
472.290	4548
472.369	4183
472.447	4627
472.526	4264
472.604	5056
472.683	4613
472.761	5230
472.839	4624
472.918	4825
472.996	4780
473.075	6640
473.153	4622
473.231	4768
473.310	5459
473.388	4735
473.466	4419
473.545	5699
473.623	4486
473.701	4923
473.780	5933
473.858	3647
473.936	6696
474.014	5492
474.093	5231
474.171	5987
474.249	5449
474.327	4999
474.405	4295
474.484	5004
474.562	4019
474.640	4496
474.718	4239
474.796	4132
474.874	5448
474.952	4844
475.030	3402
475.108	5431
475.187	4964
475.265	5832
475.343	5826
475.421	5546
475.499	5591
475.577	4993
475.655	4788
475.733	5299
475.811	5115
475.889	5041
475.966	5476
476.044	4446
476.122	4665
476.200	4751
476.278	4035
476.356	4713
476.434	4110
476.512	4945
476.590	5001
476.667	5677
476.745	3885
476.823	5589
476.901	4063
476.979	4742
477.056	4082
477.134	4814
477.212	4218
477.290	3943
477.367	4825
477.445	4644
477.523	4451
477.601	4401
477.678	4420
477.756	4687
477.834	4417
477.911	5149
477.989	4196
478.066	4004
478.144	4002
478.222	5226
478.299	5047
478.377	4679
478.454	4717
478.532	4844
478.609	3707
478.687	4759
478.764	3248
478.842	4851
478.919	4251
478.997	5135
479.074	4130
479.152	5024
479.229	4667
479.307	4350
479.384	4645
479.461	4708
479.539	4035
479.616	4211
479.694	3346
479.771	4593
479.848	4094
479.926	3740
480.003	4994
480.080	5345
480.157	4876
480.235	4449
480.312	4399
480.389	4534
480.467	4123
480.544	5250
480.621	4817
480.698	5425
480.775	4428
480.853	5161
480.930	4475
481.007	5286
481.084	4314
481.161	5299
481.238	4834
481.315	4494
481.392	3325
481.470	4570
481.547	4930
481.624	4744
481.701	5024
481.778	5627
481.855	4381
481.932	5965
482.009	5743
482.086	6766
482.163	6599
482.240	9017
482.317	8606
482.393	7282
482.470	6163
482.547	6626
482.624	5343
482.701	5570
482.778	4976
482.855	5520
482.932	5289
483.009	5764
483.085	7265
483.162	8700
483.239	9423
483.316	8473
483.393	9273
483.469	7937
483.546	6346
483.623	6555
483.699	5245
483.776	4219
483.853	4133
483.930	4700
484.006	4539
484.083	6901
484.160	6041
484.236	8106
484.313	6252
484.389	6419
484.466	8279
484.543	8737
484.619	11424
484.696	15964
484.772	9392
484.849	6773
484.925	6220
485.002	6202
485.078	5868
485.155	5840
485.231	5038
485.308	4886
485.384	4781
485.461	5775
485.537	4029
485.614	6159
485.690	4735
485.766	4972
485.843	3820
485.919	5463
485.995	4628
486.072	5324
486.148	5468
486.224	4817
486.301	3712
486.377	4963
486.453	4322
486.530	5605
486.606	6697
486.682	6572
486.758	5596
486.835	6220
486.911	4911
486.987	6832
487.063	7470
487.139	8959
487.215	8736
487.292	11494
487.368	11251
487.444	15869
487.520	19946
487.596	31492
487.672	84349
487.748	284434
487.824	411806
487.900	106521
487.976	25883
488.052	15195
488.128	10850
488.204	7929
488.280	7973
488.356	7520
488.432	6310
488.508	6485
488.584	5742
488.660	5796
488.736	5893
488.812	5462
488.888	5583
488.964	5974
489.039	6223
489.115	7713
489.191	5291
489.267	5115
489.343	4451
489.418	5110
489.494	5145
489.570	3368
489.646	6704
489.722	6233
489.797	4416
489.873	5810
489.949	5405
490.024	5732
490.100	5084
490.176	6316
490.251	4899
490.327	6272
490.403	5231
490.478	5242
490.554	4802
490.629	4421
490.705	4512
490.781	4468
490.856	4584
490.932	4610
491.007	4721
491.083	4135
491.158	4637
491.234	4993
491.309	5177
491.385	4798
491.460	3943
491.536	5230
491.611	3745
491.686	4662
491.762	5393
491.837	5395
491.913	5916
491.988	6996
492.063	5954
492.139	5845
492.214	4629
492.289	5746
492.365	3301
492.440	5050
492.515	3576
492.590	4454
492.666	3532
492.741	4801
492.816	5340
492.891	3708
492.967	5681
493.042	4557
493.117	4385
493.192	5277
493.267	6248
493.342	7049
493.418	6594
493.493	5264
493.568	4925
493.643	4967
493.718	4334
493.793	5207
493.868	4088
493.943	5104
494.018	4705
494.093	4481
494.168	5103
494.243	3963
494.318	5037
494.393	5247
494.468	4757
494.543	5000
494.618	4509
494.693	5203
494.768	5848
494.842	5446
494.917	4990
494.992	5288
495.067	4960
495.142	5140
495.217	3811
495.292	5041
495.366	4693
495.441	4136
495.516	5546
495.591	4588
495.665	7149
495.740	10675
495.815	5936
495.890	4566
495.964	3189
496.039	7450
496.114	5933
496.188	6239
496.263	6327
496.338	4970
496.412	3915
496.487	5827
496.561	5422
496.636	5172
496.710	3899
496.785	5012
496.860	4774
496.934	5009
497.009	5928
497.083	5197
497.158	4790
497.232	6475
497.307	6270
497.381	6753
497.455	6771
497.530	5043
497.604	5147
497.679	4720
497.753	5304
497.827	5036
497.902	3808
497.976	5249
498.050	6813
498.125	9016
498.199	8393
498.273	5585
498.348	6397
498.422	6752
498.496	7417
498.570	8924
498.645	4969
498.719	3511
498.793	4488
498.867	4301
498.941	4414
499.016	6241
499.090	7861
499.164	5993
499.238	5395
499.312	6129
499.386	5582
499.460	8071
499.534	8331
499.609	9095
499.683	6050
499.757	4642
499.831	3475
499.905	6330
499.979	5822
500.053	4717
500.127	4885
500.201	4123
500.275	5700
500.349	5586
500.422	5289
500.496	6978
500.570	7806
500.644	13005
500.718	10643
500.792	5085
500.866	3281
500.940	3622
501.013	3816
501.087	4264
501.161	3933
501.235	2451
501.309	6012
501.382	4987
501.456	5441
501.530	3852
501.603	2625
501.677	3894
501.751	2078
501.825	4971
501.898	3216
501.972	4251
502.046	3401
502.119	2386
502.193	3803
502.266	4230
502.340	3778
502.413	4349
502.487	4413
502.561	3499
502.634	3666
502.708	4281
502.781	1828
502.855	4657
502.928	2543
503.002	4294
503.075	2919
503.149	3440
503.222	3877
503.295	3885
503.369	3821
503.442	4716
503.516	5095
503.589	6983
503.662	6775
503.736	9398
503.809	10303
503.882	13721
503.956	21949
504.029	48576
504.102	158190
504.175	226059
504.249	68364
504.322	22538
504.395	11998
504.468	8261
504.542	6189
504.615	5002
504.688	5517
504.761	3041
504.834	5114
504.907	4098
504.980	3686
505.053	3289
505.127	1309
505.200	5570
505.273	2496
505.346	2797
505.419	2097
505.492	4126
505.565	2440
505.638	2851
505.711	1146
505.784	2596
505.857	2405
505.930	4126
506.003	1294
506.076	5045
506.149	1782
506.221	686
506.294	3785
506.367	1012
506.440	3057
506.513	3813
506.586	3020
506.659	2051
506.731	2672
506.804	1486
506.877	1246
506.950	2344
507.022	3192
507.095	2060
507.168	2686
507.241	3242
507.313	1967
507.386	1006
507.459	3367
507.531	2530
507.604	1067
507.677	3598
507.749	381
507.822	3510
507.894	2049
507.967	3992
508.040	1710
508.112	3278
508.185	2509
508.257	1796
508.330	4172
508.402	2140
508.475	2274
508.547	2190
508.620	1755
508.692	2808
508.765	1711
508.837	2500
508.909	2314
508.982	2360
509.054	2812
509.127	2147
509.199	1732
509.271	2333
509.344	1412
509.416	2389
509.488	2832
509.560	3101
509.633	3289
509.705	3469
509.777	1722
509.849	3492
509.922	655
509.994	2755
510.066	2321
510.138	1012
510.210	4446
510.283	2020
510.355	3158
510.427	3249
510.499	2547
510.571	3201
510.643	1251
510.715	3933
510.787	683
510.859	3603
510.931	2780
511.003	2533
511.076	3416
511.148	2733
511.219	1143
511.291	2367
511.363	2782
511.435	2701
511.507	1165
511.579	3227
511.651	3444
511.723	2349
511.795	2538
511.867	2001
511.939	2855
512.010	2153
512.082	2444
512.154	2063
512.226	2413
512.298	3560
512.369	2091
512.441	3086
512.513	2654
512.585	1714
512.656	2984
512.728	2169
512.800	2107
512.871	3237
512.943	3128
513.015	1328
513.086	2717
513.158	3859
513.230	1074
513.301	1758
513.373	3512
513.444	2997
513.516	2271
513.588	2779
513.659	2574
513.731	2352
513.802	1355
513.874	5086
513.945	2339
514.016	2235
514.088	2959
514.159	1223
514.231	2429
514.302	2983
514.374	2678
514.445	1291
514.516	5050
514.588	2989
514.659	3039
514.730	2131
514.802	3883
514.873	1617
514.944	5090
515.016	3689
515.087	3010
515.158	3231
515.229	3680
515.301	2793
515.372	4255
515.443	3258
515.514	1922
515.585	1934
515.656	4398
515.728	4192
515.799	1659
515.870	3168
515.941	3802
516.012	3472
516.083	6112
516.154	5665
516.225	7655
516.296	10305
516.367	9877
516.438	13172
516.509	16894
516.580	30770
516.651	122764
516.722	404233
516.793	143256
516.864	25521
516.935	22755
517.006	28320
517.077	37658
517.148	96745
517.219	469625
517.289	672798
517.360	89578
517.431	21832
517.502	12423
517.573	12647
517.643	10495
517.714	11247
517.785	12308
517.856	14635
517.926	19825
517.997	24225
518.068	29418
518.138	43947
518.209	75941
518.280	306013
518.350	962009
518.421	374665
518.492	55147
518.562	33254
518.633	32598
518.703	43244
518.774	102220
518.845	290470
518.915	252264
518.986	59505
519.056	23100
519.127	15737
519.197	12276
519.268	7896
519.338	8064
519.408	6144
519.479	3981
519.549	5125
519.620	5308
519.690	4746
519.760	4639
519.831	3881
519.901	3961
519.971	4224
520.042	2917
520.112	3109
520.182	3824
520.253	3383
520.323	2869
520.393	2310
520.463	5049
520.534	279
520.604	5103
520.674	4003
520.744	2250
520.814	1874
520.885	4066
520.955	3890
521.025	3062
521.095	3215
521.165	4103
521.235	2619
521.305	1287
521.375	3553
521.445	3722
521.515	2727
521.585	3685
521.655	1766
521.725	2971
521.795	4166
521.865	147
521.935	4090
522.005	1795
522.075	2352
522.145	4148
522.215	3042
522.285	2688
522.355	2509
522.424	3980
522.494	2582
522.564	3485
522.634	2729
522.704	5764
522.774	3753
522.843	3119
522.913	3166
522.983	2698
523.053	2576
523.122	2359
523.192	3540
523.262	3981
523.331	3543
523.401	4242
523.471	3729
523.540	3834
523.610	3097
523.680	3227
523.749	3877
523.819	3831
523.888	3021
523.958	2411
524.027	3718
524.097	2581
524.166	3007
524.236	2243
524.305	4888
524.375	2817
524.444	1954
524.514	4628
524.583	3747
524.653	2082
524.722	4848
524.791	1788
524.861	5700
524.930	1857
524.999	3532
525.069	5486
525.138	3723
525.207	3703
525.277	5129
525.346	4463
525.415	5750
525.484	6143
525.554	7537
525.623	9623
525.692	12076
525.761	14292
525.830	20419
525.900	25725
525.969	42611
526.038	83387
526.107	183732
526.176	517941
526.245	370450
526.314	103404
526.383	254270
526.452	324314
526.522	485964
526.591	408775
526.660	58116
526.729	35790
526.797	40471
526.867	59451
526.935	189461
527.004	713831
527.073	416576
527.142	47114
527.211	19655
527.280	12808
527.349	11036
527.418	6652
527.487	7651
527.555	4571
527.624	4665
527.693	3511
527.762	6023
527.831	3157
527.899	4297
527.968	3913
528.037	2984
528.106	4218
528.174	3906
528.243	3711
528.312	3960
528.380	3812
528.449	2765
528.518	4545
528.586	2841
528.655	4280
528.723	3196
528.792	2807
528.861	2368
528.929	1970
528.998	5119
529.066	3178
529.135	3823
529.203	2495
529.272	3096
529.340	4781
529.409	5006
529.477	3831
529.545	2797
529.614	5184
529.682	2167
529.751	4342
529.819	6650
529.887	3611
529.956	3664
530.024	4320
530.092	3715
530.161	3424
530.229	4487
530.297	3875
530.365	5138
530.434	4239
530.502	3776
530.570	4757
530.638	2841
530.707	4131
530.775	5468
530.843	3261
530.911	4515
530.979	5062
531.047	4318
531.115	4503
531.183	4222
531.252	5046
531.320	4386
531.388	3755
531.456	4940
531.524	3331
531.592	5248
531.660	6591
531.728	4181
531.796	3823
531.864	5022
531.932	4317
532.000	4111
532.067	4474
532.135	5570
532.203	6922
532.271	5717
532.339	6611
532.407	6862
532.475	6725
532.542	6835
532.610	6379
532.678	3942
532.746	8941
532.814	11891
532.881	6698
532.949	6120
533.017	6902
533.084	5913
533.152	5756
533.220	5640
533.287	4414
533.355	5923
533.423	5801
533.490	5686
533.558	5699
533.625	6247
533.693	5636
533.761	6661
533.828	6064
533.896	4134
533.963	7755
534.031	8050
534.098	10294
534.166	10691
534.233	9169
534.300	12116
534.368	11105
534.435	10127
534.503	11092
534.570	14589
534.637	14727
534.705	17626
534.772	21960
534.840	48237
534.907	227348
534.974	256040
535.041	28835
535.109	13676
535.176	9911
535.243	9966
535.310	9820
535.378	8446
535.445	9047
535.512	9484
535.579	9405
535.646	8754
535.714	9324
535.781	10608
535.848	9573
535.915	11346
535.982	8053
536.049	9550
536.116	9697
536.183	8656
536.250	8416
536.317	8864
536.384	9931
536.451	10810
536.518	10187
536.585	8918
536.652	10664
536.719	11953
536.786	7789
536.853	9723
536.920	11212
536.987	10188
537.053	8386
537.120	13505
537.187	12461
537.254	10393
537.321	10146
537.388	12326
537.454	9692
537.521	10205
537.588	10374
537.654	11261
537.721	12543
537.788	11777
537.855	9940
537.921	11166
537.988	9604
538.055	10923
538.121	9127
538.188	9372
538.254	9178
538.321	10321
538.388	10826
538.454	12219
538.521	11708
538.587	11553
538.654	11016
538.720	10735
538.787	10930
538.853	11987
538.920	10874
538.986	9631
539.053	8789
539.119	10023
539.185	9139
539.252	11769
539.318	10742
539.385	13521
539.451	9694
539.517	11887
539.583	10842
539.650	11406
539.716	11914
539.782	10502
539.849	9203
539.915	10589
539.981	9476
540.047	10609
540.114	9612
540.180	12019
540.246	10292
540.312	12205
540.378	11672
540.444	12643
540.510	13077
540.576	12971
540.643	10335
540.709	9514
540.775	10688
540.841	10772
540.907	10152
540.973	11193
541.039	8774
541.105	10812
541.171	11508
541.237	12360
541.303	12436
541.369	12835
541.435	11353
541.500	10980
541.566	8938
541.632	10029
541.698	11056
541.764	12981
541.830	10812
541.896	10187
541.961	11421
542.027	10933
542.093	11261
542.159	11785
542.224	9892
542.290	11427
542.356	9791
542.421	11503
542.487	10393
542.553	9490
542.618	9736
542.684	10156
542.750	9781
542.815	11995
542.881	10432
542.947	12184
543.012	11956
543.078	10138
543.143	9483
543.209	11485
543.274	9482
543.340	9841
543.405	10685
543.471	11437
543.536	11051
543.602	10666
543.667	9026
543.732	12010
543.798	9829
543.863	11267
543.928	10613
543.994	10795
544.059	11020
544.124	12063
544.190	11940
544.255	12695
544.320	12623
544.386	11935
544.451	12332
544.516	13406
544.581	12252
544.646	13333
544.712	14449
544.777	13020
544.842	11983
544.907	12333
544.972	12779
545.037	13417
545.102	12574
545.168	13447
545.233	14278
545.298	14471
545.363	12896
545.428	15676
545.493	16404
545.558	15738
545.623	15576
545.688	14593
545.753	15923
545.818	16407
545.883	17400
545.947	17285
546.012	18232
546.077	18839
546.142	20648
546.207	21452
546.272	22601
546.337	22014
546.401	24088
546.466	24914
546.531	24754
546.596	27582
546.661	28582
546.725	30673
546.790	31756
546.855	35952
546.919	38446
546.984	43282
547.049	45713
547.113	53263
547.178	58952
547.243	67833
547.307	78962
547.372	85914
547.436	85416
547.501	91957
547.565	97688
547.630	88402
547.695	85313
547.759	86058
547.823	86445
547.888	88895
547.952	91643
548.017	94992
548.081	96293
548.146	95073
548.210	98543
548.274	108482
548.339	103300
548.403	95676
548.468	87454
548.532	88777
548.596	90065
548.660	91428
548.725	100710
548.789	108062
548.853	104454
548.917	99261
548.982	96527
549.046	85366
549.110	77257
549.174	82650
549.238	95344
549.303	105168
549.367	108078
549.431	101325
549.495	93989
549.559	96934
549.623	113716
549.687	122009
549.751	119024
549.815	145055
549.879	144679
549.943	138121
550.007	145406
550.071	142558
550.135	127270
550.199	123087
550.263	119737
550.327	112809
550.391	114626
550.455	129376
550.519	137357
550.582	145415
550.646	162829
550.710	164563
550.774	161951
550.838	163007
550.901	169272
550.965	177932
551.029	184542
551.093	197542
551.156	214719
551.220	241169
551.284	271349
551.347	207849
551.411	173900
551.475	168113
551.538	174590
551.602	163481
551.666	153804
551.729	144501
551.793	143240
551.856	140523
551.920	137247
551.983	138407
552.047	134744
552.110	136506
552.174	138315
552.237	142294
552.301	131280
552.364	124897
552.428	122566
552.491	126920
552.554	128768
552.618	128549
552.681	131714
552.745	129422
552.808	151276
552.871	170496
552.934	142594
552.998	131397
553.061	125940
553.124	119557
553.187	120416
553.251	124777
553.314	123771
553.377	123775
553.440	132916
553.503	135391
553.567	134011
553.630	133580
553.693	132251
553.756	133852
553.819	128625
553.882	124994
553.945	123982
554.008	125323
554.071	127833
554.134	129068
554.197	119782
554.260	118380
554.323	120285
554.386	121371
554.449	126407
554.512	127419
554.575	121192
554.638	119011
554.701	117227
554.764	116479
554.827	112954
554.889	109486
554.952	101605
555.015	101054
555.078	102147
555.141	103253
555.203	100634
555.266	102745
555.329	99845
555.391	96462
555.454	94564
555.517	90624
555.580	87670
555.642	84849
555.705	83502
555.768	82515
555.830	80728
555.893	76246
555.955	73704
556.018	73470
556.080	73095
556.143	77221
556.206	74090
556.268	74059
556.330	70569
556.393	69120
556.455	66514
556.518	65934
556.580	62291
556.643	60322
556.705	59811
556.767	59012
556.830	59186
556.892	56645
556.955	56071
557.017	54857
557.079	54547
557.142	52567
557.204	52168
557.266	53610
557.328	48082
557.391	45074
557.453	44938
557.515	44237
557.577	44105
557.639	45186
557.701	46297
557.764	45972
557.826	46480
557.888	49323
557.950	49150
558.012	56026
558.074	71946
558.136	157503
558.198	340873
558.260	114206
558.322	51154
558.384	52061
558.446	53267
558.508	59002
558.570	63292
558.632	73753
558.694	94032
558.756	159762
558.818	439889
558.880	888305
558.942	351480
559.003	360782
559.065	161507
559.127	65471
559.189	63317
559.251	70350
559.312	101973
559.374	243924
559.436	678624
559.498	319559
559.559	72582
559.621	62556
559.683	74240
559.744	123466
559.806	375908
559.868	505838
559.929	107782
559.991	71992
560.052	122733
560.114	334300
560.176	193005
560.237	196071
560.299	289839
560.360	59559
560.422	27597
560.483	23607
560.545	22316
560.606	20741
560.667	20261
560.729	18729
560.790	17691
560.852	17852
560.913	16975
560.974	16450
561.036	16160
561.097	16510
561.158	16223
561.220	16246
561.281	15067
561.342	15332
561.403	15612
561.465	15014
561.526	15202
561.587	15798
561.648	13210
561.709	13532
561.771	13579
561.832	13398
561.893	13106
561.954	12940
562.015	12147
562.076	13187
562.137	11999
562.198	12709
562.259	11831
562.320	12267
562.381	11503
562.442	13085
562.503	11868
562.564	12690
562.625	11218
562.686	11751
562.747	10377
562.808	11781
562.869	10455
562.930	11098
562.991	10539
563.051	10556
563.112	10396
563.173	10466
563.234	10055
563.294	11675
563.355	10128
563.416	10907
563.477	9852
563.537	10294
563.598	9031
563.659	9728
563.720	9473
563.780	9932
563.841	9976
563.901	10839
563.962	9968
564.023	10875
564.083	10154
564.144	9769
564.204	8629
564.265	8359
564.325	9093
564.386	10223
564.446	9153
564.507	8497
564.567	8036
564.628	9295
564.688	8041
564.749	7958
564.809	9102
564.869	9598
564.930	8917
564.990	9002
565.050	8228
565.111	9285
565.171	7689
565.231	7862
565.292	9039
565.352	9141
565.412	8954
565.472	8963
565.532	7909
565.593	8031
565.653	8301
565.713	8396
565.773	9485
565.833	8764
565.893	10156
565.953	8446
566.013	8399
566.074	7618
566.134	8758
566.194	7399
566.254	8628
566.314	8754
566.374	7645
566.434	8108
566.494	6924
566.554	8946
566.614	8853
566.673	9290
566.733	7915
566.793	8352
566.853	7973
566.913	8585
566.973	8567
567.033	9243
567.092	8133
567.152	8575
567.212	8069
567.272	8509
567.331	7952
567.391	9144
567.451	9689
567.511	9804
567.570	9183
567.630	9368
567.690	8185
567.749	8594
567.809	8857
567.868	9449
567.928	8218
567.988	8982
568.047	8344
568.107	9167
568.166	9126
568.226	9594
568.285	8880
568.345	9162
568.404	8539
568.464	9098
568.523	8873
568.582	9030
568.642	8598
568.701	8757
568.761	8203
568.820	8810
568.879	7698
568.939	9193
568.998	9292
569.057	8107
569.116	7952
569.176	9280
569.235	8243
569.294	9725
569.353	7406
569.413	8295
569.472	7337
569.531	8302
569.590	7726
569.649	7906
569.708	7842
569.767	8828
569.827	8052
569.886	7937
569.945	7515
570.004	8732
570.063	7638
570.122	8380
570.181	8666
570.240	8426
570.299	8833
570.358	8993
570.417	8004
570.475	9804
570.534	9041
570.593	9813
570.652	8557
570.711	9428
570.770	8735
570.829	8516
570.887	8236
570.946	9647
571.005	8599
571.064	10698
571.122	11105
571.181	10275
571.240	8404
571.299	8568
571.357	8436
571.416	8779
571.475	8643
571.533	8970
571.592	9268
571.650	10267
571.709	9627
571.768	11989
571.826	11363
571.885	9697
571.943	8380
572.002	9241
572.060	8157
572.119	9111
572.177	8671
572.236	9510
572.294	9254
572.352	10358
572.411	8507
572.469	8896
572.528	8117
572.586	9039
572.644	8698
572.703	9211
572.761	8284
572.819	8080
572.877	7340
572.936	7204
572.994	7690
573.052	8597
573.110	7395
573.169	7964
573.227	7844
573.285	8470
573.343	7885
573.401	7787
573.459	8827
573.517	8473
573.576	8058
573.634	9249
573.692	8048
573.750	8816
573.808	7958
573.866	7962
573.924	7605
573.982	7414
574.040	7784
574.098	7814
574.155	7106
574.213	7958
574.271	6273
574.329	9563
574.387	6478
574.445	8022
574.503	6168
574.560	7389
574.618	6894
574.676	7151
574.734	6616
574.792	6786
574.849	6786
574.907	6316
574.965	6736
575.022	5720
575.080	5156
575.138	6726
575.195	5464
575.253	5164
575.311	5667
575.368	6779
575.426	5749
575.483	6278
575.541	6510
575.598	5619
575.656	5777
575.713	6893
575.771	5802
575.828	6795
575.886	5575
575.943	6387
576.001	4818
576.058	4538
576.115	5626
576.173	6812
576.230	5789
576.287	6168
576.345	5303
576.402	6286
576.459	5663
576.517	5204
576.574	5320
576.631	4839
576.688	4870
576.746	4879
576.803	5180
576.860	4916
576.917	5394
576.974	5859
577.031	6110
577.089	4746
577.146	5211
577.203	4859
577.260	4066
577.317	5477
577.374	4958
577.431	5330
577.488	4050
577.545	5014
577.602	5624
577.659	4957
577.716	5502
577.773	5185
577.830	4109
577.886	5784
577.943	3645
578.000	5187
578.057	4308
578.114	5868
578.171	4482
578.227	4959
578.284	4187
578.341	5460
578.398	4439
578.454	5143
578.511	4629
578.568	5422
578.625	4392
578.681	5052
578.738	5326
578.794	5374
578.851	4799
578.908	5163
578.964	4879
579.021	5379
579.077	4039
579.134	5992
579.190	4809
579.247	5482
579.303	5091
579.360	4753
579.416	5706
579.473	5067
579.529	4894
579.586	4968
579.642	5371
579.698	5142
579.755	5386
579.811	6225
579.867	4910
579.924	5495
579.980	4475
580.036	6442
580.093	5754
580.149	5643
580.205	5098
580.261	5686
580.317	5321
580.374	6033
580.430	5883
580.486	6537
580.542	5410
580.598	5898
580.619	5797
580.654	5627
580.692	5576
580.710	5561
580.765	6376
580.767	6407
580.823	6578
580.838	6412
580.879	5974
580.911	6393
580.935	6730
580.984	6110
580.991	6031
581.047	6183
581.057	6049
581.103	5448
581.130	5879
581.159	6350
581.203	5798
581.215	5663
581.270	5842
581.276	5800
581.326	5430
581.349	5452
581.382	5489
581.422	5794
581.438	5927
581.494	5608
581.494	5598
581.550	4864
581.567	5216
581.606	5882
581.640	5543
581.661	5385
581.713	6215
581.717	6284
581.773	4896
581.786	5106
581.829	5859
581.859	5788
581.885	5729
581.932	6119
581.940	6184
581.996	5869
582.004	5828
582.052	5492
582.077	5199
582.107	4962
582.150	5663
582.163	5863
582.219	5239
582.223	5269
582.274	5767
582.296	5724
582.330	5564
582.368	6076
582.386	6396
582.441	5788
582.441	5788
582.497	5800
582.514	5483
582.552	5058
582.587	5713
582.608	6054
582.659	5485
582.663	5443
582.719	5932
582.732	5739
582.774	5051
582.805	5843
582.830	6578
582.877	6274
582.885	6196
582.941	6537
582.950	6369
582.996	5653
583.023	6084
583.052	6603
583.095	5497
583.107	5180
583.162	6175
583.168	6180
583.218	6010
583.240	5706
583.273	5428
583.313	5733
583.328	5855
583.384	5918
583.385	5881
583.439	4551
583.458	5019
583.494	6104
583.531	5496
583.549	5159
583.603	5723
583.605	5736
583.660	5629
583.676	5642
583.715	5810
583.748	5448
583.770	5088
583.820	5234
583.825	5262
583.881	5471
583.893	5508
583.936	5757
583.965	5763
583.991	5746
584.038	6177
584.046	6237
584.101	5862
584.110	5893
584.156	5947
584.183	5476
584.211	5056
584.255	6090
584.266	6408
584.321	6680
584.328	6710
584.376	6423
584.400	6366
584.431	6643
584.472	6329
584.486	6036
584.541	6395
584.545	6378
584.596	6743
584.617	6940
584.651	7133
584.689	7618
584.706	7788
584.761	7367
584.762	7368
584.816	7594
584.834	7878
584.871	8402
584.906	8499
584.926	8450
584.978	8581
584.980	8614
585.035	10737
585.051	10973
585.090	11455
585.123	12578
585.145	13319
585.195	14359
585.200	14520
585.254	17632
585.267	18360
585.309	20618
585.340	23024
585.364	25135
585.412	28908
585.419	29566
585.473	38610
585.484	40854
585.528	53769
585.556	67964
585.583	95232
585.628	160550
585.637	182942
585.692	380382
585.700	411403
585.747	507015
585.772	421337
585.801	254712
585.845	85516
585.856	64996
585.910	32899
585.917	29816
585.965	22183
585.989	19647
586.019	17799
586.061	15741
586.074	15194
586.128	13693
586.133	13529
586.183	12322
586.205	12342
586.237	12378
586.277	12159
586.292	12146
586.346	12335
586.349	12320
586.401	12063
586.421	12045
586.455	11770
586.493	11735
586.509	11974
586.564	12199
586.565	12218
586.618	12959
586.637	13579
586.672	15902
586.709	18700
586.727	19697
586.781	21577
586.781	21570
586.835	15273
586.853	14283
586.889	13315
586.925	11703
586.944	11186
586.996	11950
586.998	11970
587.052	11329
587.068	11480
587.106	12083
587.140	11959
587.161	11720
587.212	11916
587.215	11965
587.269	12203
587.284	12485
587.323	12701
587.356	12409
587.377	12277
587.427	13077
587.431	13153
587.485	13796
587.499	13874
587.539	13800
587.571	13649
587.593	13810
587.643	15062
587.648	15159
587.702	15406
587.715	15571
587.755	15759
587.786	15568
587.810	15379
587.858	15172
587.864	15183
587.917	15436
587.930	15484
587.971	15668
588.001	15782
588.025	15769
588.073	15938
588.079	16025
588.133	16308
588.145	16479
588.187	16302
588.217	16032
588.241	16176
588.288	16783
588.295	16866
588.348	17599
588.360	17643
588.402	17904
588.431	18265
588.456	18457
588.503	19292
588.510	19479
588.564	20450
588.575	20769
588.617	22062
588.646	22964
588.671	23562
588.718	25224
588.725	25800
588.778	31411
588.789	32975
588.832	49060
588.861	62320
588.886	91635
588.932	157619
588.939	163584
588.993	204718
589.004	201813
589.047	102818
589.075	49125
589.100	37344
589.147	24920
589.154	24619
589.207	22909
589.218	22728
589.261	23866
589.290	24517
589.314	24827
589.361	26564
589.368	27535
589.421	36705
589.433	39106
589.475	66898
589.504	89600
589.528	118745
589.576	181277
589.582	175635
589.635	84219
589.647	66887
589.689	37168
589.718	21252
589.742	20280
589.790	18925
589.795	18862
589.849	18222
589.861	18137
589.902	17792
589.932	17530
589.955	17290
590.004	16742
590.009	16796
590.062	17344
590.075	17497
590.115	16984
590.146	16574
590.168	16671
590.218	16799
590.222	16806
590.275	17133
590.289	17148
590.328	18125
590.360	18939
590.381	18669
590.431	17843
590.435	17842
590.488	17948
590.503	17994
590.541	18589
590.574	18886
590.594	18932
590.645	19494
590.647	19519
590.700	19726
590.716	19856
590.753	20447
590.787	20855
590.806	20950
590.859	21440
590.859	21461
590.912	22381
590.930	22655
590.965	22965
591.001	23229
591.018	22964
591.071	22097
591.072	22082
591.124	21556
591.143	21380
591.177	21438
591.214	21477
591.230	21698
591.283	22513
591.285	22536
591.336	22213
591.356	22150
591.389	22305
591.427	22303
591.442	22274
591.495	22298
591.498	22297
591.547	22276
591.569	22290
591.600	22825
591.640	23479
591.653	23554
591.706	23709
591.711	23740
591.759	23750
591.782	23737
591.811	24302
591.853	25090
591.864	25237
591.917	25971
591.924	26064
591.969	25620
591.995	25352
592.022	25689
592.066	26251
592.075	26381
592.127	27166
592.137	27291
592.180	26926
592.208	26715
592.233	27388
592.279	28604
592.285	28751
592.338	29947
592.350	30210
592.390	29087
592.421	28241
592.443	28748
592.491	29841
592.495	29910
592.548	30802
592.562	31041
592.600	30552
592.633	30123
592.653	30148
592.704	30052
592.705	30238
592.775	31008
592.846	31857
592.916	31346
592.987	32281
593.058	34048
593.128	33374
593.199	34442
593.270	34223
593.341	34715
593.411	36602
593.482	36725
593.553	38869
593.623	38633
593.694	39245
593.764	41352
593.835	39656
593.906	40144
593.976	41092
594.047	41418
594.117	44731
594.188	44733
594.258	45896
594.329	45195
594.399	45693
594.470	48660
594.540	50620
594.611	50296
594.681	50551
594.751	50496
594.822	52854
594.892	54308
594.963	55947
595.033	57641
595.103	59901
595.174	60340
595.244	61695
595.314	63478
595.384	64900
595.455	66548
595.525	69379
595.595	72271
595.665	72312
595.736	70002
595.806	71429
595.876	72397
595.946	72439
596.016	75501
596.087	78672
596.157	78978
596.227	79258
596.297	84879
596.367	89623
596.437	94498
596.507	93934
596.577	94800
596.647	96548
596.717	102560
596.787	104079
596.857	102752
596.927	103951
596.997	103616
597.067	107066
597.137	107968
597.207	107891
597.277	109200
597.347	104807
597.417	101858
597.487	101208
597.557	103995
597.626	105742
597.696	107814
597.766	107094
597.836	100148
597.906	95944
597.975	93547
598.045	95308
598.115	99418
598.185	106971
598.254	121961
598.324	131834
598.394	133229
598.464	127990
598.533	126116
598.603	117657
598.672	112876
598.742	116634
598.812	115543
598.881	121198
598.951	119410
599.020	122119
599.090	128475
599.159	127811
599.229	122279
599.299	118054
599.368	125009
599.437	121769
599.507	112380
599.576	107309
599.646	105397
599.715	104523
599.785	102254
599.854	100649
599.924	98579
599.993	97226
600.062	101371
600.132	103055
600.201	110503
600.270	128115
600.340	134123
600.409	132473
600.478	132487
600.547	134069
600.617	119824
600.686	93948
600.755	85805
600.824	80024
600.894	79235
600.963	79683
601.032	77575
601.101	75829
601.170	71605
601.239	69440
601.308	68508
601.378	69187
601.447	68887
601.516	69581
601.585	71483
601.654	71125
601.723	72322
601.792	72467
601.861	76119
601.930	78787
601.999	79475
602.068	78855
602.137	80908
602.206	81526
602.275	83019
602.343	84639
602.412	85610
602.481	85053
602.550	85174
602.619	88971
602.688	88261
602.756	92508
602.825	93688
602.894	93967
602.963	96146
603.032	99068
603.100	99535
603.169	98399
603.238	98400
603.307	100801
603.375	102985
603.444	103280
603.513	104547
603.581	105897
603.650	109040
603.719	106116
603.787	109125
603.856	112356
603.924	115967
603.993	120525
604.061	122902
604.130	131854
604.198	133679
604.267	134463
604.335	136852
604.404	140207
604.472	141199
604.541	143871
604.609	145863
604.678	144996
604.746	145393
604.815	150535
604.883	152697
604.951	154087
605.020	155483
605.088	157655
605.156	162809
605.225	167036
605.293	165457
605.361	165363
605.429	167588
605.498	171695
605.566	175149
605.634	185278
605.702	191503
605.771	196762
605.839	198081
605.907	193937
605.975	185829
606.043	183576
606.111	182645
606.180	182536
606.248	180083
606.316	179025
606.384	177318
606.452	180025
606.520	186239
606.588	192167
606.656	193155
606.724	189544
606.792	178159
606.860	159491
606.928	145585
606.996	141347
607.064	138713
607.132	141645
607.200	152517
607.267	155616
607.335	161164
607.403	161471
607.471	155154
607.539	152690
607.607	153789
607.674	133352
607.742	135624
607.810	132473
607.878	134269
607.946	137689
608.013	143331
608.081	146916
608.149	147423
608.216	153352
608.284	159873
608.352	156207
608.419	155496
608.487	153247
608.555	150873
608.622	155207
608.690	167399
608.757	183542
608.825	185964
608.893	181197
608.960	169025
609.028	164099
609.095	162891
609.163	162127
609.230	143531
609.298	132617
609.365	140180
609.432	152214
609.500	165763
609.567	189990
609.635	217553
609.702	227458
609.769	214038
609.837	163985
609.904	143543
609.971	148547
610.039	165193
610.106	210626
610.173	378967
610.241	777048
610.308	414914
610.375	180887
610.442	155970
610.509	149560
610.577	149443
610.644	152959
610.711	157139
610.778	162179
610.845	168836
610.912	180292
610.980	186163
611.047	185333
611.114	182582
611.181	176332
611.248	176523
611.315	187071
611.382	191374
611.449	199284
611.516	201403
611.583	196786
611.650	199041
611.717	201394
611.784	206497
611.851	214317
611.918	225843
611.984	258939
612.051	345585
612.118	612050
612.185	1224656
612.252	770193
612.319	306524
612.386	262526
612.452	238849
612.519	225832
612.586	222029
612.653	227480
612.719	236151
612.786	224302
612.853	209759
612.919	205514
612.986	207863
613.053	195811
613.120	186122
613.186	176598
613.253	180682
613.319	180021
613.386	180778
613.453	184613
613.519	184447
613.586	177672
613.652	185130
613.719	181337
613.785	185459
613.852	186163
613.918	183671
613.985	187067
614.051	194658
614.118	190188
614.184	183604
614.250	183234
614.317	190192
614.383	186114
614.449	191664
614.516	189667
614.582	190071
614.648	184848
614.715	183974
614.781	180452
614.847	180587
614.914	178958
614.980	173467
615.046	175105
615.112	181696
615.179	180375
615.245	182820
615.311	180700
615.377	182469
615.443	183697
615.509	187740
615.575	195698
615.642	190026
615.708	196805
615.774	203085
615.840	215085
615.906	229709
615.972	267700
616.038	380822
616.104	719295
616.170	1366614
616.236	1070652
616.302	416098
616.368	334945
616.434	247572
616.500	230251
616.565	259645
616.631	319617
616.697	260006
616.763	270863
616.829	408409
616.895	691862
616.961	609117
617.026	273914
617.092	204688
617.158	192472
617.224	188060
617.289	171992
617.355	164265
617.421	163396
617.487	163634
617.552	154113
617.618	153841
617.684	153465
617.749	156982
617.815	148366
617.880	145393
617.946	146400
618.012	150161
618.077	151872
618.143	145088
618.208	147801
618.274	159173
618.339	154919
618.405	128673
618.470	130510
618.536	129043
618.601	127370
618.667	117753
618.732	112545
618.798	111234
618.863	109189
618.928	109431
618.994	112167
619.059	108792
619.124	110194
619.190	109436
619.255	107420
619.320	110267
619.386	110027
619.451	109590
619.516	105066
619.581	106417
619.647	110399
619.712	109914
619.777	105086
619.842	106899
619.907	107282
619.972	109021
620.038	107170
620.103	106496
620.168	105761
620.233	108843
620.298	108163
620.363	110517
620.428	115144
620.493	115620
620.558	116346
620.623	119840
620.688	118377
620.753	117602
620.818	120870
620.883	120809
620.948	118950
621.013	117571
621.078	116284
621.143	117719
621.207	120070
621.272	116617
621.337	112009
621.402	112360
621.467	108540
621.532	108937
621.596	111015
621.661	107354
621.726	106328
621.791	108333
621.855	107890
621.920	106382
621.985	107542
622.049	112383
622.114	111792
622.179	112747
622.243	115093
622.308	119103
622.373	122969
622.437	118966
622.502	113332
622.566	112936
622.631	111408
622.695	114962
622.760	114171
622.824	112015
622.889	114086
622.953	113575
623.018	121882
623.082	121805
623.147	122832
623.211	118255
623.276	117333
623.340	113735
623.404	110014
623.469	109150
623.533	111735
623.597	107898
623.662	107207
623.726	98988
623.790	93335
623.854	89486
623.919	92504
623.983	94990
624.047	95765
624.111	97003
624.176	98704
624.240	98056
624.304	102885
624.368	97369
624.432	99524
624.496	101722
624.560	107786
624.625	108038
624.689	107137
624.753	111996
624.817	106820
624.881	103546
624.945	93335
625.009	91423
625.073	93548
625.137	95242
625.201	101110
625.265	100138
625.329	97019
625.393	95984
625.456	98922
625.520	100726
625.584	102865
625.648	106358
625.712	107585
625.776	106880
625.839	100957
625.903	84930
625.967	77946
626.031	87157
626.095	102048
626.158	93013
626.222	72715
626.286	69954
626.349	64246
626.413	61584
626.477	61291
626.540	60790
626.604	61368
626.668	61761
626.731	58050
626.795	59527
626.858	59477
626.922	58658
626.986	57968
627.049	57759
627.113	61520
627.176	58404
627.240	57540
627.303	58112
627.366	56273
627.430	58071
627.493	56741
627.557	54822
627.620	58755
627.684	59395
627.747	60048
627.810	52766
627.874	48518
627.937	46225
628.000	50851
628.064	48055
628.127	41661
628.190	42618
628.253	40151
628.317	38745
628.380	36744
628.443	35133
628.506	36075
628.569	34601
628.632	32238
628.696	32513
628.759	32588
628.822	30904
628.885	30140
628.948	30104
629.011	29707
629.074	28071
629.137	27117
629.200	25752
629.263	26994
629.326	26276
629.389	25942
629.452	26242
629.515	25249
629.578	25814
629.641	26023
629.704	25525
629.767	25667
629.830	23801
629.892	23481
629.955	23478
630.018	25884
630.081	23209
630.144	24650
630.207	22941
630.269	25662
630.332	22451
630.395	23680
630.458	23386
630.520	21100
630.583	23652
630.646	23214
630.708	22522
630.771	23161
630.834	25395
630.896	23836
630.959	23117
631.021	22372
631.084	24379
631.146	23308
631.209	24969
631.272	22755
631.334	25306
631.397	23768
631.459	24541
631.522	25943
631.584	27004
631.646	29994
631.709	31166
631.771	31186
631.834	29749
631.896	28584
631.958	25229
632.021	24933
632.083	22213
632.145	22964
632.208	22216
632.270	24251
632.332	22143
632.395	20632
632.457	22624
632.519	21518
632.581	23270
632.643	20403
632.706	22013
632.768	20598
632.830	22925
632.892	21298
632.954	21683
633.016	24374
633.078	22022
633.141	22083
633.203	22058
633.265	21961
633.327	22396
633.389	21743
633.451	23182
633.513	21514
633.575	23430
633.637	21989
633.698	23388
633.760	25055
633.822	26046
633.884	27142
633.946	27963
634.008	27284
634.070	29442
634.132	31223
634.193	34271
634.255	37740
634.317	40096
634.379	38156
634.441	32941
634.502	29095
634.564	27775
634.626	25182
634.687	22806
634.749	22488
634.811	22720
634.873	21463
634.934	21822
634.996	22462
635.057	21835
635.119	21436
635.181	23224
635.242	24143
635.304	21581
635.365	24875
635.427	22747
635.488	21365
635.550	21916
635.611	23231
635.673	22050
635.734	26024
635.796	27152
635.857	29338
635.918	31966
635.980	36140
636.041	37762
636.102	41832
636.164	41775
636.225	39656
636.286	33121
636.348	29629
636.409	26855
636.470	24103
636.531	23571
636.593	21521
636.654	22528
636.715	19810
636.776	20161
636.838	18679
636.899	19716
636.960	18717
637.021	18108
637.082	17863
637.143	17718
637.204	16567
637.265	17301
637.326	18389
637.387	18905
637.448	17575
637.509	18228
637.570	17983
637.631	18022
637.692	16017
637.753	15820
637.814	16829
637.875	15769
637.936	16281
637.997	15740
638.058	15704
638.119	16537
638.179	15712
638.240	16247
638.301	16059
638.362	15118
638.423	15658
638.483	15850
638.544	13862
638.605	15025
638.666	13268
638.726	14289
638.787	16171
638.848	14216
638.908	15029
638.969	14008
639.030	13982
639.090	12732
639.151	13028
639.211	14783
639.272	14562
639.332	15274
639.393	15438
639.453	16105
639.514	17443
639.574	14414
639.635	13209
639.695	13899
639.756	12874
639.816	13648
639.877	12721
639.937	14100
639.997	13677
640.058	12920
640.118	11699
640.178	12785
640.239	13277
640.299	12876
640.359	13831
640.420	14978
640.480	17715
640.540	20698
640.600	19419
640.661	17473
640.721	15650
640.781	15966
640.841	12102
640.901	14531
640.961	13881
641.021	15247
641.082	14493
641.142	12932
641.202	14105
641.262	11015
641.322	12464
641.382	10876
641.442	13070
641.502	11001
641.562	12584
641.622	12120
641.682	13859
641.742	17972
641.802	14388
641.861	14070
641.921	11622
641.981	12211
642.041	10871
642.101	10672
642.161	9880
642.221	10908
642.280	11174
642.340	11400
642.400	10727
642.460	13152
642.519	11665
642.579	12397
642.639	12939
642.698	9600
642.758	14440
642.818	12690
642.877	10861
642.937	12829
642.997	12549
643.056	12013
643.116	10591
643.175	13910
643.235	12019
643.294	13318
643.354	14534
643.414	15939
643.473	18902
643.532	23522
643.592	31683
643.651	51271
643.711	88772
643.770	175835
643.830	421882
643.889	732803
643.948	184674
644.008	42930
644.067	25612
644.126	19740
644.186	16692
644.245	15740
644.304	13576
644.363	14631
644.423	10763
644.482	12832
644.541	13893
644.600	13698
644.659	20319
644.719	23823
644.778	38603
644.837	68807
644.896	148847
644.955	313804
645.014	87231
645.073	23683
645.132	16718
645.191	15742
645.250	13616
645.309	16333
645.368	18330
645.427	25173
645.486	46297
645.545	76021
645.604	20127
645.663	12976
645.722	13632
645.781	14507
645.840	16663
645.898	21592
645.957	30744
646.016	46923
646.075	86404
646.134	167693
646.192	449079
646.251	550688
646.310	92433
646.369	30881
646.427	26131
646.486	18078
646.545	14290
646.603	14088
646.662	12503
646.721	11884
646.779	11875
646.838	12318
646.896	17983
646.955	24700
647.014	40974
647.072	83415
647.131	221384
647.189	87765
647.248	14746
647.306	12443
647.365	11131
647.423	7582
647.481	9655
647.540	7789
647.598	8705
647.657	8845
647.715	9200
647.773	7522
647.832	8642
647.890	5932
647.948	6498
648.007	8261
648.065	5098
648.123	6676
648.181	8176
648.240	7856
648.298	6669
648.356	6621
648.414	6789
648.472	5938
648.531	6448
648.589	6756
648.647	5347
648.705	6773
648.763	6305
648.821	7719
648.879	6854
648.937	8301
648.995	10932
649.053	14872
649.111	23620
649.169	40341
649.227	74733
649.285	161568
649.343	426123
649.401	169595
649.459	24820
649.516	14717
649.574	10350
649.632	12078
649.690	13404
649.748	18854
649.806	27346
649.863	56164
649.921	162392
649.979	88350
650.037	13090
650.094	5963
650.152	7014
650.210	5335
650.268	5856
650.325	5449
650.383	4096
650.440	3208
650.498	4372
650.556	4025
650.613	4857
650.671	5747
650.728	4775
650.786	5595
650.843	8546
650.901	5389
650.958	5168
651.016	4565
651.073	4167
651.131	3379
651.188	3191
651.246	4339
651.303	2231
651.360	3908
651.418	3341
651.475	3492
651.532	2402
651.590	4198
651.647	2612
651.704	3437
651.762	2900
651.819	3668
651.876	2274
651.933	3672
651.990	3905
652.048	1999
652.105	3116
652.162	3753
652.219	2260
652.276	2846
652.333	2891
652.390	2416
652.448	3273
652.505	2513
652.562	2571
652.619	3178
652.676	2499
652.733	3716
652.790	2853
652.847	2118
652.904	2767
652.961	1650
653.017	1295
653.074	2953
653.131	2104
653.188	1273
653.245	2130
653.302	1876
653.359	2435
653.415	2789
653.472	2574
653.529	3645
653.586	1733
653.642	1933
653.699	2576
653.756	1941
653.813	1730
653.869	3324
653.926	1539
653.983	1548
654.039	2492
654.096	1822
654.152	3234
654.209	1504
654.266	2640
654.322	1881
654.379	2349
654.435	2863
654.492	1918
654.548	1419
654.605	1817
654.661	3234
654.717	2019
654.774	1795
654.830	1984
654.887	2194
654.943	362
655.000	2353
655.056	2628
655.112	2391
655.168	1607
655.225	1699
655.281	2769
655.337	2382
655.394	1459
655.450	1899
655.506	1627
655.562	1118
655.618	2686
655.675	1450
655.731	2180
655.787	753
655.843	2765
655.899	1509
655.955	2681
656.011	2239
656.067	1862
656.123	2352
656.179	2078
656.235	3991
656.291	1015
656.347	3374
656.403	2013
656.459	2198
656.515	2393
656.571	2574
656.627	1677
656.683	1095
656.739	1854
656.795	1680
656.850	1334
656.906	2484
656.962	2841
657.018	1864
657.074	3540
657.129	5178
657.185	9627
657.241	22999
657.297	9786
657.352	3036
657.408	1568
657.464	2810
657.519	1918
657.575	809
657.630	1129
657.686	1526
657.742	532
657.797	1670
657.853	1496
657.908	2069
657.964	303
658.019	2410
658.075	1498
658.130	2181
658.186	618
658.241	1399
658.297	-95
658.352	1298
658.407	1872
658.463	1172
658.518	707
658.573	1734
658.629	28
658.684	751
658.739	1667
658.795	1046
658.850	860
658.905	1607
658.960	736
659.016	1166
659.071	927
659.126	1452
659.181	462
659.236	1657
659.291	2054
659.346	469
659.401	2333
659.457	1454
659.512	341
659.567	2207
659.622	1234
659.677	578
659.732	800
659.787	1431
659.842	353
659.897	565
659.952	1208
660.007	1217
660.061	1140
660.116	-411
660.171	329
660.226	1111
660.281	1423
660.336	881
660.391	1757
660.445	265
660.500	1021
660.555	968
660.610	883
660.664	1617
660.719	-65
660.774	1151
660.828	1717
660.883	1592
660.938	970
660.992	770
661.047	606
661.101	466
661.156	766
661.211	551
661.265	846
661.320	890
661.374	-65
661.429	602
661.483	1397
661.538	-475
661.592	1627
661.647	1243
661.701	909
661.755	586
661.810	1463
661.864	747
661.919	486
661.973	935
662.027	631
662.081	22
662.136	846
662.190	1284
662.244	1453
662.299	647
662.353	751
662.407	1030
662.461	-105
662.515	1351
662.569	-23
662.624	1201
662.678	768
662.732	1833
662.786	648
662.840	857
662.894	821
662.948	674
663.002	281
663.056	715
663.110	271
663.164	1215
663.218	931
663.272	1625
663.326	734
663.380	448
663.434	106
663.488	184
663.542	1090
663.595	966
663.649	463
663.703	1103
663.757	690
663.811	659
663.864	202
663.918	1153
663.972	820
664.026	728
664.079	165
664.133	1567
664.187	339
664.240	849
664.294	406
664.348	1591
664.401	471
664.455	417
664.508	-180
664.562	628
664.615	880
664.669	213
664.722	1075
664.776	441
664.829	1272
664.883	1082
664.936	109
664.990	113
665.043	834
665.097	762
665.150	678
665.203	801
665.257	569
665.310	852
665.363	946
665.417	1655
665.470	746
665.523	953
665.576	697
665.630	988
665.683	154
665.736	1186
665.789	862
665.842	-82
665.895	936
665.949	1596
666.002	1300
666.055	916
666.108	1349
666.161	1084
666.214	1185
666.267	682
666.320	1106
666.373	1518
666.426	1288
666.479	851
666.532	618
666.585	1461
666.638	1749
666.691	1114
666.744	481
666.796	493
666.849	1018
666.902	1046
666.955	1149
667.008	979
667.060	581
667.113	367
667.166	1303
667.219	1645
667.271	1300
667.324	1545
667.377	1722
667.430	1078
667.482	1007
667.535	834
667.587	1181
667.640	806
667.693	1021
667.745	1426
667.798	1219
667.850	1309
667.903	981
667.955	1255
668.008	1391
668.060	892
668.113	655
668.165	1070
668.218	1202
668.270	1081
668.322	819
668.375	1165
668.427	1434
668.479	707
668.532	974
668.584	1119
668.636	907
668.689	1409
668.741	-126
668.793	522
668.845	818
668.898	2222
668.950	828
669.002	1809
669.054	628
669.106	1115
669.158	1137
669.211	546
669.263	639
669.315	872
669.367	405
669.419	363
669.471	1662
669.523	1586
669.575	1758
669.627	67
669.679	132
669.731	992
669.783	1121
669.835	984
669.886	164
669.938	1192
669.990	86
670.042	625
670.094	619
670.146	1210
670.197	651
670.249	1350
670.301	-573
670.353	903
670.404	943
670.456	1642
670.508	1364
670.560	2409
670.611	3685
670.663	6200
670.715	15456
670.766	21334
670.818	4591
670.869	1035
670.921	1191
670.972	1865
671.024	1177
671.075	894
671.127	1755
671.178	1288
671.230	2436
671.281	2209
671.333	2429
671.384	3386
671.436	4604
671.487	7617
671.538	11520
671.590	19544
671.641	33414
671.692	66957
671.744	123604
671.795	70839
671.846	21062
671.897	9338
671.949	5694
672.000	4536
672.051	2668
672.102	2569
672.153	2103
672.204	1358
672.256	1645
672.307	774
672.358	1085
672.409	923
672.460	454
672.511	875
672.562	336
672.613	-191
672.664	133
672.715	1045
672.766	-328
672.817	394
672.868	1413
672.919	-250
672.970	-284
673.021	1083
673.071	766
673.122	1025
673.173	305
673.224	1018
673.275	18
673.326	377
673.376	153
673.427	-192
673.478	-424
673.528	835
673.579	685
673.630	419
673.680	822
673.731	-216
673.782	-269
673.832	288
673.883	366
673.934	468
673.984	77
674.035	987
674.085	139
674.136	-195
674.186	265
674.237	372
674.287	853
674.338	447
674.388	184
674.438	711
674.489	818
674.539	737
674.589	1076
674.640	1103
674.690	662
674.740	-322
674.791	600
674.841	368
674.891	-183
674.942	625
674.992	-263
675.042	-6
675.092	-574
675.142	526
675.193	-200
675.243	85
675.293	197
675.343	2
675.393	-547
675.443	435
675.493	-891
675.543	-157
675.593	118
675.643	296
675.693	288
675.743	-20
675.793	-2
675.843	-301
675.893	-610
675.943	-275
675.993	150
676.043	-24
676.093	362
676.142	-462
676.192	544
676.242	-518
676.292	-1071
676.341	-30
676.391	268
676.441	-805
676.491	191
676.540	-51
676.590	-264
676.640	-235
676.689	-572
676.739	-136
676.789	60
676.838	-833
676.888	-1117
676.937	-776
676.987	-627
677.037	-34
677.086	-884
677.136	-635
677.185	-956
677.235	-511
677.284	379
677.333	-381
677.383	-236
677.432	-763
677.482	-297
677.531	-47
677.580	-454
677.630	-1204
677.679	-996
677.728	-13
677.778	-10
677.827	-589
677.876	-374
677.925	-722
677.975	-174
678.024	1081
678.073	-385
678.122	-508
678.171	-313
678.220	29
678.269	403
678.319	804
678.368	539
678.417	264
678.466	-456
678.515	283
678.564	-963
678.613	-796
678.662	-1336
678.711	-830
678.760	-186
678.809	-336
678.857	-253
678.906	-156
678.955	-754
679.004	-611
679.053	-564
679.102	-952
679.151	-696
679.199	-1515
679.248	-389
679.297	-869
679.346	-912
679.394	-802
679.443	-1109
679.492	-882
679.540	-293
679.589	-439
679.638	-1262
679.686	-139
679.735	-40
679.784	308
679.832	389
679.881	-619
679.929	-150
679.978	-465
680.026	-1031
680.075	-171
680.123	-793
680.172	-787
680.220	-860
680.268	-144
680.317	-630
680.365	-1214
680.414	-1238
680.462	-196
680.510	903
680.559	-495
680.607	-854
680.655	-389
680.703	-795
680.752	-117
680.800	-380
680.848	-973
680.896	-991
680.945	-1270
680.993	-595
681.041	-219
681.089	-403
681.137	-498
681.185	-345
681.233	-809
681.258	-1110
681.281	-1416
681.329	-793
681.377	-772
681.380	-752
681.425	-784
681.473	-645
681.502	-476
681.521	-399
681.569	1022
681.617	-767
681.624	-659
681.665	-160
681.713	454
681.745	-28
681.761	-287
681.809	-737
681.857	108
681.867	74
681.904	-125
681.952	214
681.989	7
682.000	-91
682.048	-547
682.096	513
682.111	362
682.143	-13
682.191	347
682.233	523
682.239	526
682.286	628
682.334	-322
682.354	-153
682.382	23
682.430	501
682.476	737
682.477	722
682.525	431
682.572	728
682.598	752
682.620	757
682.667	493
682.715	682
682.720	723
682.763	894
682.810	156
682.841	426
682.857	541
682.905	800
682.952	532
682.963	598
683.000	757
683.047	968
683.085	1550
683.095	1692
683.142	930
683.190	140
683.206	211
683.237	263
683.284	1379
683.328	1437
683.332	1428
683.379	652
683.426	1391
683.449	1223
683.473	1055
683.521	1407
683.568	1774
683.571	1785
683.615	1609
683.662	1467
683.693	1549
683.709	1584
683.757	1365
683.804	1193
683.814	1136
683.851	838
683.898	2355
683.936	2305
683.945	2292
683.992	1684
684.039	1804
684.057	1840
684.086	1821
684.133	1913
684.179	1745
684.180	1727
684.227	1407
684.274	2488
684.300	2506
684.321	2508
684.368	1981
684.415	2095
684.422	2010
684.462	1495
684.509	2044
684.543	2509
684.556	2640
684.603	2636
684.649	1682
684.665	1972
684.696	2579
684.743	2069
684.786	2771
684.790	2802
684.837	2399
684.883	1795
684.908	2002
684.930	2324
684.977	2551
685.023	2417
685.029	2417
685.070	2206
685.117	2600
685.150	2500
685.164	2457
685.210	2992
685.257	3014
685.272	3104
685.303	3253
685.350	3192
685.393	3032
685.396	3008
685.443	2486
685.490	2972
685.514	2831
685.536	2699
685.583	2810
685.629	2660
685.636	2622
685.675	2388
685.722	3068
685.757	2733
685.768	2615
685.815	2778
685.861	2974
685.878	2980
685.908	3045
685.954	3045
686.000	3395
686.000	3393
686.047	3097
686.093	3952
686.121	3731
686.139	3626
686.185	3452
686.232	3469
686.242	3520
686.278	3574
686.324	3857
686.363	3202
686.370	3087
686.416	3681
686.463	4092
686.484	4018
686.509	3881
686.555	2934
686.601	3582
686.606	3575
686.647	3755
686.693	3853
686.727	4149
686.739	4168
686.785	3919
686.831	3650
686.848	3566
686.877	3575
686.923	4223
686.969	4207
686.969	4206
687.015	4384
687.061	4215
687.090	4112
687.107	4023
687.153	4210
687.199	4633
687.211	4621
687.245	4585
687.291	4383
687.332	4701
687.336	4749
687.382	4263
687.428	4572
687.453	4676
687.474	4626
687.520	4445
687.565	4295
687.574	4236
687.611	4308
687.657	4477
687.695	4872
687.702	4916
687.748	5107
687.794	5478
687.816	5444
687.839	5434
687.885	5951
687.931	5423
687.937	5409
687.976	5198
688.022	5091
688.058	5235
688.067	5291
688.113	5383
688.158	5364
688.179	5331
688.204	5275
688.249	5197
688.295	4625
688.300	4698
688.340	5380
688.386	5580
688.421	5299
688.431	5220
688.477	5034
688.522	5343
688.542	5367
688.567	5546
688.613	6279
688.658	6376
688.663	6366
688.703	5970
688.749	6228
688.784	6029
688.794	6012
688.839	6091
688.884	6151
688.905	6237
688.930	6284
688.975	5822
689.020	5475
689.026	5521
689.065	5975
689.110	5800
689.146	5783
689.155	5800
689.201	5969
689.246	6200
689.267	6054
689.291	5866
689.336	6137
689.381	5558
689.388	5539
689.426	5594
689.471	5690
689.509	5877
689.516	5937
689.561	6133
689.606	6304
689.630	6488
689.651	6476
689.696	6011
689.741	5723
689.750	5766
689.785	6359
689.830	6776
689.871	6690
689.875	6656
689.920	6506
689.965	6212
689.992	6383
690.010	6585
690.054	6646
690.099	7036
690.112	6871
690.144	6254
690.189	6128
690.233	5731
690.233	5742
690.278	5528
690.323	6338
690.354	6456
690.367	6424
690.412	6467
690.457	6355
690.474	6278
690.501	6282
690.546	6314
690.590	6463
690.595	6395
690.635	6053
690.680	6870
690.716	6285
690.724	6117
690.769	6769
690.813	6955
690.836	6754
690.857	6844
690.902	7399
690.946	7813
690.957	7941
690.991	8720
691.035	9525
691.077	10583
691.080	10575
691.124	9530
691.168	8690
691.198	7860
691.213	7595
691.257	7711
691.301	7178
691.318	6978
691.346	7004
691.390	7167
691.434	7151
691.439	7127
691.478	6863
691.522	6758
691.559	6804
691.567	6881
691.611	6913
691.655	7139
691.680	7240
691.699	7343
691.743	7601
691.787	7582
691.800	7535
691.831	7315
691.875	7278
691.919	7302
691.921	7276
691.964	7134
692.008	7428
692.041	7304
692.052	7293
692.096	7507
692.139	8036
692.162	7881
692.183	7663
692.227	7444
692.271	7584
692.282	7416
692.315	7049
692.359	7405
692.402	7263
692.403	7281
692.447	7441
692.490	7563
692.523	7732
692.534	7734
692.578	7437
692.622	7455
692.643	7307
692.666	7448
692.709	7977
692.753	7916
692.763	8015
692.797	7945
692.840	7637
692.884	7493
692.884	7514
692.928	7534
692.971	8003
693.004	8103
693.015	8120
693.059	8042
693.102	8036
693.124	8126
693.146	8237
693.189	8295
693.233	8358
693.245	8311
693.276	8114
693.320	8081
693.363	7862
693.365	7827
693.407	7674
693.450	7833
693.485	7953
693.493	8049
693.537	8272
693.580	8657
693.605	8768
693.624	8946
693.667	9514
693.710	9731
693.725	9906
693.753	11506
693.797	13796
693.840	16098
693.845	16322
693.883	14669
693.926	13172
693.966	11327
693.970	11232
694.013	10286
694.056	9265
694.086	8510
694.099	8516
694.142	8360
694.185	8325
694.206	8331
694.229	8491
694.272	8742
694.315	8849
694.326	8834
694.358	8676
694.401	8651
694.444	8634
694.446	8599
694.487	8586
694.530	8965
694.566	8814
694.573	8791
694.616	8639
694.659	8767
694.686	8719
694.702	8789
694.745	8909
694.787	8961
694.806	9057
694.830	9186
694.873	9244
694.916	9260
694.926	9217
694.959	9188
695.002	9294
695.044	9383
695.046	9362
695.087	9755
695.130	9992
695.166	10232
695.172	10256
695.215	10127
695.258	9984
695.286	10129
695.301	10377
695.343	10631
695.386	11178
695.406	11243
695.428	11576
695.471	12372
695.514	13273
695.526	13437
695.556	14268
695.599	15555
695.641	16554
695.646	16643
695.684	15851
695.726	14921
695.766	14087
695.769	14102
695.811	13688
695.854	13225
695.886	12965
695.896	13059
695.938	13083
695.981	13254
696.005	13252
696.023	13697
696.065	14850
696.108	15891
696.125	16235
696.150	16347
696.192	16724
696.235	17025
696.245	17015
696.277	17180
696.319	17522
696.361	17652
696.365	17638
696.404	17570
696.446	17189
696.485	17004
696.488	17058
696.530	16994
696.572	17060
696.604	16935
696.614	16887
696.656	16637
696.698	16416
696.724	16158
696.740	16406
696.783	16920
696.825	17587
696.844	17794
696.867	17662
696.909	17411
696.951	16979
696.964	16874
696.992	17399
697.034	17909
697.076	18517
697.083	18556
697.118	18705
697.160	18930
697.202	19158
697.203	19110
697.244	18972
697.286	18899
697.323	18678
697.327	18726
697.369	18778
697.411	18867
697.442	18807
697.453	18854
697.494	18836
697.536	18923
697.562	18855
697.578	18875
697.620	18859
697.661	18803
697.682	18749
697.703	19193
697.744	19885
697.786	20758
697.801	20947
697.828	20902
697.869	20820
697.911	20725
697.921	20644
697.952	20530
697.994	20330
698.035	20079
698.040	19995
698.077	19918
698.118	19784
698.160	19666
698.160	19611
698.201	20946
698.243	22272
698.279	23355
698.284	23435
698.325	23618
698.367	23792
698.399	23837
698.408	23982
698.449	24368
698.491	24764
698.518	24937
698.532	24860
698.573	24460
698.614	24022
698.638	23712
698.656	23935
698.697	24295
698.738	24660
698.757	24770
698.779	24854
698.820	24874
698.862	24887
698.877	24829
698.903	24882
698.944	24851
698.985	24818
698.996	24742
699.026	24560
699.067	24216
699.116	23741
699.235	24359
699.354	23303
699.474	21937
699.593	21740
699.713	21763
699.832	22604
699.951	24063
700.070	22860
700.190	21221
700.309	20753
700.428	20141
700.547	20280
700.667	21036
700.786	20116
700.905	19885
701.024	19078
701.143	19389
701.262	20005
701.381	21563
701.500	20403
701.619	20779
701.738	20906
701.857	20616
701.976	18853
702.095	20802
702.214	19947
702.333	19860
702.452	20313
702.571	20869
702.690	19865
702.809	20153
702.928	18972
703.047	18657
703.165	18625
703.284	18083
703.403	17859
703.522	18179
703.640	17576
703.759	17235
703.878	16530
703.997	16939
704.115	17556
704.234	17430
704.353	17663
704.471	15939
704.590	16974
704.708	16524
704.827	15345
704.946	15799
705.064	16001
705.183	16244
705.301	16939
705.420	15772
705.538	15007
705.656	13934
705.775	13292
705.893	14725
706.012	13642
706.130	14060
706.249	15329
706.367	14564
706.485	13617
706.604	13623
706.722	13051
706.840	15040
706.958	14596
707.077	13681
707.195	12800
707.313	13513
707.431	11020
707.549	12571
707.668	11533
707.786	14587
707.904	11318
708.022	14103
708.140	12331
708.258	11969
708.376	13230
708.494	12540
708.612	13000
708.730	12310
708.848	12072
708.966	11968
709.084	12689
709.202	12866
709.320	9943
709.438	11025
709.556	11435
709.674	10486
709.791	11338
709.909	10593
710.027	10933
710.145	10825
710.263	9874
710.380	11325
710.498	9997
710.616	10526
710.733	9572
710.851	10605
710.969	10759
711.086	9689
711.204	10249
711.322	10084
711.439	10468
711.557	9606
711.674	9999
711.792	10094
711.909	9391
712.027	9504
712.144	8471
712.262	9447
712.379	10343
712.497	8858
712.614	9187
712.732	10383
712.849	8431
712.966	9950
713.084	10510
713.201	8578
713.318	8883
713.436	10950
713.553	8643
713.670	11015
713.787	10438
713.905	9151
714.022	9919
714.139	10169
714.256	12943
714.373	20104
714.490	38753
714.608	114625
714.725	450523
714.842	338342
714.959	33189
715.076	14789
715.193	13010
715.310	10846
715.427	8785
715.544	9811
715.661	8937
715.778	7969
715.895	8137
716.011	8856
716.128	7767
716.245	8096
716.362	7058
716.479	6808
716.596	7964
716.713	7645
716.829	7072
716.946	7311
717.063	6860
717.180	7150
717.296	6787
717.413	8077
717.530	6394
717.646	6616
717.763	6808
717.880	7067
717.996	6510
718.113	6603
718.229	5847
718.346	5594
718.462	5948
718.579	7285
718.695	5834
718.812	6483
718.928	6532
719.045	5859
719.161	6098
719.277	7143
719.394	6830
719.510	7319
719.626	7963
719.743	10276
719.859	16858
719.975	38693
720.092	166708
720.208	298047
720.324	29255
720.440	10187
720.557	7364
720.673	7325
720.789	5800
720.905	6036
721.021	6681
721.137	5092
721.253	5104
721.369	5481
721.486	5315
721.602	5451
721.718	5561
721.834	4667
721.950	5229
722.066	5013
722.181	4766
722.297	5326
722.413	5025
722.529	5842
722.645	4988
722.761	5005
722.877	4252
722.993	6315
723.108	8555
723.224	6254
723.340	4607
723.456	4984
723.571	4194
723.687	4606
723.803	4378
723.918	5082
724.034	4149
724.150	4647
724.265	4660
724.381	4492
724.497	4046
724.612	4724
724.728	3599
724.843	4255
724.959	3352
725.074	4292
725.190	4520
725.305	3770
725.421	4008
725.536	4733
725.651	5094
725.767	4142
725.882	4652
725.997	4247
726.113	4294
726.228	4265
726.343	4480
726.459	5072
726.574	4261
726.689	4311
726.804	4490
726.920	4037
727.035	4047
727.150	4156
727.265	4281
727.380	4487
727.495	4548
727.610	4579
727.725	3383
727.841	4166
727.956	3942
728.071	4653
728.186	3602
728.301	4594
728.416	4131
728.531	4461
728.645	3240
728.760	3173
728.875	3763
728.990	4406
729.105	3388
729.220	4371
729.335	3718
729.449	4874
729.564	3508
729.679	4162
729.794	3836
729.908	4548
730.023	3750
730.138	4300
730.253	4472
730.367	4256
730.482	4197
730.596	4282
730.711	5388
730.826	7192
730.940	5848
731.055	5705
731.169	5630
731.284	5886
731.398	5776
731.513	7018
731.627	6857
731.742	9642
731.856	11094
731.970	12320
732.085	13885
732.199	20020
732.313	35204
732.428	98084
732.542	296782
732.656	140638
732.771	26858
732.885	17448
732.999	15551
733.113	17852
733.227	16866
733.342	16187
733.456	15344
733.570	14517
733.684	13240
733.798	13432
733.912	13569
734.026	13934
734.140	13033
734.254	12976
734.368	11604
734.482	13267
734.596	13377
734.710	12534
734.824	12310
734.938	11837
735.052	11418
735.166	12438
735.280	11522
735.393	11478
735.507	10879
735.621	11378
735.735	10308
735.849	12504
735.962	10882
736.076	11221
736.190	10491
736.303	10274
736.417	11096
736.531	10218
736.644	10393
736.758	10579
736.872	9764
736.985	9712
737.099	9761
737.212	10608
737.326	9603
737.439	10348
737.553	9082
737.666	10664
737.780	8765
737.893	10774
738.007	8425
738.120	10216
738.233	8068
738.347	8871
738.460	8726
738.573	10547
738.687	8085
738.800	9260
738.913	9217
739.026	9439
739.140	8559
739.253	8443
739.366	8810
739.479	8179
739.592	8418
739.705	7608
739.818	9991
739.932	7767
740.045	8900
740.158	8089
740.271	8713
740.384	8598
740.497	8043
740.610	9161
740.723	6814
740.836	7918
740.949	8196
741.062	9041
741.174	7674
741.287	8538
741.400	7918
741.513	7338
741.626	7657
741.739	7034
741.851	7473
741.964	8004
742.077	6549
742.189	6594
742.302	7520
742.415	6715
742.527	6204
742.640	7570
742.753	5990
742.865	6674
742.978	6106
743.090	7124
743.203	6850
743.316	6941
743.428	7019
743.541	6675
743.653	5778
743.766	6242
743.878	5995
743.990	5604
744.103	6603
744.215	7074
744.327	6261
744.440	8325
744.552	5077
744.664	5745
744.777	7280
744.889	6544
745.001	5854
745.113	6356
745.226	5469
745.338	5194
745.450	6300
745.562	6266
745.674	5628
745.786	6253
745.898	5555
746.010	5187
746.122	6035
746.234	5595
746.347	5492
746.459	6394
746.570	4289
746.682	6369
746.794	7285
746.906	4764
747.018	4669
747.130	5858
747.242	4449
747.354	5297
747.466	5355
747.577	4462
747.689	5681
747.801	5546
747.913	4676
748.024	5023
748.136	4802
748.248	4647
748.359	4765
748.471	5247
748.583	4040
748.694	3864
748.806	5701
748.918	4559
749.029	4328
749.141	4885
749.252	4927
749.364	3355
749.475	3556
749.587	4465
749.698	4411
749.809	5336
749.921	4729
750.032	4771
750.144	3770
750.255	5085
750.366	4566
750.478	4382
750.589	4602
750.700	3211
750.811	4394
750.923	4393
751.034	3933
751.145	5745
751.256	3880
751.367	3673
751.479	4074
751.590	3710
751.701	3686
751.812	2815
751.923	3529
752.034	5804
752.145	4266
752.256	5230
752.367	3712
752.478	3816
752.589	3670
752.700	4394
752.811	3283
752.922	3290
753.032	3535
753.143	3885
753.254	3126
753.365	4417
753.476	4596
753.586	3955
753.697	2733
753.808	3702
753.919	3135
754.029	3926
754.140	3293
754.251	3825
754.361	4487
754.472	4474
754.582	2169
754.693	4295
754.804	4184
754.914	3622
755.025	2602
755.135	3654
755.246	3761
755.356	2874
755.466	3199
755.577	3840
755.687	3772
755.798	2722
755.908	2307
756.018	4035
756.129	3360
756.239	3296
756.349	3556
756.460	3663
756.570	3611
756.680	3440
756.790	3573
756.900	4069
757.011	2616
757.121	2894
757.231	2862
757.341	2901
757.451	2351
757.561	3494
757.671	2597
757.781	3426
757.891	3017
758.001	3501
758.111	2860
758.221	4291
758.331	4029
758.441	3539
758.551	3130
758.661	3321
758.771	3849
758.880	3095
758.990	2935
759.100	3318
759.210	3458
759.320	3822
759.429	3068
759.539	3779
759.649	3839
759.758	4721
759.868	4871
759.978	4270
760.087	4750
760.197	5785
760.307	4241
760.416	3936
760.526	3462
760.635	5376
760.745	4440
760.854	5803
760.964	6481
761.073	5758
761.182	5198
761.292	4805
761.401	4224
761.511	3327
761.620	3219
761.729	2741
761.839	2858
761.948	3521
762.057	2263
762.166	3211
762.276	1626
762.385	4899
762.494	2795
762.603	2864
762.712	3047
762.822	2826
762.931	3305
763.040	2549
763.149	2676
763.258	2867
763.367	2711
763.476	3260
763.585	2603
763.694	2598
763.803	3494
763.912	3531
764.021	2946
764.130	3597
764.238	3297
764.347	3754
764.456	2844
764.565	3989
764.674	3263
764.783	3214
764.891	2784
765.000	5050
765.109	4032
765.217	4081
765.326	4879
765.435	5978
765.543	6850
765.652	7776
765.761	9318
765.869	13072
765.978	19700
766.086	33797
766.195	63692
766.303	146488
766.412	272340
766.520	213587
766.629	102436
766.737	44206
766.846	24115
766.954	16562
767.062	12875
767.171	9492
767.279	7989
767.387	6785
767.496	5472
767.604	5523
767.712	4923
767.820	4038
767.928	4807
768.037	4359
768.145	3350
768.253	4566
768.361	2430
768.469	3485
768.577	3152
768.685	5098
768.793	3713
768.901	4459
769.009	4754
769.117	5144
769.225	5816
769.333	9078
769.441	14435
769.549	24789
769.657	56713
769.765	157318
769.873	216316
769.981	107150
770.088	34918
770.196	17934
770.304	11828
770.412	10142
770.519	7690
770.627	6767
770.735	5157
770.842	5273
770.950	5044
771.058	5458
771.165	6742
771.273	6249
771.380	6456
771.488	8641
771.595	9695
771.703	8880
771.810	7961
771.918	7701
772.025	9639
772.133	11433
772.240	9567
772.348	12127
772.455	11472
772.562	10420
772.670	9844
772.777	10004
772.884	10166
772.991	9135
773.099	9549
773.206	9095
773.313	10285
773.420	9791
773.528	8771
773.635	8691
773.742	9894
773.849	9331
773.956	8612
774.063	9402
774.170	9300
774.277	9260
774.384	8273
774.491	8690
774.598	8628
774.705	8816
774.812	8375
774.919	9317
775.026	8237
775.133	9356
775.239	8268
775.346	7849
775.453	7477
775.560	8365
775.667	8324
775.773	7010
775.880	7716
775.987	7330
776.093	7147
776.200	9064
776.307	5613
776.413	6964
776.520	8317
776.627	8118
776.733	5983
776.840	6060
776.946	10010
777.053	8005
777.159	8297
777.266	6657
777.372	8787
777.478	8905
777.585	7751
777.691	6408
777.798	7733
777.904	7113
778.010	6059
778.117	7031
778.223	6737
778.329	7164
778.435	4863
778.542	7196
778.648	5107
778.754	5669
778.860	5863
778.966	6413
779.072	5555
779.178	6149
779.284	4946
779.391	5122
779.497	6253
779.603	7101
779.708	4146
779.815	5572
779.920	8512
780.026	9833
780.132	4690
780.238	5098
780.344	5099
780.450	7378
780.556	4152
780.661	4291
780.767	5154
780.873	4123
780.979	4665
781.085	5622
781.190	5001
781.296	4738
781.402	4610
781.507	5256
781.613	3517
781.719	4511
781.824	5388
781.930	5809
782.035	4924
782.141	5881
782.246	3661
782.352	3865
782.457	4202
782.563	4982
782.668	4928
782.773	4162
782.879	2566
782.984	4778
783.090	4366
783.195	4619
783.300	4898
783.405	4326
783.511	2996
783.616	3875
783.721	4494
783.826	3299
783.932	3597
784.037	4723
784.142	3500
784.247	3948
784.352	3937
784.457	3307
784.562	4694
784.667	3715
784.772	3529
784.877	2597
784.982	3979
785.087	3900
785.192	2734
785.297	3084
785.402	3960
785.507	3061
785.611	2834
785.716	2728
785.821	3675
785.926	2863
786.031	2704
786.135	3811
786.240	2884
786.345	2097
786.450	3167
786.554	3007
786.659	2180
786.763	3151
786.868	3846
786.973	4244
787.077	1862
787.182	2193
787.286	3220
787.391	3257
787.495	2443
787.600	2417
787.704	2408
787.809	3605
787.913	2574
788.017	3564
788.122	3834
788.226	3143
788.330	1878
788.435	3484
788.539	3661
788.643	3035
788.747	1338
788.852	2763
788.956	1605
789.060	4340
789.164	2951
789.268	1854
789.372	3743
789.476	2441
789.580	1490
789.684	2823
789.788	3270
789.892	2431
789.996	2191
790.100	1782
790.204	3119
790.308	2914
790.412	1657
790.516	1641
790.620	2242
790.724	3496
790.828	2806
790.931	1255
791.035	3172
791.139	1910
791.242	1492
791.346	3002
791.450	2476
791.554	1565
791.657	603
791.761	2106
791.864	2522
791.968	2164
792.072	2293
792.175	1959
792.279	1182
792.382	2212
792.486	1542
792.589	1447
792.693	1909
792.796	1496
792.899	1746
793.003	3143
793.106	545
793.209	2417
793.313	2528
793.416	300
793.519	2513
793.623	3568
793.726	2590
793.829	1757
793.932	1265
794.035	1326
794.138	3139
794.242	4211
794.345	679
794.448	1513
794.551	950
794.654	4313
794.757	4449
794.860	1499
794.963	2205
795.066	1552
795.169	2039
795.272	902
795.375	1969
795.477	1065
795.580	901
795.683	-217
795.786	2110
795.889	740
795.991	2646
796.094	2000
796.197	831
796.300	3506
796.402	2132
796.505	1342
796.608	579
796.710	2296
796.813	2099
796.915	1814
797.018	1420
797.120	1799
797.223	126
797.326	2389
797.428	320
797.530	1107
797.633	1563
797.735	2450
797.838	1179
797.940	2774
798.042	1313
798.145	1853
798.247	1245
798.349	-112
798.452	1853
798.554	1582
798.656	848
798.758	3041
798.860	1199
798.962	726
799.065	643
799.167	471
799.269	2310
799.371	2630
799.473	2650
799.575	733
799.677	695
799.779	2319
799.881	-524
799.983	2240
800.085	960
800.187	1807
800.289	-367
800.390	1178
800.492	2061
800.594	2047
800.696	924
800.798	1881
800.899	-24
801.001	334
801.103	1315
801.205	1336
801.306	1282
801.408	486
801.509	864
801.611	1331
801.713	1341
801.814	779
801.916	755
802.017	581
802.119	537
802.220	1355
802.322	-575
802.423	2251
802.525	121
802.626	232
802.727	1738
802.829	1892
802.930	-1628
803.031	2472
803.133	681
803.234	538
803.335	676
803.436	-88
803.538	1032
803.639	273
803.740	1284
803.841	1013
803.942	1303
804.043	1291
804.144	-102
804.245	970
804.346	716
804.447	-188
804.548	424
804.649	1084
804.750	114
804.851	479
804.952	1375
805.053	913
805.154	-1134
805.255	926
805.355	-669
805.456	1052
805.557	-232
805.658	-245
805.758	1160
805.859	527
805.960	174
806.061	291
806.161	-276
806.262	777
806.362	-451
806.463	791
806.564	1317
806.664	2082
806.765	-580
806.865	672
806.966	-844
807.066	197
807.166	1725
807.267	1871
807.367	-205
807.468	2025
807.568	-988
807.668	786
807.769	1160
807.869	-116
807.969	706
808.069	457
808.170	-257
808.270	437
808.370	269
808.470	1523
808.570	-668
808.670	1291
808.770	770
808.870	755
808.970	731
809.070	667
809.170	-672
809.271	1245
809.370	-239
809.470	875
809.570	-316
809.670	-380
809.770	329
809.870	1393
809.970	519
810.070	1258
810.169	1646
810.269	-1025
810.369	1137
810.469	-195
810.568	286
810.668	18
810.768	15
810.867	86
810.967	-219
811.066	79
811.166	-298
811.265	1453
811.365	435
811.464	308
811.564	50
811.663	179
811.763	-659
811.862	1613
811.962	814
812.061	435
812.160	-1181
812.260	563
812.359	-193
812.458	896
812.557	1005
812.657	571
812.756	883
812.855	1001
812.954	102
813.053	1342
813.153	287
813.252	-12
813.351	650
813.450	1388
813.549	136
813.648	1446
813.747	-827
813.846	838
813.945	209
814.044	991
814.143	-49
814.242	1348
814.341	234
814.439	565
814.538	1752
814.637	1233
814.736	698
814.835	1688
814.933	225
815.032	2014
815.131	2187
815.229	5965
815.328	8954
815.427	6396
815.525	5844
815.624	4625
815.722	4822
815.821	5914
815.919	5443
816.018	5176
816.116	5053
816.215	4364
816.313	6003
816.412	7915
816.510	6899
816.609	8942
816.707	8586
816.805	7123
816.904	7289
817.002	7978
817.100	8226
817.198	8408
817.296	6743
817.395	6688
817.493	6614
817.591	5513
817.689	6133
817.787	6793
817.885	7148
817.983	6858
818.081	6898
818.179	7694
818.277	11467
818.375	8185
818.473	6177
818.571	5846
818.669	5923
818.767	7979
818.865	5095
818.963	4850
819.061	6475
819.158	6680
819.256	8467
819.354	8079
819.452	11979
819.549	6614
819.647	7578
819.745	4950
819.842	5875
819.940	6241
820.038	4639
820.135	4515
820.233	6059
820.330	5672
820.428	3849
820.525	7125
820.623	4715
820.720	4053
820.818	5312
820.915	5946
821.012	4867
821.110	3457
821.207	5552
821.304	4409
821.402	5301
821.499	6436
821.596	5047
821.693	5375
821.791	5561
821.888	5245
821.985	5419
822.082	3157
822.179	5663
822.276	5216
822.373	3496
822.470	4123
822.567	4644
822.664	3558
822.761	4417
822.858	3960
822.955	4473
823.052	3733
823.149	3626
823.246	4933
823.343	3350
823.440	3664
823.536	3616
823.633	4512
823.730	3358
823.827	4258
823.923	4065
824.020	4160
824.117	3532
824.213	3682
824.310	3924
824.407	3473
824.503	4299
824.600	4084
824.696	2432
824.793	4980
824.889	4550
824.986	3568
825.082	1609
825.179	3522
825.275	3306
825.371	4878
825.468	3315
825.564	972
825.660	3491
825.757	5244
825.853	3036
825.949	2396
826.045	3203
826.142	3566
826.238	3504
826.334	3715
826.430	2466
826.526	2629
826.622	35
826.718	3786
826.814	4459
826.910	3733
827.006	676
827.102	1902
827.198	4363
827.294	3916
827.390	3588
827.486	2955
827.582	213
827.678	1872
827.774	3927
827.869	1649
827.965	3250
828.061	1893
828.157	3713
828.252	3728
828.348	1334
828.444	2948
828.539	1360
828.635	2793
828.731	3434
828.826	1910
828.922	3580
829.017	3900
829.113	3778
829.208	957
829.304	2222
829.399	5088
829.495	3288
829.590	2808
829.685	1359
829.781	3202
829.876	2738
829.971	924
830.066	274
830.162	1970
830.257	3940
830.352	2494
830.447	1591
830.543	2073
830.638	1932
830.733	3827
830.828	1220
830.923	2860
831.018	2463
831.113	3048
831.208	646
831.303	1013
831.398	654
831.493	1470
831.588	4207
831.683	2376
831.778	1059
831.873	2108
831.967	1978
832.062	2557
832.157	1338
832.252	2400
832.346	1426
832.441	3346
832.536	1913
832.631	2625
832.725	1102
832.820	2180
832.914	2421
833.009	694
833.104	670
833.198	1820
833.293	1570
833.387	2784
833.482	1886
833.576	1420
833.670	1308
833.765	2062
833.859	2035
833.954	2861
834.048	1390
834.142	1714
834.237	616
834.331	1670
834.425	2003
834.519	1010
834.613	1061
834.708	1383
834.802	1152
834.896	1437
834.990	1358
835.084	1902
835.178	332
835.272	1223
835.366	2530
835.460	2618
835.554	1024
835.648	370
835.742	-422
835.836	678
835.930	611
836.024	2125
836.117	2054
836.211	1035
836.305	563
836.399	1564
836.493	217
836.586	2368
836.680	1579
836.774	976
836.867	1334
836.961	328
837.055	87
837.148	1208
837.242	809
837.335	1395
837.429	1046
837.522	264
837.616	231
837.709	1760
837.803	564
837.896	1928
837.989	1469
838.083	203
838.176	232
838.269	-40
838.363	1066
838.456	1094
838.549	1594
838.642	479
838.735	709
838.829	1459
838.922	290
839.015	979
839.108	69
839.201	1570
839.294	1415
839.387	1322
839.480	-612
839.573	245
839.666	-118
839.759	942
839.852	110
839.945	2145
840.038	801
840.131	81
840.223	602
840.316	1007
840.409	913
840.502	1516
840.594	2052
840.687	-1007
840.780	715
840.873	345
840.965	-665
841.058	614
841.150	812
841.243	596
841.336	356
841.428	1123
841.521	72
841.613	546
841.706	656
841.798	1134
841.890	123
841.983	-5
842.075	313
842.167	263
842.260	655
842.352	1976
842.444	474
842.537	432
842.629	35
842.721	148
842.813	851
842.905	117
842.997	182
843.090	47
843.182	299
843.274	-553
843.366	78
843.458	917
843.550	1134
843.642	552
843.734	107
843.826	-100
843.918	257
844.009	983
844.101	1
844.193	516
844.285	676
844.377	249
844.469	-359
844.560	-303
844.652	-455
844.744	608
844.835	-45
844.927	454
845.019	-184
845.110	812
845.202	616
845.293	559
845.385	-879
845.476	886
845.568	385
845.659	-316
845.751	46
845.842	494
845.934	-263
846.025	-18
846.116	-311
846.208	907
846.299	-1707
846.390	236
846.482	673
846.573	-27
846.664	-82
846.755	-65
846.846	846
846.937	-1051
847.029	-238
847.120	363
847.211	-218
847.302	567
847.393	-767
847.484	354
847.575	60
847.666	-339
847.757	-762
847.847	583
847.938	325
848.029	468
848.120	359
848.211	-198
848.302	195
848.392	-499
848.483	0
848.574	430
848.664	474
848.755	440
848.846	-37
848.936	-249
849.027	273
849.118	105
849.208	-235
849.299	1481
849.389	3766
849.480	7756
849.570	14373
849.661	30950
849.751	43388
849.841	12235
849.932	1442
850.022	520
850.112	426
850.203	-677
850.293	-1001
850.383	930
850.474	-510
850.564	233
850.654	-73
850.744	372
850.834	-487
850.924	449
851.014	1171
851.104	1174
851.194	-430
851.284	-68
851.374	-213
851.464	-331
851.554	548
851.644	-228
851.734	-6
851.824	228
851.914	-106
852.004	866
852.094	-797
852.183	-703
852.273	-501
852.363	166
852.452	201
852.542	510
852.632	85
852.721	794
852.811	488
852.901	1014
852.990	625
853.080	515
853.169	-57
853.259	875
853.348	677
853.438	1403
853.527	2652
853.617	3855
853.706	8427
853.795	15828
853.885	34008
853.974	60094
854.063	113253
854.152	136243
854.242	48255
854.331	12187
854.420	4932
854.509	3839
854.598	2473
854.687	1751
854.777	1232
854.866	771
854.955	523
855.044	895
855.133	273
855.222	-6
855.311	96
855.400	1190
855.488	-759
855.577	-162
855.666	-806
855.755	400
855.844	-145
855.933	-179
856.021	-323
856.110	585
856.199	-1327
856.288	38
856.376	-985
856.465	-494
856.554	-110
856.642	289
856.731	-453
856.819	420
856.908	-982
856.996	-471
857.085	78
857.173	-641
857.262	-413
857.350	-489
857.438	-1069
857.527	-578
857.615	-130
857.703	839
857.792	-781
857.880	-655
857.968	-655
858.056	260
858.145	-538
858.233	389
858.321	-442
858.409	451
858.497	-300
858.585	-96
858.673	-555
858.761	-462
858.849	-551
858.937	386
859.025	-610
859.113	135
859.201	-412
859.289	633
859.377	-206
859.465	875
859.552	-533
859.640	-128
859.728	-223
859.816	1255
859.903	398
859.991	-439
860.079	-131
860.166	104
860.254	-436
860.342	343
860.429	-667
860.517	-572
860.604	-474
860.692	228
860.779	-203
860.867	-567
860.954	56
861.042	-250
861.129	-330
861.216	-189
861.304	-69
861.391	383
861.478	-480
861.565	324
861.653	344
861.740	-916
861.827	-378
861.914	-112
862.001	-908
862.089	1082
862.176	-697
862.263	-852
862.350	-617
862.437	172
862.524	-465
862.611	619
862.698	-459
862.785	191
862.871	620
862.958	-463
863.045	-359
863.132	571
863.219	-1273
863.306	-609
863.392	425
863.479	177
863.566	-563
863.652	230
863.739	-250
863.826	776
863.912	72
863.999	-282
864.086	-479
864.172	338
864.259	367
864.345	1127
864.432	201
864.518	-250
864.604	819
864.691	890
864.777	1631
864.863	2266
864.950	3186
865.036	4537
865.122	8694
865.209	10278
865.295	8090
865.381	8090
865.467	7734
865.553	8639
865.639	9555
865.726	14071
865.812	22764
865.898	37748
865.984	53475
866.070	96484
866.156	82077
866.242	24970
866.328	10593
866.414	8293
866.499	7728
866.585	7439
866.671	6635
866.757	6863
866.843	5330
866.928	5680
867.014	5528
867.100	6184
867.186	6255
867.271	5794
867.357	5832
867.442	5019
867.528	5425
867.614	5399
867.699	6099
867.785	5801
867.870	4478
867.956	5174
868.041	4705
868.127	4469
868.212	4607
868.297	5354
868.383	5630
868.468	5940
868.553	5468
868.639	5409
868.724	5123
868.809	5777
868.894	3825
868.979	4700
869.065	4537
869.150	4158
869.235	4404
869.320	4550
869.405	3581
869.490	5333
869.575	3570
869.660	3742
869.745	4239
869.830	5547
869.915	3476
870.000	4865
870.085	3807
870.169	5983
870.254	5057
870.339	2861
870.424	3118
870.509	4787
870.593	5523
870.678	5643
870.763	3368
870.847	3919
870.932	3850
871.016	4977
871.101	1756
871.186	4659
871.270	5499
871.355	2641
871.439	2856
871.523	5353
871.608	2514
871.692	2873
871.777	3826
871.861	5228
871.945	3164
872.030	4733
872.114	3788
872.198	2258
872.282	2799
872.367	3716
872.451	2540
872.535	2949
872.619	2949
872.703	2538
872.787	3667
872.871	3967
872.955	2445
873.039	2257
873.123	2716
873.207	3741
873.291	1803
873.375	3414
873.459	3335
873.543	2709
873.627	2625
873.711	2868
873.794	2931
873.878	2613
873.962	960
874.045	2284
874.129	2140
874.137	2220
874.213	3023
874.245	2826
874.296	2513
874.352	2227
874.380	2082
874.460	2882
874.464	2915
874.547	1943
874.568	1982
874.631	2107
874.676	2755
874.714	3295
874.784	3011
874.798	2955
874.881	3464
874.892	3191
874.965	1362
874.999	2221
875.048	3335
875.107	2325
875.131	1931
875.215	1905
875.215	1905
875.298	1882
875.323	2057
875.381	2516
875.430	3270
875.465	3725
875.538	3061
875.548	2981
875.631	1674
875.646	1505
875.714	718
875.753	983
875.798	1349
875.861	2631
875.881	2966
875.964	2080
875.968	2074
876.047	2177
876.076	2128
876.130	1975
876.183	2465
876.213	2787
876.291	2479
876.296	2444
876.379	2062
876.398	1713
876.462	655
876.506	1092
876.545	1495
876.613	1536
876.628	1540
876.711	2218
876.721	2249
876.794	2526
876.828	2492
876.877	2328
876.935	1361
876.960	1022
877.043	1368
877.043	1370
877.125	1875
877.150	2278
877.208	2972
877.258	2063
877.291	1541
877.365	1342
877.374	1312
877.456	1192
877.472	1121
877.539	1036
877.579	1721
877.622	2228
877.687	2274
877.704	2334
877.787	1773
877.794	1808
877.869	2215
877.901	2086
877.952	1762
878.008	1527
878.034	1416
878.115	979
878.117	976
878.199	1019
878.222	1232
878.282	1694
878.329	2139
878.364	2485
878.437	2067
878.447	1967
878.529	854
878.544	826
878.611	846
878.651	1007
878.694	1449
878.758	2244
878.776	2378
878.858	2493
878.865	2497
878.941	2135
878.972	1587
879.023	1152
879.078	1301
879.105	1280
879.185	1558
879.187	1567
879.269	1633
879.292	1651
879.351	1477
879.399	917
879.433	631
879.506	1780
879.516	1899
879.598	1604
879.613	1449
879.680	1084
879.720	1547
879.762	1982
879.827	1542
879.844	1377
879.926	1709
879.933	1734
880.007	2111
880.040	1926
880.089	1670
880.147	2445
880.171	2892
880.253	3821
880.254	3832
880.335	5561
880.360	5939
880.417	7509
880.467	10578
880.499	12630
880.574	13543
880.580	13234
880.662	5306
880.680	4183
880.744	2168
880.787	1636
880.825	1440
880.893	1325
880.907	1294
880.989	1562
881.000	1525
881.070	1525
881.106	1631
881.152	1759
881.213	1407
881.233	1225
881.315	1966
881.319	1912
881.396	1507
881.426	1647
881.478	1638
881.532	2026
881.559	2254
881.639	1847
881.641	1824
881.722	503
881.745	560
881.803	1579
881.852	2016
881.885	2033
881.958	1738
881.966	1711
882.047	1834
882.064	1717
882.129	1034
882.171	779
882.210	740
882.277	1063
882.291	1108
882.372	1158
882.383	1163
882.454	1836
882.489	2047
882.535	1779
882.596	1681
882.616	1762
882.697	1494
882.702	1501
882.778	1150
882.808	847
882.859	747
882.914	1217
882.940	1358
883.020	1343
883.021	1346
883.102	1834
883.127	1879
883.183	1954
883.233	1877
883.264	1708
883.339	1433
883.345	1390
883.426	1130
883.445	934
883.507	830
883.551	1036
883.587	1083
883.657	1205
883.668	1338
883.749	2362
883.763	2374
883.830	1133
883.869	933
883.910	1204
883.975	1062
883.991	1034
884.072	1388
884.081	1406
884.152	1627
884.187	1731
884.233	2000
884.292	1885
884.314	1552
884.394	548
884.398	512
884.475	618
884.504	703
884.555	905
884.610	952
884.636	1060
884.716	1725
884.716	1731
884.797	2062
884.821	2135
884.877	1738
884.927	1394
884.958	1448
885.033	1601
885.038	1546
885.118	398
885.139	243
885.199	1037
885.244	1473
885.279	1451
885.350	1577
885.359	1688
885.439	2500
885.456	2575
885.520	1593
885.561	1082
885.600	888
885.667	963
885.680	1057
885.760	989
885.773	1010
885.840	877
885.878	810
885.920	931
885.984	1188
886.000	1218
886.080	1203
886.089	1227
886.160	1721
886.195	1678
886.240	1390
886.300	1673
886.320	1753
886.400	1247
886.406	1239
886.480	1242
886.511	1195
886.560	1383
886.616	1620
886.640	1526
886.720	899
886.722	890
886.800	1319
886.827	1380
886.879	1400
886.932	1413
886.959	1524
887.038	1847
887.039	1847
887.119	1525
887.143	1456
887.198	1569
887.248	1794
887.278	1850
887.354	1569
887.358	1545
887.437	1281
887.459	1177
887.517	1524
887.564	1738
887.596	1551
887.669	1071
887.676	1059
887.755	1037
887.774	993
887.835	704
887.880	620
887.914	890
887.985	1234
887.994	1295
888.073	1940
888.090	2032
888.153	2082
888.195	2132
888.232	1710
888.300	983
888.311	1074
888.391	1641
888.405	1740
888.470	1016
888.510	574
888.549	972
888.615	1774
888.628	1796
888.708	1764
888.720	1739
888.787	1734
888.825	1750
888.866	1004
888.930	-87
888.945	78
889.024	947
889.035	1057
889.103	1640
889.140	1951
889.182	1837
889.245	1655
889.261	1620
889.340	1448
889.349	1429
889.419	1649
889.454	1730
889.498	1417
889.559	1012
889.577	1297
889.656	2534
889.664	2653
889.735	1944
889.768	1600
889.814	1817
889.873	2097
889.978	1421
890.083	1377
890.187	656
890.292	2088
890.397	1201
890.501	1174
890.606	725
890.710	1172
890.815	1251
890.919	1060
891.024	2174
891.128	1483
891.233	614
891.337	1887
891.442	1236
891.546	1551
891.650	900
891.755	1151
891.859	3040
891.963	2121
892.068	1515
892.172	1365
892.276	510
892.380	809
892.484	1739
892.589	1699
892.693	1080
892.797	486
892.901	347
893.005	987
893.109	1905
893.213	1609
893.317	1638
893.421	1330
893.525	672
893.629	1055
893.733	1387
893.837	657
893.941	1343
894.045	1823
894.148	771
894.252	859
894.356	1560
894.460	2347
894.564	771
894.667	508
894.771	710
894.875	491
894.978	919
895.082	1753
895.186	1078
895.289	1761
895.393	921
895.496	1120
895.600	341
895.703	785
895.807	977
895.910	753
896.014	989
896.117	1085
896.221	626
896.324	1640
896.427	606
896.531	1206
896.634	1779
896.737	888
896.840	1076
896.944	1972
897.047	1519
897.150	720
897.253	51
897.356	671
897.460	-417
897.563	248
897.666	920
897.769	1456
897.872	1032
897.975	1090
898.078	393
898.181	698
898.284	558
898.387	1882
898.490	735
898.593	821
898.695	-57
898.798	1204
898.901	759
899.004	2088
899.107	850
899.209	1721
899.312	1927
899.415	1540
899.518	-73
899.620	500
899.723	341
899.826	1299
899.928	1171
900.031	1477
900.133	1164
900.236	1448
900.338	859
900.441	452
900.543	1186
900.646	1479
900.748	769
900.851	955
900.953	-113
901.055	659
901.158	392
901.260	819
901.362	-176
901.465	932
901.567	1351
901.669	1218
901.771	-26
901.873	615
901.976	535
902.078	1804
902.180	165
902.282	224
902.384	467
902.486	1097
902.588	62
902.690	640
902.792	552
902.894	892
902.996	167
903.098	1561
903.200	-100
903.302	162
903.404	385
903.505	386
903.607	843
903.709	1584
903.811	1836
903.913	1376
904.014	-38
904.116	410
904.218	179
904.319	902
904.421	946
904.523	2147
904.624	517
904.726	1308
904.827	334
904.929	365
905.030	263
905.132	1376
905.233	1085
905.335	181
905.436	122
905.537	267
905.639	658
905.740	998
905.841	769
905.943	743
906.044	154
906.145	337
906.247	-2
906.348	320
906.449	761
906.550	1222
906.651	1378
906.752	562
906.854	39
906.955	592
907.056	-435
907.157	1472
907.258	1487
907.359	430
907.460	518
907.561	452
907.662	-496
907.762	712
907.863	949
907.964	946
908.065	196
908.166	-53
908.267	366
908.367	336
908.468	-43
908.569	384
908.670	806
908.770	856
908.871	808
908.971	1193
909.072	419
909.173	-360
909.273	-37
909.374	1439
909.474	-137
909.575	1047
909.675	350
909.776	899
909.876	912
909.977	512
910.077	281
910.177	830
910.278	306
910.378	726
910.478	148
910.579	1316
910.679	666
910.779	944
910.879	602
910.980	803
911.080	806
911.180	319
911.280	-449
911.380	424
911.480	-58
911.580	-144
911.680	653
911.780	1108
911.880	871
911.980	466
912.080	-15
912.180	390
912.280	158
912.380	956
912.480	48
912.580	69
912.679	418
912.779	1202
912.879	278
912.979	56
913.078	114
913.178	1141
913.278	-86
913.377	675
913.477	-92
913.577	86
913.676	421
913.776	1389
913.875	491
913.975	1342
914.074	-291
914.174	459
914.273	-1217
914.373	1269
914.472	526
914.572	-281
914.671	324
914.770	607
914.870	160
914.969	-142
915.068	301
915.167	90
915.267	252
915.366	505
915.465	460
915.564	1053
915.663	563
915.763	900
915.862	510
915.961	717
916.060	31
916.159	207
916.258	72
916.357	-166
916.456	411
916.555	892
916.654	359
916.752	452
916.851	829
916.950	293
917.049	313
917.148	66
917.247	-586
917.345	976
917.444	226
917.543	358
917.642	64
917.740	113
917.839	488
917.937	2180
918.036	1309
918.135	2
918.233	215
918.332	893
918.430	-127
918.529	715
918.627	134
918.726	1588
918.824	385
918.923	449
919.021	579
919.119	802
919.218	-317
919.316	797
919.414	-169
919.512	1069
919.611	-8
919.709	874
919.807	738
919.905	1947
920.003	1176
920.102	1100
920.200	1406
920.298	1528
920.396	263
920.494	1430
920.592	-81
920.690	1552
920.788	403
920.886	911
920.984	1808
921.082	831
921.180	1911
921.277	2093
921.375	2182
921.473	2886
921.571	2087
921.669	2376
921.766	1371
921.864	3135
921.962	2673
922.060	2471
922.157	1390
922.255	1952
922.352	1939
922.450	2738
922.548	2217
922.645	2458
922.743	4133
922.840	7849
922.938	8247
923.035	7548
923.133	6276
923.230	7800
923.327	9812
923.425	9155
923.522	8929
923.619	8907
923.717	6822
923.814	7104
923.911	6771
924.008	7630
924.106	7095
924.203	6292
924.300	6677
924.397	7439
924.494	7382
924.591	7410
924.688	5815
924.786	7099
924.883	7027
924.979	6594
925.077	7323
925.173	6455
925.270	6491
925.367	6429
925.464	7774
925.561	7183
925.658	7343
925.755	6521
925.852	6677
925.948	6261
926.045	6852
926.142	6514
926.239	7011
926.335	5803
926.432	6967
926.529	7630
926.625	8050
926.722	6325
926.818	6238
926.915	7761
927.011	6595
927.108	6609
927.204	6260
927.301	5268
927.397	6201
927.494	7220
927.590	3885
927.687	5862
927.783	7032
927.879	5849
927.976	5786
928.072	5592
928.168	6099
928.264	6605
928.361	5336
928.457	6497
928.553	4591
928.649	6145
928.745	5389
928.841	5552
928.937	5318
929.033	5805
929.129	4906
929.225	6351
929.321	5003
929.417	5063
929.513	4958
929.609	6076
929.705	4839
929.801	7345
929.897	3728
929.993	5114
930.089	4666
930.184	4682
930.280	4330
930.376	7545
930.471	3672
930.567	4622
930.663	4890
930.758	3825
930.854	3788
930.950	4829
931.045	3993
931.141	4292
931.236	6130
931.332	4365
931.427	2892
931.523	5491
931.618	6189
931.714	2989
931.809	4384
931.905	5431
932.000	3162
932.095	3663
932.191	5497
932.286	6138
932.381	4372
932.476	3765
932.572	4168
932.667	4068
932.762	4539
932.857	4425
932.952	5126
933.047	4685
933.142	3408
933.237	4222
933.332	4107
933.427	5556
933.522	3996
933.617	3479
933.712	3262
933.807	5493
933.902	4725
933.997	5704
934.092	3095
934.187	3651
934.282	4706
934.376	4102
934.471	4269
934.566	4202
934.661	3828
934.755	4516
934.850	4300
934.945	4109
935.039	2402
935.134	2526
935.228	3993
935.323	6334
935.417	3114
935.512	2546
935.606	3316
935.701	4196
935.795	4422
935.890	4331
935.984	2670
936.079	2816
936.173	3754
936.267	3544
936.362	2686
936.456	4013
936.550	4398
936.644	4466
936.738	1278
936.833	2849
936.927	2878
937.021	2985
937.115	3158
937.209	2116
937.303	4060
937.397	2394
937.491	3042
937.585	5185
937.679	3674
937.773	2982
937.867	1682
937.961	2233
938.055	4012
938.149	3206
938.243	1671
938.337	2338
938.430	1700
938.524	4355
938.618	3734
938.712	3244
938.805	2975
938.899	4213
938.993	3956
939.086	2805
939.180	1991
939.274	3854
939.367	3805
939.461	3948
939.554	2038
939.648	2405
939.741	1566
939.835	3778
939.928	4315
940.022	4001
940.115	1164
940.208	4232
940.302	3604
940.395	3998
940.488	2624
940.582	3306
940.675	1346
940.768	2640
940.861	3020
940.954	4441
941.048	1904
941.141	2282
941.234	1356
941.327	2742
941.420	3372
941.513	4003
941.606	1866
941.699	2666
941.792	3542
941.885	2724
941.978	2256
942.071	2715
942.164	1904
942.257	1309
942.349	2169
942.442	3286
942.535	526
942.628	2638
942.721	2256
942.813	1612
942.906	2524
942.999	2617
943.091	1582
943.184	2582
943.277	1595
943.369	2160
943.462	812
943.554	3065
943.647	1840
943.739	3012
943.832	3299
943.924	794
944.017	1048
944.109	1001
944.201	1414
944.294	2259
944.386	2062
944.478	1716
944.571	1389
944.663	2141
944.755	1890
944.847	3176
944.940	2526
945.032	887
945.124	1174
945.216	2700
945.308	1506
945.400	2258
945.492	1206
945.584	3226
945.676	3498
945.768	2338
945.860	2082
945.952	2858
946.044	2114
946.136	2000
946.228	1416
946.320	1639
946.412	1625
946.503	2654
946.595	2014
946.687	1353
946.779	1078
946.870	1009
946.962	1181
947.054	695
947.145	2284
947.237	1454
947.329	2105
947.420	1644
947.512	2094
947.603	728
947.695	816
947.786	1434
947.878	294
947.969	2232
948.061	1980
948.152	1016
948.243	144
948.335	1465
948.426	1291
948.517	1246
948.609	1333
948.700	2062
948.791	1290
948.882	1347
948.973	438
949.065	1621
949.156	1609
949.247	947
949.338	768
949.429	662
949.520	1032
949.611	695
949.702	2344
949.793	1680
949.884	1334
949.975	728
950.066	58
950.157	1212
950.247	720
950.338	781
950.429	-199
950.520	1220
950.611	1172
950.701	1669
950.792	1686
950.883	1634
950.973	896
951.064	433
951.155	1924
951.245	1451
951.336	1619
951.427	2141
951.517	2505
951.608	1747
951.698	196
951.788	1210
951.879	-575
951.969	1126
952.060	1454
952.150	1622
952.240	1790
952.331	879
952.421	2369
952.511	1396
952.602	537
952.692	-14
952.782	-66
952.872	222
952.962	763
953.052	1015
953.143	678
953.233	1253
953.323	1524
953.413	959
953.503	1530
953.593	676
953.683	1303
953.773	725
953.863	-318
953.953	654
954.042	1924
954.132	1067
954.222	1160
954.312	1145
954.402	-139
954.492	820
954.581	1206
954.671	1679
954.761	250
954.850	2245
954.940	785
955.030	347
955.119	-42
955.209	1310
955.298	279
955.388	1807
955.477	1579
955.567	256
955.656	1226
955.746	1471
955.835	56
955.925	1629
956.014	989
956.103	1281
956.193	1948
956.282	1553
956.371	152
956.461	1132
956.550	1227
956.639	1426
956.728	-120
956.817	325
956.906	406
956.995	2229
957.085	785
957.174	923
957.263	208
957.352	859
957.441	501
957.530	677
957.619	-331
957.708	652
957.796	76
957.885	827
957.974	-24
958.063	2007
958.152	5
958.241	390
958.329	1003
958.418	568
958.507	-18
958.596	2518
958.684	102
958.773	584
958.861	-496
958.950	991
959.039	138
959.127	529
959.216	-61
959.304	558
959.393	470
959.481	697
959.570	564
959.658	739
959.746	-387
959.835	514
959.923	358
960.011	333
960.100	926
960.188	1228
960.276	-172
960.365	813
960.453	-40
960.541	-221
960.629	-22
960.717	-606
960.805	-1226
960.893	377
960.981	-278
961.069	2673
961.158	614
961.245	1982
961.333	853
961.421	912
961.509	1304
961.597	1257
961.685	622
961.773	736
961.861	111
961.949	2174
962.036	-346
962.124	632
962.212	181
962.299	55
962.387	-526
962.475	837
962.562	-745
962.650	1326
962.738	-505
962.825	617
962.913	552
963.000	-95
963.088	-159
963.175	116
963.263	-138
963.350	50
963.438	-362
963.525	350
963.612	442
963.700	-648
963.787	1118
963.874	618
963.962	58
964.049	611
964.136	349
964.223	115
964.310	382
964.398	356
964.485	-796
964.572	840
964.659	60
964.746	678
964.833	-726
964.920	84
965.007	320
965.094	4
965.181	-293
965.268	1087
965.355	246
965.441	-540
965.528	-22
965.615	1330
965.702	-736
965.789	438
965.875	194
965.962	1261
966.049	-575
966.136	1707
966.222	323
966.309	1787
966.395	1017
966.482	214
966.569	102
966.655	546
966.742	526
966.828	982
966.915	-848
967.001	304
967.087	-1087
967.174	831
967.260	-398
967.347	285
967.433	207
967.519	644
967.605	146
967.692	568
967.778	8
967.864	1393
967.950	-29
968.036	-197
968.123	-68
968.209	586
968.295	-810
968.381	1519
968.467	369
968.553	-987
968.639	1312
968.725	-64
968.811	668
968.897	1282
968.983	601
969.069	25
969.154	610
969.240	1510
969.326	-888
969.412	-952
969.497	-1625
969.583	-469
969.669	1480
969.755	1405
969.840	-129
969.926	2477
970.012	1579
970.097	3757
970.183	1923
970.268	621
970.354	1087
970.439	-563
970.525	1073
970.610	255
970.696	1215
970.781	674
970.866	-1353
970.952	1131
971.037	-716
971.122	853
971.208	131
971.293	610
971.378	-859
971.463	735
971.549	288
971.634	190
971.719	-212
971.804	31
971.889	896
971.974	-78
972.059	-32
972.144	1062
972.229	240
972.314	-68
972.399	476
972.484	-128
972.569	772
972.654	-371
972.739	812
972.824	-168
972.908	-668
972.993	-222
973.078	152
973.163	190
973.247	-158
973.332	-692
973.417	1306
973.501	365
973.586	621
973.671	407
973.755	72
973.840	132
973.924	1733
974.009	436
974.093	942
974.178	1834
974.262	346
974.346	98
974.431	666
974.515	743
974.600	444
974.684	306
974.768	-293
974.852	792
974.937	-1364
975.021	1398
975.105	248
975.189	840
975.273	108
975.358	-65
975.442	-1293
975.526	353
975.610	-107
975.694	-443
975.778	814
975.862	-286
975.946	-2402
976.030	2501
976.114	-218
976.198	672
976.281	250
976.365	1851
976.449	-598
976.533	814
976.617	-338
976.700	406
976.784	-44
976.868	-713
976.951	750
977.035	-688
977.119	58
977.202	-73
977.286	293
977.369	1089
977.453	2618
977.536	2038
977.620	1295
977.703	1869
977.787	-251
977.870	1739
977.953	1070
978.037	-10
978.120	1187
978.203	241
978.287	844
978.370	1054
978.453	-497
978.536	266
978.620	6
978.703	5
978.786	68
978.869	-184
978.952	-481
979.035	1483
979.118	871
979.201	-333
979.284	1157
979.367	197
979.450	332
979.533	-421
979.616	-583
979.699	216
979.782	659
979.865	795
979.948	-590
980.030	-697
980.113	-500
980.196	-755
980.279	238
980.361	750
980.444	-286
980.526	622
980.609	1172
980.692	1724
980.774	2362
980.857	499
980.939	939
981.022	654
981.104	224
981.187	540
981.269	687
981.352	230
981.434	-840
981.516	-42
981.599	1302
981.681	604
981.763	696
981.846	1072
981.928	459
982.010	481
982.092	-603
982.174	1108
982.256	33
982.339	-16
982.421	160
982.503	710
982.585	-160
982.667	785
982.749	193
982.831	880
982.913	-541
982.995	1555
983.077	459
983.158	2470
983.240	-712
983.322	1657
983.404	2034
983.486	2030
983.568	1216
983.649	1340
983.731	1335
983.813	679
983.894	461
983.976	691
984.058	588
984.139	2117
984.221	-528
984.302	1915
984.384	262
984.465	673
984.547	861
984.628	286
984.710	1388
984.791	516
984.872	1375
984.954	593
985.035	613
985.116	388
985.198	-96
985.279	2276
985.360	431
985.441	110
985.522	411
985.604	937
985.685	-1537
985.766	1422
985.847	2225
985.928	1100
986.009	699
986.090	1039
986.171	1415
986.252	585
986.333	962
986.414	950
986.495	815
986.576	1699
986.656	1351
986.737	2049
986.818	933
986.899	441
986.980	19
987.060	2597
987.141	673
987.222	2560
987.302	599
987.383	2340
987.464	1289
987.544	2215
987.625	622
987.705	2225
987.786	2021
987.866	1722
987.947	813
988.027	2362
988.108	1347
988.188	1701
988.268	1064
988.349	1797
988.429	843
988.509	2364
988.589	1036
988.670	-132
988.750	2862
988.830	1634
988.910	1290
988.990	1427
989.070	1506
989.151	1741
989.231	533
989.311	1596
989.391	620
989.471	1470
989.551	750
989.631	550
989.711	764
989.791	9
989.870	-263
989.950	2250
990.030	-44
990.110	864
990.190	476
990.269	880
990.349	941
990.429	1059
990.509	464
990.588	408
990.668	748
990.747	859
990.827	-320
990.907	1187
990.986	240
991.066	1452
991.145	141
991.225	1517
991.304	442
991.383	942
991.463	214
991.542	669
991.622	21
991.701	-228
991.780	113
991.859	535
991.939	342
992.018	532
992.097	607
992.176	601
992.256	-408
992.335	-515
992.414	787
992.493	-383
992.572	-562
992.651	721
992.730	625
992.809	-192
992.888	-486
992.967	319
993.046	990
993.125	-59
993.203	-431
993.282	423
993.361	-203
993.440	214
993.519	-888
993.597	838
993.676	-172
993.755	1159
993.834	532
993.912	-849
993.991	-54
994.069	-286
994.148	-334
994.226	-891
994.305	-201
994.384	-278
994.462	860
994.540	-728
994.619	-401
994.697	-148
994.776	-472
994.854	903
994.932	-496
995.011	555
995.089	-1030
995.167	-83
995.245	-1255
995.324	189
995.402	-242
995.480	-117
995.558	-356
995.636	-479
995.714	-443
995.792	-282
995.870	-919
995.948	-79
996.026	-631
996.104	-752
996.182	-3
996.260	-913
996.338	21
996.416	-1032
996.494	-496
996.572	860
996.649	-1648
996.727	-1087
996.805	-1347
996.883	-209
996.960	-684
997.038	205
997.116	667
997.193	-328
997.271	-341
997.348	-913
997.426	498
997.504	-1194
997.581	84
997.658	540
997.736	-2121
997.813	-961
997.891	624
997.968	-638
998.046	-643
998.123	-215
998.200	-351
998.277	-1017
998.355	-88
998.432	-1469
998.509	-825
998.586	651
998.663	-663
998.741	-228
998.818	-1542
998.895	-1602
998.972	-214
999.049	-782
999.126	-1532
999.203	-147
999.280	-549
999.357	-840
999.434	-1331
999.511	-535
999.587	-688
999.664	-853
999.741	-630
999.818	375
999.895	-1257
999.971	-550
1000.048	-1241
1000.125	352
1000.202	-1986
1000.278	-499
1000.355	172
1000.431	-929
1000.508	-1475
1000.584	-297
1000.661	-568
1000.738	-1088
1000.814	-472
1000.890	-231
1000.967	-1103
1001.043	-422
1001.120	-1844
1001.196	-336
1001.272	-1764
1001.349	-802
1001.425	-637
1001.501	-19
1001.577	-890
1001.654	-658
1001.730	-2316
1001.806	-791
1001.882	-1164
1001.958	-98
1002.034	-454
1002.110	-271
1002.186	-1924
1002.262	-1313
1002.338	-2675
1002.414	-977
1002.490	-1003
1002.566	-993
1002.642	-1535
1002.718	-82
1002.794	-885
1002.870	-829
1002.945	-1348
1003.021	-1016
1003.097	-743
1003.173	-127
1003.248	-1162
1003.324	-201
1003.400	-771
1003.475	-1923
1003.551	-1652
1003.626	-824
1003.702	-1885
1003.777	-555
1003.853	-1722
1003.928	-1425
1004.004	-1280
1004.079	-897
1004.155	-1188
1004.230	-1930
1004.305	-574
1004.381	-1357
1004.456	-1998
1004.531	-1424
1004.607	-1518
1004.682	-463
1004.757	-1538
1004.832	-1149
1004.907	-1496
1004.982	-624
1005.057	-1186
1005.133	-483
1005.208	-2099
1005.283	-1259
1005.358	-106
1005.433	-1405
1005.508	-732
1005.583	-1716
1005.657	-1491
1005.732	-249
1005.807	-2011
1005.882	-850
1005.957	-1709
1006.032	-461
1006.106	-836
1006.181	-726
1006.256	-977
1006.331	-1953
1006.405	-1460
1006.480	-1261
1006.554	-1429
1006.629	-912
1006.704	-991
1006.778	-659
1006.853	-937
1006.927	-393
1007.002	-1669
1007.076	-964
1007.150	-1803
1007.225	-252
1007.299	-1308
1007.373	-1801
1007.448	-1379
1007.522	-221
1007.596	-1450
1007.671	-542
1007.745	-1198
1007.819	-1231
1007.893	-1792
1007.967	-871
1008.041	-2140
1008.115	-374
1008.190	-2036
1008.264	-918
1008.338	-2198
1008.412	-542
1008.486	-931
1008.560	-806
1008.633	-2544
1008.707	-659
1008.781	-1380
1008.855	-1009
1008.929	-908
1009.003	-1636
1009.076	-1071
1009.150	-1297
1009.224	-1647
1009.298	-747
1009.371	-2281
1009.445	-847
1009.519	-1532
1009.592	-1835
1009.666	-1177
1009.739	-1554
1009.813	-1401
1009.886	66
1009.960	-1974
1010.033	-1288
1010.107	-225
1010.180	-2380
1010.253	-1300
1010.327	-1302
1010.400	-1148
1010.473	-837
1010.547	-703
1010.620	-1254
1010.693	-1238
1010.766	-1867
1010.840	-737
1010.913	-648
1010.986	-3012
1011.059	-762
1011.132	-1849
1011.205	-708
1011.278	-1612
1011.351	-1306
1011.424	-1204
1011.497	-1787
1011.570	-1738
1011.643	-1395
1011.716	-2913
1011.789	-1408
1011.862	-1126
1011.934	-17
1012.007	-1754
1012.080	-889
1012.153	-1355
1012.225	-478
1012.298	-2715
1012.371	-746
1012.443	-1147
1012.516	-1236
1012.588	-1735
1012.661	-833
1012.733	-1399
1012.806	-282
1012.879	-1694
1012.951	-1207
1013.023	-1770
1013.096	-1347
1013.168	-1526
1013.241	-513
1013.313	-2070
1013.385	-1166
1013.458	-1821
1013.530	-668
1013.602	-2222
1013.674	-1079
1013.746	-2726
1013.819	-1780
1013.891	-1284
1013.963	-1907
1014.035	-2095
1014.107	-909
1014.179	-1329
1014.251	-1628
1014.323	-1167
1014.395	-1175
1014.467	-1415
1014.539	-1062
1014.611	-1940
1014.683	-911
1014.754	-1419
1014.826	-1693
1014.898	-1723
1014.970	-2056
1015.042	-886
1015.113	-1162
1015.185	-1684
1015.257	-2436
1015.328	-1824
1015.400	-1298
1015.471	-1145
1015.543	-1949
1015.615	-2629
1015.686	-1271
1015.757	-1782
1015.829	-1097
1015.901	-1782
1015.972	-1554
1016.043	-1545
1016.115	-1489
1016.186	-1701
1016.257	-1800
1016.328	-2019
1016.400	-1555
1016.471	-2400
1016.542	-1719
1016.613	-1611
1016.685	-789
1016.756	-912
1016.827	-1264
1016.898	-2058
1016.969	-1190
1017.040	-1843
1017.111	-1937
1017.182	-1697
1017.253	-1250
1017.324	-1475
1017.395	-1080
1017.466	-1855
1017.537	-1376
1017.608	-1940
1017.678	-1483
1017.749	-1287
1017.820	-1299
1017.891	-2470
1017.961	-2260
1018.032	-2106
1018.103	-1384
1018.173	-1268
1018.244	-2037
1018.315	-1625
1018.385	-687
1018.456	-2177
1018.526	-2020
1018.597	-2101
1018.667	-1553
1018.738	-2279
1018.808	-1895
1018.878	-1730
1018.949	-1419
1019.019	-1555
1019.089	-1109
1019.160	-1392
1019.230	-2088
1019.300	-2059
1019.371	-2231
1019.441	-1753
1019.511	-1763
1019.581	-1709
1019.651	-1426
1019.721	-2180
1019.791	-1173
1019.861	-3071
1019.931	-1689
1020.001	-1706
1020.071	-1451
1020.141	-2356
1020.211	-1956
1020.281	-2675
1020.351	-1416
1020.421	-1395
1020.491	-204
1020.560	-2686
1020.630	-1859
1020.700	-1331
1020.770	-2021
1020.839	-2928
1020.909	-1215
1020.979	-1525
1021.048	-1606
1021.118	-2144
1021.187	-1771
1021.257	-2613
1021.326	-1090
1021.396	-2231
1021.465	-1375
1021.535	-2335
1021.604	-1922
1021.674	-1989
1021.743	-2272
1021.812	-2692
1021.882	-1632
1021.951	-1663
1022.020	-699
1022.089	-1912
1022.159	-1522
1022.228	-1755
1022.297	-2167
1022.366	-1829
1022.435	-1912
1022.504	-2838
1022.573	-1456
1022.642	-1819
1022.711	-2030
1022.781	-2935
1022.849	-1568
1022.918	-1814
1022.987	-1434
1023.056	-1775
1023.125	-447
1023.194	-1586
1023.263	-1967
1023.331	-2542
1023.400	-2621
1023.469	-2113
1023.538	-1255
1023.606	-1624
1023.675	-927
1023.744	-2394
1023.812	-1729
1023.881	-2467
1023.949	-2625
1024.018	-2245
1024.086	-1743
1024.155	-1907
1024.223	-2056
1024.292	-2923
1024.360	-1345
1024.429	-1988
1024.497	-1283
1024.565	-2585
1024.634	-1519
1024.702	-1374
1024.770	-1934
1024.838	-2099
1024.907	-1955
1024.975	-2756
1025.043	-1817
1025.111	-2399
1025.179	-1496
1025.247	-2443
1025.315	-1669
1025.383	-1736
1025.451	-1925
1025.519	-2070
1025.587	-1406
1025.655	-2544
1025.723	-2145
1025.791	-2048
1025.859	-1148
1025.927	-1894
1025.995	-1434
1026.062	-2388
1026.130	-1711
1026.198	-2671
1026.266	-2471
1026.333	-1642
1026.401	-1947
1026.469	-2398
1026.536	-864
1026.604	-2614
1026.671	-2078
1026.739	-2142
1026.806	-1818
1026.874	-1456
1026.941	-1310
1027.009	-1437
1027.076	-2730
1027.144	-1795
1027.211	-2417
1027.278	-2492
1027.345	-2152
1027.413	-1201
1027.480	-1494
1027.547	-2402
1027.614	-1859
1027.682	-2057
1027.749	-1273
1027.816	-2639
1027.883	-1094
1027.950	-1741
1028.017	-1718
1028.084	-2341
1028.151	-2582
1028.218	-2076
1028.285	-2184
1028.352	-2364
1028.419	-1976
1028.486	-2599
1028.553	-1356
1028.619	-2177
1028.686	-1440
1028.753	-3276
1028.820	-1227
1028.886	-2174
1028.953	-1582
1029.020	-2260
1029.086	-1074
1029.153	-2043
1029.220	-2017
1029.286	-1942
1029.353	-1715
1029.419	-2592
1029.486	-1963
1029.552	-2703
1029.619	-2395
1029.685	-2844
1029.751	-1039
1029.818	-1962
1029.884	-2218
1029.951	-1179
1030.017	-2120
1030.083	-2187
1030.149	-1981
1030.216	-2016
1030.282	-1554
1030.348	-1926
1030.414	-1822
1030.480	-2353
1030.546	-1212
1030.612	-2273
1030.678	-2355
1030.744	-1828
1030.810	-2372
1030.876	-1957
1030.942	-2397
1031.008	-2228
1031.074	-1573
1031.140	-3133
1031.206	-1770
1031.272	-2711
1031.337	-1608
1031.403	-1518
1031.469	-2192
1031.534	-2211
1031.600	-1118
1031.666	-2350
1031.731	-1519
1031.797	-1843
1031.863	-1724
1031.928	-2253
1031.994	-2376
1032.059	-2697
1032.125	-1604
1032.190	-2660
1032.256	-1251
1032.321	-2460
1032.386	-2855
1032.452	-1590
1032.517	-1042
1032.582	-2210
1032.647	-1896
1032.713	-2240
1032.778	-1867
1032.843	-3024
1032.908	-1739
1032.974	-1795
1033.039	-1484
1033.104	-1790
1033.169	-2598
1033.234	-1989
1033.299	-606
1033.364	-1946
1033.429	-1699
1033.494	-1801
1033.559	-2039
1033.624	-1952
1033.688	-794
1033.753	-1908
1033.818	-1745
1033.883	-1989
1033.948	-1096
1034.013	-2271
1034.077	-1136
1034.142	-602
1034.207	-1049
1034.271	1014
1034.336	1047
1034.400	-64
1034.465	-1140
1034.530	-1875
1034.594	-2269
1034.658	-1353
1034.723	-2482
1034.787	-2068
1034.852	-1764
1034.916	-1883
1034.981	-2169
1035.045	-1733
1035.109	-1781
1035.173	-2105
1035.238	-2105
1035.302	-2079
1035.366	-1802
1035.430	-2126
1035.495	-1767
1035.559	-2334
1035.623	-1650
1035.687	-2518
1035.751	-1443
1035.815	-2487
1035.879	-1368
1035.943	-2614
1036.007	-1995
1036.071	-1813
1036.135	-1065
1036.198	-2363
1036.262	-1745
1036.326	-2459
1036.390	-1039
1036.454	-1993
1036.517	-1688
1036.581	-2394
1036.645	-1898
1036.709	-2660
1036.772	-1779
1036.836	-1481
1036.900	-1918
1036.963	-1958
1037.026	-1564
1037.090	-1679
1037.154	-1335
1037.217	-1933
1037.280	-1672
1037.344	-1879
1037.407	-1994
1037.471	-2669
1037.534	-2191
1037.597	-1940
1037.661	-1888
1037.724	-2046
1037.787	-2350
1037.850	-1746
1037.913	-1999
1037.977	-707
1038.040	-1683
1038.103	-2656
1038.166	-2619
1038.229	-2511
1038.292	-1362
1038.355	-1399
1038.418	-1561
1038.481	-1233
1038.544	-1569
1038.607	-1619
1038.670	-2173
1038.732	-2404
1038.795	-2067
1038.858	-1851
1038.921	-1536
1038.984	-1384
1039.046	-1907
1039.109	-2507
1039.172	-1986
1039.234	-2114
1039.297	-2179
1039.360	-1977
1039.422	-1881
1039.485	-2331
1039.547	-1980
1039.610	-1880
1039.672	-2288
1039.734	-3250
1039.797	-1878
1039.859	-2395
1039.922	-1314
1039.984	-2552
1040.046	-1916
1040.109	-2511
1040.171	-1372
1040.233	-2934
1040.295	-2396
1040.358	-2413
1040.420	-1858
1040.482	-2517
1040.544	-2068
1040.606	-2645
1040.668	-1888
1040.730	-2257
1040.792	-1635
1040.854	-2346
1040.916	-1073
1040.978	-3063
1041.040	-1317
1041.102	-2128
1041.164	-1310
1041.225	-1885
1041.287	-2172
1041.349	-2642
1041.411	-2247
1041.472	-2545
1041.534	-1816
1041.596	-2810
1041.657	-2311
1041.719	-1699
1041.781	-1544
1041.842	-1959
1041.904	-2691
1041.965	-2573
1042.027	-2921
1042.088	-1943
1042.150	-2070
1042.211	-2836
1042.272	-1084
1042.334	-2582
1042.395	-1153
1042.456	-2669
1042.518	-1403
1042.579	-1860
1042.640	-1836
1042.701	-1784
1042.763	-2264
1042.824	-2069
1042.885	-2162
1042.946	-2089
1043.007	-2562
1043.068	-2757
1043.129	-1480
1043.190	-1668
1043.251	-1678
1043.312	-1673
1043.373	-1086
1043.434	-2888
1043.495	-1985
1043.556	-2509
1043.616	-1869
1043.677	-2728
1043.738	-1861
1043.799	-1949
1043.859	-1779
1043.920	-3329
1043.981	-2211
1044.041	-1255
1044.102	-1952
1044.162	-2387
1044.223	-2448
1044.284	-2325
1044.344	-1509
1044.405	-2089
1044.465	-2467
1044.525	-2142
1044.586	-2099
1044.646	-1787
1044.707	-1016
1044.767	-2428
1044.827	-1860
1044.887	-1769
1044.948	-1449
1045.008	-1319
1045.068	-1546
1045.128	-2492
1045.188	-1411
1045.249	-1738
1045.309	-1262
1045.369	-1924
1045.429	-2631
1045.489	-2118
1045.549	-1709
1045.609	-1997
1045.669	-2706
1045.729	-2513
1045.789	-1508
1045.848	-2435
1045.908	-1402
1045.968	-1978
1046.028	-1504
1046.088	-1519
1046.147	-1509
1046.207	-2643
1046.267	-1717
1046.326	-1425
1046.386	-281
1046.446	-1817
1046.505	-1140
1046.565	-678
1046.624	-174
1046.684	-1009
1046.743	-941
1046.803	-896
1046.862	-937
1046.922	0
