'Start Wavelength	183.907
'End Wavelength	1046.922
'Gate Delay	5.000
'Gate Width (ms)	1.050
'Laser Output Level	0.000
'X Position	0.000
'Y Position	0.000
'Z Position	0.000
'Grid Point Number	1.000
'Shot Number	100.000
183.907	-182.000
183.977	-1233.000
184.047	640
184.116	34
184.186	-276
184.256	-379
184.325	382
184.395	-925
184.465	127
184.534	-188
184.604	-781
184.674	-158
184.743	-80
184.813	398
184.883	-308
184.952	130
185.022	307
185.092	-85
185.161	239
185.231	498
185.301	-430
185.370	289
185.440	-324
185.509	-263
185.579	498
185.649	121
185.718	727
185.788	-38
185.857	-156
185.927	-362
185.996	-226
186.066	-103
186.136	304
186.205	-198
186.275	124
186.344	-376
186.414	-118
186.483	-741
186.553	377
186.622	126
186.692	271
186.761	300
186.831	-13
186.900	-831
186.970	278
187.039	404
187.109	-291
187.178	38
187.248	440
187.317	-51
187.387	-163
187.456	332
187.526	778
187.595	216
187.664	-242
187.734	-301
187.803	-65
187.873	-297
187.942	-376
188.012	-238
188.081	-259
188.150	-353
188.220	526
188.289	-168
188.358	-315
188.428	457
188.497	-354
188.567	734
188.636	-602
188.705	-281
188.775	334
188.844	-691
188.913	917
188.983	317
189.052	211
189.121	-108
189.191	-192
189.260	112
189.329	-617
189.399	-476
189.468	29
189.537	-776
189.606	-286
189.676	8
189.745	810
189.814	-468
189.883	316
189.953	-526
190.022	308
190.091	-230
190.161	-183
190.230	-340
190.299	90
190.368	84
190.437	-198
190.507	238
190.576	966
190.645	272
190.714	205
190.783	-482
190.853	-221
190.922	-137
190.991	461
191.060	-22
191.129	-218
191.198	-784
191.268	-336
191.337	-849
191.406	276
191.475	-369
191.544	-404
191.613	239
191.682	245
191.752	-725
191.821	-356
191.890	-1060
191.959	-1032
192.028	-1075
192.097	112
192.166	471
192.235	-641
192.304	181
192.373	-169
192.442	581
192.511	-853
192.580	-120
192.650	161
192.719	-582
192.788	-480
192.857	-224
192.926	-1398
192.995	474
193.064	323
193.133	12
193.202	-412
193.271	-962
193.340	-319
193.409	-264
193.478	-413
193.547	134
193.615	560
193.684	-492
193.753	224
193.822	12
193.891	-28
193.960	-141
194.029	-692
194.098	20
194.167	-536
194.236	204
194.305	306
194.374	-418
194.443	-206
194.512	-495
194.580	-47
194.649	27
194.718	-52
194.787	-662
194.856	-405
194.925	-33
194.994	-245
195.062	-628
195.131	106
195.200	-880
195.269	-496
195.338	97
195.407	-428
195.475	-252
195.544	-22
195.613	471
195.682	-229
195.751	-73
195.819	284
195.888	497
195.957	192
196.026	-230
196.094	355
196.163	-670
196.232	191
196.301	-936
196.369	432
196.438	-602
196.507	-307
196.576	-490
196.644	243
196.713	-796
196.782	526
196.850	294
196.919	218
196.988	569
197.056	-421
197.125	-362
197.194	173
197.262	256
197.331	-559
197.400	-117
197.468	131
197.537	-157
197.606	-586
197.674	-841
197.743	73
197.812	-576
197.880	-188
197.949	-90
198.017	279
198.086	-489
198.155	31
198.223	412
198.292	-510
198.360	496
198.429	-176
198.497	-48
198.566	-511
198.635	151
198.703	68
198.772	-534
198.840	-1207
198.909	-177
198.977	-263
199.046	-189
199.114	-19
199.183	-341
199.251	-6
199.320	47
199.388	-61
199.457	-240
199.525	-343
199.594	-1024
199.662	-553
199.731	-1054
199.799	513
199.867	-396
199.936	358
200.004	143
200.073	-183
200.141	-96
200.210	120
200.278	-894
200.346	-308
200.415	-190
200.483	31
200.552	253
200.620	-588
200.688	-109
200.757	-287
200.825	147
200.893	-74
200.962	-205
201.030	-398
201.098	-584
201.167	-491
201.235	-118
201.303	-87
201.372	-966
201.440	324
201.508	-319
201.577	421
201.645	-63
201.713	419
201.781	-448
201.850	114
201.918	-333
201.986	51
202.055	198
202.123	-674
202.191	21
202.259	310
202.327	-276
202.396	-13
202.464	23
202.532	-837
202.600	239
202.669	418
202.737	-91
202.805	-583
202.873	-528
202.941	286
203.009	-427
203.078	459
203.146	-180
203.214	-290
203.282	-1202
203.350	-613
203.418	-713
203.487	303
203.555	-215
203.623	-19
203.691	-685
203.759	-448
203.827	-207
203.895	-370
203.963	-452
204.031	-527
204.099	-219
204.168	-535
204.236	-233
204.304	-764
204.372	-359
204.440	11
204.508	-119
204.576	-451
204.644	-561
204.712	-595
204.780	-1120
204.848	-607
204.916	186
204.984	-215
205.052	-759
205.120	-688
205.188	-457
205.256	-151
205.324	117
205.392	-1171
205.460	-475
205.528	-988
205.596	690
205.664	353
205.732	-953
205.799	595
205.867	63
205.935	-948
206.003	446
206.071	-632
206.139	-1173
206.207	164
206.275	-254
206.343	160
206.411	102
206.478	-137
206.546	-287
206.614	-322
206.682	-475
206.750	-756
206.818	-196
206.885	-310
206.953	-1293
207.021	457
207.089	-440
207.157	-1380
207.225	-372
207.292	-533
207.360	-1157
207.428	-739
207.496	-820
207.563	-1131
207.631	-84
207.699	-800
207.767	-707
207.834	-843
207.902	-197
207.970	-133
208.038	-604
208.105	-270
208.173	-225
208.241	-603
208.309	-581
208.376	101
208.444	-338
208.512	-403
208.579	-1733
208.647	399
208.715	244
208.782	-519
208.850	-58
208.918	-737
208.985	-1232
209.053	-948
209.120	-586
209.188	-286
209.256	-807
209.323	-1391
209.391	-156
209.459	250
209.526	342
209.594	-861
209.661	-997
209.729	-837
209.796	-570
209.864	226
209.932	-1958
209.999	682
210.067	-681
210.134	-437
210.202	-776
210.269	-752
210.337	-66
210.404	-705
210.472	-342
210.539	362
210.607	-698
210.674	-24
210.742	-382
210.809	-669
210.877	-965
210.944	373
211.012	-1148
211.079	601
211.146	-964
211.214	-1151
211.281	-18
211.349	195
211.416	196
211.484	-650
211.551	-830
211.618	-637
211.686	-563
211.753	-1583
211.821	120
211.888	-163
211.955	-233
212.023	-372
212.090	-400
212.157	-680
212.225	41
212.292	-719
212.359	-828
212.427	-165
212.494	-372
212.561	186
212.629	-876
212.696	-785
212.763	-162
212.831	-1053
212.898	-90
212.965	-728
213.032	-16
213.100	-265
213.167	-196
213.234	131
213.301	-306
213.369	-512
213.436	-1061
213.503	-614
213.570	-324
213.638	-63
213.705	-612
213.772	-1403
213.839	-933
213.906	102
213.973	-248
214.041	-790
214.108	-124
214.175	-683
214.242	-1191
214.309	-801
214.376	-718
214.444	-1082
214.511	-560
214.578	-495
214.645	-331
214.712	-271
214.779	-334
214.846	-1130
214.913	-551
214.980	424
215.048	-853
215.115	-268
215.182	-483
215.249	-447
215.316	-1007
215.383	272
215.450	-380
215.517	-1355
215.584	-417
215.651	-1035
215.718	-1842
215.785	-453
215.852	-830
215.919	-207
215.986	-186
216.053	-363
216.120	-988
216.187	-737
216.254	-1150
216.321	-887
216.388	-439
216.455	-1092
216.522	-266
216.589	-377
216.656	-960
216.722	-866
216.789	-460
216.856	-359
216.923	-1064
216.990	-1006
217.057	-514
217.124	-615
217.191	-1064
217.258	-554
217.324	-650
217.391	-595
217.458	-594
217.525	-19
217.592	-868
217.659	-1105
217.725	-432
217.792	-991
217.859	371
217.926	-758
217.993	-1608
218.059	366
218.126	-655
218.193	-944
218.260	-900
218.327	-1487
218.393	-1105
218.460	-1270
218.527	-1422
218.594	-549
218.660	-579
218.727	-110
218.794	-1248
218.860	153
218.927	-1253
218.994	101
219.061	-1022
219.127	-1109
219.194	-460
219.261	-563
219.327	-743
219.394	-344
219.461	-1340
219.527	-163
219.594	-684
219.661	-880
219.727	-1507
219.794	-198
219.860	-1172
219.927	-798
219.994	14
220.060	412
220.127	288
220.193	550
220.260	-896
220.326	564
220.393	-1618
220.460	-1693
220.526	-1122
220.593	-974
220.659	674
220.726	-657
220.792	-915
220.859	-1156
220.925	-890
220.992	-714
221.058	-545
221.125	-532
221.191	-429
221.258	-1104
221.324	-225
221.391	-341
221.457	-1021
221.524	-800
221.590	-343
221.657	208
221.723	-1469
221.789	-716
221.856	59
221.922	-1085
221.989	-347
222.055	-302
222.121	-1928
222.188	313
222.254	-228
222.321	-190
222.387	-1246
222.453	-215
222.520	-512
222.586	-1368
222.652	-202
222.719	-1361
222.785	140
222.851	-658
222.918	-580
222.984	-959
223.050	-713
223.116	-2657
223.183	-172
223.249	-1497
223.315	-1396
223.382	-1010
223.448	-572
223.514	-1163
223.580	-1150
223.647	-574
223.713	-1955
223.779	-822
223.845	-868
223.911	-425
223.978	-1503
224.044	336
224.110	-1134
224.176	-435
224.242	-275
224.309	-1556
224.375	-836
224.441	227
224.507	-1270
224.573	-1389
224.639	8
224.705	-1300
224.772	-170
224.838	-990
224.904	-1014
224.970	-1067
225.036	-975
225.102	-1442
225.168	53
225.234	58
225.300	-733
225.366	-500
225.432	-488
225.499	-686
225.565	-948
225.631	-1920
225.697	-930
225.763	590
225.829	-354
225.895	-460
225.961	-747
226.027	-587
226.093	-1348
226.159	244
226.225	-302
226.291	-798
226.357	-943
226.423	-513
226.489	-1026
226.554	-512
226.620	-813
226.686	-677
226.752	-400
226.818	-265
226.884	-139
226.950	159
227.016	-49
227.082	42
227.148	-1597
227.214	-650
227.279	-725
227.345	-756
227.411	-904
227.477	-459
227.543	1025
227.609	391
227.674	206
227.740	-554
227.806	80
227.872	-1169
227.938	-1105
228.003	-73
228.069	-1777
228.135	-1021
228.201	-835
228.267	-282
228.332	-1237
228.398	-1729
228.464	-143
228.530	-549
228.595	-437
228.661	-691
228.727	-1408
228.792	89
228.858	-1247
228.924	-2494
228.990	-76
229.055	-1511
229.121	-76
229.187	537
229.252	-938
229.318	-1003
229.384	-514
229.449	-785
229.515	-2297
229.581	-716
229.646	517
229.712	-955
229.777	-1157
229.843	-1028
229.909	210
229.974	74
230.040	-1025
230.105	-598
230.171	-1682
230.236	-592
230.302	-323
230.368	-1054
230.433	-2166
230.499	-564
230.564	-1079
230.630	-1599
230.695	-786
230.761	243
230.826	-1650
230.892	243
230.957	-1539
231.023	-1318
231.088	-1503
231.154	-474
231.219	-124
231.284	-671
231.350	-548
231.415	-1211
231.481	-34
231.546	-672
231.612	-667
231.677	-1181
231.742	-2002
231.808	700
231.873	-1507
231.939	-2893
232.004	-130
232.069	-455
232.135	-1247
232.200	-1030
232.265	-480
232.331	-1109
232.396	-1249
232.461	-866
232.527	-221
232.592	-445
232.657	-443
232.723	-804
232.788	-1613
232.853	-713
232.918	-1212
232.984	-1210
233.049	-1105
233.114	-1635
233.179	-717
233.245	-239
233.310	-661
233.375	-2019
233.440	-257
233.506	-764
233.571	-1111
233.636	-902
233.701	-922
233.766	-1190
233.832	-1158
233.897	-1192
233.962	-1701
234.027	490
234.092	-362
234.157	-1431
234.222	-1715
234.288	-1172
234.353	-1101
234.418	-1051
234.483	-603
234.548	-975
234.613	-778
234.678	-594
234.743	-2091
234.808	492
234.873	-2777
234.938	367
235.004	-1191
235.069	-875
235.134	-1547
235.199	-901
235.264	-245
235.329	-2264
235.394	-522
235.459	130
235.524	-1751
235.589	-184
235.654	-1616
235.719	-2212
235.784	-307
235.849	-392
235.913	-572
235.978	-786
236.043	-1330
236.108	-1233
236.173	-1459
236.238	-664
236.303	-1936
236.368	-1348
236.433	-336
236.498	-898
236.563	-213
236.627	-1178
236.692	681
236.757	-333
236.822	-660
236.887	-1735
236.952	-310
237.017	-1562
237.081	-425
237.146	-1747
237.211	-378
237.276	-662
237.341	585
237.405	-1257
237.470	-1257
237.535	-397
237.600	-868
237.664	-288
237.729	-1180
237.794	-1551
237.859	-413
237.923	-716
237.988	-476
238.053	-462
238.118	-948
238.182	-1354
238.247	171
238.312	-1518
238.376	-1128
238.441	-2420
238.506	-299
238.570	-1755
238.635	495
238.700	-79
238.764	-1411
238.829	-1007
238.893	-1882
238.958	-506
239.023	-1198
239.087	-843
239.152	-752
239.216	-1285
239.281	268
239.346	-1100
239.410	-1634
239.475	-957
239.539	-19
239.604	-858
239.668	-1062
239.733	-206
239.797	369
239.862	2263
239.926	716
239.991	495
240.055	-536
240.120	-1232
240.184	-1029
240.249	-582
240.313	-14
240.378	-1179
240.442	-424
240.507	177
240.571	-1415
240.635	-1559
240.700	-1620
240.764	-938
240.829	-434
240.893	-1113
240.957	-458
241.022	-632
241.086	-96
241.151	-1071
241.215	-1506
241.279	-131
241.344	-1363
241.408	-464
241.472	-640
241.537	-654
241.601	-1007
241.665	-1198
241.730	-1643
241.794	-284
241.858	-1803
241.922	-643
241.987	-989
242.051	-1021
242.115	-1678
242.179	-777
242.244	-2052
242.308	-563
242.372	-1113
242.436	-1606
242.501	-688
242.565	-1805
242.629	-1535
242.693	-475
242.757	-1399
242.822	-548
242.886	-566
242.950	-665
243.014	-1924
243.078	-598
243.142	-786
243.206	-1211
243.271	-488
243.335	-1794
243.399	-654
243.463	-1134
243.527	-468
243.591	-1402
243.655	-836
243.719	-1717
243.783	233
243.847	-924
243.911	-364
243.975	-2064
244.040	-2358
244.104	237
244.168	-791
244.232	-1155
244.296	-908
244.360	-736
244.424	-2129
244.488	-1404
244.552	-672
244.615	-2393
244.679	-1047
244.743	-1260
244.807	-1548
244.871	-1238
244.935	-183
244.999	-2148
245.063	-1821
245.127	-855
245.191	-1156
245.255	-992
245.319	-694
245.383	-2159
245.446	21
245.510	-957
245.574	-1160
245.638	-741
245.702	-1866
245.766	-707
245.829	169
245.893	-1994
245.957	-2385
246.021	-158
246.085	-1110
246.149	-930
246.212	-452
246.276	-1681
246.340	-1584
246.404	-774
246.467	-170
246.531	-2616
246.595	57
246.659	-539
246.722	-2176
246.786	-775
246.850	-106
246.913	-1179
246.977	-1524
247.041	-450
247.104	-944
247.168	-155
247.232	-681
247.295	-474
247.359	-1273
247.423	-1601
247.486	-1695
247.550	-381
247.614	-1807
247.677	-491
247.741	-1081
247.804	-774
247.868	-824
247.932	-1490
247.995	440
248.059	-1359
248.122	-1235
248.186	-654
248.249	-452
248.313	-411
248.376	-44
248.440	-1222
248.503	-1848
248.567	571
248.630	-2048
248.694	-1650
248.757	-799
248.821	-608
248.884	662
248.948	-1996
249.011	-397
249.075	348
249.138	-457
249.202	-315
249.265	-1882
249.328	-667
249.392	-2225
249.455	83
249.519	-1272
249.582	-1684
249.645	-1058
249.709	-1160
249.772	-1229
249.835	-864
249.899	-1104
249.962	-1137
250.025	-857
250.089	-1354
250.152	-195
250.215	-1414
250.279	-1313
250.342	-803
250.405	-106
250.468	-748
250.532	-2432
250.595	222
250.658	-987
250.721	898
250.785	-1161
250.848	387
250.911	-1116
250.974	253
251.038	-1336
251.101	-418
251.164	-1380
251.227	-300
251.290	-585
251.354	-1136
251.417	120
251.480	230
251.543	-451
251.606	2611
251.669	1494
251.732	-4
251.795	-629
251.859	-455
251.922	64
251.985	110
252.048	-446
252.111	-1502
252.174	-1258
252.237	-1100
252.300	-283
252.363	-82
252.426	2480
252.489	-1118
252.552	-1196
252.615	-994
252.678	-114
252.741	-54
252.804	-1013
252.867	1895
252.930	118
252.993	-1015
253.056	113
253.119	-1695
253.182	-1693
253.245	-1221
253.308	-117
253.371	-1217
253.434	-1352
253.497	-88
253.559	201
253.622	-1018
253.685	-730
253.748	-970
253.811	-1249
253.874	-797
253.937	-1853
254.000	-968
254.062	-1621
254.125	-1124
254.188	546
254.251	-1205
254.314	-1497
254.376	-508
254.439	-647
254.502	-1515
254.565	-1719
254.628	-410
254.690	-1531
254.753	-1850
254.816	-1408
254.878	-1207
254.941	-11
255.004	-1012
255.067	-691
255.129	-2065
255.192	-1046
255.255	-1503
255.317	-1184
255.380	-873
255.443	-1487
255.505	-1035
255.568	-1515
255.631	-582
255.693	-1240
255.756	-1268
255.819	-85
255.881	-1892
255.944	-612
256.006	-1019
256.069	-1145
256.132	-1623
256.194	-1479
256.257	-818
256.319	-1186
256.382	-968
256.444	-327
256.507	-956
256.569	-1717
256.632	-1242
256.694	-2414
256.757	-147
256.819	-15
256.882	-1133
256.944	-413
257.007	-309
257.069	-1542
257.132	-1675
257.194	-514
257.257	-1484
257.319	-2085
257.381	-2352
257.444	-428
257.506	9
257.569	661
257.631	-1575
257.693	-248
257.756	-1155
257.818	-624
257.880	-1308
257.943	-204
258.005	-1549
258.067	-1055
258.130	-1986
258.192	-1844
258.254	-1299
258.317	-513
258.379	-612
258.441	-1470
258.503	-1108
258.566	-1276
258.628	-670
258.690	-1933
258.753	-1000
258.815	-131
258.877	-2034
258.939	-1034
259.001	-471
259.064	-962
259.126	-1234
259.188	-1106
259.250	-970
259.312	-1670
259.375	-1051
259.437	-1472
259.499	-852
259.561	-1322
259.623	-1222
259.685	-1284
259.747	-516
259.809	-1022
259.872	-1061
259.934	-473
259.996	-628
260.058	62
260.120	-2054
260.182	-1260
260.244	-1093
260.306	-1441
260.368	-948
260.430	-2129
260.492	-1774
260.554	-642
260.616	-1230
260.678	-1317
260.740	-1351
260.802	-1621
260.864	-12
260.926	-1706
260.988	-644
261.050	-1299
261.112	-2238
261.174	-145
261.236	-801
261.298	-1088
261.359	-880
261.421	-610
261.483	-1719
261.545	-597
261.607	-2277
261.669	-426
261.731	-1178
261.793	-2001
261.854	-2127
261.916	-987
261.978	-1013
262.040	-990
262.102	-341
262.164	-1296
262.225	-319
262.287	-1064
262.349	-2099
262.411	-1244
262.472	-210
262.534	-1342
262.596	-1250
262.658	-905
262.719	-1575
262.781	-430
262.843	-1623
262.904	-254
262.966	-1399
263.028	-1456
263.090	-417
263.151	-971
263.213	-1049
263.275	-766
263.336	-720
263.398	-1066
263.459	-704
263.521	-1028
263.583	-1085
263.644	-1540
263.706	-973
263.767	-1412
263.829	4
263.891	-952
263.952	-1372
264.014	-1092
264.075	-2313
264.137	-1135
264.198	-756
264.260	-1034
264.321	-1093
264.383	-1486
264.444	17
264.506	-1301
264.567	-1103
264.629	-400
264.690	-1701
264.752	-1400
264.813	-1378
264.875	-1193
264.936	35
264.998	-1313
265.059	-1697
265.120	-640
265.182	-1610
265.243	-1792
265.305	-1106
265.366	-973
265.427	-1469
265.489	-562
265.550	-2076
265.611	-2414
265.673	-1450
265.734	-1399
265.795	-73
265.857	-1607
265.918	-1527
265.979	-420
266.040	-536
266.102	-678
266.163	-1676
266.224	-1365
266.286	-1059
266.347	-1660
266.408	-1146
266.469	-1192
266.530	-887
266.592	-1258
266.653	-570
266.714	-1572
266.775	-1407
266.836	-1481
266.898	-1453
266.959	-1342
267.020	-1060
267.081	156
267.142	-1003
267.203	-1558
267.264	-1550
267.326	170
267.387	-599
267.448	-1390
267.509	-1120
267.570	-748
267.631	-987
267.692	-1435
267.753	-1115
267.814	-1918
267.875	-839
267.936	-963
267.997	-1730
268.058	-1274
268.119	-1667
268.180	-1402
268.241	-1281
268.302	-762
268.363	-1167
268.424	-1314
268.485	-1771
268.546	-1251
268.607	-1558
268.668	-1130
268.729	-1005
268.790	-631
268.851	-1624
268.912	-1482
268.972	-1469
269.033	-1832
269.094	-1829
269.155	-1202
269.216	-1336
269.277	-1381
269.338	-1326
269.398	-982
269.459	-1148
269.520	-1067
269.581	-1265
269.642	-1784
269.702	-1705
269.763	-1636
269.824	-1689
269.885	-1477
269.945	-622
270.006	-1042
270.067	-1530
270.128	-878
270.188	-1718
270.249	-1742
270.310	-1426
270.370	-815
270.431	-1153
270.492	-1370
270.553	-1328
270.613	-2093
270.674	-1124
270.734	-1975
270.795	-909
270.856	-832
270.916	-901
270.977	-1505
271.038	-1402
271.098	-896
271.159	-1943
271.219	-1483
271.280	-1134
271.340	-782
271.401	-1621
271.462	-1097
271.522	-672
271.583	-627
271.643	-1494
271.704	-868
271.764	-1987
271.825	-1607
271.885	167
271.946	169
272.006	-768
272.066	-946
272.127	22
272.187	271
272.248	-256
272.308	-1519
272.369	248
272.429	-720
272.489	-1296
272.550	-1306
272.610	252
272.671	-1916
272.731	-526
272.791	-1030
272.852	-1590
272.912	-897
272.972	-1019
273.033	-1225
273.093	-1320
273.153	-456
273.214	-991
273.274	-1255
273.334	-865
273.394	444
273.455	-881
273.515	-182
273.575	-720
273.635	646
273.696	-375
273.756	-471
273.816	-551
273.876	-805
273.936	-632
273.997	-239
274.057	-1648
274.117	-977
274.177	-1400
274.237	-1230
274.297	-985
274.358	-736
274.418	-521
274.478	-1268
274.538	-1010
274.598	-1948
274.658	-441
274.718	-598
274.778	-262
274.838	-1860
274.898	-1874
274.958	-424
275.018	-499
275.078	-368
275.138	-713
275.198	-1495
275.258	-1323
275.318	-1251
275.378	-933
275.438	-276
275.498	-647
275.558	-953
275.618	-912
275.678	-1299
275.738	-995
275.798	-2000
275.858	-1458
275.918	-1646
275.978	-1049
276.038	-1665
276.098	-1176
276.157	-1526
276.217	-576
276.277	-787
276.337	-2033
276.397	-1111
276.457	-1227
276.517	-379
276.576	225
276.636	-1351
276.696	-1916
276.756	-958
276.815	-650
276.875	-369
276.935	-920
276.995	-1091
277.055	-940
277.114	-843
277.174	-1427
277.234	-290
277.293	-1005
277.353	-1218
277.413	-472
277.472	2
277.532	-1299
277.592	-386
277.651	2177
277.711	6600
277.771	1716
277.830	4395
277.890	5482
277.950	2203
278.009	10767
278.069	4312
278.128	3489
278.188	6130
278.248	2268
278.307	6010
278.367	4737
278.426	4
278.486	-706
278.545	-501
278.605	-660
278.664	-930
278.724	106
278.783	124
278.843	525
278.902	-201
278.962	7
279.021	498
279.081	1392
279.140	1507
279.199	140
279.259	220
279.318	834
279.378	1167
279.437	3056
279.496	10606
279.556	60148
279.615	47478
279.675	10549
279.734	4049
279.793	4372
279.853	4431
279.912	2798
279.971	1719
280.031	1345
280.090	1609
280.149	3183
280.208	5790
280.268	40005
280.327	40928
280.386	7571
280.445	2833
280.505	1446
280.564	1001
280.623	155
280.682	484
280.742	262
280.801	-881
280.860	-99
280.919	-349
280.978	-359
281.037	-58
281.097	-874
281.156	585
281.215	-517
281.274	-676
281.333	254
281.392	-712
281.451	-206
281.510	-942
281.569	-370
281.628	-436
281.688	-369
281.747	-1011
281.806	-362
281.865	-523
281.924	-130
281.983	-831
282.042	-1101
282.101	-1019
282.160	-691
282.219	-558
282.278	-512
282.337	-1152
282.396	-1095
282.454	-779
282.513	-611
282.572	-301
282.631	-701
282.690	-904
282.749	-1452
282.808	-739
282.867	-794
282.926	-513
282.985	-349
283.043	-768
283.102	-702
283.161	-77
283.220	-87
283.279	-522
283.338	-320
283.396	-1124
283.455	-548
283.514	-388
283.573	-435
283.631	-96
283.690	-747
283.749	-662
283.808	-499
283.866	-505
283.925	-166
283.984	-54
284.043	-197
284.101	-33
284.160	440
284.219	612
284.277	992
284.336	-69
284.395	1225
284.453	-161
284.512	175
284.570	909
284.629	1569
284.688	2770
284.746	4002
284.805	3593
284.863	6205
284.922	8165
284.981	10755
285.039	14204
285.098	18955
285.156	27267
285.215	31316
285.273	25800
285.332	27060
285.390	23620
285.449	16770
285.507	12116
285.566	8591
285.624	6962
285.683	5651
285.741	4402
285.799	3714
285.858	2549
285.916	1684
285.975	982
286.033	1181
286.091	839
286.150	1089
286.208	626
286.267	416
286.325	158
286.383	378
286.442	297
286.500	14
286.558	-314
286.616	-253
286.675	-443
286.733	-388
286.791	-65
286.850	-455
286.908	-409
286.966	-269
287.024	-170
287.083	-924
287.141	-785
287.199	-416
287.257	-139
287.315	-618
287.374	-280
287.432	-809
287.490	-794
287.548	-1229
287.606	-674
287.664	10
287.723	-470
287.781	110
287.839	-321
287.897	-436
287.955	-70
288.013	-1410
288.071	-983
288.129	-70
288.187	7338
288.245	2666
288.303	-266
288.361	173
288.419	-735
288.477	-112
288.535	-870
288.593	-1523
288.651	-965
288.709	-1558
288.767	-855
288.825	-1209
288.883	-630
288.941	-494
288.999	-1264
289.057	-190
289.115	-1434
289.173	-1094
289.231	-1201
289.289	-1393
289.346	-1772
289.404	-1318
289.462	-989
289.520	-277
289.578	-1099
289.636	-321
289.694	-360
289.751	-420
289.809	-540
289.867	-746
289.925	-10
289.983	-1152
290.040	-139
290.098	-1148
290.156	-883
290.214	-1397
290.271	-830
290.329	-892
290.387	-245
290.444	-1074
290.502	-1194
290.560	-847
290.617	-1653
290.675	-789
290.733	-1533
290.790	-817
290.848	-614
290.906	-564
290.963	-1424
291.021	-599
291.078	-932
291.136	-1780
291.194	-939
291.251	-1042
291.309	-804
291.366	-978
291.424	-1356
291.481	-628
291.539	-533
291.596	-961
291.654	-1183
291.711	-526
291.769	-539
291.826	-214
291.884	-1274
291.941	-1063
291.999	-873
292.056	-820
292.114	-298
292.171	-973
292.228	-798
292.286	-295
292.343	-1249
292.401	-542
292.458	-37
292.515	-1156
292.573	-265
292.630	-1067
292.687	-1123
292.745	-370
292.802	-1358
292.859	-171
292.917	156
292.974	-1347
293.031	-923
293.089	-705
293.146	-1257
293.203	-300
293.260	-1058
293.318	-902
293.375	-100
293.432	-960
293.489	-1
293.546	-449
293.604	-377
293.661	-468
293.718	1137
293.775	-247
293.832	-468
293.889	292
293.947	968
294.004	-701
294.061	-1100
294.118	-354
294.175	-385
294.232	1135
294.289	-283
294.346	-1145
294.403	253
294.460	-659
294.517	-848
294.574	-887
294.631	-1315
294.688	-1132
294.745	-1572
294.802	429
294.859	-602
294.916	-1119
294.973	-1385
295.030	-1342
295.087	-1025
295.144	-385
295.201	-230
295.258	-687
295.315	-547
295.372	-226
295.429	-569
295.486	-779
295.542	-1734
295.599	-932
295.656	-505
295.713	-1216
295.770	-508
295.827	-984
295.883	-1189
295.940	-912
295.997	-848
296.054	-958
296.111	-1241
296.167	-307
296.224	-1625
296.281	-1164
296.338	-1365
296.394	-1706
296.451	-1067
296.508	-1174
296.564	-429
296.621	-188
296.678	-469
296.734	-54
296.791	-1401
296.848	-707
296.904	-767
296.961	-1080
297.018	29
297.074	-1047
297.131	-1268
297.187	-918
297.244	-355
297.301	-383
297.357	918
297.414	-1111
297.470	-1196
297.527	-741
297.583	-399
297.640	-1569
297.696	-940
297.753	-1681
297.809	-1442
297.866	-1809
297.922	-752
297.979	-1033
298.035	-1444
298.092	-1536
298.148	-880
298.204	-249
298.261	-1139
298.317	-390
298.374	-379
298.430	-383
298.486	-461
298.543	-1003
298.599	-1437
298.656	-1204
298.712	-1064
298.768	-1303
298.824	-911
298.881	-1253
298.937	-1262
298.993	-600
299.050	-1936
299.106	-1185
299.162	-1378
299.218	-1307
299.275	-1356
299.331	-552
299.387	-502
299.443	247
299.500	3252
299.556	3022
299.612	581
299.668	-358
299.724	2600
299.780	4364
299.837	455
299.893	219
299.949	1644
300.005	3966
300.061	2184
300.117	4657
300.173	2576
300.229	-61
300.285	-1176
300.341	385
300.397	-833
300.453	-697
300.510	-832
300.566	-766
300.622	-348
300.678	4277
300.734	7703
300.790	2398
300.845	1335
300.901	1662
300.957	4623
301.013	1635
301.069	-70
301.125	-505
301.181	-885
301.237	-763
301.293	-1044
301.349	-1065
301.405	-927
301.461	-977
301.516	-794
301.572	-1327
301.628	-995
301.684	-1679
301.740	-1024
301.796	-645
301.851	-1006
301.907	-1585
301.963	-1476
302.019	30
302.074	2169
302.130	1961
302.186	690
302.242	-232
302.297	-1089
302.353	-1456
302.409	-1043
302.464	-651
302.520	-1634
302.576	-348
302.631	441
302.687	-983
302.743	-1238
302.798	-1628
302.854	-1527
302.910	-691
302.965	-732
303.021	-1378
303.076	-1492
303.132	-999
303.187	-1540
303.243	-728
303.299	-831
303.354	-1559
303.410	-1045
303.465	-849
303.521	-733
303.576	-1012
303.632	-1390
303.687	-1490
303.743	-173
303.798	-255
303.853	-1153
303.909	-777
303.964	-1443
304.020	-1063
304.075	-1415
304.130	-1461
304.186	-725
304.241	151
304.297	-784
304.352	-1205
304.358	-1164
304.407	-833
304.449	-811
304.463	-800
304.518	-262
304.539	-614
304.573	-1192
304.629	-984
304.630	-984
304.684	-1005
304.720	-935
304.739	-900
304.794	153
304.811	156
304.850	148
304.902	-584
304.905	-633
304.960	-870
304.992	-651
305.015	-483
305.071	-461
305.083	-650
305.126	-1369
305.173	-977
305.181	-899
305.236	-1280
305.264	-941
305.292	-667
305.347	-1335
305.354	-1295
305.402	-882
305.445	-860
305.457	-879
305.512	-766
305.535	-952
305.567	-1152
305.622	-1146
305.626	-1127
305.678	-1042
305.716	-1009
305.733	-907
305.788	-672
305.807	-583
305.843	-477
305.897	-641
305.898	-643
305.953	338
305.988	-245
306.008	-613
306.063	-378
306.078	-450
306.118	-522
306.168	-1216
306.173	-1296
306.228	-704
306.259	-560
306.283	-331
306.338	-781
306.349	-736
306.393	-713
306.440	-917
306.448	-931
306.503	-1010
306.530	-955
306.558	-918
306.613	-883
306.620	-807
306.668	-280
306.711	-157
306.723	-153
306.778	-420
306.801	-541
306.833	-628
306.888	-338
306.892	-337
306.943	-355
306.982	-633
306.997	-738
307.052	-630
307.072	-763
307.107	-919
307.162	129
307.163	121
307.217	-587
307.253	-405
307.272	-319
307.327	-775
307.343	-691
307.381	-383
307.434	136
307.436	158
307.491	-248
307.524	-337
307.546	-416
307.600	-93
307.614	-182
307.655	-393
307.704	-229
307.710	-217
307.765	-550
307.795	-365
307.819	-208
307.874	-776
307.885	-685
307.929	23
307.975	61
307.984	28
308.038	533
308.065	560
308.093	1283
308.148	3032
308.156	3627
308.202	6594
308.246	8909
308.257	8882
308.312	4118
308.336	2563
308.366	1716
308.421	684
308.426	585
308.475	83
308.517	426
308.530	438
308.585	240
308.607	62
308.639	108
308.694	248
308.697	268
308.748	741
308.787	773
308.803	677
308.857	664
308.877	665
308.912	885
308.967	1346
308.967	1350
309.021	2779
309.058	3965
309.076	4578
309.130	7178
309.148	7703
309.185	11446
309.238	17844
309.239	17924
309.293	23503
309.328	23785
309.348	21277
309.402	11743
309.418	9154
309.457	6901
309.508	4790
309.511	4779
309.566	6221
309.598	7187
309.620	9883
309.674	18185
309.688	20377
309.729	18954
309.778	14157
309.783	13703
309.837	7835
309.868	4911
309.892	4322
309.946	3163
309.959	3077
310.001	2696
310.049	1994
310.055	1910
310.109	1589
310.139	1353
310.163	990
310.218	267
310.229	119
310.272	689
310.319	1111
310.326	1039
310.381	835
310.409	589
310.435	538
310.489	527
310.499	534
310.543	487
310.589	486
310.598	530
310.652	567
310.679	655
310.706	614
310.760	459
310.769	418
310.814	730
310.859	1157
310.868	1015
310.923	112
310.948	-394
310.977	5
311.031	955
311.038	1075
311.085	407
311.128	-285
311.139	-123
311.193	804
311.218	1152
311.247	762
311.301	40
311.308	-36
311.356	639
311.398	1088
311.410	1038
311.464	896
311.488	777
311.518	824
311.572	957
311.578	967
311.626	772
311.668	541
311.680	647
311.734	1117
311.758	1321
311.788	1142
311.842	801
311.847	761
311.896	779
311.937	771
311.950	544
312.004	-465
312.027	-895
312.058	-451
312.112	341
312.117	420
312.165	888
312.207	1286
312.297	745
312.386	1126
312.476	534
312.566	320
312.656	602
312.745	640
312.835	976
312.925	301
313.015	812
313.104	83
313.194	869
313.284	28
313.374	576
313.463	920
313.553	1238
313.643	215
313.732	297
313.822	-10
313.912	926
314.001	1347
314.091	733
314.180	1021
314.270	1166
314.360	973
314.449	1160
314.539	127
314.628	1378
314.718	294
314.808	1270
314.897	1091
314.987	1986
315.076	1557
315.166	1708
315.255	1238
315.345	2051
315.434	1195
315.524	1842
315.613	1221
315.703	1957
315.792	3552
315.881	14743
315.971	3232
316.060	1805
316.150	1159
316.239	1275
316.328	1172
316.418	1661
316.507	653
316.597	2563
316.686	1148
316.775	1091
316.865	987
316.954	1398
317.043	1333
317.133	719
317.222	-414
317.311	840
317.400	485
317.490	2090
317.579	998
317.668	898
317.757	1866
317.847	6502
317.936	23257
318.025	6677
318.114	4772
318.203	2971
318.293	1209
318.382	1578
318.471	1856
318.560	2503
318.649	2101
318.738	1240
318.828	970
318.917	1126
319.006	-148
319.095	908
319.184	826
319.273	1519
319.362	426
319.451	1130
319.540	416
319.629	761
319.718	-22
319.807	1168
319.896	-57
319.985	2357
320.074	508
320.163	1436
320.252	134
320.341	760
320.430	187
320.519	1172
320.608	371
320.697	1248
320.786	683
320.875	1919
320.964	2508
321.053	1868
321.142	1552
321.230	2331
321.319	2966
321.408	3080
321.497	3479
321.586	2623
321.675	1338
321.764	1886
321.852	1930
321.941	2039
322.030	1252
322.119	1303
322.207	2243
322.296	4036
322.385	2803
322.474	5260
322.562	5197
322.651	3403
322.740	1815
322.829	2924
322.917	1288
323.006	1757
323.095	1285
323.183	1123
323.272	318
323.361	1098
323.449	1898
323.538	619
323.626	360
323.715	1335
323.804	-141
323.892	403
323.981	572
324.069	1605
324.158	1492
324.246	714
324.335	-28
324.424	-119
324.512	597
324.601	820
324.689	37
324.778	281
324.866	-383
324.954	982
325.043	-57
325.131	493
325.220	915
325.308	953
325.397	991
325.485	417
325.574	580
325.662	1283
325.750	-702
325.839	955
325.927	635
326.015	732
326.104	-417
326.192	916
326.280	175
326.369	797
326.457	99
326.545	886
326.634	202
326.722	1274
326.810	1065
326.898	1063
326.987	744
327.075	936
327.163	1213
327.251	740
327.340	-6
327.428	1130
327.516	1353
327.604	1408
327.692	917
327.781	345
327.869	310
327.957	780
328.045	560
328.133	643
328.221	-441
328.309	120
328.397	703
328.485	881
328.574	1613
328.662	2129
328.750	865
328.838	677
328.926	-30
329.014	609
329.102	460
329.190	766
329.278	622
329.366	783
329.454	-65
329.542	234
329.630	-183
329.718	432
329.806	138
329.893	1229
329.981	599
330.069	365
330.157	897
330.245	1532
330.333	724
330.421	964
330.509	587
330.597	1310
330.684	-330
330.772	250
330.860	-313
330.948	592
331.036	931
331.123	-46
331.211	-73
331.299	91
331.387	411
331.475	1362
331.562	580
331.650	467
331.738	782
331.825	756
331.913	-417
332.001	567
332.089	640
332.176	625
332.264	-113
332.352	785
332.439	-21
332.527	1174
332.614	218
332.702	767
332.790	329
332.877	1098
332.965	1649
333.052	2259
333.140	2191
333.228	6482
333.315	397
333.403	655
333.490	1177
333.578	2082
333.665	9480
333.753	3342
333.840	686
333.928	2245
334.015	1204
334.103	2254
334.190	1844
334.278	3471
334.365	4682
334.452	5357
334.540	2719
334.627	1540
334.715	2853
334.802	4868
334.889	8374
334.977	15602
335.064	9833
335.151	3643
335.239	2012
335.326	1472
335.413	1721
335.501	2505
335.588	1375
335.675	2037
335.762	2382
335.850	3881
335.937	4924
336.024	9738
336.111	20007
336.199	21597
336.286	7508
336.373	4191
336.460	1964
336.547	1534
336.635	1890
336.722	1151
336.809	1054
336.896	893
336.983	501
337.070	989
337.157	1384
337.245	1377
337.332	1298
337.419	811
337.506	1365
337.593	756
337.680	929
337.767	1834
337.854	401
337.941	1452
338.028	464
338.115	145
338.202	738
338.289	550
338.376	73
338.463	1222
338.550	703
338.637	601
338.724	-370
338.811	1133
338.898	700
338.984	1
339.071	645
339.158	740
339.245	-139
339.332	1287
339.419	230
339.506	880
339.593	-140
339.679	1387
339.766	361
339.853	765
339.940	226
340.027	584
340.113	-110
340.200	534
340.287	512
340.374	416
340.460	753
340.547	-92
340.634	-248
340.720	1176
340.807	-253
340.894	1085
340.980	-266
341.067	462
341.154	746
341.240	316
341.327	202
341.414	1401
341.500	169
341.587	1005
341.674	723
341.760	453
341.847	-105
341.933	903
342.020	361
342.106	896
342.193	238
342.279	958
342.366	155
342.452	362
342.539	14
342.625	1061
342.712	53
342.798	489
342.885	-386
342.971	621
343.058	275
343.144	406
343.230	600
343.317	995
343.403	-185
343.490	473
343.576	-218
343.662	682
343.749	42
343.835	648
343.921	-224
344.008	3241
344.094	4689
344.180	1265
344.267	107
344.353	1152
344.439	1308
344.525	752
344.612	961
344.698	881
344.784	-445
344.870	1280
344.957	-326
345.043	1230
345.129	-175
345.215	1762
345.301	959
345.387	955
345.474	355
345.560	173
345.646	-453
345.732	604
345.818	444
345.904	963
345.990	-193
346.076	725
346.162	362
346.249	667
346.335	-1273
346.421	551
346.507	-97
346.593	753
346.679	-1091
346.765	1737
346.851	1709
346.937	23
347.023	1941
347.108	1520
347.194	-51
347.280	1170
347.366	915
347.452	3958
347.538	2530
347.624	3691
347.710	603
347.796	772
347.882	255
347.967	501
348.053	165
348.139	70
348.225	834
348.311	-141
348.397	-46
348.482	1206
348.568	196
348.654	1600
348.740	5002
348.825	3336
348.911	1358
348.997	1647
349.083	2192
349.168	375
349.254	259
349.340	271
349.425	552
349.511	594
349.597	359
349.682	454
349.768	1020
349.854	914
349.939	573
350.025	873
350.110	171
350.196	384
350.282	-728
350.367	620
350.453	-269
350.538	-200
350.624	-402
350.709	1070
350.795	-1256
350.880	645
350.966	580
351.051	305
351.137	560
351.222	993
351.308	-35
351.393	963
351.479	186
351.564	16
351.649	72
351.735	775
351.820	-35
351.906	507
351.991	319
352.076	737
352.162	879
352.247	1295
352.332	-247
352.418	538
352.503	-568
352.588	1603
352.673	460
352.759	41
352.844	122
352.929	267
353.014	-241
353.100	1767
353.185	654
353.270	-55
353.355	249
353.441	629
353.526	81
353.611	973
353.696	-569
353.781	1485
353.866	-1204
353.952	756
354.037	-840
354.122	1100
354.207	-80
354.292	519
354.377	267
354.462	546
354.547	-174
354.632	769
354.717	625
354.802	15
354.887	258
354.972	1409
355.057	-127
355.142	298
355.227	1004
355.312	-73
355.397	-654
355.482	-150
355.567	-854
355.652	1320
355.737	271
355.822	447
355.907	-777
355.991	1126
356.076	-572
356.161	761
356.246	-99
356.331	1008
356.416	-581
356.501	2626
356.585	707
356.670	-1485
356.755	1401
356.840	1004
356.924	1036
357.009	4280
357.094	1873
357.179	-210
357.263	330
357.348	1346
357.433	-831
357.517	1110
357.602	159
357.687	365
357.771	1433
357.856	767
357.941	-3
358.025	1392
358.110	7295
358.195	3300
358.279	-502
358.364	945
358.448	-27
358.533	2070
358.617	-109
358.702	1971
358.787	175
358.871	613
358.956	-449
359.040	494
359.125	-108
359.209	1249
359.294	29
359.378	1498
359.462	663
359.547	1422
359.631	965
359.716	-662
359.800	-44
359.885	1891
359.969	-736
360.053	1145
360.138	1218
360.222	608
360.306	159
360.391	588
360.475	200
360.559	550
360.644	681
360.728	-76
360.812	1868
360.896	2639
360.981	809
361.065	160
361.149	883
361.233	972
361.318	-1206
361.402	-89
361.486	1525
361.570	823
361.654	284
361.739	904
361.823	1340
361.907	4089
361.991	943
362.075	1420
362.159	778
362.243	4854
362.327	11720
362.411	23625
362.495	7135
362.580	2736
362.664	2508
362.748	2174
362.832	3955
362.916	8746
363.000	34142
363.084	57535
363.168	18856
363.252	4600
363.336	2779
363.420	2295
363.503	1901
363.587	2089
363.671	1103
363.755	299
363.839	2683
363.923	1038
364.007	1951
364.091	2519
364.175	2204
364.258	13595
364.342	34985
364.426	82782
364.510	41465
364.594	10823
364.677	4723
364.761	2430
364.845	2546
364.929	1164
365.013	514
365.096	720
365.180	-332
365.264	641
365.347	2899
365.431	1486
365.515	-668
365.598	60
365.682	2100
365.766	-655
365.849	-154
365.933	1492
366.017	2046
366.100	-352
366.184	132
366.267	1634
366.351	46
366.435	168
366.518	103
366.602	923
366.685	701
366.769	1081
366.852	792
366.936	1364
367.019	466
367.103	-335
367.186	923
367.270	414
367.353	331
367.436	2089
367.520	546
367.603	1507
367.687	-422
367.770	-160
367.853	1307
367.937	1848
368.020	840
368.104	-410
368.187	1124
368.270	644
368.353	41
368.437	1441
368.520	659
368.603	590
368.687	-1081
368.770	1093
368.853	-359
368.936	1021
369.020	895
369.103	1026
369.186	-526
369.269	-122
369.352	1254
369.436	-28
369.519	25
369.602	-1104
369.685	1232
369.768	64
369.851	276
369.934	-13
370.018	-794
370.101	-856
370.184	2349
370.267	457
370.350	485
370.433	347
370.516	1874
370.599	8226
370.682	1395
370.765	2130
370.848	1928
370.931	381
371.014	2055
371.097	-929
371.180	1604
371.263	1672
371.346	-639
371.429	1974
371.511	632
371.594	963
371.677	1426
371.760	2609
371.843	726
371.926	3648
372.009	8452
372.091	7305
372.174	2637
372.257	4240
372.340	1471
372.423	2423
372.505	2396
372.588	1852
372.671	2036
372.754	1530
372.836	791
372.919	2343
373.002	1963
373.085	1699
373.167	2076
373.250	1498
373.332	2242
373.415	4570
373.498	6608
373.580	4765
373.663	11881
373.746	11910
373.828	1397
373.911	2607
373.993	457
374.076	1658
374.159	758
374.241	986
374.324	1684
374.406	2071
374.489	2023
374.571	5742
374.654	867
374.736	1751
374.819	1539
374.901	6490
374.983	4527
375.066	2873
375.148	1579
375.231	1466
375.313	2488
375.395	1131
375.478	51
375.560	1958
375.643	1226
375.725	2228
375.807	2143
375.890	3827
375.972	-111
376.054	1355
376.136	950
376.219	557
376.301	1357
376.383	1862
376.465	1678
376.548	460
376.630	575
376.712	2583
376.794	160
376.877	834
376.959	-393
377.041	307
377.123	-675
377.205	970
377.287	273
377.369	664
377.452	681
377.534	1323
377.616	-191
377.698	931
377.780	-383
377.862	1362
377.944	1741
378.026	-922
378.108	1172
378.190	320
378.272	997
378.354	1009
378.436	5
378.518	-387
378.600	146
378.682	985
378.764	274
378.846	433
378.928	-313
379.010	147
379.091	996
379.173	935
379.255	-1107
379.337	332
379.419	167
379.501	1924
379.583	180
379.664	849
379.746	-1436
379.828	1753
379.910	-300
379.991	2075
380.073	125
380.155	659
380.237	-211
380.318	264
380.400	-431
380.482	1372
380.564	-123
380.645	103
380.727	196
380.809	1483
380.890	-209
380.972	-22
381.053	668
381.135	1270
381.217	-220
381.298	2231
381.380	284
381.461	794
381.543	1832
381.624	2337
381.706	815
381.787	1723
381.869	1686
381.951	2023
382.032	4164
382.113	6155
382.195	-386
382.276	3483
382.358	643
382.439	2720
382.521	4490
382.602	6860
382.684	4726
382.765	8334
382.846	26895
382.928	73863
383.009	37546
383.090	25777
383.172	91072
383.253	130346
383.334	35739
383.416	12061
383.497	8677
383.578	9631
383.659	20035
383.741	75326
383.822	174681
383.903	85697
383.984	16701
384.066	10549
384.147	4320
384.228	4802
384.309	2561
384.390	3287
384.471	2452
384.553	2240
384.634	1347
384.715	3391
384.796	1496
384.877	1658
384.958	1263
385.039	876
385.120	806
385.201	2031
385.282	1699
385.363	2932
385.444	1550
385.525	2805
385.606	2946
385.687	2862
385.768	2583
385.849	1320
385.930	4585
386.011	6401
386.092	576
386.173	1563
386.254	478
386.335	2157
386.416	766
386.496	1699
386.577	1108
386.658	1407
386.739	-624
386.820	2378
386.901	200
386.981	2254
387.062	1215
387.143	1934
387.224	2533
387.304	3986
387.385	3956
387.466	1874
387.547	3144
387.627	2482
387.708	2775
387.789	3518
387.869	2810
387.950	3262
388.031	1485
388.111	-179
388.192	2167
388.273	2325
388.353	707
388.434	1249
388.514	417
388.595	2486
388.676	1869
388.756	2064
388.837	1249
388.917	1496
388.998	-927
389.078	1891
389.159	744
389.239	231
389.320	2442
389.400	-530
389.480	557
389.561	914
389.641	1126
389.722	1609
389.802	-257
389.883	2105
389.963	1637
390.043	1244
390.124	-512
390.204	2198
390.284	846
390.365	331
390.445	292
390.525	205
390.605	1381
390.686	247
390.766	1269
390.846	2704
390.927	-172
391.007	-36
391.087	649
391.167	-164
391.247	-1296
391.328	1356
391.408	1382
391.488	1854
391.568	-713
391.648	609
391.728	1758
391.808	2299
391.888	327
391.969	1303
392.049	826
392.129	2781
392.209	1130
392.289	3089
392.369	1998
392.449	3065
392.529	1902
392.609	4307
392.689	3215
392.769	5073
392.849	6019
392.929	8850
393.009	10476
393.089	14715
393.169	32598
393.248	93140
393.328	252251
393.408	247847
393.488	89582
393.568	30310
393.648	14414
393.728	9355
393.807	5429
393.887	5932
393.967	4283
394.047	3529
394.127	2553
394.206	2705
394.286	4239
394.366	17689
394.446	18728
394.525	3591
394.605	1296
394.685	2017
394.764	2301
394.844	4110
394.924	5436
395.003	2712
395.083	1128
395.163	2095
395.242	510
395.322	1525
395.402	-727
395.481	2801
395.561	793
395.640	8792
395.720	16882
395.799	7002
395.879	1435
395.958	2212
396.038	5648
396.117	25248
396.197	25553
396.276	6946
396.356	2839
396.435	4391
396.515	6586
396.594	9756
396.673	24603
396.753	91171
396.832	225006
396.912	151543
396.991	37660
397.070	15357
397.150	5918
397.229	7917
397.308	14224
397.388	26595
397.467	10859
397.546	3689
397.625	371
397.705	4138
397.784	1694
397.863	865
397.942	873
398.022	1094
398.101	561
398.180	1472
398.259	-634
398.338	1169
398.417	-376
398.497	1007
398.576	1152
398.655	-462
398.734	195
398.813	685
398.892	19
398.971	1657
399.050	-783
399.129	-273
399.208	590
399.287	951
399.366	-550
399.445	165
399.524	541
399.603	-1486
399.682	-317
399.761	-266
399.840	1462
399.919	1023
399.998	-262
400.077	-276
400.156	-980
400.235	2043
400.313	-1079
400.392	-710
400.471	182
400.550	753
400.629	-1315
400.708	582
400.786	-656
400.865	546
400.944	-1419
401.023	1482
401.102	109
401.180	571
401.259	-536
401.338	24
401.416	-48
401.495	-1459
401.574	518
401.652	-26
401.731	318
401.810	-1320
401.888	-519
401.967	-333
402.046	-605
402.124	398
402.203	-1037
402.281	786
402.360	-365
402.438	760
402.517	-1267
402.596	239
402.674	-53
402.753	-802
402.831	-713
402.910	1322
402.988	-1416
403.066	651
403.145	1169
403.223	1823
403.302	-238
403.380	850
403.459	359
403.537	-356
403.615	-1065
403.694	-1125
403.772	835
403.850	363
403.929	-534
404.007	-85
404.085	539
404.164	-571
404.242	-699
404.320	642
404.398	987
404.477	227
404.555	1684
404.633	1619
404.711	778
404.789	1458
404.868	-1195
404.946	-1397
405.024	-201
405.102	-843
405.180	-1068
405.258	-1512
405.336	211
405.415	-902
405.493	-385
405.571	-54
405.649	-1019
405.727	-1298
405.805	786
405.883	155
405.961	-330
406.039	-461
406.117	-1744
406.195	-1332
406.273	-1544
406.351	1740
406.429	525
406.507	-294
406.585	-834
406.663	249
406.740	-425
406.818	-556
406.896	-1489
406.974	499
407.052	-1870
407.130	960
407.208	405
407.285	-201
407.363	-1977
407.441	-269
407.519	-1028
407.596	-264
407.674	-112
407.752	1599
407.830	873
407.907	60
407.985	-2253
408.063	-964
408.141	-1051
408.218	-92
408.296	-1964
408.373	-710
408.451	-165
408.529	-344
408.606	-560
408.684	98
408.762	142
408.839	313
408.917	128
408.994	-807
409.072	-581
409.149	932
409.227	3107
409.304	5257
409.382	3951
409.459	5105
409.537	7823
409.614	5152
409.692	3282
409.769	3159
409.846	7775
409.924	10755
410.001	3790
410.079	2645
410.156	1913
410.233	1166
410.311	-408
410.388	305
410.465	148
410.543	-521
410.620	642
410.697	321
410.775	-230
410.852	-502
410.929	1554
411.006	1700
411.083	357
411.161	320
411.238	136
411.315	-145
411.392	-317
411.469	940
411.547	-397
411.624	-1501
411.701	-933
411.778	198
411.855	46
411.932	-548
412.009	-1233
412.086	482
412.163	-616
412.240	-323
412.317	239
412.394	-867
412.471	677
412.548	-736
412.625	-155
412.702	-950
412.779	-137
412.856	-158
412.933	-912
413.010	538
413.087	-735
413.164	-360
413.241	288
413.318	-1526
413.395	689
413.471	-517
413.548	-215
413.625	-245
413.702	-1661
413.779	-232
413.855	-1040
413.932	8
414.009	-1361
414.086	-115
414.162	-588
414.239	-87
414.316	-1072
414.393	135
414.469	-1859
414.546	-1031
414.623	-998
414.699	-769
414.776	-699
414.853	-322
414.929	-1422
415.006	-819
415.082	-1455
415.159	-151
415.236	-519
415.312	184
415.389	-1022
415.465	-943
415.542	-1167
415.618	-1083
415.695	-833
415.771	-1017
415.848	-1094
415.924	-526
416.000	-1327
416.077	-267
416.153	-1332
416.230	-1221
416.306	-1045
416.383	-1012
416.459	-592
416.535	-1538
416.612	-1119
416.688	-816
416.764	-991
416.841	-447
416.917	-806
416.993	421
417.069	-305
417.146	-974
417.222	-1503
417.298	61
417.374	-1628
417.451	262
417.527	-677
417.603	-1279
417.679	-1354
417.755	-427
417.831	-820
417.908	-474
417.984	-968
418.060	-1372
418.136	-293
418.212	-1639
418.288	-919
418.364	-314
418.440	-1779
418.516	-80
418.592	-784
418.668	-918
418.744	-752
418.820	-336
418.896	-860
418.972	-1224
419.048	-1034
419.124	247
419.200	-1402
419.276	-647
419.352	-1234
419.428	-356
419.504	-1391
419.579	-260
419.655	-883
419.731	-528
419.807	-217
419.883	29
419.959	-975
420.034	-375
420.110	-248
420.186	-367
420.262	-244
420.337	-349
420.413	-798
420.489	520
420.565	508
420.640	-140
420.716	164
420.792	-813
420.867	846
420.943	9
421.019	-355
421.094	806
421.170	526
421.245	684
421.321	127
421.397	1573
421.472	2675
421.548	1588
421.623	2073
421.699	2882
421.774	3159
421.850	3508
421.925	4349
422.001	5921
422.076	6239
422.152	8884
422.227	12067
422.302	19016
422.378	27652
422.453	48255
422.529	86548
422.604	130745
422.679	126404
422.755	125452
422.830	89169
422.905	49781
422.981	30501
423.056	20713
423.131	14467
423.207	10301
423.282	6950
423.357	7921
423.432	4799
423.508	4233
423.583	3103
423.658	2720
423.733	2711
423.808	3041
423.883	2600
423.959	2303
424.034	3356
424.109	4338
424.184	1148
424.259	1305
424.334	585
424.409	408
424.484	146
424.559	413
424.634	-53
424.709	512
424.784	-156
424.859	398
424.934	-699
425.009	-278
425.084	42
425.159	-133
425.234	156
425.309	-463
425.384	-462
425.459	-324
425.534	-348
425.609	-778
425.683	-397
425.758	-24
425.833	-379
425.908	-137
425.983	-601
426.058	758
426.132	-1159
426.207	-14
426.282	89
426.357	-1356
426.431	-1019
426.506	187
426.581	-1115
426.655	-200
426.730	-320
426.805	-1136
426.879	-630
426.954	253
427.029	-1635
427.103	220
427.178	477
427.253	-266
427.327	-539
427.402	-1172
427.476	-1055
427.551	-700
427.625	-847
427.700	57
427.774	-1722
427.849	139
427.923	-1115
427.998	-521
428.072	-901
428.147	1546
428.221	11391
428.296	41735
428.370	20019
428.444	991
428.519	-442
428.593	-1081
428.667	-535
428.742	-468
428.816	2990
428.890	24453
428.965	35697
429.039	6593
429.113	-373
429.188	-747
429.262	-601
429.336	-526
429.410	-860
429.485	-956
429.559	-1142
429.633	-329
429.707	-464
429.781	3005
429.855	22148
429.930	32076
430.004	6695
430.078	2682
430.152	12791
430.226	53778
430.300	50516
430.374	8544
430.448	727
430.522	-290
430.596	147
430.670	6381
430.744	30606
430.818	31590
430.892	3492
430.966	-645
431.040	-513
431.114	-1701
431.188	-854
431.262	-1043
431.336	-1504
431.410	-171
431.484	-1517
431.557	88
431.631	-1432
431.705	386
431.779	8217
431.853	39551
431.927	24260
432.000	2473
432.074	-743
432.148	-986
432.222	-1701
432.295	-858
432.369	-1334
432.443	-1591
432.516	-951
432.590	337
432.664	-839
432.737	-1247
432.811	-2311
432.885	-1170
432.958	-1811
433.032	-911
433.106	-1212
433.179	-1640
433.253	-965
433.326	-1537
433.400	-1107
433.473	-351
433.547	-1748
433.620	-1814
433.694	-2490
433.767	-280
433.841	-1482
433.914	-1223
433.988	-1310
434.061	-1430
434.134	-1619
434.208	-1467
434.281	-1884
434.355	-1470
434.428	-1100
434.501	-1349
434.575	-1400
434.648	-1416
434.721	-1816
434.795	-1037
434.868	-1692
434.941	-495
435.014	-1843
435.088	-374
435.161	-899
435.234	189
435.307	-721
435.381	12
435.454	316
435.527	4253
435.600	3166
435.673	3032
435.746	440
435.819	751
435.892	-1140
435.966	-479
436.039	-837
436.112	-1047
436.185	-1052
436.258	-1216
436.331	-1369
436.404	-669
436.477	-1356
436.550	-1503
436.623	-742
436.696	-1688
436.769	-1332
436.842	-1484
436.915	-1643
436.987	-935
437.060	-1189
437.133	-656
437.206	-2052
437.279	-626
437.352	-1417
437.425	-1481
437.498	-1428
437.570	-1233
437.643	-2000
437.716	-891
437.789	-1029
437.861	-1223
437.934	-2154
438.007	-1537
438.080	-930
438.152	-1426
438.225	-457
438.298	-178
438.370	-239
438.443	398
438.516	-1779
438.588	-1171
438.661	-1931
438.734	-1477
438.806	-1805
438.879	-797
438.951	-2017
439.024	-1025
439.096	-2244
439.169	-1500
439.241	-1463
439.314	-1567
439.386	-2756
439.459	-1701
439.531	-1701
439.604	-1216
439.676	-1431
439.749	-1348
439.821	-1574
439.893	-330
439.966	-1071
440.038	-1369
440.110	-455
440.183	-634
440.255	-2103
440.327	-414
440.400	-770
440.472	-322
440.544	-416
440.617	-508
440.689	221
440.761	-929
440.833	-1064
440.905	-487
440.978	-1154
441.050	-1176
441.122	-556
441.194	-1076
441.266	-1680
441.338	-1139
441.411	-1186
441.483	-257
441.555	-1453
441.627	-485
441.699	-2119
441.771	-601
441.843	-1502
441.915	-1191
441.987	-1164
442.059	-333
442.131	-900
442.203	-448
442.275	-929
442.347	1361
442.419	4572
442.491	28854
442.563	63875
442.635	22396
442.706	2441
442.778	770
442.850	-20
442.922	311
442.994	-418
443.066	-239
443.137	-352
443.209	867
443.281	1894
443.353	7040
443.425	31671
443.496	100368
443.568	100739
443.640	37771
443.711	5429
443.783	1590
443.855	718
443.926	447
443.998	-932
444.070	109
444.141	-590
444.213	-1146
444.285	-691
444.356	-51
444.428	-750
444.499	-798
444.571	-1828
444.642	-345
444.714	-645
444.785	431
444.857	-683
444.928	-320
445.000	-306
445.071	830
445.143	961
445.214	1664
445.285	4189
445.357	14919
445.428	62393
445.500	122608
445.571	87504
445.642	56671
445.714	16403
445.785	4244
445.856	580
445.928	471
445.999	-436
446.070	-1187
446.141	-481
446.213	-793
446.284	-959
446.355	-227
446.426	-1624
446.497	-447
446.569	-1751
446.640	-957
446.711	-1527
446.782	-916
446.853	-1537
446.924	-648
446.995	-1487
447.066	-1519
447.138	-1775
447.209	-1618
447.280	-1935
447.351	-1470
447.422	-1393
447.493	-1524
447.564	-1358
447.635	-1437
447.706	-1804
447.777	-925
447.847	-2616
447.918	-1140
447.989	-1597
448.060	-1788
448.131	-1150
448.202	-1355
448.273	-1630
448.344	-629
448.414	-1160
448.485	-1277
448.556	-1767
448.627	-1100
448.698	-851
448.768	-1291
448.839	-1654
448.910	-1725
448.981	-1373
449.051	-1339
449.122	-1638
449.193	-1632
449.263	-1942
449.334	-1083
449.405	-2219
449.475	-592
449.546	-848
449.616	-1498
449.687	-1384
449.758	-1278
449.828	-1768
449.899	-1815
449.969	-1761
450.040	-1289
450.110	-2350
450.181	-718
450.251	-1944
450.322	-1364
450.392	-1198
450.463	-798
450.533	-1602
450.604	-1501
450.674	-1735
450.744	-671
450.815	-839
450.885	-1293
450.955	-923
451.026	-820
451.096	-1985
451.166	-785
451.237	-1738
451.307	-942
451.377	-832
451.447	-1383
451.518	-1763
451.588	-813
451.658	-1033
451.728	-1481
451.799	-2437
451.869	-1326
451.939	-1406
452.009	-582
452.079	-1884
452.149	-315
452.219	-1307
452.289	-237
452.360	-1662
452.430	-1106
452.500	-1526
452.570	141
452.640	2040
452.710	8840
452.780	8746
452.850	2619
452.920	125
452.990	-331
453.060	-1261
453.129	-1677
453.199	-2754
453.269	-126
453.339	-338
453.409	-561
453.479	-1179
453.549	-691
453.619	-1376
453.688	-1429
453.758	-1437
453.828	-1419
453.898	-2023
453.968	-877
454.037	-1237
454.087	-1482
454.107	-1598
454.168	-1948
454.177	-2023
454.247	-1929
454.249	-1885
454.316	-1337
454.330	-1273
454.386	-1035
454.411	-1214
454.456	-1606
454.492	-1368
454.525	-1192
454.574	-1199
454.595	-1214
454.655	-1176
454.665	-1182
454.734	-1654
454.736	-1619
454.804	-951
454.817	-1023
454.873	-1362
454.898	-1021
454.943	-488
454.979	-949
455.013	-1386
455.060	-1270
455.082	-1244
455.141	-1532
455.152	-1596
455.221	-577
455.222	-567
455.291	-1475
455.303	-1427
455.360	-1272
455.384	-983
455.430	-618
455.465	-598
455.499	-660
455.546	-1158
455.569	-1329
455.627	-2
455.638	215
455.707	-825
455.708	-807
455.777	-542
455.789	-567
455.846	-763
455.869	-779
455.916	-712
455.950	-548
455.985	-613
456.031	-297
456.054	-53
456.112	-490
456.124	-612
456.193	437
456.193	424
456.262	-417
456.274	-306
456.332	80
456.355	-280
456.401	-1022
456.436	-525
456.470	-115
456.516	-388
456.540	-545
456.597	-219
456.609	-140
456.678	-97
456.678	-112
456.747	244
456.759	274
456.817	128
456.840	-60
456.886	-388
456.920	-176
456.955	-16
457.001	270
457.024	352
457.082	170
457.093	121
457.162	777
457.163	794
457.232	-18
457.243	53
457.301	695
457.324	495
457.370	-202
457.405	198
457.439	748
457.485	431
457.508	319
457.566	1676
457.577	1982
457.646	2918
457.647	2956
457.715	9216
457.727	10618
457.784	20140
457.808	26393
457.853	31276
457.889	33945
457.922	30918
457.969	19579
457.991	21528
458.050	30475
458.060	32096
458.129	54678
458.130	55360
458.198	44040
458.211	38210
458.267	18761
458.292	11699
458.336	7977
458.372	8458
458.405	14923
458.453	24429
458.474	31644
458.533	58444
458.543	59754
458.611	80372
458.614	80721
458.680	40054
458.694	29152
458.749	12675
458.775	8478
458.818	4869
458.855	3738
458.887	3131
458.936	2713
458.955	2572
459.016	1592
459.024	1537
459.093	2687
459.097	2692
459.162	1999
459.177	1990
459.230	1879
459.257	1660
459.299	1561
459.338	1731
459.368	1724
459.418	1402
459.437	1307
459.499	1660
459.505	1689
459.574	1209
459.579	1255
459.643	1781
459.659	1739
459.711	1741
459.740	2041
459.780	2025
459.820	1723
459.849	1881
459.900	2138
459.917	2099
459.981	2057
459.986	2025
460.054	2156
460.061	2089
460.123	1821
460.141	1989
460.191	2477
460.222	2523
460.260	2154
460.302	1580
460.328	1618
460.382	2484
460.397	2567
460.462	2523
460.465	2553
460.534	3101
460.543	3158
460.602	7095
460.623	8759
460.671	13112
460.703	16882
460.739	14705
460.783	10495
460.808	8748
460.864	3520
460.876	3201
460.944	2761
460.945	2747
461.013	2309
461.024	2176
461.081	2121
461.104	2416
461.150	2681
461.184	2335
461.218	2242
461.264	2407
461.286	2404
461.345	2536
461.355	2437
461.423	1949
461.425	1915
461.491	1940
461.505	2203
461.559	2566
461.585	2418
461.628	2284
461.665	2321
461.696	2436
461.745	2471
461.764	2460
461.825	2932
461.832	2992
461.901	2673
461.905	2704
461.969	2908
461.985	2861
462.037	3404
462.065	3828
462.105	3399
462.145	2866
462.173	2922
462.225	2870
462.241	2847
462.305	3077
462.310	3067
462.378	2750
462.385	2720
462.446	3246
462.465	3412
462.514	3347
462.545	3218
462.582	3010
462.625	2897
462.650	2828
462.705	2351
462.718	2257
462.785	2479
462.786	2489
462.854	2369
462.865	2401
462.922	2409
462.945	2400
462.990	2967
463.025	3222
463.058	3105
463.104	3249
463.126	3212
463.184	2838
463.194	2809
463.262	2569
463.264	2570
463.330	3319
463.344	3418
463.398	3829
463.424	3953
463.466	3349
463.504	3060
463.533	3355
463.583	3459
463.601	3507
463.663	3997
463.669	3920
463.737	2824
463.743	2718
463.805	3248
463.823	3432
463.873	3859
463.903	3971
463.940	3478
463.982	3145
464.008	3408
464.062	3821
464.076	3847
464.142	3807
464.144	3794
464.211	3004
464.221	2926
464.279	3131
464.301	3132
464.347	3474
464.381	3805
464.414	3511
464.461	3141
464.482	3380
464.540	3842
464.550	3776
464.617	3179
464.620	3154
464.685	3524
464.699	3615
464.753	3783
464.779	3881
464.820	4018
464.859	3954
464.888	3427
464.938	2656
464.956	3141
465.018	4819
465.023	4796
465.091	4464
465.098	4412
465.158	4122
465.177	4055
465.226	4248
465.257	4270
465.293	4471
465.336	4652
465.361	4470
465.416	4227
465.428	4234
465.495	4110
465.496	4121
465.563	4232
465.575	4261
465.631	4203
465.654	4192
465.698	4450
465.734	4615
465.765	4612
465.813	4434
465.833	4326
465.893	4224
465.900	4266
465.968	4360
465.972	4359
466.035	4144
466.052	4072
466.102	4112
466.131	4142
466.170	4156
466.210	4082
466.237	4190
466.290	4457
466.304	4432
466.369	4127
466.372	4164
466.439	5041
466.449	5144
466.506	4683
466.528	4514
466.573	4807
466.607	4964
466.641	5124
466.687	5385
466.708	5437
466.766	5432
466.775	5418
466.842	5304
466.845	5285
466.909	4618
466.925	4441
466.977	4974
467.004	5248
467.044	5122
467.083	4970
467.111	5231
467.163	5681
467.178	5704
467.242	5753
467.245	5753
467.312	5506
467.321	5463
467.379	5111
467.400	4965
467.446	5585
467.480	6016
467.559	5941
467.638	5180
467.717	6339
467.796	5385
467.875	5664
467.955	4916
468.034	6401
468.113	6924
468.192	9745
468.271	8892
468.350	13889
468.429	20079
468.508	22602
468.588	12662
468.667	8585
468.746	5948
468.825	6627
468.904	6270
468.983	5310
469.062	4926
469.141	6963
469.220	5159
469.299	5174
469.378	4705
469.456	7073
469.535	5897
469.614	5298
469.693	5094
469.772	6136
469.851	6485
469.930	7209
470.009	6420
470.088	6613
470.166	7901
470.245	12392
470.324	13936
470.403	9330
470.482	7491
470.560	6193
470.639	5404
470.718	6780
470.797	5866
470.875	5551
470.954	5080
471.033	5524
471.111	5629
471.190	5746
471.269	5410
471.347	5429
471.426	5848
471.505	5381
471.583	4900
471.662	6197
471.740	4435
471.819	5542
471.898	5147
471.976	6280
472.055	4924
472.133	5177
472.212	5770
472.290	5663
472.369	5265
472.447	5973
472.526	5040
472.604	6173
472.683	4801
472.761	5888
472.839	4793
472.918	5938
472.996	5645
473.075	6996
473.153	5271
473.231	5045
473.310	6392
473.388	5333
473.466	5113
473.545	6294
473.623	5895
473.701	5915
473.780	5815
473.858	5064
473.936	7395
474.014	5383
474.093	5623
474.171	6823
474.249	5396
474.327	6092
474.405	5397
474.484	5558
474.562	5153
474.640	6535
474.718	5032
474.796	5439
474.874	5262
474.952	5062
475.030	5165
475.108	5464
475.187	5387
475.265	6154
475.343	6313
475.421	6472
475.499	5578
475.577	5545
475.655	5383
475.733	5706
475.811	5468
475.889	6570
475.966	6246
476.044	5193
476.122	5199
476.200	5368
476.278	4444
476.356	5448
476.434	4903
476.512	5744
476.590	5910
476.667	6764
476.745	4353
476.823	6836
476.901	5192
476.979	5985
477.056	5838
477.134	5781
477.212	5141
477.290	5430
477.367	4796
477.445	5446
477.523	4546
477.601	4449
477.678	5629
477.756	6305
477.834	5626
477.911	5244
477.989	5398
478.066	5605
478.144	4512
478.222	4910
478.299	4791
478.377	5213
478.454	5764
478.532	5732
478.609	4457
478.687	5574
478.764	5491
478.842	5107
478.919	4419
478.997	5312
479.074	5040
479.152	5689
479.229	5381
479.307	5437
479.384	5256
479.461	5551
479.539	4850
479.616	4593
479.694	5642
479.771	5719
479.848	4739
479.926	3474
480.003	5991
480.080	5597
480.157	5229
480.235	4239
480.312	5135
480.389	4922
480.467	4970
480.544	4518
480.621	5364
480.698	6327
480.775	4936
480.853	5632
480.930	4892
481.007	5529
481.084	4610
481.161	4808
481.238	4748
481.315	5207
481.392	4960
481.470	4837
481.547	4195
481.624	5554
481.701	5441
481.778	5188
481.855	4078
481.932	6136
482.009	5529
482.086	6223
482.163	6750
482.240	7385
482.317	8137
482.393	6139
482.470	4929
482.547	6564
482.624	5220
482.701	5909
482.778	5959
482.855	6160
482.932	4588
483.009	6399
483.085	6027
483.162	7547
483.239	6807
483.316	7202
483.393	7493
483.469	6195
483.546	5721
483.623	6001
483.699	4352
483.776	5159
483.853	4597
483.930	4514
484.006	4495
484.083	6279
484.160	6455
484.236	9309
484.313	6750
484.389	6458
484.466	7470
484.543	7892
484.619	10484
484.696	13390
484.772	9110
484.849	7741
484.925	6151
485.002	6593
485.078	6263
485.155	6034
485.231	4906
485.308	5518
485.384	4324
485.461	5840
485.537	5097
485.614	7126
485.690	5423
485.766	5188
485.843	5390
485.919	5634
485.995	5690
486.072	6253
486.148	4534
486.224	5114
486.301	5611
486.377	5168
486.453	4641
486.530	5929
486.606	7048
486.682	6215
486.758	6127
486.835	5829
486.911	4720
486.987	7883
487.063	7461
487.139	7620
487.215	8032
487.292	10812
487.368	10694
487.444	13189
487.520	17009
487.596	25041
487.672	63731
487.748	209623
487.824	292509
487.900	73904
487.976	20915
488.052	12092
488.128	9230
488.204	7074
488.280	7185
488.356	7932
488.432	5971
488.508	6313
488.584	5454
488.660	5794
488.736	5921
488.812	5176
488.888	6354
488.964	5411
489.039	5159
489.115	6471
489.191	5170
489.267	5459
489.343	4983
489.418	5658
489.494	5313
489.570	3751
489.646	6069
489.722	5107
489.797	5561
489.873	5927
489.949	5746
490.024	6320
490.100	5380
490.176	5924
490.251	5025
490.327	6103
490.403	5167
490.478	5462
490.554	5121
490.629	5626
490.705	4332
490.781	5391
490.856	4850
490.932	4796
491.007	5191
491.083	5082
491.158	5341
491.234	5046
491.309	6136
491.385	4444
491.460	4335
491.536	5968
491.611	4088
491.686	6109
491.762	5844
491.837	5526
491.913	6110
491.988	5773
492.063	4566
492.139	5031
492.214	5663
492.289	6373
492.365	5177
492.440	5084
492.515	4943
492.590	5460
492.666	4649
492.741	5630
492.816	4420
492.891	4391
492.967	5125
493.042	5265
493.117	4874
493.192	6112
493.267	7181
493.342	8366
493.418	8459
493.493	6338
493.568	5494
493.643	5161
493.718	4605
493.793	5223
493.868	5017
493.943	5197
494.018	5837
494.093	4939
494.168	5471
494.243	4989
494.318	5606
494.393	6089
494.468	6393
494.543	6690
494.618	5640
494.693	5873
494.768	5166
494.842	5837
494.917	6383
494.992	6056
495.067	5048
495.142	5767
495.217	4967
495.292	5702
495.366	5464
495.441	5229
495.516	5907
495.591	6856
495.665	6691
495.740	8080
495.815	5811
495.890	5816
495.964	4166
496.039	8186
496.114	6785
496.188	8066
496.263	6324
496.338	6114
496.412	5753
496.487	6469
496.561	5559
496.636	5764
496.710	6340
496.785	5998
496.860	6164
496.934	5822
497.009	6538
497.083	6218
497.158	6332
497.232	6964
497.307	6933
497.381	8617
497.455	8336
497.530	7083
497.604	6233
497.679	6389
497.753	6164
497.827	4470
497.902	4431
497.976	6847
498.050	8094
498.125	11993
498.199	10738
498.273	6835
498.348	7646
498.422	7415
498.496	8693
498.570	10016
498.645	6371
498.719	3546
498.793	5545
498.867	5642
498.941	5554
499.016	6639
499.090	9475
499.164	7740
499.238	5857
499.312	6699
499.386	7262
499.460	8303
499.534	9305
499.609	10517
499.683	6959
499.757	5148
499.831	4748
499.905	7573
499.979	6726
500.053	4641
500.127	5305
500.201	4880
500.275	6217
500.349	6587
500.422	7068
500.496	8551
500.570	9563
500.644	15386
500.718	12890
500.792	5718
500.866	4085
500.940	3920
501.013	4517
501.087	3802
501.161	4187
501.235	1797
501.309	5871
501.382	5099
501.456	4942
501.530	4292
501.603	3173
501.677	3061
501.751	2417
501.825	4888
501.898	3399
501.972	3792
502.046	2929
502.119	3032
502.193	4343
502.266	3524
502.340	4164
502.413	3927
502.487	3760
502.561	3392
502.634	3372
502.708	4101
502.781	3284
502.855	4246
502.928	2614
503.002	4362
503.075	2230
503.149	3045
503.222	3227
503.295	3797
503.369	3366
503.442	4363
503.516	5217
503.589	6583
503.662	6216
503.736	7241
503.809	9740
503.882	10749
503.956	16761
504.029	36552
504.102	116257
504.175	159248
504.249	45706
504.322	16483
504.395	9239
504.468	7616
504.542	5700
504.615	3552
504.688	4857
504.761	3261
504.834	4746
504.907	3315
504.980	3282
505.053	2466
505.127	749
505.200	5441
505.273	2156
505.346	3016
505.419	2544
505.492	4239
505.565	3371
505.638	3232
505.711	1553
505.784	2171
505.857	3053
505.930	3894
506.003	1008
506.076	3804
506.149	2770
506.221	1819
506.294	3910
506.367	1443
506.440	4109
506.513	3490
506.586	1962
506.659	2408
506.731	2465
506.804	2517
506.877	1623
506.950	2735
507.022	3784
507.095	1777
507.168	2922
507.241	3400
507.313	2219
507.386	2500
507.459	3726
507.531	3169
507.604	1722
507.677	3777
507.749	561
507.822	3105
507.894	2937
507.967	4321
508.040	2599
508.112	3724
508.185	2826
508.257	1561
508.330	3988
508.402	2341
508.475	2402
508.547	3370
508.620	2002
508.692	3188
508.765	2360
508.837	2200
508.909	3643
508.982	2502
509.054	3227
509.127	3192
509.199	3035
509.271	1677
509.344	1797
509.416	2921
509.488	1839
509.560	3934
509.633	2629
509.705	2919
509.777	2268
509.849	2904
509.922	1835
509.994	1785
510.066	3378
510.138	1080
510.210	4610
510.283	2702
510.355	3037
510.427	4136
510.499	3290
510.571	2786
510.643	1354
510.715	3739
510.787	1486
510.859	3902
510.931	2978
511.003	3182
511.076	3297
511.148	2605
511.219	1741
511.291	3510
511.363	3429
511.435	2575
511.507	2037
511.579	3431
511.651	3055
511.723	3453
511.795	3436
511.867	2728
511.939	1470
512.010	1956
512.082	3345
512.154	1711
512.226	2567
512.298	4051
512.369	1565
512.441	3736
512.513	2070
512.585	1522
512.656	3514
512.728	2633
512.800	2694
512.871	3281
512.943	3361
513.015	1014
513.086	2780
513.158	3522
513.230	1715
513.301	2574
513.373	3028
513.444	3147
513.516	3182
513.588	2130
513.659	3230
513.731	2951
513.802	2014
513.874	4530
513.945	2299
514.016	1969
514.088	3130
514.159	2401
514.231	3613
514.302	2675
514.374	3921
514.445	1663
514.516	4145
514.588	1830
514.659	2892
514.730	3073
514.802	4192
514.873	1098
514.944	5499
515.016	3406
515.087	2235
515.158	2416
515.229	5100
515.301	1495
515.372	3501
515.443	2668
515.514	2873
515.585	1761
515.656	2833
515.728	3948
515.799	1997
515.870	4003
515.941	4221
516.012	3904
516.083	4987
516.154	3449
516.225	5410
516.296	8060
516.367	6051
516.438	7876
516.509	10659
516.580	16894
516.651	65804
516.722	203623
516.793	62243
516.864	13392
516.935	13918
517.006	16084
517.077	20765
517.148	53830
517.219	259554
517.289	328527
517.360	39277
517.431	12520
517.502	7786
517.573	8503
517.643	7417
517.714	6776
517.785	8471
517.856	8173
517.926	13419
517.997	14156
518.068	17380
518.138	25669
518.209	41409
518.280	167596
518.350	521628
518.421	168902
518.492	29610
518.562	20251
518.633	20884
518.703	28004
518.774	71649
518.845	202912
518.915	167314
518.986	37734
519.056	16130
519.127	12104
519.197	7896
519.268	7024
519.338	6435
519.408	6052
519.479	4474
519.549	3771
519.620	5732
519.690	2380
519.760	3750
519.831	3428
519.901	2758
519.971	3625
520.042	3623
520.112	2907
520.182	3545
520.253	3084
520.323	1797
520.393	1198
520.463	4179
520.534	129
520.604	4721
520.674	4096
520.744	2175
520.814	2410
520.885	3000
520.955	2686
521.025	3143
521.095	3056
521.165	3849
521.235	2446
521.305	1538
521.375	2634
521.445	3315
521.515	2067
521.585	4188
521.655	889
521.725	3901
521.795	3595
521.865	291
521.935	4941
522.005	2018
522.075	2616
522.145	3536
522.215	1873
522.285	3157
522.355	2731
522.424	2817
522.494	2571
522.564	3184
522.634	2434
522.704	4876
522.774	2327
522.843	3237
522.913	3245
522.983	1444
523.053	2507
523.122	4069
523.192	2486
523.262	2643
523.331	1733
523.401	3397
523.471	3492
523.540	3262
523.610	1739
523.680	3944
523.749	2229
523.819	3928
523.888	2611
523.958	2543
524.027	3208
524.097	2170
524.166	2823
524.236	1574
524.305	3995
524.375	2110
524.444	1683
524.514	5096
524.583	2202
524.653	2553
524.722	3432
524.791	1489
524.861	5180
524.930	2302
524.999	3145
525.069	4344
525.138	2980
525.207	3143
525.277	3281
525.346	3966
525.415	5537
525.484	5815
525.554	5452
525.623	8074
525.692	9876
525.761	10597
525.830	15093
525.900	19368
525.969	30711
526.038	59294
526.107	133014
526.176	358651
526.245	240346
526.314	70352
526.383	182799
526.452	217639
526.522	344656
526.591	261611
526.660	39800
526.729	24469
526.797	28771
526.867	41223
526.935	133810
527.004	497169
527.073	255914
527.142	30976
527.211	14369
527.280	10370
527.349	8437
527.418	4545
527.487	6640
527.555	3850
527.624	3818
527.693	2553
527.762	5534
527.831	2817
527.899	5178
527.968	4120
528.037	2548
528.106	4705
528.174	3969
528.243	4158
528.312	3750
528.380	3114
528.449	2783
528.518	4957
528.586	2237
528.655	4549
528.723	3200
528.792	3125
528.861	1867
528.929	1603
528.998	3878
529.066	3252
529.135	3333
529.203	2862
529.272	2648
529.340	3704
529.409	5521
529.477	2489
529.545	2833
529.614	5076
529.682	2139
529.751	3747
529.819	6967
529.887	3640
529.956	3349
530.024	4846
530.092	3187
530.161	5109
530.229	4469
530.297	3405
530.365	5348
530.434	4334
530.502	3957
530.570	4238
530.638	3236
530.707	3849
530.775	6540
530.843	4058
530.911	4535
530.979	4746
531.047	4505
531.115	4268
531.183	3976
531.252	4719
531.320	3789
531.388	3246
531.456	4460
531.524	3104
531.592	5889
531.660	6253
531.728	4565
531.796	3211
531.864	5005
531.932	3916
532.000	4312
532.067	4221
532.135	4456
532.203	5741
532.271	5244
532.339	6719
532.407	6574
532.475	6175
532.542	6513
532.610	5586
532.678	5248
532.746	7759
532.814	9169
532.881	6831
532.949	6851
533.017	5372
533.084	5779
533.152	5224
533.220	5125
533.287	4685
533.355	5792
533.423	6646
533.490	5661
533.558	6301
533.625	6480
533.693	5794
533.761	7059
533.828	6094
533.896	5083
533.963	6970
534.031	8160
534.098	9339
534.166	9969
534.233	9655
534.300	12127
534.368	11188
534.435	10572
534.503	10814
534.570	11788
534.637	13542
534.705	15399
534.772	19193
534.840	36748
534.907	160874
534.974	162506
535.041	22248
535.109	12800
535.176	10846
535.243	11096
535.310	10195
535.378	9007
535.445	10302
535.512	10638
535.579	9875
535.646	9151
535.714	10708
535.781	11496
535.848	11106
535.915	10387
535.982	10478
536.049	9722
536.116	11409
536.183	9457
536.250	9116
536.317	9064
536.384	10160
536.451	11215
536.518	11825
536.585	9496
536.652	12559
536.719	11390
536.786	8686
536.853	10919
536.920	11131
536.987	10735
537.053	9129
537.120	12321
537.187	12473
537.254	10823
537.321	10708
537.388	12741
537.454	10835
537.521	10870
537.588	10567
537.654	12141
537.721	12709
537.788	13747
537.855	11378
537.921	11745
537.988	10700
538.055	11644
538.121	9337
538.188	10139
538.254	9365
538.321	9672
538.388	11850
538.454	12825
538.521	14211
538.587	13434
538.654	11995
538.720	11518
538.787	11682
538.853	13164
538.920	11061
538.986	9996
539.053	9625
539.119	11444
539.185	9716
539.252	12602
539.318	11796
539.385	14426
539.451	10880
539.517	12552
539.583	11527
539.650	12229
539.716	12308
539.782	11365
539.849	10862
539.915	12040
539.981	10898
540.047	10350
540.114	10775
540.180	13111
540.246	12259
540.312	12993
540.378	12032
540.444	13326
540.510	14114
540.576	12503
540.643	11525
540.709	10963
540.775	11525
540.841	10960
540.907	11235
540.973	11808
541.039	11770
541.105	12083
541.171	12661
541.237	12440
541.303	12458
541.369	15214
541.435	12344
541.500	12706
541.566	10462
541.632	10449
541.698	12054
541.764	13480
541.830	11788
541.896	11459
541.961	12980
542.027	11131
542.093	12482
542.159	14053
542.224	10797
542.290	12219
542.356	10525
542.421	12011
542.487	10765
542.553	10050
542.618	11330
542.684	11160
542.750	11680
542.815	11793
542.881	11255
542.947	12862
543.012	13361
543.078	11495
543.143	10613
543.209	12604
543.274	10260
543.340	12169
543.405	11969
543.471	11587
543.536	12826
543.602	12641
543.667	11081
543.732	12771
543.798	11459
543.863	13038
543.928	11283
543.994	11577
544.059	12856
544.124	14269
544.190	13285
544.255	13317
544.320	13158
544.386	12248
544.451	13463
544.516	13022
544.581	12664
544.646	13025
544.712	15100
544.777	14514
544.842	13542
544.907	14169
544.972	13952
545.037	14546
545.102	15555
545.168	15029
545.233	15699
545.298	16301
545.363	15039
545.428	15826
545.493	17359
545.558	16072
545.623	16077
545.688	16689
545.753	17728
545.818	18139
545.883	19383
545.947	18784
546.012	20685
546.077	22028
546.142	22647
546.207	22972
546.272	23936
546.337	23727
546.401	26201
546.466	27172
546.531	27531
546.596	30261
546.661	30958
546.725	33432
546.790	35437
546.855	38823
546.919	42819
546.984	47311
547.049	50716
547.113	59122
547.178	65993
547.243	74954
547.307	85969
547.372	94718
547.436	93525
547.501	99899
547.565	108488
547.630	96757
547.695	94869
547.759	94540
547.823	94708
547.888	98306
547.952	102205
548.017	105454
548.081	105531
548.146	104425
548.210	108547
548.274	119083
548.339	113992
548.403	103734
548.468	97838
548.532	97915
548.596	100071
548.660	100552
548.725	110518
548.789	117865
548.853	114632
548.917	111144
548.982	106107
549.046	95584
549.110	87859
549.174	92176
549.238	105390
549.303	115393
549.367	116812
549.431	111086
549.495	105486
549.559	108212
549.623	124524
549.687	132108
549.751	133432
549.815	159067
549.879	157616
549.943	151467
550.007	159640
550.071	155722
550.135	141704
550.199	134028
550.263	131703
550.327	125216
550.391	129389
550.455	143316
550.519	150674
550.582	160357
550.646	178429
550.710	179870
550.774	176957
550.838	179640
550.901	184418
550.965	193804
551.029	198493
551.093	206632
551.156	218551
551.220	230811
551.284	247053
551.347	206705
551.411	186062
551.475	185686
551.538	193496
551.602	180568
551.666	171578
551.729	162918
551.793	160828
551.856	157109
551.920	154883
551.983	155386
552.047	151622
552.110	154600
552.174	156605
552.237	157911
552.301	148887
552.364	142391
552.428	137040
552.491	144446
552.554	145856
552.618	145762
552.681	146616
552.745	142024
552.808	153852
552.871	163369
552.934	152614
552.998	143914
553.061	143023
553.124	137036
553.187	137937
553.251	140843
553.314	140590
553.377	143640
553.440	151828
553.503	158273
553.567	157082
553.630	154913
553.693	153706
553.756	153952
553.819	150786
553.882	147619
553.945	148560
554.008	148544
554.071	150509
554.134	148586
554.197	142069
554.260	141637
554.323	143445
554.386	143076
554.449	149637
554.512	149180
554.575	142534
554.638	141520
554.701	138955
554.764	139001
554.827	133158
554.889	129575
554.952	121907
555.015	120209
555.078	122242
555.141	122450
555.203	121918
555.266	119087
555.329	120361
555.391	115038
555.454	111677
555.517	108452
555.580	103796
555.642	100480
555.705	98332
555.768	98913
555.830	96879
555.893	90989
555.955	87187
556.018	86065
556.080	87004
556.143	88697
556.206	87227
556.268	85524
556.330	83071
556.393	82261
556.455	77844
556.518	76721
556.580	73792
556.643	71529
556.705	69186
556.767	69294
556.830	67383
556.892	65687
556.955	64091
557.017	63851
557.079	62917
557.142	61263
557.204	59676
557.266	58853
557.328	55547
557.391	52036
557.453	50970
557.515	50136
557.577	52049
557.639	50884
557.701	50625
557.764	50084
557.826	50299
557.888	51568
557.950	51656
558.012	54741
558.074	65916
558.136	125332
558.198	234533
558.260	84015
558.322	48926
558.384	50452
558.446	51667
558.508	54076
558.570	58156
558.632	64532
558.694	77823
558.756	124558
558.818	322608
558.880	580691
558.942	227882
559.003	249450
559.065	108600
559.127	55947
559.189	54468
559.251	60691
559.312	83349
559.374	180306
559.436	456759
559.498	197980
559.559	58357
559.621	53661
559.683	59823
559.744	93997
559.806	266807
559.868	321586
559.929	73479
559.991	57635
560.052	93184
560.114	230754
560.176	127285
560.237	143754
560.299	189423
560.360	43626
560.422	24762
560.483	23909
560.545	22315
560.606	21689
560.667	21233
560.729	20324
560.790	19657
560.852	18819
560.913	18358
560.974	17848
561.036	16868
561.097	17522
561.158	17289
561.220	17699
561.281	15919
561.342	15582
561.403	16985
561.465	15177
561.526	17377
561.587	16822
561.648	14672
561.709	14981
561.771	15249
561.832	14702
561.893	13998
561.954	14961
562.015	13931
562.076	13999
562.137	13243
562.198	14190
562.259	13085
562.320	13379
562.381	12004
562.442	13062
562.503	12982
562.564	13133
562.625	13254
562.686	12783
562.747	11857
562.808	12618
562.869	12338
562.930	12425
562.991	10940
563.051	11516
563.112	11166
563.173	11606
563.234	11178
563.294	11212
563.355	10752
563.416	11367
563.477	10303
563.537	10659
563.598	10975
563.659	10964
563.720	10525
563.780	10425
563.841	10240
563.901	10595
563.962	10899
564.023	9847
564.083	10615
564.144	10822
564.204	8952
564.265	10248
564.325	10787
564.386	10078
564.446	10104
564.507	10664
564.567	10153
564.628	10234
564.688	9113
564.749	9193
564.809	9614
564.869	10157
564.930	9651
564.990	10429
565.050	8757
565.111	9950
565.171	9709
565.231	9812
565.292	10151
565.352	10139
565.412	10225
565.472	10485
565.532	10520
565.593	9221
565.653	8468
565.713	10480
565.773	9523
565.833	10509
565.893	10910
565.953	9194
566.013	8482
566.074	8874
566.134	10137
566.194	8536
566.254	8657
566.314	8847
566.374	9039
566.434	8795
566.494	9149
566.554	7705
566.614	8524
566.673	8800
566.733	8980
566.793	9148
566.853	9190
566.913	9908
566.973	8222
567.033	9558
567.092	9471
567.152	9683
567.212	9999
567.272	9711
567.331	10412
567.391	10350
567.451	10732
567.511	11384
567.570	10412
567.630	10376
567.690	9092
567.749	8758
567.809	9539
567.868	9778
567.928	8408
567.988	9075
568.047	9750
568.107	9714
568.166	9485
568.226	9848
568.285	10751
568.345	10180
568.404	10566
568.464	10173
568.523	9768
568.582	9484
568.642	9166
568.701	9185
568.761	9218
568.820	9838
568.879	9429
568.939	9480
568.998	9089
569.057	9258
569.116	8738
569.176	9854
569.235	9019
569.294	9320
569.353	8927
569.413	9442
569.472	7971
569.531	9100
569.590	7738
569.649	8957
569.708	8859
569.767	9578
569.827	8211
569.886	8086
569.945	7956
570.004	8989
570.063	8191
570.122	9702
570.181	8447
570.240	9940
570.299	8338
570.358	10009
570.417	10045
570.475	9453
570.534	9228
570.593	10566
570.652	9330
570.711	9511
570.770	9130
570.829	9627
570.887	9327
570.946	10164
571.005	9654
571.064	10242
571.122	10535
571.181	9451
571.240	8505
571.299	8770
571.357	8744
571.416	8584
571.475	8259
571.533	9353
571.592	9569
571.650	10092
571.709	9916
571.768	9907
571.826	10542
571.885	10739
571.943	9324
572.002	9389
572.060	9081
572.119	8745
572.177	9781
572.236	9486
572.294	9504
572.352	9277
572.411	10442
572.469	9853
572.528	8060
572.586	9315
572.644	8840
572.703	8681
572.761	8246
572.819	8903
572.877	8806
572.936	7463
572.994	7780
573.052	7772
573.110	7781
573.169	8961
573.227	7884
573.285	9257
573.343	8823
573.401	9153
573.459	8463
573.517	7849
573.576	8374
573.634	8360
573.692	7867
573.750	8433
573.808	7978
573.866	8437
573.924	8252
573.982	7411
574.040	7250
574.098	7685
574.155	7282
574.213	7023
574.271	7482
574.329	8544
574.387	6495
574.445	6765
574.503	7213
574.560	6374
574.618	6821
574.676	6537
574.734	6635
574.792	7940
574.849	6746
574.907	6581
574.965	5867
575.022	6561
575.080	5667
575.138	6000
575.195	6348
575.253	5647
575.311	5502
575.368	6437
575.426	4846
575.483	6447
575.541	6898
575.598	6360
575.656	5633
575.713	5875
575.771	6178
575.828	6379
575.886	4909
575.943	6034
576.001	5350
576.058	4649
576.115	5798
576.173	5940
576.230	5142
576.287	5571
576.345	5549
576.402	6291
576.459	5662
576.517	4160
576.574	5411
576.631	5699
576.688	4836
576.746	5293
576.803	4646
576.860	5518
576.917	6121
576.974	6045
577.031	6075
577.089	5578
577.146	5347
577.203	4970
577.260	5858
577.317	5154
577.374	4411
577.431	5196
577.488	4612
577.545	4971
577.602	5232
577.659	5427
577.716	5210
577.773	4623
577.830	5193
577.886	4381
577.943	4661
578.000	4718
578.057	4920
578.114	5316
578.171	5071
578.227	6233
578.284	5256
578.341	5343
578.398	5561
578.454	5335
578.511	4665
578.568	5235
578.625	5714
578.681	5210
578.738	5229
578.794	5424
578.851	5363
578.908	5399
578.964	5068
579.021	5819
579.077	4417
579.134	5963
579.190	5307
579.247	5693
579.303	4252
579.360	5763
579.416	4360
579.473	5199
579.529	5647
579.586	5484
579.642	4775
579.698	5247
579.755	5429
579.811	5402
579.867	5856
579.924	5359
579.980	4175
580.036	5924
580.093	6264
580.149	5898
580.205	6895
580.261	5692
580.317	6199
580.374	5753
580.430	6367
580.486	5636
580.542	4466
580.598	5868
580.619	5893
580.654	5945
580.692	5267
580.710	4940
580.765	5517
580.767	5540
580.823	5739
580.838	5763
580.879	5823
580.911	6125
580.935	6384
580.984	5998
580.991	5951
581.047	6419
581.057	6240
581.103	5456
581.130	5553
581.159	5656
581.203	5946
581.215	6045
581.270	5609
581.276	5606
581.326	5495
581.349	5351
581.382	5259
581.422	5544
581.438	5628
581.494	5316
581.494	5310
581.550	5230
581.567	5516
581.606	6112
581.640	5733
581.661	5513
581.713	5943
581.717	5980
581.773	5747
581.786	5758
581.829	5833
581.859	5708
581.885	5639
581.932	6038
581.940	6099
581.996	5636
582.004	5675
582.052	5942
582.077	5603
582.107	5169
582.150	5606
582.163	5765
582.219	4968
582.223	4953
582.274	4815
582.296	4783
582.330	4665
582.368	5574
582.386	6063
582.441	5110
582.441	5109
582.497	5442
582.514	5155
582.552	4703
582.587	5413
582.608	5812
582.659	5540
582.663	5527
582.719	6166
582.732	6122
582.774	5904
582.805	5792
582.830	5769
582.877	6038
582.885	6074
582.941	5462
582.950	5474
582.996	5334
583.023	5305
583.052	5472
583.095	5372
583.107	5313
583.162	5884
583.168	5858
583.218	5521
583.240	5535
583.273	5605
583.313	5346
583.328	5252
583.384	5367
583.385	5347
583.439	4847
583.458	5012
583.494	5138
583.531	4743
583.549	4700
583.603	4983
583.605	4976
583.660	5330
583.676	5161
583.715	4991
583.748	5324
583.770	5491
583.820	5744
583.825	5769
583.881	5803
583.893	5579
583.936	4868
583.965	4997
583.991	5054
584.038	5598
584.046	5687
584.101	4619
584.110	4714
584.156	5337
584.183	5315
584.211	5161
584.255	5891
584.266	6139
584.321	6083
584.328	5992
584.376	4935
584.400	5264
584.431	5910
584.472	5671
584.486	5538
584.541	6221
584.545	6217
584.596	6166
584.617	5969
584.651	5710
584.689	6497
584.706	6757
584.761	6450
584.762	6451
584.816	6601
584.834	6961
584.871	7513
584.906	7208
584.926	7097
584.978	7577
584.980	7600
585.035	8937
585.051	9119
585.090	9560
585.123	10655
585.145	11356
585.195	11420
585.200	11464
585.254	12934
585.267	13618
585.309	15679
585.340	16724
585.364	17722
585.412	21261
585.419	21832
585.473	26589
585.484	28186
585.528	36534
585.556	45657
585.583	62371
585.628	102664
585.637	115912
585.692	239530
585.700	257029
585.747	308067
585.772	249728
585.801	146651
585.845	50583
585.856	38873
585.910	21204
585.917	19640
585.965	15821
585.989	14315
586.019	12935
586.061	11963
586.074	11788
586.128	11223
586.133	11176
586.183	11050
586.205	11065
586.237	10785
586.277	10292
586.292	10146
586.346	10137
586.349	10134
586.401	10395
586.421	10597
586.455	10580
586.493	10220
586.509	10204
586.564	10300
586.565	10317
586.618	11574
586.637	12129
586.672	13312
586.709	15269
586.727	16062
586.781	16628
586.781	16617
586.835	12388
586.853	11469
586.889	10812
586.925	10134
586.944	9852
586.996	10459
586.998	10481
587.052	10457
587.068	10561
587.106	10639
587.140	10627
587.161	10722
587.212	11254
587.215	11264
587.269	11323
587.284	11410
587.323	11570
587.356	11575
587.377	11660
587.427	12187
587.431	12235
587.485	12560
587.499	12641
587.539	12399
587.571	12644
587.593	13266
587.643	14390
587.648	14404
587.702	14006
587.715	14061
587.755	14240
587.786	14250
587.810	14382
587.858	14400
587.864	14376
587.917	14664
587.930	14667
587.971	14712
588.001	14870
588.025	14939
588.073	14951
588.079	14982
588.133	15012
588.145	15186
588.187	15423
588.217	15296
588.241	15388
588.288	16173
588.295	16222
588.348	16107
588.360	16095
588.402	16374
588.431	16781
588.456	17057
588.503	17483
588.510	17543
588.564	18499
588.575	18765
588.617	20148
588.646	20963
588.671	21492
588.718	23334
588.725	23830
588.778	28329
588.789	29791
588.832	43079
588.861	54519
588.886	78785
588.932	135158
588.939	140370
588.993	173846
589.004	170522
589.047	87256
589.075	43695
589.100	33204
589.147	22209
589.154	21831
589.207	20014
589.218	19794
589.261	20538
589.290	21101
589.314	21364
589.361	22822
589.368	23582
589.421	31303
589.433	33475
589.475	57512
589.504	77343
589.528	100886
589.576	151976
589.582	147643
589.635	70129
589.647	56127
589.689	31886
589.718	19564
589.742	18761
589.790	17410
589.795	17311
589.849	16453
589.861	16346
589.902	15666
589.932	15139
589.955	15296
590.004	15588
590.009	15572
590.062	15873
590.075	15863
590.115	15501
590.146	15330
590.168	15082
590.218	14372
590.222	14381
590.275	14995
590.289	15148
590.328	15896
590.360	16531
590.381	16594
590.431	16624
590.435	16634
590.488	16887
590.503	17017
590.541	16986
590.574	16968
590.594	17080
590.645	17449
590.647	17462
590.700	18216
590.716	18388
590.753	18779
590.787	19214
590.806	19115
590.859	19259
590.859	19257
590.912	20004
590.930	20368
590.965	20133
591.001	20009
591.018	20106
591.071	20203
591.072	20216
591.124	19895
591.143	19737
591.177	20312
591.214	21038
591.230	20852
591.283	20399
591.285	20384
591.336	19705
591.356	19545
591.389	19719
591.427	19837
591.442	19740
591.495	19391
591.498	19391
591.547	19469
591.569	19574
591.600	19974
591.640	20373
591.653	20454
591.706	20902
591.711	20978
591.759	21407
591.782	21635
591.811	22085
591.853	22764
591.864	22839
591.917	23233
591.924	23303
591.969	22326
591.995	21833
592.022	22223
592.066	22890
592.075	22974
592.127	23680
592.137	23807
592.180	24172
592.208	24507
592.233	24772
592.279	25283
592.285	25312
592.338	25731
592.350	25843
592.390	25887
592.421	25973
592.443	26298
592.491	27031
592.495	27042
592.548	27425
592.562	27543
592.600	26832
592.633	26268
592.653	26203
592.704	25965
592.705	26156
592.775	28456
592.846	27394
592.916	28840
592.987	29014
593.058	29329
593.128	30441
593.199	30993
593.270	30640
593.341	31175
593.411	32662
593.482	33671
593.553	34649
593.623	34890
593.694	34662
593.764	36337
593.835	34698
593.906	36554
593.976	36784
594.047	36359
594.117	39831
594.188	40430
594.258	40087
594.329	40576
594.399	41329
594.470	42745
594.540	44646
594.611	45250
594.681	43673
594.751	44264
594.822	46721
594.892	47541
594.963	48869
595.033	50592
595.103	52040
595.174	54007
595.244	54025
595.314	56045
595.384	56922
595.455	59175
595.525	61333
595.595	62964
595.665	62967
595.736	63187
595.806	63666
595.876	64830
595.946	64817
596.016	67705
596.087	70288
596.157	70504
596.227	69774
596.297	75695
596.367	79511
596.437	84555
596.507	83557
596.577	83036
596.647	86191
596.717	90917
596.787	91905
596.857	91798
596.927	91925
596.997	93663
597.067	93040
597.137	95165
597.207	96324
597.277	96791
597.347	92240
597.417	89494
597.487	90108
597.557	93522
597.626	95398
597.696	96256
597.766	93989
597.836	89124
597.906	84065
597.975	82348
598.045	84458
598.115	88006
598.185	95786
598.254	108659
598.324	116451
598.394	117196
598.464	114546
598.533	111881
598.603	105112
598.672	100379
598.742	102765
598.812	103388
598.881	106077
598.951	105749
599.020	108125
599.090	111527
599.159	113294
599.229	109745
599.299	107563
599.368	110713
599.437	107381
599.507	99810
599.576	94758
599.646	94122
599.715	93320
599.785	91802
599.854	88493
599.924	86795
599.993	88153
600.062	89937
600.132	90856
600.201	97852
600.270	115256
600.340	119891
600.409	116868
600.478	116415
600.547	119309
600.617	107519
600.686	83501
600.755	75219
600.824	72152
600.894	70232
600.963	70196
601.032	70986
601.101	67363
601.170	64476
601.239	61626
601.308	60507
601.378	61547
601.447	61468
601.516	61779
601.585	61209
601.654	63305
601.723	63218
601.792	65103
601.861	68436
601.930	71084
601.999	69640
602.068	70180
602.137	71058
602.206	73222
602.275	73521
602.343	73029
602.412	75082
602.481	74587
602.550	75857
602.619	78317
602.688	79445
602.756	78842
602.825	80551
602.894	84297
602.963	84831
603.032	87612
603.100	85085
603.169	85703
603.238	87218
603.307	87462
603.375	89814
603.444	91454
603.513	91478
603.581	93628
603.650	94365
603.719	94682
603.787	96390
603.856	99555
603.924	101253
603.993	105234
604.061	112651
604.130	115199
604.198	116261
604.267	118309
604.335	120745
604.404	122338
604.472	125256
604.541	125689
604.609	125895
604.678	127348
604.746	129015
604.815	130867
604.883	134180
604.951	135008
605.020	136273
605.088	138632
605.156	142900
605.225	144386
605.293	145227
605.361	145356
605.429	145646
605.498	151932
605.566	154789
605.634	161522
605.702	169606
605.771	173648
605.839	173683
605.907	168203
605.975	163256
606.043	160546
606.111	161924
606.180	160446
606.248	157993
606.316	156998
606.384	156181
606.452	160617
606.520	163329
606.588	169000
606.656	170745
606.724	167965
606.792	157170
606.860	141520
606.928	129303
606.996	124253
607.064	122222
607.132	125672
607.200	133837
607.267	137647
607.335	142204
607.403	145203
607.471	138407
607.539	135299
607.607	134456
607.674	117808
607.742	118902
607.810	116616
607.878	118114
607.946	119710
608.013	126988
608.081	129063
608.149	129245
608.216	135300
608.284	139045
608.352	139799
608.419	138913
608.487	134849
608.555	133401
608.622	137403
608.690	147589
608.757	161081
608.825	164887
608.893	159910
608.960	147905
609.028	143551
609.095	144556
609.163	142959
609.230	124836
609.298	117254
609.365	125297
609.432	133764
609.500	146859
609.567	168377
609.635	190218
609.702	201528
609.769	189317
609.837	143720
609.904	124982
609.971	127218
610.039	139037
610.106	165596
610.173	267971
610.241	512292
610.308	282267
610.375	148861
610.442	134221
610.509	129524
610.577	131433
610.644	133770
610.711	138966
610.778	141638
610.845	148997
610.912	158804
610.980	163426
611.047	162962
611.114	161043
611.181	156119
611.248	154835
611.315	165998
611.382	170047
611.449	175307
611.516	177456
611.583	173622
611.650	174454
611.717	176925
611.784	179070
611.851	184160
611.918	189046
611.984	211487
612.051	262573
612.118	424023
612.185	792897
612.252	505701
612.319	240520
612.386	220374
612.452	205379
612.519	196467
612.586	194180
612.653	200321
612.719	207450
612.786	197867
612.853	185111
612.919	181090
612.986	184647
613.053	175545
613.120	165098
613.186	157985
613.253	160511
613.319	158774
613.386	161664
613.453	163071
613.519	163578
613.586	160669
613.652	163651
613.719	162230
613.785	164724
613.852	164891
613.918	164437
613.985	167059
614.051	173039
614.118	171026
614.184	162358
614.250	163769
614.317	168953
614.383	166450
614.449	168531
614.516	169652
614.582	170133
614.648	165876
614.715	163671
614.781	161578
614.847	161138
614.914	159406
614.980	157653
615.046	158443
615.112	161415
615.179	160890
615.245	164036
615.311	160324
615.377	164828
615.443	163537
615.509	167711
615.575	172157
615.642	169192
615.708	173932
615.774	178600
615.840	186672
615.906	190421
615.972	212099
616.038	278628
616.104	484071
616.170	872990
616.236	682779
616.302	296587
616.368	255447
616.434	200206
616.500	191365
616.565	209600
616.631	245747
616.697	209530
616.763	217691
616.829	296857
616.895	470901
616.961	413056
617.026	212235
617.092	173564
617.158	170603
617.224	169588
617.289	156462
617.355	149778
617.421	148817
617.487	148441
617.552	142188
617.618	140718
617.684	139511
617.749	143347
617.815	136821
617.880	134994
617.946	135192
618.012	137020
618.077	139895
618.143	134240
618.208	136639
618.274	146453
618.339	144929
618.405	119554
618.470	121760
618.536	118980
618.601	118513
618.667	110140
618.732	105102
618.798	104272
618.863	102855
618.928	104120
618.994	104608
619.059	103704
619.124	104642
619.190	102394
619.255	101541
619.320	102196
619.386	104605
619.451	101484
619.516	98617
619.581	100363
619.647	105785
619.712	105191
619.777	99905
619.842	101934
619.907	101197
619.972	104420
620.038	102489
620.103	102331
620.168	100424
620.233	102256
620.298	102677
620.363	104725
620.428	108442
620.493	109736
620.558	112132
620.623	111889
620.688	112531
620.753	112733
620.818	115587
620.883	114916
620.948	114295
621.013	113425
621.078	109875
621.143	111167
621.207	113114
621.272	110560
621.337	107600
621.402	107610
621.467	104807
621.532	104757
621.596	106224
621.661	104098
621.726	102390
621.791	101742
621.855	103776
621.920	102622
621.985	103505
622.049	106936
622.114	105541
622.179	105996
622.243	109274
622.308	112648
622.373	118168
622.437	114097
622.502	107151
622.566	109297
622.631	106261
622.695	110708
622.760	108905
622.824	110393
622.889	108911
622.953	110010
623.018	116516
623.082	115482
623.147	114865
623.211	113483
623.276	112958
623.340	107165
623.404	105645
623.469	105097
623.533	107229
623.597	105100
623.662	104642
623.726	96866
623.790	90066
623.854	88748
623.919	90923
623.983	92252
624.047	92976
624.111	95026
624.176	95358
624.240	95327
624.304	99331
624.368	93622
624.432	96493
624.496	96818
624.560	103135
624.625	101332
624.689	103692
624.753	107163
624.817	103670
624.881	100394
624.945	90876
625.009	87802
625.073	89823
625.137	91622
625.201	98066
625.265	95871
625.329	92755
625.393	93687
625.456	94466
625.520	95888
625.584	97056
625.648	100558
625.712	102977
625.776	101799
625.839	94420
625.903	81014
625.967	76099
626.031	83446
626.095	96244
626.158	88365
626.222	70302
626.286	66383
626.349	63089
626.413	58333
626.477	60001
626.540	61119
626.604	58824
626.668	59495
626.731	57279
626.795	57050
626.858	57359
626.922	56000
626.986	55803
627.049	54743
627.113	58571
627.176	55916
627.240	54928
627.303	55472
627.366	54328
627.430	55027
627.493	53230
627.557	52813
627.620	55786
627.684	56044
627.747	56598
627.810	50314
627.874	46288
627.937	42959
628.000	47659
628.064	45629
628.127	38444
628.190	39793
628.253	38914
628.317	37368
628.380	35527
628.443	33781
628.506	35615
628.569	33352
628.632	30987
628.696	31482
628.759	31472
628.822	29364
628.885	29094
628.948	29308
629.011	28725
629.074	27119
629.137	25393
629.200	24687
629.263	26308
629.326	24484
629.389	25357
629.452	24828
629.515	23447
629.578	24377
629.641	25123
629.704	24091
629.767	24336
629.830	23800
629.892	22991
629.955	22164
630.018	23938
630.081	22656
630.144	23286
630.207	20672
630.269	22936
630.332	20523
630.395	21347
630.458	20808
630.520	18765
630.583	21363
630.646	21155
630.708	20802
630.771	20144
630.834	24173
630.896	22509
630.959	21467
631.021	20829
631.084	21361
631.146	20431
631.209	21760
631.272	19802
631.334	22449
631.397	21064
631.459	20022
631.522	22682
631.584	22415
631.646	24172
631.709	23416
631.771	24197
631.834	23175
631.896	22782
631.958	20999
632.021	21981
632.083	19760
632.145	20359
632.208	19921
632.270	20365
632.332	18802
632.395	19462
632.457	20277
632.519	18828
632.581	20290
632.643	18541
632.706	19599
632.768	17558
632.830	20365
632.892	19787
632.954	19370
633.016	20824
633.078	19867
633.141	19360
633.203	19126
633.265	19424
633.327	19987
633.389	18746
633.451	20811
633.513	18624
633.575	20167
633.637	18781
633.698	20288
633.760	21473
633.822	22459
633.884	21670
633.946	22891
634.008	22174
634.070	22924
634.132	23096
634.193	25061
634.255	27778
634.317	27245
634.379	27285
634.441	23783
634.502	22252
634.564	21879
634.626	19861
634.687	19424
634.749	19630
634.811	19372
634.873	18235
634.934	18784
634.996	19420
635.057	18409
635.119	18012
635.181	19151
635.242	19298
635.304	17855
635.365	21415
635.427	18781
635.488	17989
635.550	17620
635.611	19152
635.673	16350
635.734	20118
635.796	19818
635.857	21851
635.918	22149
635.980	26476
636.041	25753
636.102	28425
636.164	28280
636.225	27727
636.286	21795
636.348	20866
636.409	20691
636.470	18024
636.531	18774
636.593	18029
636.654	17730
636.715	17012
636.776	16812
636.838	15884
636.899	16754
636.960	15677
637.021	15732
637.082	15184
637.143	15295
637.204	15059
637.265	15584
637.326	16042
637.387	16613
637.448	14414
637.509	16491
637.570	15872
637.631	16067
637.692	13994
637.753	14203
637.814	14823
637.875	14139
637.936	15882
637.997	14133
638.058	14038
638.119	14656
638.179	13918
638.240	14475
638.301	14943
638.362	13239
638.423	13430
638.483	14565
638.544	11995
638.605	14093
638.666	12227
638.726	13783
638.787	13790
638.848	14014
638.908	13037
638.969	14016
639.030	12725
639.090	11892
639.151	12050
639.211	13242
639.272	13441
639.332	13561
639.393	13717
639.453	13185
639.514	14565
639.574	13160
639.635	11155
639.695	13482
639.756	11065
639.816	12243
639.877	11240
639.937	13328
639.997	12684
640.058	11067
640.118	11017
640.178	13098
640.239	12110
640.299	12635
640.359	11891
640.420	13568
640.480	14254
640.540	15980
640.600	14813
640.661	14606
640.721	12415
640.781	13281
640.841	10206
640.901	13578
640.961	12488
641.021	12960
641.082	12271
641.142	12181
641.202	12568
641.262	10074
641.322	12807
641.382	10498
641.442	11699
641.502	11719
641.562	12377
641.622	11693
641.682	12105
641.742	13279
641.802	13251
641.861	11730
641.921	11273
641.981	11311
642.041	10987
642.101	10049
642.161	9490
642.221	11178
642.280	10917
642.340	9961
642.400	9771
642.460	11460
642.519	10304
642.579	11734
642.639	12086
642.698	9157
642.758	11915
642.818	10809
642.877	9707
642.937	11345
642.997	11818
643.056	10915
643.116	9168
643.175	12628
643.235	11202
643.294	12335
643.354	12385
643.414	13459
643.473	14205
643.532	17022
643.592	21584
643.651	32692
643.711	55257
643.770	105184
643.830	249685
643.889	433274
643.948	107114
644.008	27914
644.067	17609
644.126	14122
644.186	13028
644.245	12945
644.304	10237
644.363	13029
644.423	10073
644.482	11811
644.541	12043
644.600	10338
644.659	14999
644.719	16604
644.778	24594
644.837	42546
644.896	90967
644.955	187076
645.014	52941
645.073	15983
645.132	12885
645.191	12578
645.250	11060
645.309	14084
645.368	13449
645.427	17441
645.486	30096
645.545	47995
645.604	13621
645.663	11610
645.722	10600
645.781	11483
645.840	12538
645.898	14884
645.957	20732
646.016	29452
646.075	52766
646.134	101730
646.192	264489
646.251	322415
646.310	53799
646.369	20115
646.427	17799
646.486	13304
646.545	11457
646.603	10502
646.662	11605
646.721	10528
646.779	8772
646.838	9669
646.896	12980
646.955	16593
647.014	26745
647.072	51451
647.131	133724
647.189	51987
647.248	10537
647.306	9157
647.365	8312
647.423	6541
647.481	9581
647.540	6594
647.598	7961
647.657	7875
647.715	7592
647.773	5678
647.832	7478
647.890	5900
647.948	6133
648.007	7504
648.065	5964
648.123	6017
648.181	6782
648.240	6772
648.298	4948
648.356	5608
648.414	6337
648.472	6715
648.531	6342
648.589	6164
648.647	4895
648.705	4653
648.763	5358
648.821	6365
648.879	5846
648.937	7163
648.995	7396
649.053	9462
649.111	15313
649.169	25385
649.227	45205
649.285	97031
649.343	252244
649.401	98559
649.459	15220
649.516	9929
649.574	5699
649.632	8237
649.690	8385
649.748	11548
649.806	17144
649.863	35248
649.921	97492
649.979	52688
650.037	8858
650.094	3981
650.152	4523
650.210	4104
650.268	4617
650.325	4655
650.383	3760
650.440	4138
650.498	3981
650.556	3859
650.613	3047
650.671	4517
650.728	2647
650.786	4254
650.843	6068
650.901	2652
650.958	4640
651.016	4230
651.073	2859
651.131	2728
651.188	1988
651.246	3087
651.303	2532
651.360	3602
651.418	2639
651.475	2489
651.532	2274
651.590	2725
651.647	2776
651.704	2198
651.762	3224
651.819	2276
651.876	1851
651.933	2301
651.990	2506
652.048	1266
652.105	1881
652.162	2960
652.219	1608
652.276	3461
652.333	2413
652.390	1147
652.448	2262
652.505	2531
652.562	2378
652.619	1879
652.676	1888
652.733	3082
652.790	2238
652.847	1039
652.904	3017
652.961	1105
653.017	1045
653.074	2117
653.131	2683
653.188	1848
653.245	2168
653.302	1980
653.359	1906
653.415	2593
653.472	2100
653.529	989
653.586	973
653.642	2024
653.699	2623
653.756	1097
653.813	1383
653.869	2120
653.926	1389
653.983	1945
654.039	2235
654.096	1244
654.152	2381
654.209	2102
654.266	2240
654.322	767
654.379	944
654.435	2206
654.492	1699
654.548	1664
654.605	1240
654.661	2336
654.717	1798
654.774	2004
654.830	1858
654.887	1729
654.943	882
655.000	1539
655.056	1523
655.112	2572
655.168	1462
655.225	877
655.281	2311
655.337	1868
655.394	816
655.450	1994
655.506	1414
655.562	505
655.618	1826
655.675	551
655.731	1914
655.787	1321
655.843	1624
655.899	398
655.955	1008
656.011	1867
656.067	1228
656.123	2070
656.179	1598
656.235	3202
656.291	118
656.347	2333
656.403	1661
656.459	1811
656.515	1097
656.571	2025
656.627	1559
656.683	2332
656.739	1300
656.795	1218
656.850	1510
656.906	1472
656.962	2001
657.018	892
657.074	2549
657.129	3521
657.185	7291
657.241	16388
657.297	7030
657.352	2185
657.408	1163
657.464	1745
657.519	1070
657.575	504
657.630	1783
657.686	1104
657.742	468
657.797	1121
657.853	626
657.908	1280
657.964	289
658.019	1254
658.075	468
658.130	1853
658.186	-9
658.241	1507
658.297	219
658.352	747
658.407	1049
658.463	972
658.518	1429
658.573	413
658.629	555
658.684	388
658.739	1197
658.795	210
658.850	1070
658.905	657
658.960	1068
659.016	-159
659.071	1338
659.126	367
659.181	-4
659.236	2043
659.291	1354
659.346	239
659.401	39
659.457	1302
659.512	482
659.567	1099
659.622	396
659.677	916
659.732	-626
659.787	207
659.842	87
659.897	414
659.952	1152
660.007	352
660.061	1180
660.116	-45
660.171	34
660.226	744
660.281	2095
660.336	752
660.391	1191
660.445	286
660.500	103
660.555	614
660.610	524
660.664	515
660.719	947
660.774	393
660.828	704
660.883	221
660.938	1079
660.992	698
661.047	609
661.101	-27
661.156	145
661.211	-434
661.265	156
661.320	-244
661.374	-78
661.429	-247
661.483	704
661.538	-637
661.592	107
661.647	1044
661.701	1357
661.755	240
661.810	468
661.864	471
661.919	-387
661.973	588
662.027	-549
662.081	-161
662.136	538
662.190	403
662.244	322
662.299	-175
662.353	-59
662.407	316
662.461	1197
662.515	280
662.569	-382
662.624	200
662.678	-230
662.732	-328
662.786	656
662.840	603
662.894	132
662.948	-94
663.002	222
663.056	581
663.110	257
663.164	-1
663.218	120
663.272	1411
663.326	896
663.380	457
663.434	231
663.488	-22
663.542	-514
663.595	-409
663.649	-250
663.703	842
663.757	468
663.811	-226
663.864	-622
663.918	1067
663.972	10
664.026	-296
664.079	228
664.133	559
664.187	401
664.240	456
664.294	-341
664.348	620
664.401	275
664.455	373
664.508	-705
664.562	-212
664.615	428
664.669	-115
664.722	785
664.776	69
664.829	402
664.883	625
664.936	381
664.990	59
665.043	-202
665.097	-288
665.150	818
665.203	-209
665.257	367
665.310	92
665.363	385
665.417	475
665.470	292
665.523	292
665.576	335
665.630	161
665.683	461
665.736	476
665.789	921
665.842	-279
665.895	285
665.949	756
666.002	863
666.055	525
666.108	1286
666.161	570
666.214	647
666.267	1168
666.320	271
666.373	326
666.426	673
666.479	1233
666.532	388
666.585	309
666.638	908
666.691	286
666.744	846
666.796	-170
666.849	573
666.902	698
666.955	162
667.008	-255
667.060	455
667.113	-138
667.166	232
667.219	1181
667.271	786
667.324	1006
667.377	1894
667.430	849
667.482	595
667.535	-20
667.587	1037
667.640	797
667.693	266
667.745	133
667.798	1121
667.850	823
667.903	1589
667.955	1185
668.008	1341
668.060	359
668.113	494
668.165	253
668.218	525
668.270	905
668.322	763
668.375	-115
668.427	534
668.479	1333
668.532	1075
668.584	-172
668.636	355
668.689	1453
668.741	362
668.793	607
668.845	292
668.898	-21
668.950	824
669.002	1192
669.054	2
669.106	79
669.158	942
669.211	1431
669.263	525
669.315	1187
669.367	218
669.419	-72
669.471	182
669.523	375
669.575	685
669.627	1
669.679	376
669.731	459
669.783	508
669.835	-397
669.886	-166
669.938	303
669.990	-339
670.042	76
670.094	653
670.146	11
670.197	-423
670.249	662
670.301	382
670.353	766
670.404	582
670.456	-262
670.508	1025
670.560	784
670.611	2023
670.663	2862
670.715	7183
670.766	9846
670.818	1853
670.869	277
670.921	411
670.972	1100
671.024	55
671.075	150
671.127	1226
671.178	475
671.230	942
671.281	665
671.333	1033
671.384	1068
671.436	2201
671.487	3832
671.538	6188
671.590	10589
671.641	20303
671.692	41241
671.744	76791
671.795	40094
671.846	10219
671.897	4118
671.949	2679
672.000	2615
672.051	653
672.102	500
672.153	698
672.204	516
672.256	376
672.307	631
672.358	88
672.409	392
672.460	570
672.511	319
672.562	34
672.613	168
672.664	-70
672.715	851
672.766	-831
672.817	-728
672.868	864
672.919	112
672.970	-804
673.021	-738
673.071	-791
673.122	695
673.173	-99
673.224	304
673.275	-243
673.326	-242
673.376	-96
673.427	728
673.478	-248
673.528	281
673.579	-607
673.630	-444
673.680	844
673.731	-273
673.782	-453
673.832	-216
673.883	-127
673.934	-381
673.984	3
674.035	-336
674.085	64
674.136	-563
674.186	157
674.237	-102
674.287	131
674.338	440
674.388	-326
674.438	518
674.489	144
674.539	150
674.589	-518
674.640	-362
674.690	-99
674.740	-543
674.791	-1145
674.841	-931
674.891	-189
674.942	-457
674.992	-466
675.042	-383
675.092	-1171
675.142	-442
675.193	-1323
675.243	-611
675.293	271
675.343	-677
675.393	-610
675.443	-298
675.493	-170
675.543	-916
675.593	-848
675.643	-523
675.693	-324
675.743	293
675.793	-941
675.843	-712
675.893	-1053
675.943	-137
675.993	-660
676.043	-805
676.093	183
676.142	-779
676.192	22
676.242	-133
676.292	-1122
676.341	-365
676.391	-1161
676.441	-797
676.491	-1165
676.540	-518
676.590	-535
676.640	-751
676.689	-858
676.739	-926
676.789	-276
676.838	-750
676.888	-146
676.937	-727
676.987	-494
677.037	-847
677.086	-1254
677.136	-219
677.185	-1168
677.235	-874
677.284	-827
677.333	-753
677.383	-1329
677.432	-1372
677.482	-508
677.531	-546
677.580	-1076
677.630	-1078
677.679	-1264
677.728	-277
677.778	-298
677.827	-810
677.876	-697
677.925	-489
677.975	-694
678.024	-782
678.073	-384
678.122	-712
678.171	-739
678.220	-460
678.269	-151
678.319	-435
678.368	-70
678.417	-582
678.466	-391
678.515	-424
678.564	-513
678.613	-796
678.662	-1194
678.711	-1023
678.760	-744
678.809	-952
678.857	-1852
678.906	-1215
678.955	-1178
679.004	-398
679.053	-1284
679.102	-1048
679.151	-543
679.199	-583
679.248	-599
679.297	-181
679.346	-1055
679.394	-1791
679.443	-1304
679.492	-642
679.540	-882
679.589	-775
679.638	-1129
679.686	-308
679.735	-278
679.784	-357
679.832	-306
679.881	-957
679.929	-1207
679.978	-1304
680.026	-1160
680.075	-1283
680.123	-1191
680.172	-271
680.220	-1233
680.268	-474
680.317	-1301
680.365	-1581
680.414	-1642
680.462	-1109
680.510	-581
680.559	-994
680.607	-1485
680.655	-1150
680.703	-629
680.752	-895
680.800	-975
680.848	-1647
680.896	-434
680.945	-1170
680.993	-1724
681.041	-791
681.089	-667
681.137	-885
681.185	-1275
681.233	-1262
681.258	-820
681.281	-418
681.329	-1327
681.377	-442
681.380	-454
681.425	-985
681.473	-359
681.502	-641
681.521	-872
681.569	-421
681.617	-534
681.624	-619
681.665	-1325
681.713	110
681.745	-293
681.761	-507
681.809	-230
681.857	312
681.867	30
681.904	-1018
681.952	-240
681.989	48
682.000	117
682.048	72
682.096	71
682.111	8
682.143	-225
682.191	-433
682.233	979
682.239	1177
682.286	-382
682.334	-386
682.354	-432
682.382	-516
682.430	-114
682.476	48
682.477	34
682.525	482
682.572	-239
682.598	72
682.620	310
682.667	218
682.715	365
682.720	328
682.763	-180
682.810	-12
682.841	147
682.857	221
682.905	-25
682.952	247
682.963	246
683.000	151
683.047	37
683.085	988
683.095	1235
683.142	356
683.190	476
683.206	371
683.237	119
683.284	1054
683.328	986
683.332	966
683.379	45
683.426	101
683.449	260
683.473	465
683.521	716
683.568	1090
683.571	1132
683.615	1336
683.662	949
683.693	1037
683.709	1075
683.757	120
683.804	144
683.814	260
683.851	704
683.898	1129
683.936	535
683.945	353
683.992	839
684.039	939
684.057	899
684.086	818
684.133	567
684.179	423
684.180	408
684.227	1416
684.274	1343
684.300	1411
684.321	1482
684.368	958
684.415	825
684.422	852
684.462	931
684.509	1205
684.543	1253
684.556	1257
684.603	1416
684.649	1189
684.665	1211
684.696	1255
684.743	1908
684.786	2047
684.790	2036
684.837	1423
684.883	1458
684.908	1520
684.930	1653
684.977	1457
685.023	2246
685.029	2234
685.070	1989
685.117	1660
685.150	1722
685.164	1764
685.210	2331
685.257	2194
685.272	2353
685.303	2599
685.350	1776
685.393	2022
685.396	2023
685.443	2041
685.490	1635
685.514	1649
685.536	1766
685.583	2275
685.629	1683
685.636	1722
685.675	1954
685.722	1932
685.757	1849
685.768	1798
685.815	1969
685.861	1781
685.878	2034
685.908	2419
685.954	2644
686.000	2104
686.000	2092
686.047	2065
686.093	2140
686.121	2514
686.139	2772
686.185	2804
686.232	2870
686.242	2884
686.278	2864
686.324	2341
686.363	2330
686.370	2323
686.416	2807
686.463	2973
686.484	2850
686.509	2790
686.555	2023
686.601	2686
686.606	2671
686.647	2422
686.693	2837
686.727	3155
686.739	3257
686.785	2903
686.831	2657
686.848	2737
686.877	2876
686.923	2172
686.969	3166
686.969	3172
687.015	2811
687.061	3200
687.090	3479
687.107	3497
687.153	3543
687.199	3104
687.211	3183
687.245	3473
687.291	3190
687.332	3224
687.336	3246
687.382	3831
687.428	3841
687.453	3882
687.474	3778
687.520	3946
687.565	3436
687.574	3452
687.611	3702
687.657	3482
687.695	3761
687.702	3819
687.748	4044
687.794	4332
687.816	4450
687.839	4453
687.885	4366
687.931	3894
687.937	3897
687.976	3927
688.022	3791
688.058	3842
688.067	3884
688.113	3910
688.158	3812
688.179	3679
688.204	3547
688.249	4036
688.295	4036
688.300	4054
688.340	4043
688.386	3868
688.421	3603
688.431	3603
688.477	3846
688.522	4339
688.542	4588
688.567	4834
688.613	4831
688.658	4643
688.663	4654
688.703	4652
688.749	4444
688.784	4439
688.794	4487
688.839	4888
688.884	4908
688.905	4882
688.930	4718
688.975	4469
689.020	4544
689.026	4506
689.065	4356
689.110	4181
689.146	3762
689.155	3693
689.201	4151
689.246	4396
689.267	4314
689.291	4260
689.336	4525
689.381	4639
689.388	4638
689.426	4707
689.471	4918
689.509	5006
689.516	4988
689.561	5187
689.606	4873
689.630	4669
689.651	4546
689.696	4138
689.741	4755
689.750	4686
689.785	4673
689.830	5199
689.871	5169
689.875	5149
689.920	4803
689.965	5241
689.992	5030
690.010	4885
690.054	4831
690.099	4426
690.112	4503
690.144	4902
690.189	5012
690.233	4905
690.233	4913
690.278	5001
690.323	5212
690.354	5074
690.367	5053
690.412	5435
690.457	4548
690.474	4696
690.501	4898
690.546	5148
690.590	5130
690.595	5081
690.635	4735
690.680	4736
690.716	4517
690.724	4525
690.769	4896
690.813	5179
690.836	5052
690.857	5075
690.902	5528
690.946	6010
690.957	6076
690.991	6470
691.035	7437
691.077	8192
691.080	8196
691.124	7601
691.168	7232
691.198	6613
691.213	6344
691.257	6401
691.301	5854
691.318	5653
691.346	5466
691.390	5175
691.434	5224
691.439	5217
691.478	5623
691.522	5689
691.559	5974
691.567	6027
691.611	5957
691.655	5701
691.680	5747
691.699	5764
691.743	5859
691.787	6017
691.800	5932
691.831	5856
691.875	5922
691.919	5948
691.921	5933
691.964	5738
692.008	5897
692.041	5841
692.052	5889
692.096	5593
692.139	5934
692.162	5833
692.183	5619
692.227	5780
692.271	5693
692.282	5529
692.315	5419
692.359	5770
692.402	6264
692.403	6279
692.447	5755
692.490	5598
692.523	5442
692.534	5502
692.578	6024
692.622	5934
692.643	6018
692.666	5923
692.709	5766
692.753	5275
692.763	5267
692.797	5608
692.840	5721
692.884	5861
692.884	5876
692.928	5844
692.971	5899
693.004	5585
693.015	5546
693.059	5822
693.102	6017
693.124	6007
693.146	5960
693.189	6128
693.233	6187
693.245	6155
693.276	6161
693.320	6472
693.363	6254
693.365	6230
693.407	6086
693.450	6467
693.485	6330
693.493	6375
693.537	6701
693.580	6970
693.605	7095
693.624	7199
693.667	7582
693.710	7813
693.725	7997
693.753	9299
693.797	11040
693.840	12786
693.845	12936
693.883	11627
693.926	10416
693.966	8965
693.970	8889
694.013	8358
694.056	7582
694.086	7000
694.099	6941
694.142	6781
694.185	6520
694.206	6397
694.229	6582
694.272	6737
694.315	7426
694.326	7485
694.358	7424
694.401	7181
694.444	7186
694.446	7158
694.487	7063
694.530	7042
694.566	7079
694.573	7106
694.616	6864
694.659	6836
694.686	6868
694.702	6971
694.745	6929
694.787	7080
694.806	7100
694.830	7049
694.873	6946
694.916	6895
694.926	6832
694.959	7063
695.002	7533
695.044	7710
695.046	7703
695.087	7498
695.130	7322
695.166	6984
695.172	7059
695.215	7414
695.258	7977
695.286	8310
695.301	8354
695.343	8270
695.386	8254
695.406	8183
695.428	8613
695.471	9503
695.514	10474
695.526	10672
695.556	11444
695.599	12755
695.641	13745
695.646	13838
695.684	12878
695.726	11724
695.766	10592
695.769	10620
695.811	10661
695.854	10565
695.886	10621
695.896	10730
695.938	10752
695.981	11031
696.005	11164
696.023	11529
696.065	12205
696.108	12983
696.125	13252
696.150	13478
696.192	13776
696.235	14128
696.245	14174
696.277	14321
696.319	14537
696.361	14557
696.365	14534
696.404	14236
696.446	13673
696.485	13332
696.488	13400
696.530	13652
696.572	14065
696.604	14157
696.614	14095
696.656	13810
696.698	13523
696.724	13282
696.740	13411
696.783	13637
696.825	14058
696.844	14094
696.867	14195
696.909	14385
696.951	14535
696.964	14583
696.992	14449
697.034	14101
697.076	13812
697.083	13716
697.118	14538
697.160	15565
697.202	16523
697.203	16505
697.244	15834
697.286	15194
697.323	14451
697.327	14520
697.369	14889
697.411	15118
697.442	15407
697.453	15481
697.494	15460
697.536	15504
697.562	15450
697.578	15498
697.620	15595
697.661	15611
697.682	15601
697.703	15953
697.744	16605
697.786	17232
697.801	17380
697.828	17285
697.869	17101
697.911	16968
697.921	16876
697.952	16631
697.994	16275
698.035	15863
698.040	15777
698.077	16212
698.118	16629
698.160	17027
698.160	16982
698.201	17264
698.243	17518
698.279	17715
698.284	17824
698.325	18366
698.367	18933
698.399	19284
698.408	19369
698.449	19548
698.491	19713
698.518	19781
698.532	19870
698.573	19950
698.614	20039
698.638	20047
698.656	20164
698.697	20288
698.738	20413
698.757	20423
698.779	20443
698.820	20362
698.862	20285
698.877	20198
698.903	20561
698.944	21057
698.985	21551
698.996	21631
699.026	21062
699.067	20191
699.116	19099
699.235	20568
699.354	19541
699.474	17470
699.593	17925
699.713	18062
699.832	18546
699.951	19474
700.070	18184
700.190	17485
700.309	16929
700.428	16480
700.547	16711
700.667	15791
700.786	16769
700.905	15338
701.024	16200
701.143	14677
701.262	16433
701.381	16919
701.500	17395
701.619	16403
701.738	16279
701.857	16704
701.976	15436
702.095	16238
702.214	16123
702.333	15430
702.452	16850
702.571	16722
702.690	16562
702.809	15668
702.928	15357
703.047	14853
703.165	15244
703.284	15029
703.403	14507
703.522	13868
703.640	15041
703.759	14071
703.878	13055
703.997	13864
704.115	14422
704.234	13631
704.353	14056
704.471	12544
704.590	13709
704.708	12740
704.827	13135
704.946	12907
705.064	13296
705.183	12174
705.301	13062
705.420	11651
705.538	12473
705.656	11154
705.775	10888
705.893	12203
706.012	11746
706.130	11987
706.249	11868
706.367	11659
706.485	11523
706.604	10566
706.722	11355
706.840	10953
706.958	11430
707.077	10499
707.195	10392
707.313	10805
707.431	9409
707.549	9959
707.668	9614
707.786	10448
707.904	9679
708.022	10900
708.140	9333
708.258	10207
708.376	10289
708.494	9201
708.612	10490
708.730	10088
708.848	8851
708.966	10688
709.084	9722
709.202	10643
709.320	8644
709.438	9093
709.556	9714
709.674	8107
709.791	8759
709.909	8250
710.027	8412
710.145	8560
710.263	7857
710.380	9426
710.498	7894
710.616	7833
710.733	7923
710.851	7511
710.969	7703
711.086	7651
711.204	7723
711.322	7498
711.439	7572
711.557	6921
711.674	7960
711.792	7795
711.909	6876
712.027	6346
712.144	7173
712.262	7312
712.379	7742
712.497	7227
712.614	7659
712.732	7734
712.849	6289
712.966	8227
713.084	7290
713.201	7085
713.318	7733
713.436	7964
713.553	7080
713.670	7387
713.787	6836
713.905	6580
714.022	8133
714.139	6487
714.256	9586
714.373	12800
714.490	26415
714.608	73871
714.725	298442
714.842	239023
714.959	22396
715.076	10881
715.193	9475
715.310	8363
715.427	5654
715.544	6575
715.661	6618
715.778	6191
715.895	6086
716.011	6481
716.128	5959
716.245	5969
716.362	6034
716.479	5435
716.596	6140
716.713	4972
716.829	5098
716.946	5222
717.063	5656
717.180	5148
717.296	5906
717.413	5387
717.530	6609
717.646	4812
717.763	4952
717.880	4296
717.996	4033
718.113	4245
718.229	4847
718.346	4452
718.462	4341
718.579	5232
718.695	5098
718.812	5524
718.928	5017
719.045	4609
719.161	3981
719.277	4497
719.394	5743
719.510	5213
719.626	5984
719.743	6643
719.859	12476
719.975	26008
720.092	110129
720.208	208325
720.324	20639
720.440	7704
720.557	5589
720.673	5054
720.789	4681
720.905	5304
721.021	4728
721.137	4710
721.253	4112
721.369	4114
721.486	4473
721.602	3750
721.718	4321
721.834	4291
721.950	3608
722.066	3929
722.181	3845
722.297	3879
722.413	4615
722.529	4141
722.645	4036
722.761	3026
722.877	3485
722.993	4528
723.108	6186
723.224	4236
723.340	4121
723.456	3308
723.571	3058
723.687	3248
723.803	3644
723.918	3031
724.034	3053
724.150	2631
724.265	3331
724.381	2923
724.497	3580
724.612	2655
724.728	3642
724.843	3300
724.959	3340
725.074	3127
725.190	3457
725.305	3724
725.421	3182
725.536	3087
725.651	3954
725.767	3364
725.882	3327
725.997	3249
726.113	3628
726.228	3158
726.343	3484
726.459	3584
726.574	3003
726.689	2376
726.804	3400
726.920	2525
727.035	3149
727.150	2479
727.265	2789
727.380	2917
727.495	3895
727.610	2500
727.725	2343
727.841	3647
727.956	3139
728.071	3133
728.186	2426
728.301	2549
728.416	3056
728.531	3164
728.645	2360
728.760	3116
728.875	2697
728.990	2737
729.105	2839
729.220	2709
729.335	3246
729.449	2049
729.564	2567
729.679	2656
729.794	3378
729.908	2117
730.023	3354
730.138	2368
730.253	3232
730.367	2523
730.482	2793
730.596	3561
730.711	3851
730.826	5101
730.940	4973
731.055	4535
731.169	3779
731.284	4181
731.398	4363
731.513	4322
731.627	5089
731.742	7185
731.856	9159
731.970	8271
732.085	10306
732.199	14025
732.313	23755
732.428	64237
732.542	197944
732.656	97371
732.771	19495
732.885	12198
732.999	11051
733.113	13140
733.227	11894
733.342	13211
733.456	11934
733.570	12171
733.684	10688
733.798	10561
733.912	10610
734.026	10584
734.140	11044
734.254	10017
734.368	10559
734.482	9495
734.596	10201
734.710	9625
734.824	8680
734.938	10754
735.052	10173
735.166	9239
735.280	9230
735.393	9145
735.507	8780
735.621	8774
735.735	8556
735.849	9183
735.962	8548
736.076	8898
736.190	7583
736.303	8888
736.417	8715
736.531	8453
736.644	8039
736.758	7928
736.872	8031
736.985	7848
737.099	8382
737.212	8097
737.326	7843
737.439	7910
737.553	7012
737.666	7192
737.780	6966
737.893	8143
738.007	6973
738.120	7843
738.233	7277
738.347	7662
738.460	7178
738.573	7647
738.687	6820
738.800	7497
738.913	8177
739.026	7149
739.140	7587
739.253	6836
739.366	6946
739.479	6234
739.592	6880
739.705	5611
739.818	7401
739.932	6341
740.045	6917
740.158	5914
740.271	6744
740.384	6540
740.497	5903
740.610	6370
740.723	5772
740.836	6524
740.949	6621
741.062	6725
741.174	5744
741.287	5404
741.400	6178
741.513	6084
741.626	6622
741.739	5530
741.851	5173
741.964	5524
742.077	5846
742.189	4984
742.302	5539
742.415	5452
742.527	5800
742.640	5694
742.753	4387
742.865	5608
742.978	5099
743.090	4811
743.203	5620
743.316	5488
743.428	4993
743.541	5132
743.653	3934
743.766	4664
743.878	5601
743.990	4283
744.103	5976
744.215	5381
744.327	4679
744.440	6361
744.552	5318
744.664	4294
744.777	5023
744.889	3879
745.001	4742
745.113	5326
745.226	4827
745.338	4141
745.450	5915
745.562	4077
745.674	3506
745.786	5250
745.898	4168
746.010	4005
746.122	4376
746.234	4432
746.347	5305
746.459	4170
746.570	3348
746.682	5333
746.794	6692
746.906	4026
747.018	4515
747.130	4786
747.242	4044
747.354	4414
747.466	4132
747.577	3726
747.689	4456
747.801	3922
747.913	4177
748.024	3883
748.136	3605
748.248	3920
748.359	3947
748.471	4236
748.583	3578
748.694	3171
748.806	4516
748.918	3439
749.029	3166
749.141	3545
749.252	4432
749.364	3413
749.475	3134
749.587	3177
749.698	3534
749.809	4144
749.921	3714
750.032	3431
750.144	3290
750.255	3021
750.366	2813
750.478	2818
750.589	3181
750.700	2064
750.811	3838
750.923	2482
751.034	2488
751.145	3657
751.256	3380
751.367	2474
751.479	2733
751.590	3178
751.701	1733
751.812	2166
751.923	3257
752.034	2976
752.145	3477
752.256	2951
752.367	2477
752.478	2656
752.589	3268
752.700	3234
752.811	2270
752.922	3047
753.032	2432
753.143	2762
753.254	2966
753.365	3692
753.476	2950
753.586	2374
753.697	2822
753.808	2693
753.919	1874
754.029	2773
754.140	3169
754.251	2402
754.361	2259
754.472	2754
754.582	2445
754.693	2873
754.804	3203
754.914	2272
755.025	1963
755.135	3272
755.246	3378
755.356	1848
755.466	1996
755.577	2503
755.687	2969
755.798	1463
755.908	2464
756.018	1735
756.129	2680
756.239	2806
756.349	3428
756.460	2892
756.570	2800
756.680	1989
756.790	2634
756.900	1890
757.011	2931
757.121	1773
757.231	2317
757.341	2564
757.451	1960
757.561	2806
757.671	2680
757.781	1480
757.891	2876
758.001	1596
758.111	2785
758.221	2258
758.331	2927
758.441	2983
758.551	1651
758.661	2709
758.771	2837
758.880	2453
758.990	1728
759.100	2528
759.210	2126
759.320	2805
759.429	2578
759.539	2248
759.649	2755
759.758	3690
759.868	3669
759.978	2962
760.087	4126
760.197	2937
760.307	3538
760.416	2847
760.526	3113
760.635	3687
760.745	3803
760.854	3627
760.964	3893
761.073	3751
761.182	3022
761.292	2557
761.401	2563
761.511	1906
761.620	2569
761.729	3056
761.839	1880
761.948	1889
762.057	1492
762.166	2351
762.276	2583
762.385	3342
762.494	2270
762.603	1931
762.712	2728
762.822	1424
762.931	1800
763.040	760
763.149	2508
763.258	1811
763.367	2264
763.476	2031
763.585	2381
763.694	1933
763.803	2734
763.912	2669
764.021	2504
764.130	1916
764.238	2096
764.347	1555
764.456	2460
764.565	2146
764.674	2656
764.783	1851
764.891	2173
765.000	4291
765.109	3556
765.217	2967
765.326	4427
765.435	4833
765.543	5644
765.652	5000
765.761	7590
765.869	10496
765.978	16392
766.086	27982
766.195	55301
766.303	127263
766.412	238593
766.520	192059
766.629	86773
766.737	36936
766.846	20934
766.954	13017
767.062	10781
767.171	7652
767.279	7191
767.387	5074
767.496	4783
767.604	3747
767.712	4002
767.820	3682
767.928	3521
768.037	2552
768.145	3729
768.253	3741
768.361	2520
768.469	3181
768.577	2251
768.685	3906
768.793	3421
768.901	3599
769.009	3504
769.117	4734
769.225	4791
769.333	7881
769.441	12805
769.549	21441
769.657	50252
769.765	133330
769.873	193487
769.981	91195
770.088	28974
770.196	14420
770.304	10054
770.412	8591
770.519	6275
770.627	5051
770.735	4542
770.842	4293
770.950	3420
771.058	3921
771.165	5214
771.273	4907
771.380	5472
771.488	7572
771.595	8182
771.703	6334
771.810	6567
771.918	5365
772.025	7863
772.133	9286
772.240	7492
772.348	10224
772.455	8986
772.562	7650
772.670	8347
772.777	8132
772.884	7527
772.991	7382
773.099	7645
773.206	6983
773.313	7899
773.420	7474
773.528	6771
773.635	6816
773.742	7693
773.849	7005
773.956	7803
774.063	6303
774.170	7235
774.277	6666
774.384	6515
774.491	5864
774.598	7285
774.705	6324
774.812	6744
774.919	6955
775.026	7073
775.133	7109
775.239	6199
775.346	6294
775.453	5915
775.560	4735
775.667	6141
775.773	5324
775.880	6972
775.987	5138
776.093	6399
776.200	6839
776.307	4659
776.413	5703
776.520	6260
776.627	5246
776.733	5526
776.840	4008
776.946	8277
777.053	6434
777.159	6956
777.266	5127
777.372	7697
777.478	7696
777.585	6470
777.691	4050
777.798	6738
777.904	5161
778.010	4813
778.117	5304
778.223	4769
778.329	4490
778.435	3675
778.542	5366
778.648	4693
778.754	3491
778.860	4953
778.966	4858
779.072	4383
779.178	5031
779.284	4165
779.391	4371
779.497	4104
779.603	6009
779.708	3263
779.815	4771
779.920	7199
780.026	8504
780.132	4698
780.238	4084
780.344	3715
780.450	5651
780.556	3614
780.661	3674
780.767	5323
780.873	2766
780.979	4119
781.085	4123
781.190	4567
781.296	3446
781.402	4544
781.507	3885
781.613	3323
781.719	3147
781.824	4841
781.930	3909
782.035	3368
782.141	3614
782.246	2456
782.352	2820
782.457	3717
782.563	2996
782.668	3361
782.773	2548
782.879	1764
782.984	3944
783.090	4068
783.195	3275
783.300	3879
783.405	2861
783.511	2705
783.616	2314
783.721	3525
783.826	2557
783.932	3347
784.037	2360
784.142	2512
784.247	2741
784.352	3841
784.457	2770
784.562	3051
784.667	3215
784.772	2149
784.877	973
784.982	4205
785.087	3428
785.192	2918
785.297	2730
785.402	3134
785.507	3274
785.611	2377
785.716	1542
785.821	2336
785.926	2394
786.031	2930
786.135	2499
786.240	2739
786.345	892
786.450	2943
786.554	2575
786.659	2139
786.763	1625
786.868	2448
786.973	3643
787.077	1805
787.182	1659
787.286	2814
787.391	3190
787.495	1911
787.600	1372
787.704	1534
787.809	2395
787.913	2227
788.017	2279
788.122	3306
788.226	2922
788.330	488
788.435	1578
788.539	3605
788.643	1215
788.747	1452
788.852	2255
788.956	1265
789.060	2415
789.164	1981
789.268	1439
789.372	3236
789.476	1992
789.580	1901
789.684	958
789.788	3012
789.892	1029
789.996	1724
790.100	617
790.204	1721
790.308	2628
790.412	1283
790.516	1124
790.620	1583
790.724	2759
790.828	1701
790.931	350
791.035	3238
791.139	1529
791.242	1586
791.346	1800
791.450	1448
791.554	1213
791.657	663
791.761	1556
791.864	2746
791.968	1777
792.072	1988
792.175	1325
792.279	848
792.382	1390
792.486	1478
792.589	1137
792.693	2028
792.796	298
792.899	1489
793.003	1573
793.106	1105
793.209	330
793.313	1505
793.416	-139
793.519	2078
793.623	1987
793.726	615
793.829	1084
793.932	1227
794.035	-77
794.138	3057
794.242	2385
794.345	-6
794.448	-222
794.551	183
794.654	3023
794.757	4191
794.860	568
794.963	1580
795.066	57
795.169	2142
795.272	850
795.375	2037
795.477	642
795.580	1438
795.683	-283
795.786	2246
795.889	221
795.991	2104
796.094	1271
796.197	290
796.300	2611
796.402	1115
796.505	739
796.608	111
796.710	1616
796.813	1696
796.915	1210
797.018	1561
797.120	1832
797.223	281
797.326	2261
797.428	174
797.530	537
797.633	346
797.735	2167
797.838	1132
797.940	667
798.042	1208
798.145	630
798.247	1473
798.349	-912
798.452	1455
798.554	320
798.656	174
798.758	1432
798.860	188
798.962	620
799.065	367
799.167	20
799.269	1343
799.371	1051
799.473	2269
799.575	499
799.677	196
799.779	2317
799.881	-1393
799.983	1546
800.085	1385
800.187	1360
800.289	-521
800.390	401
800.492	2764
800.594	1913
800.696	771
800.798	1478
800.899	368
801.001	852
801.103	808
801.205	101
801.306	1253
801.408	465
801.509	691
801.611	1145
801.713	851
801.814	-553
801.916	225
802.017	73
802.119	-448
802.220	991
802.322	-788
802.423	1882
802.525	-999
802.626	885
802.727	1466
802.829	1023
802.930	-1330
803.031	1569
803.133	385
803.234	876
803.335	374
803.436	-262
803.538	649
803.639	-754
803.740	1766
803.841	-321
803.942	1312
804.043	543
804.144	-56
804.245	547
804.346	-483
804.447	-263
804.548	189
804.649	891
804.750	-14
804.851	-324
804.952	328
805.053	855
805.154	-529
805.255	684
805.355	214
805.456	363
805.557	47
805.658	-602
805.758	1309
805.859	193
805.960	432
806.061	-51
806.161	-420
806.262	-174
806.362	289
806.463	-250
806.564	990
806.664	516
806.765	394
806.865	343
806.966	-347
807.066	-538
807.166	1015
807.267	1370
807.367	601
807.468	1001
807.568	15
807.668	301
807.769	1615
807.869	167
807.969	34
808.069	-287
808.170	976
808.270	-565
808.370	943
808.470	337
808.570	-282
808.670	-865
808.770	660
808.870	-278
808.970	670
809.070	-58
809.170	-845
809.271	697
809.370	-844
809.470	422
809.570	155
809.670	-455
809.770	317
809.870	133
809.970	-56
810.070	333
810.169	675
810.269	-749
810.369	1825
810.469	588
810.568	372
810.668	414
810.768	-113
810.867	555
810.967	-523
811.066	553
811.166	343
811.265	949
811.365	-477
811.464	400
811.564	256
811.663	966
811.763	-1356
811.862	1532
811.962	1471
812.061	359
812.160	-13
812.260	-71
812.359	154
812.458	-410
812.557	680
812.657	-1056
812.756	-25
812.855	206
812.954	-303
813.053	828
813.153	-285
813.252	-631
813.351	600
813.450	7
813.549	-140
813.648	566
813.747	-287
813.846	614
813.945	86
814.044	35
814.143	959
814.242	1274
814.341	-393
814.439	39
814.538	1139
814.637	698
814.736	753
814.835	1181
814.933	15
815.032	1089
815.131	2101
815.229	4522
815.328	6963
815.427	5075
815.525	4078
815.624	4137
815.722	3219
815.821	5569
815.919	4202
816.018	4011
816.116	4328
816.215	4333
816.313	4631
816.412	5385
816.510	5840
816.609	7211
816.707	6615
816.805	5640
816.904	4740
817.002	5367
817.100	5765
817.198	5631
817.296	5364
817.395	4890
817.493	6178
817.591	4373
817.689	4954
817.787	4879
817.885	5748
817.983	4816
818.081	5937
818.179	5775
818.277	8387
818.375	7264
818.473	5524
818.571	4102
818.669	5157
818.767	6489
818.865	4478
818.963	3911
819.061	4555
819.158	4787
819.256	6971
819.354	5338
819.452	9279
819.549	5218
819.647	7107
819.745	3678
819.842	5752
819.940	4224
820.038	3781
820.135	3517
820.233	5084
820.330	3534
820.428	3557
820.525	6016
820.623	4471
820.720	2880
820.818	4571
820.915	4264
821.012	4922
821.110	1989
821.207	4342
821.304	3034
821.402	4374
821.499	4566
821.596	3080
821.693	3394
821.791	4299
821.888	3468
821.985	3908
822.082	2222
822.179	4097
822.276	3724
822.373	3312
822.470	3710
822.567	4074
822.664	2395
822.761	3239
822.858	2842
822.955	3209
823.052	3178
823.149	3722
823.246	3253
823.343	2630
823.440	3343
823.536	4347
823.633	3137
823.730	1986
823.827	3319
823.923	2971
824.020	3835
824.117	3950
824.213	2988
824.310	3439
824.407	2063
824.503	4496
824.600	1976
824.696	1792
824.793	3524
824.889	2467
824.986	1907
825.082	1318
825.179	2642
825.275	4012
825.371	3555
825.468	3032
825.564	1044
825.660	3784
825.757	3176
825.853	3139
825.949	1147
826.045	2224
826.142	2816
826.238	2805
826.334	2844
826.430	2144
826.526	1530
826.622	778
826.718	4026
826.814	2813
826.910	2375
827.006	1535
827.102	974
827.198	3388
827.294	2610
827.390	3001
827.486	2746
827.582	118
827.678	1165
827.774	2827
827.869	149
827.965	1495
828.061	1508
828.157	3432
828.252	2952
828.348	1054
828.444	2615
828.539	1628
828.635	2234
828.731	2146
828.826	671
828.922	2677
829.017	3064
829.113	2671
829.208	1210
829.304	1733
829.399	3774
829.495	2157
829.590	1629
829.685	744
829.781	2625
829.876	2361
829.971	114
830.066	-56
830.162	1504
830.257	3051
830.352	1666
830.447	2218
830.543	882
830.638	998
830.733	2979
830.828	601
830.923	2178
831.018	2827
831.113	2707
831.208	506
831.303	-32
831.398	875
831.493	1714
831.588	3253
831.683	891
831.778	1206
831.873	637
831.967	3116
832.062	1941
832.157	1485
832.252	1194
832.346	857
832.441	2199
832.536	1326
832.631	1390
832.725	860
832.820	1746
832.914	591
833.009	-33
833.104	160
833.198	299
833.293	1026
833.387	1896
833.482	1774
833.576	1709
833.670	1473
833.765	921
833.859	882
833.954	1661
834.048	1305
834.142	166
834.237	664
834.331	1719
834.425	2430
834.519	635
834.613	994
834.708	648
834.802	407
834.896	457
834.990	919
835.084	896
835.178	-230
835.272	249
835.366	2241
835.460	1517
835.554	1289
835.648	638
835.742	-83
835.836	1202
835.930	1059
836.024	1123
836.117	1082
836.211	99
836.305	823
836.399	1355
836.493	-264
836.586	1970
836.680	1411
836.774	-171
836.867	1436
836.961	-274
837.055	-587
837.148	632
837.242	1457
837.335	805
837.429	101
837.522	488
837.616	660
837.709	368
837.803	250
837.896	1546
837.989	1329
838.083	379
838.176	104
838.269	-909
838.363	988
838.456	784
838.549	1229
838.642	-64
838.735	386
838.829	1176
838.922	508
839.015	956
839.108	120
839.201	651
839.294	1281
839.387	519
839.480	-701
839.573	362
839.666	-881
839.759	-404
839.852	-740
839.945	539
840.038	-449
840.131	-88
840.223	528
840.316	1153
840.409	655
840.502	-185
840.594	1518
840.687	-1037
840.780	-370
840.873	-312
840.965	-192
841.058	585
841.150	1484
841.243	-34
841.336	283
841.428	-186
841.521	-32
841.613	-450
841.706	1154
841.798	386
841.890	1304
841.983	-191
842.075	675
842.167	-185
842.260	317
842.352	1011
842.444	-187
842.537	164
842.629	933
842.721	-209
842.813	-33
842.905	247
842.997	553
843.090	28
843.182	128
843.274	-193
843.366	84
843.458	-197
843.550	858
843.642	74
843.734	596
843.826	-45
843.918	74
844.009	1126
844.101	177
844.193	186
844.285	662
844.377	601
844.469	-38
844.560	-756
844.652	394
844.744	-183
844.835	787
844.927	-645
845.019	-626
845.110	160
845.202	639
845.293	-71
845.385	12
845.476	94
845.568	517
845.659	103
845.751	1137
845.842	216
845.934	18
846.025	-369
846.116	392
846.208	-185
846.299	-558
846.390	-387
846.482	-238
846.573	467
846.664	317
846.755	-412
846.846	259
846.937	-1988
847.029	-421
847.120	-350
847.211	482
847.302	1238
847.393	-916
847.484	-80
847.575	-1218
847.666	-920
847.757	463
847.847	580
847.938	869
848.029	-251
848.120	-552
848.211	554
848.302	-1073
848.392	-400
848.483	913
848.574	-1410
848.664	-490
848.755	19
848.846	-354
848.936	-224
849.027	81
849.118	564
849.208	-128
849.299	0
849.389	876
849.480	2447
849.570	6980
849.661	13073
849.751	21165
849.841	6535
849.932	173
850.022	-129
850.112	872
850.203	228
850.293	-588
850.383	-987
850.474	-977
850.564	-586
850.654	-194
850.744	95
850.834	452
850.924	-17
851.014	4
851.104	69
851.194	-592
851.284	86
851.374	-60
851.464	-840
851.554	-706
851.644	254
851.734	694
851.824	-428
851.914	98
852.004	695
852.094	-997
852.183	-834
852.273	-29
852.363	-216
852.452	325
852.542	409
852.632	-627
852.721	915
852.811	-20
852.901	-266
852.990	-285
853.080	-96
853.169	97
853.259	-451
853.348	-435
853.438	217
853.527	592
853.617	1167
853.706	4524
853.795	6493
853.885	15910
853.974	29748
854.063	55511
854.152	74119
854.242	25216
854.331	4846
854.420	1973
854.509	791
854.598	1385
854.687	787
854.777	267
854.866	-208
854.955	608
855.044	-857
855.133	-143
855.222	213
855.311	-1017
855.400	-33
855.488	-243
855.577	-455
855.666	-755
855.755	-340
855.844	411
855.933	-337
856.021	-206
856.110	-546
856.199	-260
856.288	-542
856.376	-254
856.465	-448
856.554	-83
856.642	-659
856.731	224
856.819	248
856.908	181
856.996	-435
857.085	-575
857.173	-906
857.262	-604
857.350	-955
857.438	-528
857.527	-1063
857.615	-70
857.703	892
857.792	-118
857.880	-609
857.968	-1362
858.056	-246
858.145	151
858.233	-555
858.321	-646
858.409	459
858.497	117
858.585	-910
858.673	234
858.761	-338
858.849	-648
858.937	-724
859.025	-461
859.113	536
859.201	-651
859.289	799
859.377	458
859.465	-1026
859.552	-23
859.640	-437
859.728	-263
859.816	-458
859.903	-398
859.991	-849
860.079	-522
860.166	-20
860.254	-332
860.342	29
860.429	-206
860.517	-419
860.604	-313
860.692	48
860.779	-634
860.867	-143
860.954	141
861.042	323
861.129	-511
861.216	-347
861.304	-774
861.391	-550
861.478	-100
861.565	458
861.653	-189
861.740	-812
861.827	-139
861.914	13
862.001	-616
862.089	89
862.176	69
862.263	-446
862.350	-544
862.437	-722
862.524	-166
862.611	-621
862.698	-195
862.785	-141
862.871	699
862.958	-18
863.045	320
863.132	-339
863.219	-241
863.306	-820
863.392	105
863.479	535
863.566	-451
863.652	-97
863.739	137
863.826	-235
863.912	460
863.999	-227
864.086	650
864.172	425
864.259	-21
864.345	234
864.432	282
864.518	-140
864.604	215
864.691	46
864.777	448
864.863	2004
864.950	2663
865.036	3789
865.122	7267
865.209	8273
865.295	6936
865.381	5095
865.467	6325
865.553	7047
865.639	6514
865.726	7939
865.812	13591
865.898	20165
865.984	28123
866.070	50220
866.156	46902
866.242	14871
866.328	8249
866.414	5310
866.499	6985
866.585	4825
866.671	4960
866.757	5468
866.843	4639
866.928	4606
867.014	5073
867.100	5509
867.186	4623
867.271	5033
867.357	5244
867.442	4664
867.528	5127
867.614	4621
867.699	4572
867.785	5422
867.870	4946
867.956	4922
868.041	5315
868.127	4445
868.212	4355
868.297	5009
868.383	4138
868.468	3873
868.553	5426
868.639	4216
868.724	4484
868.809	4459
868.894	3923
868.979	4451
869.065	4999
869.150	2913
869.235	3761
869.320	3726
869.405	2838
869.490	4126
869.575	3692
869.660	2536
869.745	4523
869.830	4581
869.915	3975
870.000	3298
870.085	3629
870.169	4411
870.254	5899
870.339	2369
870.424	3629
870.509	3989
870.593	4577
870.678	3604
870.763	3299
870.847	3230
870.932	3498
871.016	3553
871.101	2744
871.186	4040
871.270	4779
871.355	1548
871.439	3392
871.523	3969
871.608	3101
871.692	2598
871.777	4183
871.861	3994
871.945	3406
872.030	3677
872.114	2549
872.198	2223
872.282	2248
872.367	2339
872.451	2030
872.535	2092
872.619	3734
872.703	2196
872.787	3448
872.871	2915
872.955	1982
873.039	1687
873.123	3342
873.207	3685
873.291	1484
873.375	2327
873.459	4103
873.543	2049
873.627	2528
873.711	2744
873.794	3194
873.878	2737
873.962	1899
874.045	1202
874.129	1269
874.137	1381
874.213	2500
874.245	2614
874.296	2797
874.352	2489
874.380	2340
874.460	3257
874.464	3295
874.547	1791
874.568	2179
874.631	3310
874.676	2716
874.714	2209
874.784	2625
874.798	2719
874.881	2664
874.892	2550
874.965	1735
874.999	2009
875.048	2368
875.107	2296
875.131	2261
875.215	1892
875.215	1892
875.298	1464
875.323	1694
875.381	2202
875.430	3358
875.465	4165
875.538	2646
875.548	2428
875.631	872
875.646	897
875.714	1187
875.753	1529
875.798	1904
875.861	2899
875.881	3177
875.964	1543
875.968	1514
876.047	1020
876.076	1341
876.130	2074
876.183	1982
876.213	1848
876.291	1827
876.296	1832
876.379	1960
876.398	1856
876.462	1459
876.506	1113
876.545	794
876.613	1320
876.628	1476
876.711	1993
876.721	2141
876.794	3183
876.828	2696
876.877	1864
876.935	1649
876.960	1622
877.043	1939
877.043	1941
877.125	2380
877.150	2442
877.208	2635
877.258	2223
877.291	1826
877.365	1185
877.374	1134
877.456	1357
877.472	1350
877.539	1437
877.579	1709
877.622	1852
877.687	1731
877.704	1758
877.787	2257
877.794	2280
877.869	2374
877.901	2104
877.952	1572
878.008	1132
878.034	969
878.115	1068
878.117	1074
878.199	1635
878.222	1801
878.282	2344
878.329	2524
878.364	2555
878.437	2635
878.447	2587
878.529	1075
878.544	967
878.611	909
878.651	1129
878.694	1562
878.758	2443
878.776	2569
878.858	1930
878.865	1856
878.941	1037
878.972	950
879.023	793
879.078	910
879.105	1140
879.185	2126
879.187	2139
879.269	1967
879.292	1832
879.351	1502
879.399	1302
879.433	1207
879.506	1615
879.516	1655
879.598	1939
879.613	1853
879.680	1764
879.720	2005
879.762	2053
879.827	1397
879.844	1228
879.926	1652
879.933	1613
880.007	1539
880.040	1593
880.089	1518
880.147	1682
880.171	1830
880.253	2603
880.254	2603
880.335	2317
880.360	2835
880.417	4934
880.467	6421
880.499	7040
880.574	6562
880.580	6416
880.662	3628
880.680	3131
880.744	1513
880.787	986
880.825	1119
880.893	1875
880.907	1871
880.989	1565
881.000	1540
881.070	2203
881.106	2034
881.152	1469
881.213	1330
881.233	1267
881.315	1722
881.319	1711
881.396	2021
881.426	1936
881.478	1766
881.532	2381
881.559	2547
881.639	1500
881.641	1484
881.722	1740
881.745	1806
881.803	1947
881.852	1883
881.885	1842
881.958	1442
881.966	1385
882.047	1588
882.064	1413
882.129	1223
882.171	1370
882.210	960
882.277	448
882.291	545
882.372	1692
882.383	1798
882.454	2226
882.489	1991
882.535	1785
882.596	2280
882.616	2342
882.697	1781
882.702	1762
882.778	1947
882.808	2058
882.859	1609
882.914	1057
882.940	1192
883.020	1806
883.021	1812
883.102	2005
883.127	2158
883.183	2515
883.233	2529
883.264	2106
883.339	1072
883.345	1071
883.426	1442
883.445	1382
883.507	978
883.551	1008
883.587	1246
883.657	2143
883.668	2288
883.749	1900
883.763	1948
883.830	1592
883.869	1352
883.910	1202
883.975	1105
883.991	1099
884.072	1035
884.081	1029
884.152	2167
884.187	2693
884.233	2594
884.292	2152
884.314	1965
884.394	1018
884.398	1011
884.475	1257
884.504	1133
884.555	1192
884.610	1287
884.636	1259
884.716	1631
884.716	1642
884.797	2411
884.821	2756
884.877	2627
884.927	2122
884.958	1698
885.033	877
885.038	880
885.118	894
885.139	942
885.199	1202
885.244	1424
885.279	1439
885.350	1481
885.359	1607
885.439	2844
885.456	2921
885.520	2365
885.561	2326
885.600	2119
885.667	1535
885.680	1610
885.760	2243
885.773	2309
885.840	1295
885.878	704
885.920	1087
885.984	1878
886.000	1871
886.080	1608
886.089	1591
886.160	2058
886.195	2176
886.240	2004
886.300	1863
886.320	1822
886.400	1692
886.406	1659
886.480	795
886.511	567
886.560	1103
886.616	1650
886.640	1636
886.720	1479
886.722	1471
886.800	1400
886.827	1461
886.879	1329
886.932	853
886.959	1208
887.038	2539
887.039	2540
887.119	2112
887.143	1892
887.198	2097
887.248	2285
887.278	2163
887.354	2021
887.358	2031
887.437	1948
887.459	1952
887.517	2163
887.564	2118
887.596	1942
887.669	1788
887.676	1780
887.755	1606
887.774	1554
887.835	1631
887.880	1666
887.914	1914
887.985	2325
887.994	2328
888.073	2498
888.090	2463
888.153	2869
888.195	3222
888.232	2962
888.300	2396
888.311	2334
888.391	1873
888.405	1792
888.470	1999
888.510	2085
888.549	1777
888.615	1335
888.628	1507
888.708	2423
888.720	2560
888.787	2203
888.825	2007
888.866	1750
888.930	1327
888.945	1365
889.024	1599
889.035	1620
889.103	1893
889.140	2044
889.182	1737
889.245	1256
889.261	1339
889.340	1761
889.349	1806
889.419	1957
889.454	2032
889.498	1858
889.559	1621
889.577	1680
889.656	1927
889.664	1951
889.735	2014
889.768	2038
889.814	1860
889.873	1615
889.978	2156
890.083	1767
890.187	2023
890.292	2508
890.397	1437
890.501	2009
890.606	1041
890.710	1028
890.815	3199
890.919	1808
891.024	2135
891.128	1391
891.233	1188
891.337	2291
891.442	2305
891.546	2322
891.650	1445
891.755	1709
891.859	2404
891.963	2932
892.068	1967
892.172	1620
892.276	1373
892.380	1722
892.484	2537
892.589	1796
892.693	2293
892.797	642
892.901	938
893.005	875
893.109	2903
893.213	2599
893.317	2290
893.421	1390
893.525	1907
893.629	1560
893.733	2265
893.837	2078
893.941	1363
894.045	1960
894.148	1469
894.252	1383
894.356	2999
894.460	2554
894.564	1586
894.667	1453
894.771	1096
894.875	1783
894.978	2038
895.082	1557
895.186	1907
895.289	1324
895.393	1368
895.496	3501
895.600	1398
895.703	1497
895.807	1527
895.910	1590
896.014	1256
896.117	1709
896.221	2298
896.324	1605
896.427	920
896.531	766
896.634	1236
896.737	937
896.840	1852
896.944	1720
897.047	1985
897.150	1605
897.253	948
897.356	1893
897.460	1207
897.563	824
897.666	2444
897.769	2060
897.872	1383
897.975	733
898.078	1687
898.181	1298
898.284	628
898.387	2026
898.490	2017
898.593	2237
898.695	1032
898.798	1520
898.901	1664
899.004	2123
899.107	1459
899.209	1466
899.312	2189
899.415	1511
899.518	1561
899.620	876
899.723	1647
899.826	928
899.928	1386
900.031	1087
900.133	2120
900.236	1575
900.338	1346
900.441	647
900.543	1352
900.646	1501
900.748	1378
900.851	1539
900.953	1619
901.055	1359
901.158	1728
901.260	2143
901.362	912
901.465	1110
901.567	1879
901.669	2194
901.771	1310
901.873	1519
901.976	939
902.078	1927
902.180	1337
902.282	948
902.384	1507
902.486	2123
902.588	1408
902.690	1125
902.792	378
902.894	1629
902.996	1700
903.098	1455
903.200	1147
903.302	613
903.404	1066
903.505	1578
903.607	1202
903.709	2532
903.811	2895
903.913	1538
904.014	901
904.116	800
904.218	1276
904.319	789
904.421	2457
904.523	1497
904.624	1447
904.726	1164
904.827	1049
904.929	1006
905.030	148
905.132	2431
905.233	2154
905.335	267
905.436	903
905.537	353
905.639	1512
905.740	1661
905.841	2026
905.943	1298
906.044	1158
906.145	1134
906.247	964
906.348	1963
906.449	1699
906.550	1946
906.651	1118
906.752	165
906.854	963
906.955	487
907.056	905
907.157	1297
907.258	2277
907.359	-134
907.460	451
907.561	505
907.662	1259
907.762	1359
907.863	504
907.964	1678
908.065	1494
908.166	1442
908.267	1632
908.367	506
908.468	421
908.569	1259
908.670	1496
908.770	1360
908.871	808
908.971	1158
909.072	2356
909.173	233
909.273	603
909.374	1472
909.474	1829
909.575	813
909.675	429
909.776	1356
909.876	1274
909.977	1292
910.077	2064
910.177	1773
910.278	1520
910.378	378
910.478	901
910.579	1158
910.679	1866
910.779	1449
910.879	2581
910.980	1741
911.080	1672
911.180	442
911.280	637
911.380	-9
911.480	1342
911.580	508
911.680	861
911.780	1924
911.880	1522
911.980	413
912.080	840
912.180	929
912.280	739
912.380	1651
912.480	665
912.580	902
912.679	1395
912.779	1574
912.879	2047
912.979	962
913.078	762
913.178	587
913.278	328
913.377	887
913.477	529
913.577	463
913.676	1625
913.776	1485
913.875	1275
913.975	1374
914.074	1687
914.174	1128
914.273	915
914.373	179
914.472	1261
914.572	341
914.671	1327
914.770	1213
914.870	555
914.969	967
915.068	972
915.167	1235
915.267	569
915.366	842
915.465	577
915.564	823
915.663	1685
915.763	1127
915.862	1585
915.961	1308
916.060	741
916.159	1089
916.258	1075
916.357	365
916.456	1840
916.555	984
916.654	982
916.752	1364
916.851	1317
916.950	486
917.049	845
917.148	766
917.247	1120
917.345	840
917.444	89
917.543	724
917.642	1499
917.740	444
917.839	2214
917.937	2472
918.036	2093
918.135	1247
918.233	1661
918.332	580
918.430	1360
918.529	664
918.627	1482
918.726	1387
918.824	1764
918.923	1372
919.021	1424
919.119	1262
919.218	532
919.316	1057
919.414	1415
919.512	1797
919.611	2220
919.709	1608
919.807	1742
919.905	1389
920.003	2017
920.102	1641
920.200	1866
920.298	2165
920.396	1822
920.494	2285
920.592	1540
920.690	2147
920.788	1797
920.886	1791
920.984	2307
921.082	2154
921.180	3190
921.277	2800
921.375	3179
921.473	3747
921.571	3866
921.669	2947
921.766	2320
921.864	3689
921.962	3770
922.060	2651
922.157	3830
922.255	3333
922.352	3196
922.450	3656
922.548	3518
922.645	3811
922.743	6430
922.840	9337
922.938	11479
923.035	10195
923.133	9539
923.230	9871
923.327	12584
923.425	12573
923.522	11506
923.619	11425
923.717	9277
923.814	9132
923.911	10086
924.008	10035
924.106	9780
924.203	8667
924.300	10142
924.397	9129
924.494	9708
924.591	9412
924.688	8062
924.786	9081
924.883	8871
924.979	9101
925.077	9577
925.173	8907
925.270	8405
925.367	8950
925.464	9964
925.561	9150
925.658	9606
925.755	7127
925.852	9685
925.948	8524
926.045	8392
926.142	9462
926.239	9461
926.335	6777
926.432	8822
926.529	9225
926.625	10356
926.722	7804
926.818	7664
926.915	8655
927.011	7552
927.108	8025
927.204	8829
927.301	6880
927.397	8751
927.494	9675
927.590	5926
927.687	6201
927.783	9737
927.879	8855
927.976	7250
928.072	7192
928.168	8424
928.264	7249
928.361	6744
928.457	9077
928.553	7365
928.649	7356
928.745	7806
928.841	6880
928.937	7700
929.033	7905
929.129	7391
929.225	8543
929.321	7551
929.417	5850
929.513	8391
929.609	6438
929.705	5831
929.801	8518
929.897	6601
929.993	5911
930.089	7966
930.184	6121
930.280	7310
930.376	9077
930.471	5695
930.567	5237
930.663	7089
930.758	5614
930.854	6608
930.950	5869
931.045	5425
931.141	6213
931.236	8360
931.332	6203
931.427	4927
931.523	7801
931.618	8027
931.714	4273
931.809	5426
931.905	7547
932.000	5162
932.095	3694
932.191	7147
932.286	7678
932.381	6370
932.476	4659
932.572	6353
932.667	5185
932.762	4835
932.857	5687
932.952	6838
933.047	6282
933.142	4308
933.237	5765
933.332	6858
933.427	6512
933.522	6047
933.617	4731
933.712	5813
933.807	6432
933.902	6772
933.997	6824
934.092	5244
934.187	5216
934.282	6037
934.376	5766
934.471	7047
934.566	5298
934.661	4076
934.755	6355
934.850	7337
934.945	5726
935.039	4542
935.134	3831
935.228	4638
935.323	8211
935.417	5181
935.512	3686
935.606	3909
935.701	5899
935.795	5974
935.890	5177
935.984	4476
936.079	3067
936.173	4673
936.267	5278
936.362	4316
936.456	5096
936.550	7158
936.644	4877
936.738	4129
936.833	3588
936.927	3266
937.021	3648
937.115	4642
937.209	4302
937.303	5125
937.397	4417
937.491	4741
937.585	5544
937.679	5393
937.773	3446
937.867	3935
937.961	3298
938.055	5344
938.149	5455
938.243	3017
938.337	3096
938.430	4218
938.524	6139
938.618	4449
938.712	3809
938.805	4136
938.899	4540
938.993	6184
939.086	3537
939.180	2565
939.274	4686
939.367	4156
939.461	4863
939.554	4052
939.648	2617
939.741	4063
939.835	3823
939.928	6412
940.022	5461
940.115	3155
940.208	5484
940.302	4940
940.395	5218
940.488	3264
940.582	4588
940.675	3096
940.768	2597
940.861	4286
940.954	5327
941.048	2712
941.141	2283
941.234	3504
941.327	2776
941.420	4462
941.513	4758
941.606	2933
941.699	3359
941.792	4433
941.885	3775
941.978	4318
942.071	4428
942.164	2981
942.257	2442
942.349	4350
942.442	4181
942.535	2235
942.628	2788
942.721	3005
942.813	2441
942.906	4561
942.999	3355
943.091	1910
943.184	2945
943.277	3456
943.369	2120
943.462	1554
943.554	2644
943.647	3298
943.739	4663
943.832	5372
943.924	1430
944.017	1430
944.109	2643
944.201	2707
944.294	3352
944.386	3347
944.478	2616
944.571	2470
944.663	1924
944.755	3359
944.847	3384
944.940	3180
945.032	1508
945.124	2052
945.216	3940
945.308	3098
945.400	3282
945.492	2212
945.584	3974
945.676	3217
945.768	3645
945.860	4367
945.952	4642
946.044	3126
946.136	2721
946.228	2690
946.320	1916
946.412	2667
946.503	3719
946.595	4657
946.687	1959
946.779	2020
946.870	1916
946.962	2431
947.054	2143
947.145	2685
947.237	2896
947.329	3211
947.420	3032
947.512	4213
947.603	1260
947.695	1902
947.786	1575
947.878	2350
947.969	3017
948.061	3692
948.152	1950
948.243	2283
948.335	2130
948.426	1397
948.517	2739
948.609	3712
948.700	2468
948.791	2744
948.882	2373
948.973	1993
949.065	1385
949.156	3266
949.247	1195
949.338	2661
949.429	1209
949.520	2710
949.611	2043
949.702	3317
949.793	1752
949.884	2327
949.975	2681
950.066	1124
950.157	1240
950.247	2447
950.338	1700
950.429	1346
950.520	2684
950.611	1477
950.701	1851
950.792	3174
950.883	3031
950.973	1910
951.064	2691
951.155	2628
951.245	2036
951.336	3119
951.427	2369
951.517	3574
951.608	2820
951.698	2193
951.788	1090
951.879	1297
951.969	728
952.060	1849
952.150	2235
952.240	2873
952.331	960
952.421	3521
952.511	803
952.602	1570
952.692	1405
952.782	1889
952.872	1120
952.962	2412
953.052	1681
953.143	1786
953.233	2044
953.323	2583
953.413	1703
953.503	2445
953.593	2015
953.683	1349
953.773	1480
953.863	676
953.953	467
954.042	1680
954.132	1634
954.222	3130
954.312	1485
954.402	1473
954.492	940
954.581	2055
954.671	1216
954.761	737
954.850	1584
954.940	784
955.030	944
955.119	1295
955.209	1250
955.298	1971
955.388	1255
955.477	2580
955.567	214
955.656	1893
955.746	1901
955.835	1842
955.925	1172
956.014	2077
956.103	2226
956.193	2474
956.282	2653
956.371	1676
956.461	966
956.550	1485
956.639	1915
956.728	2044
956.817	1491
956.906	1287
956.995	2885
957.085	1792
957.174	1272
957.263	1100
957.352	1820
957.441	2041
957.530	1167
957.619	1237
957.708	1341
957.796	1271
957.885	795
957.974	1909
958.063	1470
958.152	165
958.241	778
958.329	611
958.418	1086
958.507	1337
958.596	2851
958.684	1013
958.773	1388
958.861	1385
958.950	659
959.039	2146
959.127	1237
959.216	1878
959.304	1666
959.393	954
959.481	1023
959.570	622
959.658	686
959.746	921
959.835	1104
959.923	605
960.011	643
960.100	1601
960.188	1887
960.276	862
960.365	1091
960.453	1536
960.541	698
960.629	1358
960.717	799
960.805	-147
960.893	266
960.981	1065
961.069	2792
961.158	2684
961.245	3754
961.333	2624
961.421	1105
961.509	1137
961.597	1804
961.685	317
961.773	1180
961.861	1066
961.949	1302
962.036	360
962.124	970
962.212	956
962.299	268
962.387	492
962.475	306
962.562	84
962.650	1147
962.738	1282
962.825	558
962.913	1331
963.000	345
963.088	627
963.175	865
963.263	111
963.350	591
963.438	748
963.525	288
963.612	1087
963.700	615
963.787	1575
963.874	123
963.962	843
964.049	792
964.136	693
964.223	188
964.310	947
964.398	-146
964.485	419
964.572	905
964.659	973
964.746	296
964.833	355
964.920	323
965.007	1010
965.094	0
965.181	401
965.268	972
965.355	1164
965.441	1355
965.528	301
965.615	1765
965.702	668
965.789	-72
965.875	741
965.962	1527
966.049	-333
966.136	2245
966.222	976
966.309	1343
966.395	718
966.482	1854
966.569	712
966.655	1425
966.742	843
966.828	590
966.915	1179
967.001	993
967.087	-539
967.174	86
967.260	1231
967.347	-654
967.433	64
967.519	1085
967.605	126
967.692	565
967.778	835
967.864	1545
967.950	842
968.036	290
968.123	600
968.209	816
968.295	-44
968.381	1636
968.467	246
968.553	-951
968.639	1622
968.725	140
968.811	1153
968.897	1406
968.983	848
969.069	389
969.154	1139
969.240	627
969.326	-479
969.412	252
969.497	-271
969.583	55
969.669	611
969.755	889
969.840	1164
969.926	2173
970.012	2834
970.097	2876
970.183	1301
970.268	562
970.354	1317
970.439	953
970.525	1215
970.610	-304
970.696	1369
970.781	1406
970.866	-165
970.952	1054
971.037	442
971.122	181
971.208	807
971.293	909
971.378	-767
971.463	452
971.549	1708
971.634	244
971.719	8
971.804	1034
971.889	1424
971.974	96
972.059	951
972.144	868
972.229	1054
972.314	122
972.399	1112
972.484	323
972.569	363
972.654	-871
972.739	1746
972.824	773
972.908	145
972.993	1360
973.078	130
973.163	297
973.247	879
973.332	-721
973.417	2100
973.501	-475
973.586	1057
973.671	-146
973.755	65
973.840	1160
973.924	1142
974.009	1512
974.093	1049
974.178	2177
974.262	1507
974.346	769
974.431	752
974.515	477
974.600	268
974.684	1012
974.768	493
974.852	1166
974.937	-424
975.021	1842
975.105	634
975.189	473
975.273	766
975.358	-522
975.442	-745
975.526	756
975.610	169
975.694	-359
975.778	1793
975.862	849
975.946	-1526
976.030	1637
976.114	638
976.198	2
976.281	508
976.365	1662
976.449	156
976.533	160
976.617	-83
976.700	502
976.784	-345
976.868	61
976.951	247
977.035	-65
977.119	579
977.202	130
977.286	1579
977.369	1156
977.453	3210
977.536	1674
977.620	1178
977.703	1268
977.787	606
977.870	1744
977.953	1656
978.037	-1056
978.120	1426
978.203	270
978.287	1161
978.370	360
978.453	1340
978.536	98
978.620	1012
978.703	840
978.786	1020
978.869	-154
978.952	-75
979.035	1821
979.118	-371
979.201	-821
979.284	1931
979.367	311
979.450	847
979.533	50
979.616	287
979.699	352
979.782	743
979.865	708
979.948	471
980.030	780
980.113	72
980.196	158
980.279	1021
980.361	959
980.444	183
980.526	1376
980.609	1649
980.692	2630
980.774	2898
980.857	569
980.939	2328
981.022	666
981.104	1123
981.187	586
981.269	2071
981.352	1131
981.434	131
981.516	921
981.599	1712
981.681	1517
981.763	1458
981.846	969
981.928	943
982.010	203
982.092	454
982.174	1363
982.256	1530
982.339	483
982.421	583
982.503	797
982.585	-117
982.667	482
982.749	1137
982.831	1414
982.913	407
982.995	1384
983.077	668
983.158	1596
983.240	1200
983.322	2128
983.404	3694
983.486	2260
983.568	2886
983.649	2381
983.731	2485
983.813	1591
983.894	1420
983.976	1360
984.058	1526
984.139	1723
984.221	753
984.302	2003
984.384	1177
984.465	1157
984.547	1439
984.628	-131
984.710	2292
984.791	1371
984.872	1153
984.954	1079
985.035	2075
985.116	1298
985.198	1555
985.279	2448
985.360	1479
985.441	385
985.522	2372
985.604	1231
985.685	404
985.766	2081
985.847	2602
985.928	1411
986.009	1298
986.090	1779
986.171	2231
986.252	1032
986.333	2001
986.414	1216
986.495	1464
986.576	1400
986.656	1683
986.737	2317
986.818	2211
986.899	561
986.980	1253
987.060	2673
987.141	2114
987.222	2736
987.302	3311
987.383	2612
987.464	2194
987.544	2611
987.625	1608
987.705	2795
987.786	3186
987.866	2483
987.947	3121
988.027	2862
988.108	2643
988.188	2655
988.268	1921
988.349	1819
988.429	2906
988.509	2453
988.589	1844
988.670	196
988.750	3827
988.830	1410
988.910	2726
988.990	1609
989.070	1293
989.151	1876
989.231	1391
989.311	2588
989.391	1527
989.471	1645
989.551	1506
989.631	1567
989.711	3033
989.791	1730
989.870	753
989.950	3062
990.030	1666
990.110	2264
990.190	1270
990.269	1548
990.349	2098
990.429	2338
990.509	1933
990.588	22
990.668	1669
990.747	1222
990.827	1632
990.907	1920
990.986	2233
991.066	2255
991.145	234
991.225	1534
991.304	1347
991.383	1902
991.463	1767
991.542	2312
991.622	1195
991.701	627
991.780	563
991.859	1653
991.939	799
992.018	1628
992.097	2063
992.176	1084
992.256	1214
992.335	1440
992.414	2252
992.493	219
992.572	657
992.651	981
992.730	960
992.809	1311
992.888	263
992.967	1355
993.046	2193
993.125	-130
993.203	1394
993.282	749
993.361	2040
993.440	1162
993.519	780
993.597	1070
993.676	1301
993.755	1285
993.834	969
993.912	-383
993.991	1913
994.069	881
994.148	1033
994.226	685
994.305	626
994.384	795
994.462	2670
994.540	-564
994.619	547
994.697	1441
994.776	541
994.854	1367
994.932	854
995.011	146
995.089	407
995.167	744
995.245	1162
995.324	-318
995.402	892
995.480	517
995.558	762
995.636	12
995.714	135
995.792	1272
995.870	103
995.948	454
996.026	498
996.104	-188
996.182	936
996.260	-534
996.338	365
996.416	-485
996.494	438
996.572	1386
996.649	-782
996.727	-713
996.805	1319
996.883	1240
996.960	285
997.038	1259
997.116	997
997.193	89
997.271	607
997.348	-98
997.426	193
997.504	-50
997.581	1060
997.658	397
997.736	-315
997.813	-227
997.891	1465
997.968	-500
998.046	468
998.123	451
998.200	473
998.277	103
998.355	1302
998.432	-791
998.509	110
998.586	568
998.663	583
998.741	298
998.818	36
998.895	-526
998.972	247
999.049	351
999.126	-345
999.203	-321
999.280	-517
999.357	-338
999.434	-106
999.511	-9
999.587	235
999.664	-923
999.741	294
999.818	494
999.895	78
999.971	-733
1000.048	332
1000.125	958
1000.202	118
1000.278	60
1000.355	315
1000.431	-370
1000.508	-1307
1000.584	593
1000.661	370
1000.738	-669
1000.814	-206
1000.890	494
1000.967	237
1001.043	903
1001.120	-510
1001.196	-68
1001.272	-212
1001.349	-903
1001.425	362
1001.501	71
1001.577	-900
1001.654	475
1001.730	123
1001.806	-1278
1001.882	-1012
1001.958	44
1002.034	152
1002.110	-112
1002.186	-322
1002.262	-906
1002.338	-433
1002.414	396
1002.490	-282
1002.566	-448
1002.642	-891
1002.718	731
1002.794	-495
1002.870	-791
1002.945	-454
1003.021	-413
1003.097	55
1003.173	-257
1003.248	-1178
1003.324	151
1003.400	211
1003.475	-804
1003.551	-624
1003.626	-89
1003.702	-329
1003.777	-1060
1003.853	-763
1003.928	-1284
1004.004	282
1004.079	-696
1004.155	455
1004.230	-1189
1004.305	440
1004.381	-1207
1004.456	-240
1004.531	-796
1004.607	-944
1004.682	-776
1004.757	453
1004.832	-475
1004.907	206
1004.982	-404
1005.057	117
1005.133	52
1005.208	158
1005.283	-1132
1005.358	132
1005.433	-1734
1005.508	-527
1005.583	-1475
1005.657	-97
1005.732	187
1005.807	-420
1005.882	-689
1005.957	91
1006.032	234
1006.106	-762
1006.181	136
1006.256	-468
1006.331	-1324
1006.405	-678
1006.480	-267
1006.554	483
1006.629	-929
1006.704	-1105
1006.778	-1014
1006.853	-453
1006.927	-801
1007.002	-569
1007.076	-186
1007.150	-860
1007.225	-211
1007.299	114
1007.373	-1792
1007.448	-446
1007.522	-684
1007.596	-833
1007.671	-1526
1007.745	-1152
1007.819	-1607
1007.893	-811
1007.967	324
1008.041	-1683
1008.115	-461
1008.190	-1468
1008.264	-245
1008.338	-1181
1008.412	-1111
1008.486	-503
1008.560	-806
1008.633	-946
1008.707	-197
1008.781	152
1008.855	-654
1008.929	-351
1009.003	-390
1009.076	-874
1009.150	-504
1009.224	-664
1009.298	-1248
1009.371	-427
1009.445	392
1009.519	-498
1009.592	-1304
1009.666	119
1009.739	-618
1009.813	-1357
1009.886	-366
1009.960	-2415
1010.033	-537
1010.107	241
1010.180	-1087
1010.253	-448
1010.327	-1534
1010.400	-971
1010.473	-1120
1010.547	845
1010.620	-1392
1010.693	-491
1010.766	-1347
1010.840	-233
1010.913	-578
1010.986	-1036
1011.059	-1646
1011.132	-1257
1011.205	-215
1011.278	-958
1011.351	-1400
1011.424	-880
1011.497	-1419
1011.570	-410
1011.643	-1572
1011.716	-1002
1011.789	-1402
1011.862	-426
1011.934	131
1012.007	-2313
1012.080	-680
1012.153	-728
1012.225	-491
1012.298	-826
1012.371	-714
1012.443	-886
1012.516	-1593
1012.588	-714
1012.661	-435
1012.733	-22
1012.806	-685
1012.879	-519
1012.951	-909
1013.023	-630
1013.096	-1017
1013.168	-703
1013.241	-388
1013.313	-698
1013.385	-1848
1013.458	-477
1013.530	-165
1013.602	-724
1013.674	-774
1013.746	-1970
1013.819	-894
1013.891	-139
1013.963	-1052
1014.035	-660
1014.107	-191
1014.179	-1045
1014.251	-1365
1014.323	-866
1014.395	-957
1014.467	-1005
1014.539	-463
1014.611	-1810
1014.683	-544
1014.754	-835
1014.826	-1482
1014.898	-1274
1014.970	-1515
1015.042	-24
1015.113	-1041
1015.185	-447
1015.257	-1827
1015.328	34
1015.400	-1218
1015.471	-146
1015.543	-2162
1015.615	-685
1015.686	-972
1015.757	-1026
1015.829	-861
1015.901	-1546
1015.972	-748
1016.043	-1145
1016.115	-1501
1016.186	-986
1016.257	-1781
1016.328	-883
1016.400	150
1016.471	-1345
1016.542	-1432
1016.613	-1587
1016.685	-531
1016.756	-1103
1016.827	-571
1016.898	-1026
1016.969	-1035
1017.040	-1812
1017.111	-1298
1017.182	-1482
1017.253	-518
1017.324	-1621
1017.395	-1906
1017.466	-1081
1017.537	-952
1017.608	-1295
1017.678	-917
1017.749	-2137
1017.820	-1380
1017.891	-1411
1017.961	-828
1018.032	-1643
1018.103	-1249
1018.173	-1166
1018.244	-1914
1018.315	-1042
1018.385	-1270
1018.456	-1044
1018.526	-2058
1018.597	-1050
1018.667	-1248
1018.738	-1356
1018.808	-996
1018.878	-1548
1018.949	-1728
1019.019	-1324
1019.089	-1565
1019.160	-932
1019.230	-1508
1019.300	-1008
1019.371	-2049
1019.441	-1117
1019.511	-1619
1019.581	-1004
1019.651	-1420
1019.721	-735
1019.791	-2091
1019.861	-1006
1019.931	-1540
1020.001	-1369
1020.071	-904
1020.141	-1091
1020.211	-1020
1020.281	-979
1020.351	-1840
1020.421	-1209
1020.491	-1064
1020.560	-1629
1020.630	-1499
1020.700	-1029
1020.770	-1348
1020.839	-1512
1020.909	-1439
1020.979	-786
1021.048	-1981
1021.118	-1210
1021.187	-1461
1021.257	-951
1021.326	-1041
1021.396	-1339
1021.465	-1067
1021.535	-1729
1021.604	-1556
1021.674	-1142
1021.743	-1271
1021.812	-1218
1021.882	-343
1021.951	-1026
1022.020	-1073
1022.089	-1156
1022.159	-1296
1022.228	-926
1022.297	-1419
1022.366	-1964
1022.435	-1112
1022.504	-1393
1022.573	-1379
1022.642	-1786
1022.711	-1779
1022.781	-691
1022.849	-1589
1022.918	-1397
1022.987	-1234
1023.056	-1639
1023.125	-1249
1023.194	-1134
1023.263	-1072
1023.331	-525
1023.400	-1227
1023.469	-1388
1023.538	-1631
1023.606	-1094
1023.675	-1324
1023.744	-1506
1023.812	-2215
1023.881	-1267
1023.949	-2022
1024.018	-1489
1024.086	-1187
1024.155	-1137
1024.223	-2296
1024.292	-1517
1024.360	-1385
1024.429	-889
1024.497	-1993
1024.565	-1591
1024.634	-918
1024.702	-973
1024.770	-1785
1024.838	-2303
1024.907	-683
1024.975	-1359
1025.043	-1108
1025.111	-1854
1025.179	-2144
1025.247	-924
1025.315	-1675
1025.383	-1958
1025.451	-1462
1025.519	-1209
1025.587	-1494
1025.655	-1292
1025.723	-957
1025.791	-1393
1025.859	-946
1025.927	-1612
1025.995	-1278
1026.062	-1047
1026.130	-1861
1026.198	-2297
1026.266	-1552
1026.333	-1152
1026.401	-1314
1026.469	-2195
1026.536	-1887
1026.604	-1048
1026.671	-1557
1026.739	-1303
1026.806	-2179
1026.874	-1871
1026.941	-1330
1027.009	-1451
1027.076	-1020
1027.144	-1243
1027.211	-1898
1027.278	-1552
1027.345	-1570
1027.413	-2264
1027.480	-741
1027.547	-2372
1027.614	-1603
1027.682	-1478
1027.749	-1509
1027.816	-2432
1027.883	-1537
1027.950	-948
1028.017	-2187
1028.084	-943
1028.151	-1930
1028.218	-1641
1028.285	-2085
1028.352	-1995
1028.419	-1975
1028.486	-1171
1028.553	-1439
1028.619	-2588
1028.686	-1371
1028.753	-2109
1028.820	-2439
1028.886	-1081
1028.953	-1881
1029.020	-1611
1029.086	-2543
1029.153	-2102
1029.220	-2121
1029.286	-2008
1029.353	-2013
1029.419	-1826
1029.486	-1631
1029.552	-1951
1029.619	-2006
1029.685	-2007
1029.751	-2122
1029.818	-1294
1029.884	-1724
1029.951	-341
1030.017	-1506
1030.083	-2194
1030.149	-1766
1030.216	-1347
1030.282	-889
1030.348	-2061
1030.414	-816
1030.480	-2277
1030.546	-1610
1030.612	-1818
1030.678	-1810
1030.744	-2368
1030.810	-1703
1030.876	-2336
1030.942	-2333
1031.008	-909
1031.074	-2180
1031.140	-1783
1031.206	-2241
1031.272	-2461
1031.337	-1471
1031.403	-2798
1031.469	-2130
1031.534	-2057
1031.600	-1659
1031.666	-1898
1031.731	-2123
1031.797	-1870
1031.863	-1685
1031.928	-1841
1031.994	-1521
1032.059	-2197
1032.125	-2503
1032.190	-1475
1032.256	-3121
1032.321	-2161
1032.386	-2473
1032.452	-2445
1032.517	-2546
1032.582	-2523
1032.647	-2234
1032.713	-2142
1032.778	-1888
1032.843	-1840
1032.908	-2379
1032.974	-1421
1033.039	-2949
1033.104	-1487
1033.169	-2682
1033.234	-1620
1033.299	-2851
1033.364	-971
1033.429	-2123
1033.494	-1917
1033.559	-2162
1033.624	-2241
1033.688	-1496
1033.753	-1951
1033.818	-2040
1033.883	-1679
1033.948	-1961
1034.013	-2139
1034.077	-1371
1034.142	-1177
1034.207	-777
1034.271	315
1034.336	157
1034.400	92
1034.465	-1403
1034.530	-2213
1034.594	-1613
1034.658	-2154
1034.723	-2416
1034.787	-1490
1034.852	-1459
1034.916	-1657
1034.981	-2267
1035.045	-1781
1035.109	-2553
1035.173	-1534
1035.238	-3087
1035.302	-2234
1035.366	-2288
1035.430	-1802
1035.495	-2134
1035.559	-1047
1035.623	-1920
1035.687	-1579
1035.751	-1808
1035.815	-1896
1035.879	-2068
1035.943	-1925
1036.007	-2067
1036.071	-2072
1036.135	-1671
1036.198	-1896
1036.262	-3293
1036.326	-2294
1036.390	-2377
1036.454	-1689
1036.517	-2164
1036.581	-1610
1036.645	-1314
1036.709	-1900
1036.772	-2602
1036.836	-1824
1036.900	-1604
1036.963	-2190
1037.026	-2038
1037.090	-3148
1037.154	-2233
1037.217	-2479
1037.280	-1651
1037.344	-1890
1037.407	-2407
1037.471	-1779
1037.534	-2286
1037.597	-1744
1037.661	-1847
1037.724	-1982
1037.787	-2765
1037.850	-2013
1037.913	-2388
1037.977	-1784
1038.040	-1731
1038.103	-2501
1038.166	-1984
1038.229	-2703
1038.292	-2224
1038.355	-2381
1038.418	-2520
1038.481	-2211
1038.544	-1577
1038.607	-1734
1038.670	-1825
1038.732	-2046
1038.795	-2316
1038.858	-1773
1038.921	-2494
1038.984	-1572
1039.046	-2136
1039.109	-2505
1039.172	-2113
1039.234	-2485
1039.297	-1924
1039.360	-1902
1039.422	-2074
1039.485	-1628
1039.547	-2422
1039.610	-1881
1039.672	-2587
1039.734	-2202
1039.797	-1937
1039.859	-2418
1039.922	-2106
1039.984	-1817
1040.046	-3108
1040.109	-2870
1040.171	-3362
1040.233	-2297
1040.295	-1938
1040.358	-2559
1040.420	-2757
1040.482	-1554
1040.544	-3037
1040.606	-2542
1040.668	-2455
1040.730	-1930
1040.792	-2253
1040.854	-2797
1040.916	-1420
1040.978	-1856
1041.040	-1597
1041.102	-2137
1041.164	-1846
1041.225	-2476
1041.287	-1934
1041.349	-2277
1041.411	-1870
1041.472	-2041
1041.534	-2283
1041.596	-2500
1041.657	-2006
1041.719	-2112
1041.781	-2736
1041.842	-1851
1041.904	-1944
1041.965	-2152
1042.027	-1879
1042.088	-2490
1042.150	-2077
1042.211	-1923
1042.272	-2634
1042.334	-1830
1042.395	-1686
1042.456	-1928
1042.518	-1426
1042.579	-1464
1042.640	-2621
1042.701	-1756
1042.763	-2280
1042.824	-1184
1042.885	-1782
1042.946	-2247
1043.007	-2131
1043.068	-2190
1043.129	-2608
1043.190	-1998
1043.251	-1976
1043.312	-2661
1043.373	-1428
1043.434	-1815
1043.495	-2299
1043.556	-2181
1043.616	-2228
1043.677	-2276
1043.738	-2345
1043.799	-2263
1043.859	-1896
1043.920	-1715
1043.981	-1473
1044.041	-1757
1044.102	-2380
1044.162	-2214
1044.223	-2246
1044.284	-1986
1044.344	-3005
1044.405	-1111
1044.465	-2333
1044.525	-2454
1044.586	-1472
1044.646	-1592
1044.707	-2252
1044.767	-1502
1044.827	-1936
1044.887	-2222
1044.948	-2637
1045.008	-1954
1045.068	-2280
1045.128	-1714
1045.188	-1790
1045.249	-1469
1045.309	-1316
1045.369	-1260
1045.429	-971
1045.489	-1246
1045.549	-2179
1045.609	-2251
1045.669	-1507
1045.729	-2194
1045.789	-1823
1045.848	-1404
1045.908	-1375
1045.968	-1766
1046.028	-1294
1046.088	-2159
1046.147	-1332
1046.207	-965
1046.267	-1159
1046.326	-887
1046.386	-2274
1046.446	-1048
1046.505	-1146
1046.565	-850
1046.624	-984
1046.684	-561
1046.743	-982
1046.803	-1091
1046.862	-719
1046.922	0
