'Start Wavelength	183.907
'End Wavelength	1046.922
'Gate Delay	5.000
'Gate Width (ms)	1.050
'Laser Output Level	0.000
'X Position	0.000
'Y Position	0.000
'Z Position	0.000
'Grid Point Number	1.000
'Shot Number	100.000
183.907	67.000
183.977	-929.000
184.047	550
184.116	501
184.186	-336
184.256	-349
184.325	732
184.395	-1032
184.465	1876
184.534	651
184.604	155
184.674	-534
184.743	155
184.813	-73
184.883	-296
184.952	-123
185.022	1119
185.092	-135
185.161	-1
185.231	-705
185.301	-114
185.370	66
185.440	-385
185.509	-264
185.579	237
185.649	-90
185.718	909
185.788	205
185.857	187
185.927	-706
185.996	271
186.066	-533
186.136	201
186.205	864
186.275	1010
186.344	54
186.414	564
186.483	-700
186.553	586
186.622	549
186.692	-90
186.761	-226
186.831	393
186.900	-151
186.970	826
187.039	512
187.109	915
187.178	-271
187.248	669
187.317	-130
187.387	999
187.456	-31
187.526	450
187.595	-88
187.664	499
187.734	527
187.803	985
187.873	-11
187.942	396
188.012	-428
188.081	288
188.150	-57
188.220	118
188.289	80
188.358	322
188.428	335
188.497	512
188.567	-349
188.636	168
188.705	49
188.775	383
188.844	-743
188.913	866
188.983	-18
189.052	170
189.121	-17
189.191	468
189.260	-91
189.329	269
189.399	258
189.468	351
189.537	-471
189.606	291
189.676	-205
189.745	1098
189.814	-68
189.883	-53
189.953	-475
190.022	136
190.091	-395
190.161	-33
190.230	283
190.299	282
190.368	-727
190.437	215
190.507	79
190.576	289
190.645	-643
190.714	14
190.783	-147
190.853	372
190.922	-100
190.991	-272
191.060	12
191.129	-997
191.198	-66
191.268	461
191.337	-109
191.406	1024
191.475	-91
191.544	258
191.613	200
191.682	-242
191.752	309
191.821	477
191.890	-1060
191.959	674
192.028	229
192.097	194
192.166	452
192.235	173
192.304	68
192.373	963
192.442	-632
192.511	-17
192.580	-128
192.650	539
192.719	832
192.788	211
192.857	210
192.926	-14
192.995	-376
193.064	673
193.133	-208
193.202	1151
193.271	-989
193.340	485
193.409	118
193.478	835
193.547	-464
193.615	-524
193.684	202
193.753	516
193.822	94
193.891	79
193.960	-353
194.029	-267
194.098	159
194.167	-273
194.236	715
194.305	-475
194.374	-473
194.443	92
194.512	-195
194.580	905
194.649	-358
194.718	29
194.787	564
194.856	-303
194.925	11
194.994	158
195.062	303
195.131	-542
195.200	-397
195.269	-238
195.338	50
195.407	281
195.475	-189
195.544	555
195.613	-870
195.682	382
195.751	-146
195.819	-6
195.888	-146
195.957	1249
196.026	-24
196.094	592
196.163	160
196.232	142
196.301	-361
196.369	1099
196.438	76
196.507	768
196.576	-842
196.644	-155
196.713	-377
196.782	-475
196.850	102
196.919	548
196.988	-57
197.056	-273
197.125	-345
197.194	969
197.262	-701
197.331	-86
197.400	112
197.468	437
197.537	-318
197.606	702
197.674	-43
197.743	320
197.812	-653
197.880	-387
197.949	-936
198.017	-455
198.086	-189
198.155	769
198.223	-39
198.292	733
198.360	-741
198.429	201
198.497	-334
198.566	-87
198.635	-47
198.703	690
198.772	16
198.840	39
198.909	-665
198.977	166
199.046	-360
199.114	714
199.183	462
199.251	554
199.320	653
199.388	-588
199.457	-460
199.525	180
199.594	20
199.662	861
199.731	-16
199.799	120
199.867	56
199.936	-104
200.004	385
200.073	392
200.141	-718
200.210	438
200.278	-189
200.346	-186
200.415	-243
200.483	-686
200.552	-1
200.620	583
200.688	-80
200.757	-246
200.825	-121
200.893	278
200.962	-148
201.030	175
201.098	-726
201.167	539
201.235	254
201.303	-144
201.372	-341
201.440	526
201.508	131
201.577	212
201.645	-350
201.713	-21
201.781	-833
201.850	188
201.918	115
201.986	-315
202.055	-27
202.123	480
202.191	-482
202.259	37
202.327	-664
202.396	194
202.464	-88
202.532	-106
202.600	262
202.669	345
202.737	-241
202.805	280
202.873	-250
202.941	504
203.009	139
203.078	315
203.146	-764
203.214	154
203.282	-1011
203.350	770
203.418	-1060
203.487	742
203.555	-339
203.623	493
203.691	-579
203.759	216
203.827	88
203.895	258
203.963	-817
204.031	-100
204.099	-278
204.168	-553
204.236	559
204.304	294
204.372	-947
204.440	361
204.508	-899
204.576	-569
204.644	-548
204.712	119
204.780	-330
204.848	330
204.916	-572
204.984	-425
205.052	-389
205.120	155
205.188	-877
205.256	221
205.324	117
205.392	-61
205.460	-217
205.528	-894
205.596	-82
205.664	-100
205.732	-153
205.799	-60
205.867	-712
205.935	-482
206.003	97
206.071	186
206.139	-511
206.207	-318
206.275	-929
206.343	-544
206.411	-447
206.478	-911
206.546	-571
206.614	1
206.682	-346
206.750	332
206.818	-914
206.885	324
206.953	-1578
207.021	701
207.089	-325
207.157	-471
207.225	73
207.292	-566
207.360	-554
207.428	-525
207.496	-1027
207.563	94
207.631	-153
207.699	-829
207.767	-559
207.834	-785
207.902	-445
207.970	2
208.038	-663
208.105	494
208.173	-491
208.241	35
208.309	-779
208.376	-474
208.444	2
208.512	-197
208.579	-469
208.647	755
208.715	144
208.782	-197
208.850	-615
208.918	-618
208.985	-461
209.053	542
209.120	-666
209.188	-316
209.256	103
209.323	-1208
209.391	-226
209.459	1049
209.526	-780
209.594	-441
209.661	-649
209.729	-234
209.796	-405
209.864	-777
209.932	-1217
209.999	1760
210.067	-205
210.134	-559
210.202	-203
210.269	-244
210.337	218
210.404	-272
210.472	-382
210.539	-55
210.607	-138
210.674	-469
210.742	-181
210.809	336
210.877	-932
210.944	446
211.012	-1200
211.079	867
211.146	-1010
211.214	148
211.281	154
211.349	-16
211.416	153
211.484	-51
211.551	-706
211.618	-30
211.686	-787
211.753	-123
211.821	151
211.888	-213
211.955	-412
212.023	623
212.090	-854
212.157	-319
212.225	-1342
212.292	264
212.359	-287
212.427	849
212.494	-248
212.561	749
212.629	-506
212.696	-518
212.763	-629
212.831	-194
212.898	-107
212.965	119
213.032	16
213.100	-97
213.167	-1006
213.234	851
213.301	-551
213.369	172
213.436	-401
213.503	-878
213.570	53
213.638	-293
213.705	-843
213.772	-150
213.839	-1062
213.906	395
213.973	-1366
214.041	100
214.108	45
214.175	-44
214.242	-610
214.309	-92
214.376	-673
214.444	32
214.511	-186
214.578	-42
214.645	-249
214.712	55
214.779	-546
214.846	-556
214.913	-140
214.980	253
215.048	-485
215.115	124
215.182	-533
215.249	-105
215.316	-309
215.383	532
215.450	-54
215.517	-574
215.584	-396
215.651	-748
215.718	-1120
215.785	823
215.852	-1063
215.919	-194
215.986	-440
216.053	99
216.120	-859
216.187	-21
216.254	-290
216.321	43
216.388	-1115
216.455	-167
216.522	-9
216.589	324
216.656	-128
216.722	-664
216.789	-691
216.856	183
216.923	-249
216.990	385
217.057	-674
217.124	-172
217.191	-1136
217.258	413
217.324	-619
217.391	-280
217.458	-797
217.525	-118
217.592	-789
217.659	-1167
217.725	433
217.792	-50
217.859	76
217.926	-781
217.993	-740
218.059	719
218.126	-547
218.193	383
218.260	-1093
218.327	-201
218.393	-945
218.460	-562
218.527	-819
218.594	441
218.660	-1257
218.727	281
218.794	-1279
218.860	520
218.927	-966
218.994	-313
219.061	-1107
219.127	-398
219.194	-457
219.261	457
219.327	-983
219.394	492
219.461	-1402
219.527	443
219.594	-232
219.661	281
219.727	-1764
219.794	-76
219.860	-998
219.927	303
219.994	746
220.060	872
220.127	673
220.193	130
220.260	-446
220.326	1139
220.393	-1211
220.460	-712
220.526	-1531
220.593	-1222
220.659	804
220.726	420
220.792	-747
220.859	-285
220.925	-467
220.992	-22
221.058	-614
221.125	-211
221.191	-1215
221.258	-370
221.324	169
221.391	-27
221.457	-784
221.524	96
221.590	-358
221.657	764
221.723	-762
221.789	-792
221.856	19
221.922	-1182
221.989	0
222.055	-313
222.121	-1220
222.188	2143
222.254	-89
222.321	409
222.387	-511
222.453	-157
222.520	-863
222.586	-662
222.652	251
222.719	-372
222.785	514
222.851	116
222.918	-422
222.984	-193
223.050	-797
223.116	-974
223.183	714
223.249	-698
223.315	-765
223.382	-52
223.448	-830
223.514	-298
223.580	-672
223.647	-611
223.713	-1132
223.779	-141
223.845	-502
223.911	562
223.978	-1818
224.044	509
224.110	-670
224.176	863
224.242	-684
224.309	-1351
224.375	-538
224.441	163
224.507	-469
224.573	-670
224.639	655
224.705	-743
224.772	-467
224.838	-652
224.904	530
224.970	275
225.036	-706
225.102	-739
225.168	-608
225.234	539
225.300	-635
225.366	24
225.432	-101
225.499	93
225.565	-796
225.631	-403
225.697	-969
225.763	297
225.829	-175
225.895	417
225.961	-950
226.027	-554
226.093	-942
226.159	150
226.225	259
226.291	-449
226.357	-381
226.423	-272
226.489	-376
226.554	513
226.620	-435
226.686	-3
226.752	-660
226.818	-150
226.884	-330
226.950	-128
227.016	-530
227.082	148
227.148	-608
227.214	-27
227.279	-796
227.345	234
227.411	-727
227.477	551
227.543	1015
227.609	1796
227.674	1251
227.740	-143
227.806	647
227.872	299
227.938	-317
228.003	130
228.069	-1027
228.135	-691
228.201	-251
228.267	-681
228.332	-843
228.398	-2014
228.464	-204
228.530	-312
228.595	100
228.661	-933
228.727	-1102
228.792	956
228.858	-648
228.924	-1511
228.990	305
229.055	-1259
229.121	-368
229.187	20
229.252	-1293
229.318	-24
229.384	-862
229.449	-265
229.515	-1972
229.581	-876
229.646	1029
229.712	52
229.777	-904
229.843	-629
229.909	-101
229.974	65
230.040	-914
230.105	-407
230.171	-1956
230.236	46
230.302	-847
230.368	-285
230.433	-1801
230.499	-77
230.564	-291
230.630	-1663
230.695	-940
230.761	390
230.826	-1636
230.892	840
230.957	-1132
231.023	-834
231.088	-614
231.154	102
231.219	26
231.284	-750
231.350	-709
231.415	-1031
231.481	-33
231.546	-342
231.612	-1041
231.677	-766
231.742	-2382
231.808	931
231.873	-969
231.939	-1738
232.004	666
232.069	998
232.135	-1087
232.200	-539
232.265	-137
232.331	-718
232.396	-858
232.461	-584
232.527	-1052
232.592	-1878
232.657	-932
232.723	638
232.788	-1005
232.853	745
232.918	-777
232.984	-941
233.049	-1020
233.114	-787
233.179	-430
233.245	234
233.310	-865
233.375	-992
233.440	-447
233.506	325
233.571	-553
233.636	-127
233.701	-577
233.766	-145
233.832	-819
233.897	-251
233.962	-1958
234.027	794
234.092	402
234.157	130
234.222	-1559
234.288	-267
234.353	-1265
234.418	84
234.483	83
234.548	150
234.613	-989
234.678	124
234.743	-1816
234.808	482
234.873	-1503
234.938	1656
235.004	-1107
235.069	-130
235.134	-544
235.199	288
235.264	-752
235.329	-1346
235.394	-241
235.459	7
235.524	-1625
235.589	-328
235.654	-653
235.719	-1257
235.784	-313
235.849	-715
235.913	-632
235.978	-435
236.043	-837
236.108	-135
236.173	-1500
236.238	-213
236.303	-1055
236.368	-178
236.433	79
236.498	-1035
236.563	-974
236.627	-789
236.692	470
236.757	530
236.822	-1185
236.887	-565
236.952	-519
237.017	-1485
237.081	396
237.146	-1544
237.211	439
237.276	-270
237.341	485
237.405	-1332
237.470	-720
237.535	385
237.600	65
237.664	12
237.729	-1194
237.794	-1050
237.859	648
237.923	-112
237.988	-308
238.053	968
238.118	-1021
238.182	-870
238.247	474
238.312	-1191
238.376	-383
238.441	-1838
238.506	-465
238.570	-1319
238.635	734
238.700	-114
238.764	-1027
238.829	-241
238.893	-1372
238.958	806
239.023	-1507
239.087	-500
239.152	-305
239.216	-947
239.281	-486
239.346	32
239.410	-288
239.475	-578
239.539	-249
239.604	-1032
239.668	710
239.733	72
239.797	873
239.862	3084
239.926	2496
239.991	1066
240.055	12
240.120	-345
240.184	188
240.249	-219
240.313	-372
240.378	243
240.442	-386
240.507	92
240.571	-813
240.635	-708
240.700	-666
240.764	-399
240.829	-537
240.893	-1064
240.957	-957
241.022	102
241.086	-64
241.151	-1587
241.215	-1967
241.279	734
241.344	-960
241.408	523
241.472	-1506
241.537	757
241.601	22
241.665	-997
241.730	-1501
241.794	441
241.858	-1119
241.922	-218
241.987	-270
242.051	-524
242.115	-1614
242.179	-64
242.244	-1323
242.308	-124
242.372	32
242.436	-719
242.501	-450
242.565	-1106
242.629	-1377
242.693	504
242.757	-1271
242.822	-780
242.886	-678
242.950	439
243.014	-2351
243.078	-425
243.142	-1184
243.206	-1327
243.271	-1028
243.335	-567
243.399	-295
243.463	-41
243.527	184
243.591	-678
243.655	-635
243.719	-680
243.783	472
243.847	-176
243.911	-774
243.975	-680
244.040	-1962
244.104	1170
244.168	-523
244.232	-1101
244.296	-1022
244.360	-38
244.424	-1925
244.488	-389
244.552	-425
244.615	-1752
244.679	-639
244.743	-1415
244.807	-2178
244.871	361
244.935	-321
244.999	-1345
245.063	-1146
245.127	20
245.191	-360
245.255	-433
245.319	-842
245.383	-1564
245.446	364
245.510	-828
245.574	-1353
245.638	1009
245.702	-1934
245.766	-247
245.829	626
245.893	-1603
245.957	-1399
246.021	227
246.085	-908
246.149	-976
246.212	768
246.276	-724
246.340	-878
246.404	-735
246.467	-305
246.531	-2735
246.595	-111
246.659	943
246.722	-1926
246.786	156
246.850	-935
246.913	-368
246.977	-1703
247.041	7
247.104	-970
247.168	-58
247.232	-1281
247.295	-771
247.359	-422
247.423	-285
247.486	-779
247.550	285
247.614	-921
247.677	-716
247.741	-898
247.804	-157
247.868	-253
247.932	-737
247.995	254
248.059	-486
248.122	-2059
248.186	363
248.249	-956
248.313	178
248.376	397
248.440	-718
248.503	-808
248.567	1123
248.630	-1476
248.694	-827
248.757	-10
248.821	-110
248.884	620
248.948	-401
249.011	850
249.075	877
249.138	907
249.202	-852
249.265	-1351
249.328	551
249.392	-1997
249.455	619
249.519	-340
249.582	-703
249.645	-646
249.709	-301
249.772	-604
249.835	-746
249.899	-688
249.962	226
250.025	-698
250.089	-223
250.152	651
250.215	-570
250.279	-1359
250.342	-79
250.405	-364
250.468	-369
250.532	-1096
250.595	742
250.658	-932
250.721	2024
250.785	-1147
250.848	642
250.911	-1957
250.974	-700
251.038	-1117
251.101	613
251.164	-1549
251.227	-154
251.290	-887
251.354	580
251.417	614
251.480	1521
251.543	189
251.606	2506
251.669	2284
251.732	970
251.795	-528
251.859	336
251.922	437
251.985	1680
252.048	363
252.111	-110
252.174	-1577
252.237	200
252.300	955
252.363	527
252.426	2231
252.489	-268
252.552	-183
252.615	-827
252.678	448
252.741	477
252.804	-978
252.867	2376
252.930	1193
252.993	216
253.056	979
253.119	-515
253.182	-828
253.245	-134
253.308	71
253.371	-740
253.434	-287
253.497	271
253.559	41
253.622	163
253.685	-799
253.748	-338
253.811	-859
253.874	369
253.937	-1522
254.000	-734
254.062	-550
254.125	222
254.188	829
254.251	-528
254.314	-1202
254.376	-420
254.439	-193
254.502	-1076
254.565	-548
254.628	1185
254.690	-772
254.753	-1184
254.816	-1157
254.878	174
254.941	-299
255.004	-80
255.067	-734
255.129	-1143
255.192	-378
255.255	-1022
255.317	-804
255.380	-289
255.443	-1763
255.505	-638
255.568	-1553
255.631	-952
255.693	-900
255.756	-1725
255.819	-267
255.881	-72
255.944	-716
256.006	-656
256.069	-890
256.132	-932
256.194	-1202
256.257	-1208
256.319	-845
256.382	-939
256.444	-138
256.507	-90
256.569	-534
256.632	88
256.694	-1707
256.757	609
256.819	1041
256.882	-412
256.944	-550
257.007	259
257.069	-1228
257.132	-972
257.194	345
257.257	-972
257.319	-1865
257.381	-1087
257.444	622
257.506	612
257.569	840
257.631	-92
257.693	-467
257.756	-627
257.818	-660
257.880	-721
257.943	-7
258.005	-1168
258.067	-755
258.130	-497
258.192	-1303
258.254	-225
258.317	-1123
258.379	-574
258.441	-1120
258.503	1310
258.566	-1102
258.628	-88
258.690	-1429
258.753	-510
258.815	-578
258.877	-697
258.939	-797
259.001	-16
259.064	-1145
259.126	-1159
259.188	-972
259.250	836
259.312	-1146
259.375	-1642
259.437	-1052
259.499	-572
259.561	-655
259.623	128
259.685	-684
259.747	-129
259.809	35
259.872	-807
259.934	-102
259.996	178
260.058	-145
260.120	-716
260.182	-866
260.244	-216
260.306	-819
260.368	-30
260.430	-1242
260.492	524
260.554	888
260.616	-391
260.678	-517
260.740	-32
260.802	-1044
260.864	406
260.926	-1391
260.988	1004
261.050	-1058
261.112	-424
261.174	191
261.236	-33
261.298	-1315
261.359	-449
261.421	-238
261.483	-1316
261.545	310
261.607	-1153
261.669	-381
261.731	70
261.793	-468
261.854	-1811
261.916	90
261.978	-789
262.040	-441
262.102	-218
262.164	-583
262.225	117
262.287	-195
262.349	-1012
262.411	-676
262.472	135
262.534	-709
262.596	-377
262.658	-101
262.719	-674
262.781	-407
262.843	-645
262.904	-1071
262.966	475
263.028	-253
263.090	396
263.151	-239
263.213	-150
263.275	-1316
263.336	-483
263.398	-126
263.459	-988
263.521	-544
263.583	-134
263.644	-705
263.706	371
263.767	-1141
263.829	-14
263.891	-627
263.952	-289
264.014	-1190
264.075	933
264.137	440
264.198	46
264.260	-757
264.321	-422
264.383	-980
264.444	1105
264.506	-426
264.567	-555
264.629	696
264.690	-338
264.752	-412
264.813	548
264.875	-617
264.936	796
264.998	-635
265.059	-133
265.120	-1109
265.182	-533
265.243	-254
265.305	-144
265.366	-706
265.427	-318
265.489	-199
265.550	-1080
265.611	-604
265.673	-552
265.734	-272
265.795	-88
265.857	-1298
265.918	1
265.979	-259
266.040	-40
266.102	283
266.163	418
266.224	-215
266.286	-120
266.347	-995
266.408	-786
266.469	-689
266.530	-324
266.592	-419
266.653	857
266.714	-655
266.775	-186
266.836	-1007
266.898	-368
266.959	-782
267.020	673
267.081	1448
267.142	90
267.203	-420
267.264	-967
267.326	339
267.387	-394
267.448	-1096
267.509	-351
267.570	-599
267.631	-913
267.692	-1447
267.753	-45
267.814	-731
267.875	-133
267.936	-219
267.997	50
268.058	-1495
268.119	-1063
268.180	-590
268.241	-785
268.302	-876
268.363	-118
268.424	-784
268.485	-414
268.546	-771
268.607	-759
268.668	-839
268.729	-430
268.790	-723
268.851	-192
268.912	-1033
268.972	211
269.033	-1166
269.094	-1112
269.155	100
269.216	-642
269.277	-876
269.338	-1015
269.398	-814
269.459	-596
269.520	-422
269.581	-650
269.642	-307
269.702	-270
269.763	-1025
269.824	-720
269.885	-1219
269.945	45
270.006	-603
270.067	-643
270.128	-1160
270.188	-93
270.249	-1195
270.310	-1046
270.370	-44
270.431	-797
270.492	-819
270.553	-170
270.613	-1110
270.674	727
270.734	-976
270.795	78
270.856	-561
270.916	-90
270.977	-867
271.038	120
271.098	-1089
271.159	-315
271.219	-1155
271.280	134
271.340	-1203
271.401	-1022
271.462	-533
271.522	-228
271.583	-500
271.643	-730
271.704	-537
271.764	-286
271.825	-459
271.885	672
271.946	1179
272.006	746
272.066	-110
272.127	1036
272.187	1792
272.248	1386
272.308	-655
272.369	871
272.429	731
272.489	-168
272.550	-349
272.610	671
272.671	-400
272.731	153
272.791	-639
272.852	-277
272.912	-200
272.972	321
273.033	-853
273.093	-324
273.153	181
273.214	-233
273.274	167
273.334	287
273.394	1248
273.455	731
273.515	1250
273.575	1236
273.635	329
273.696	2523
273.756	1123
273.816	1737
273.876	508
273.936	902
273.997	592
274.057	218
274.117	-1222
274.177	-119
274.237	675
274.297	1350
274.358	-8
274.418	548
274.478	298
274.538	260
274.598	-1053
274.658	562
274.718	-277
274.778	-34
274.838	-669
274.898	66
274.958	-268
275.018	-31
275.078	-21
275.138	330
275.198	-589
275.258	-411
275.318	-555
275.378	-440
275.438	-602
275.498	-847
275.558	-975
275.618	306
275.678	-551
275.738	-107
275.798	98
275.858	-262
275.918	-703
275.978	-64
276.038	-215
276.098	-327
276.157	-49
276.217	587
276.277	-476
276.337	200
276.397	-823
276.457	-120
276.517	58
276.576	-406
276.636	-845
276.696	-489
276.756	-75
276.815	368
276.875	-61
276.935	-144
276.995	172
277.055	144
277.114	-58
277.174	73
277.234	-284
277.293	164
277.353	-829
277.413	394
277.472	-799
277.532	634
277.592	-37
277.651	2867
277.711	7192
277.771	1972
277.830	7138
277.890	6705
277.950	3371
278.009	14377
278.069	7115
278.128	5857
278.188	8174
278.248	4171
278.307	9356
278.367	6477
278.426	1846
278.486	509
278.545	42
278.605	754
278.664	102
278.724	94
278.783	559
278.843	1911
278.902	455
278.962	594
279.021	718
279.081	2265
279.140	1803
279.199	699
279.259	1079
279.318	2319
279.378	2620
279.437	4400
279.496	12109
279.556	58160
279.615	45621
279.675	13189
279.734	5903
279.793	5089
279.853	5773
279.912	3172
279.971	1943
280.031	2396
280.090	2507
280.149	5827
280.208	6889
280.268	37827
280.327	39321
280.386	9780
280.445	4999
280.505	2599
280.564	1558
280.623	1986
280.682	863
280.742	2391
280.801	198
280.860	876
280.919	79
280.978	1068
281.037	139
281.097	256
281.156	1032
281.215	987
281.274	-120
281.333	1319
281.392	367
281.451	114
281.510	357
281.569	572
281.628	102
281.688	743
281.747	344
281.806	694
281.865	232
281.924	-471
281.983	-194
282.042	545
282.101	-28
282.160	869
282.219	-512
282.278	424
282.337	509
282.396	477
282.454	396
282.513	1376
282.572	38
282.631	-63
282.690	46
282.749	-482
282.808	468
282.867	817
282.926	-84
282.985	972
283.043	344
283.102	398
283.161	141
283.220	179
283.279	200
283.338	501
283.396	-27
283.455	1221
283.514	755
283.573	678
283.631	792
283.690	1095
283.749	528
283.808	1149
283.866	1393
283.925	401
283.984	1040
284.043	1414
284.101	1363
284.160	1963
284.219	1582
284.277	1882
284.336	2503
284.395	4010
284.453	3471
284.512	4427
284.570	4106
284.629	4682
284.688	6002
284.746	7477
284.805	8336
284.863	12061
284.922	14025
284.981	17660
285.039	21216
285.098	26391
285.156	26840
285.215	31639
285.273	25743
285.332	26151
285.390	27988
285.449	25157
285.507	18882
285.566	16187
285.624	12968
285.683	9866
285.741	8499
285.799	7284
285.858	6136
285.916	5615
285.975	4009
286.033	3293
286.091	2594
286.150	2443
286.208	2488
286.267	2508
286.325	1297
286.383	2214
286.442	1380
286.500	1825
286.558	1398
286.616	897
286.675	697
286.733	1618
286.791	889
286.850	1023
286.908	-127
286.966	1194
287.024	304
287.083	764
287.141	730
287.199	872
287.257	525
287.315	1653
287.374	211
287.432	622
287.490	-159
287.548	512
287.606	698
287.664	-94
287.723	-218
287.781	1376
287.839	138
287.897	459
287.955	-334
288.013	292
288.071	88
288.129	1616
288.187	7377
288.245	4173
288.303	657
288.361	589
288.419	-124
288.477	582
288.535	-209
288.593	455
288.651	-77
288.709	5
288.767	-34
288.825	-183
288.883	-318
288.941	469
288.999	-386
289.057	26
289.115	-600
289.173	-179
289.231	-830
289.289	596
289.346	-497
289.404	110
289.462	-61
289.520	-67
289.578	-759
289.636	-160
289.694	-247
289.751	-49
289.809	-946
289.867	391
289.925	1
289.983	362
290.040	-117
290.098	806
290.156	-367
290.214	649
290.271	-581
290.329	768
290.387	-837
290.444	-109
290.502	-428
290.560	108
290.617	386
290.675	-136
290.733	-637
290.790	80
290.848	109
290.906	-287
290.963	-300
291.021	-250
291.078	-670
291.136	-948
291.194	-656
291.251	552
291.309	-132
291.366	-331
291.424	-553
291.481	36
291.539	711
291.596	839
291.654	184
291.711	268
291.769	-106
291.826	173
291.884	-955
291.941	-624
291.999	-1233
292.056	-802
292.114	-655
292.171	172
292.228	-738
292.286	63
292.343	-631
292.401	-76
292.458	-346
292.515	-262
292.573	32
292.630	1
292.687	-399
292.745	850
292.802	-850
292.859	470
292.917	812
292.974	-113
293.031	-493
293.089	527
293.146	-505
293.203	-180
293.260	-1066
293.318	-21
293.375	-603
293.432	23
293.489	-1144
293.546	-62
293.604	-193
293.661	336
293.718	2229
293.775	1091
293.832	902
293.889	1797
293.947	849
294.004	272
294.061	-23
294.118	-345
294.175	878
294.232	4153
294.289	1789
294.346	547
294.403	216
294.460	201
294.517	-333
294.574	20
294.631	-953
294.688	287
294.745	-449
294.802	1597
294.859	2126
294.916	348
294.973	-383
295.030	-1358
295.087	-126
295.144	-588
295.201	-178
295.258	26
295.315	-148
295.372	848
295.429	62
295.486	492
295.542	-676
295.599	515
295.656	2773
295.713	-26
295.770	1088
295.827	234
295.883	-428
295.940	490
295.997	-977
296.054	-836
296.111	-157
296.167	503
296.224	-660
296.281	-900
296.338	-858
296.394	-473
296.451	-934
296.508	-28
296.564	342
296.621	592
296.678	726
296.734	2356
296.791	-248
296.848	325
296.904	-365
296.961	-360
297.018	407
297.074	731
297.131	-678
297.187	686
297.244	-213
297.301	780
297.357	2421
297.414	170
297.470	-142
297.527	-137
297.583	-155
297.640	-37
297.696	-554
297.753	-430
297.809	-815
297.866	-896
297.922	-572
297.979	-1020
298.035	-520
298.092	5
298.148	-273
298.204	584
298.261	-496
298.317	1060
298.374	1646
298.430	835
298.486	-688
298.543	-240
298.599	-193
298.656	-405
298.712	-834
298.768	760
298.824	-351
298.881	157
298.937	-125
298.993	359
299.050	-1508
299.106	-456
299.162	-1452
299.218	343
299.275	34
299.331	-293
299.387	23
299.443	2176
299.500	6177
299.556	5391
299.612	1460
299.668	1115
299.724	3340
299.780	6644
299.837	2190
299.893	2027
299.949	3134
300.005	6293
300.061	3282
300.117	8553
300.173	3647
300.229	716
300.285	419
300.341	1309
300.397	37
300.453	157
300.510	-144
300.566	1307
300.622	1308
300.678	6414
300.734	10666
300.790	4494
300.845	3438
300.901	3726
300.957	5935
301.013	2956
301.069	481
301.125	735
301.181	-826
301.237	-207
301.293	-237
301.349	659
301.405	-494
301.461	-278
301.516	-128
301.572	-276
301.628	-1499
301.684	-140
301.740	-335
301.796	560
301.851	-915
301.907	424
301.963	-3
302.019	1552
302.074	3724
302.130	4682
302.186	3173
302.242	692
302.297	-205
302.353	10
302.409	4
302.464	-18
302.520	-768
302.576	515
302.631	707
302.687	365
302.743	-429
302.798	160
302.854	-825
302.910	-268
302.965	-217
303.021	-69
303.076	-523
303.132	547
303.187	-1415
303.243	-429
303.299	-142
303.354	-557
303.410	-985
303.465	-412
303.521	-407
303.576	-93
303.632	-232
303.687	-479
303.743	860
303.798	1111
303.853	-459
303.909	-287
303.964	-860
304.020	-69
304.075	-268
304.130	-241
304.186	-805
304.241	720
304.297	173
304.352	-1158
304.358	-997
304.407	311
304.449	416
304.463	454
304.518	-857
304.539	-393
304.573	322
304.629	-262
304.630	-259
304.684	-48
304.720	-306
304.739	-461
304.794	1271
304.811	1008
304.850	388
304.902	329
304.905	325
304.960	-465
304.992	-440
305.015	-413
305.071	301
305.083	198
305.126	-148
305.173	-248
305.181	-271
305.236	-702
305.264	-224
305.292	250
305.347	0
305.354	-31
305.402	-211
305.445	-249
305.457	-273
305.512	-431
305.535	-119
305.567	404
305.622	-712
305.626	-671
305.678	-62
305.716	121
305.733	165
305.788	1005
305.807	782
305.843	556
305.897	1743
305.898	1756
305.953	1457
305.988	1059
306.008	822
306.063	103
306.078	77
306.118	224
306.168	-512
306.173	-589
306.228	683
306.259	-44
306.283	-575
306.338	211
306.349	52
306.393	-668
306.440	-119
306.448	-10
306.503	380
306.530	428
306.558	498
306.613	-204
306.620	-94
306.668	767
306.711	819
306.723	710
306.778	911
306.801	476
306.833	137
306.888	560
306.892	527
306.943	112
306.982	90
306.997	48
307.052	-592
307.072	-458
307.107	-69
307.162	52
307.163	53
307.217	470
307.253	594
307.272	483
307.327	45
307.343	-49
307.381	-64
307.434	276
307.436	318
307.491	840
307.524	1447
307.546	1574
307.600	1520
307.614	1369
307.655	888
307.704	202
307.710	176
307.765	882
307.795	894
307.819	875
307.874	1764
307.885	1570
307.929	824
307.975	1975
307.984	2127
308.038	979
308.065	1055
308.093	1932
308.148	3930
308.156	4398
308.202	6762
308.246	9229
308.257	9295
308.312	5126
308.336	3649
308.366	2528
308.421	1556
308.426	1447
308.475	1081
308.517	1364
308.530	1517
308.585	1092
308.607	1385
308.639	1718
308.694	1616
308.697	1662
308.748	2986
308.787	3089
308.803	2916
308.857	3061
308.877	2876
308.912	2723
308.967	3175
308.967	3171
309.021	4958
309.058	7186
309.076	8289
309.130	11181
309.148	12101
309.185	16218
309.238	22743
309.239	22865
309.293	29676
309.328	31655
309.348	29239
309.402	18859
309.418	15849
309.457	12273
309.508	9368
309.511	9446
309.566	11832
309.598	13890
309.620	17515
309.674	27686
309.688	30608
309.729	29968
309.778	25417
309.783	24778
309.837	15670
309.868	10653
309.892	9187
309.946	7182
309.959	6777
310.001	5939
310.049	5519
310.055	5420
310.109	4005
310.139	3389
310.163	2899
310.218	1851
310.229	1683
310.272	2389
310.319	3089
310.326	2938
310.381	1756
310.409	1193
310.435	1257
310.489	1231
310.499	1261
310.543	1245
310.589	1079
310.598	1101
310.652	1385
310.679	1525
310.706	1569
310.760	1324
310.769	1339
310.814	1478
310.859	1345
310.868	1322
310.923	1277
310.948	1249
310.977	1410
311.031	1791
311.038	1826
311.085	1353
311.128	850
311.139	885
311.193	1133
311.218	1178
311.247	1043
311.301	859
311.308	847
311.356	1299
311.398	1582
311.410	1526
311.464	1256
311.488	1098
311.518	1209
311.572	1522
311.578	1541
311.626	1664
311.668	1805
311.680	1785
311.734	1602
311.758	1545
311.788	1325
311.842	873
311.847	824
311.896	1252
311.937	1600
311.950	1586
312.004	1529
312.027	1500
312.058	1485
312.112	1441
312.117	1435
312.165	1535
312.207	1619
312.297	2504
312.386	1326
312.476	1075
312.566	1523
312.656	1685
312.745	1076
312.835	1760
312.925	1727
313.015	1938
313.104	1687
313.194	2011
313.284	1716
313.374	2080
313.463	2573
313.553	2244
313.643	2079
313.732	2680
313.822	1499
313.912	2954
314.001	2242
314.091	1948
314.180	2631
314.270	2855
314.360	2654
314.449	3219
314.539	1913
314.628	1836
314.718	2531
314.808	2544
314.897	2928
314.987	3615
315.076	3135
315.166	2793
315.255	3714
315.345	2532
315.434	2308
315.524	3163
315.613	1751
315.703	3320
315.792	7267
315.881	20368
315.971	6072
316.060	4046
316.150	3939
316.239	3894
316.328	2200
316.418	2957
316.507	1950
316.597	3145
316.686	2902
316.775	3008
316.865	2916
316.954	2833
317.043	2615
317.133	2230
317.222	1671
317.311	2114
317.400	297
317.490	3254
317.579	1979
317.668	2659
317.757	3294
317.847	10934
317.936	31320
318.025	9896
318.114	8541
318.203	4379
318.293	3008
318.382	4157
318.471	4470
318.560	4888
318.649	8785
318.738	3079
318.828	1829
318.917	1442
319.006	2097
319.095	2809
319.184	8690
319.273	4612
319.362	2223
319.451	998
319.540	1607
319.629	2389
319.718	2302
319.807	2228
319.896	3441
319.985	11139
320.074	3695
320.163	1568
320.252	2216
320.341	2931
320.430	2373
320.519	2787
320.608	2352
320.697	3588
320.786	3389
320.875	5006
320.964	3726
321.053	3563
321.142	3512
321.230	4502
321.319	5688
321.408	7697
321.497	6471
321.586	5845
321.675	4188
321.764	4614
321.852	4286
321.941	4826
322.030	3129
322.119	4378
322.207	5781
322.296	7023
322.385	6853
322.474	8958
322.562	9911
322.651	7456
322.740	5298
322.829	5281
322.917	4438
323.006	4085
323.095	3274
323.183	3397
323.272	3179
323.361	2926
323.449	7397
323.538	3614
323.626	5371
323.715	4344
323.804	2155
323.892	5285
323.981	3397
324.069	2991
324.158	4139
324.246	3635
324.335	2651
324.424	2402
324.512	2432
324.601	1992
324.689	2052
324.778	2265
324.866	2152
324.954	2240
325.043	1291
325.131	1006
325.220	3126
325.308	2341
325.397	2036
325.485	3114
325.574	1549
325.662	2224
325.750	887
325.839	2513
325.927	1317
326.015	1669
326.104	1690
326.192	2419
326.280	1706
326.369	1956
326.457	2007
326.545	1082
326.634	1288
326.722	1724
326.810	1584
326.898	2571
326.987	2236
327.075	2109
327.163	2842
327.251	1767
327.340	1498
327.428	3657
327.516	3984
327.604	2421
327.692	1877
327.781	2331
327.869	2401
327.957	1679
328.045	659
328.133	1585
328.221	1891
328.309	1433
328.397	1826
328.485	2005
328.574	3422
328.662	5332
328.750	2124
328.838	2422
328.926	1970
329.014	1640
329.102	1661
329.190	3916
329.278	1765
329.366	1470
329.454	2399
329.542	1560
329.630	1492
329.718	2332
329.806	2282
329.893	1843
329.981	1224
330.069	2091
330.157	1640
330.245	2609
330.333	2077
330.421	1527
330.509	1775
330.597	2123
330.684	1899
330.772	1581
330.860	1852
330.948	3563
331.036	1477
331.123	1131
331.211	1527
331.299	1864
331.387	2681
331.475	3092
331.562	2070
331.650	2482
331.738	666
331.825	2064
331.913	1178
332.001	2464
332.089	2253
332.176	1566
332.264	2306
332.352	2764
332.439	1472
332.527	2297
332.614	1422
332.702	2205
332.790	2331
332.877	2743
332.965	5886
333.052	4204
333.140	5152
333.228	12464
333.315	4268
333.403	2442
333.490	3560
333.578	4668
333.665	17634
333.753	7825
333.840	2594
333.928	3275
334.015	3871
334.103	5913
334.190	12900
334.278	7284
334.365	9754
334.452	10622
334.540	5002
334.627	5054
334.715	7078
334.802	10976
334.889	20631
334.977	28738
335.064	15801
335.151	6915
335.239	5216
335.326	5039
335.413	7958
335.501	9983
335.588	4708
335.675	4502
335.762	5948
335.850	8654
335.937	10908
336.024	19540
336.111	37365
336.199	33348
336.286	13977
336.373	7465
336.460	4942
336.547	3831
336.635	3210
336.722	3379
336.809	3249
336.896	2495
336.983	4065
337.070	8967
337.157	11900
337.245	6425
337.332	4893
337.419	3410
337.506	2603
337.593	2899
337.680	3687
337.767	9143
337.854	3190
337.941	4119
338.028	2683
338.115	1801
338.202	2817
338.289	3525
338.376	4954
338.463	3307
338.550	4641
338.637	5814
338.724	2264
338.811	3220
338.898	1628
338.984	1877
339.071	1507
339.158	1637
339.245	1786
339.332	2007
339.419	2382
339.506	2303
339.593	239
339.679	1599
339.766	1629
339.853	1237
339.940	1364
340.027	2156
340.113	708
340.200	1563
340.287	825
340.374	1063
340.460	2662
340.547	879
340.634	2243
340.720	2180
340.807	988
340.894	2080
340.980	1129
341.067	1286
341.154	1597
341.240	2027
341.327	1839
341.414	2238
341.500	768
341.587	2630
341.674	1992
341.760	2805
341.847	1511
341.933	2058
342.020	663
342.106	1726
342.193	1269
342.279	2200
342.366	1103
342.452	2153
342.539	1258
342.625	2331
342.712	827
342.798	2082
342.885	1475
342.971	1507
343.058	981
343.144	1613
343.230	1903
343.317	1984
343.403	837
343.490	1606
343.576	528
343.662	1306
343.749	1583
343.835	2215
343.921	2202
344.008	5538
344.094	10049
344.180	3192
344.267	1443
344.353	3111
344.439	3068
344.525	1521
344.612	1456
344.698	1575
344.784	-184
344.870	2943
344.957	527
345.043	2755
345.129	1304
345.215	1360
345.301	1804
345.387	1338
345.474	1398
345.560	1360
345.646	809
345.732	2290
345.818	1162
345.904	1784
345.990	1484
346.076	1317
346.162	1265
346.249	2781
346.335	1560
346.421	1573
346.507	1775
346.593	3338
346.679	531
346.765	2648
346.851	2608
346.937	2396
347.023	2609
347.108	2416
347.194	1745
347.280	2413
347.366	2616
347.452	7005
347.538	8113
347.624	5453
347.710	3660
347.796	2944
347.882	2036
347.967	2086
348.053	1529
348.139	1500
348.225	1991
348.311	1565
348.397	1838
348.482	2893
348.568	1918
348.654	2522
348.740	9472
348.825	7664
348.911	4895
348.997	2587
349.083	5473
349.168	965
349.254	2242
349.340	1759
349.425	1764
349.511	2290
349.597	1259
349.682	1968
349.768	3261
349.854	1485
349.939	2391
350.025	2331
350.110	1469
350.196	1313
350.282	984
350.367	2615
350.453	1947
350.538	1581
350.624	1709
350.709	2775
350.795	1187
350.880	1202
350.966	2227
351.051	1995
351.137	1237
351.222	2307
351.308	1843
351.393	2281
351.479	1728
351.564	585
351.649	1857
351.735	1473
351.820	2133
351.906	1491
351.991	1786
352.076	1677
352.162	2089
352.247	1867
352.332	1166
352.418	956
352.503	1388
352.588	3649
352.673	2250
352.759	1962
352.844	1602
352.929	1397
353.014	851
353.100	2189
353.185	1864
353.270	789
353.355	1709
353.441	1481
353.526	1286
353.611	1238
353.696	900
353.781	2531
353.866	769
353.952	2797
354.037	876
354.122	2056
354.207	1543
354.292	2124
354.377	1255
354.462	1882
354.547	1270
354.632	2361
354.717	1973
354.802	866
354.887	1267
354.972	1840
355.057	1969
355.142	1085
355.227	1148
355.312	2132
355.397	1717
355.482	1454
355.567	1603
355.652	3490
355.737	1535
355.822	3542
355.907	1715
355.991	3122
356.076	680
356.161	2075
356.246	1495
356.331	1568
356.416	1032
356.501	6643
356.585	4259
356.670	1289
356.755	2904
356.840	2670
356.924	4213
357.009	10579
357.094	5438
357.179	1692
357.263	1268
357.348	2797
357.433	2051
357.517	2370
357.602	1719
357.687	1408
357.771	2963
357.856	2828
357.941	2180
358.025	3913
358.110	12803
358.195	6551
358.279	2167
358.364	2341
358.448	2895
358.533	4586
358.617	2407
358.702	3980
358.787	2264
358.871	2508
358.956	1988
359.040	1124
359.125	1537
359.209	2312
359.294	2661
359.378	3293
359.462	3068
359.547	1762
359.631	1773
359.716	1086
359.800	1990
359.885	3629
359.969	903
360.053	2606
360.138	1550
360.222	2155
360.306	1156
360.391	2234
360.475	1896
360.559	2364
360.644	2450
360.728	1774
360.812	4590
360.896	7307
360.981	3465
361.065	2109
361.149	2691
361.233	2407
361.318	548
361.402	2692
361.486	2796
361.570	2039
361.654	2188
361.739	2683
361.823	4811
361.907	8629
361.991	3769
362.075	3535
362.159	4264
362.243	9111
362.327	20855
362.411	36425
362.495	13796
362.580	6603
362.664	5542
362.748	6250
362.832	9283
362.916	18996
363.000	55128
363.084	82881
363.168	33635
363.252	10494
363.336	7017
363.420	5968
363.503	10158
363.587	10818
363.671	5322
363.755	3430
363.839	5038
363.923	4275
364.007	6121
364.091	7187
364.175	11276
364.258	34812
364.342	61155
364.426	115069
364.510	60775
364.594	19571
364.677	9304
364.761	8685
364.845	6634
364.929	3335
365.013	2611
365.096	3651
365.180	2090
365.264	5216
365.347	14096
365.431	6966
365.515	2602
365.598	1811
365.682	3752
365.766	3014
365.849	3669
365.933	3046
366.017	3687
366.100	2868
366.184	1506
366.267	3690
366.351	2925
366.435	2531
366.518	1805
366.602	2567
366.685	2203
366.769	2704
366.852	3116
366.936	4172
367.019	2641
367.103	1546
367.186	4907
367.270	2535
367.353	2060
367.436	3246
367.520	1920
367.603	3363
367.687	2012
367.770	2937
367.853	3851
367.937	4108
368.020	4518
368.104	2324
368.187	3729
368.270	3448
368.353	2001
368.437	1773
368.520	4184
368.603	3036
368.687	1811
368.770	5094
368.853	2013
368.936	3875
369.020	3705
369.103	2769
369.186	1438
369.269	2076
369.352	2609
369.436	2222
369.519	1996
369.602	546
369.685	3932
369.768	1355
369.851	3715
369.934	1720
370.018	1711
370.101	1633
370.184	4657
370.267	3497
370.350	2218
370.433	3790
370.516	6708
370.599	13541
370.682	4889
370.765	4991
370.848	5377
370.931	4449
371.014	4875
371.097	2424
371.180	3418
371.263	4049
371.346	2120
371.429	4186
371.511	2268
371.594	3380
371.677	4627
371.760	6815
371.843	4494
371.926	8387
372.009	14967
372.091	11707
372.174	6059
372.257	10266
372.340	5929
372.423	7446
372.505	8545
372.588	5052
372.671	4814
372.754	5101
372.836	5002
372.919	7730
373.002	10751
373.085	4105
373.167	5384
373.250	4829
373.332	6315
373.415	9937
373.498	14771
373.580	9704
373.663	19562
373.746	19797
373.828	5228
373.911	5146
373.993	2976
374.076	8518
374.159	6782
374.241	3778
374.324	4731
374.406	4930
374.489	5870
374.571	13225
374.654	5426
374.736	4891
374.819	7726
374.901	13008
374.983	11864
375.066	5903
375.148	4022
375.231	8372
375.313	13480
375.395	6038
375.478	3403
375.560	4405
375.643	3732
375.725	4333
375.807	7931
375.890	8721
375.972	3172
376.054	4519
376.136	4885
376.219	3303
376.301	4592
376.383	6237
376.465	4030
376.548	2392
376.630	2443
376.712	6857
376.794	3433
376.877	2590
376.959	1212
377.041	1939
377.123	2207
377.205	3683
377.287	1603
377.369	3228
377.452	2790
377.534	2531
377.616	2828
377.698	2550
377.780	1745
377.862	2777
377.944	3798
378.026	1638
378.108	2959
378.190	2597
378.272	3017
378.354	2557
378.436	2392
378.518	1116
378.600	3121
378.682	4204
378.764	2119
378.846	3657
378.928	1969
379.010	2090
379.091	2412
379.173	2980
379.255	1507
379.337	1681
379.419	2138
379.501	5289
379.583	2744
379.664	2092
379.746	1280
379.828	4692
379.910	3536
379.991	4472
380.073	1801
380.155	2709
380.237	2527
380.318	2764
380.400	2188
380.482	4075
380.564	3091
380.645	1911
380.727	1991
380.809	3842
380.890	2487
380.972	1952
381.053	2573
381.135	4276
381.217	3472
381.298	5223
381.380	3473
381.461	3513
381.543	6277
381.624	7569
381.706	3900
381.787	3627
381.869	4987
381.951	5722
382.032	10827
382.113	11224
382.195	2813
382.276	6493
382.358	4903
382.439	8094
382.521	10808
382.602	15412
382.684	12028
382.765	19112
382.846	47181
382.928	106900
383.009	60864
383.090	47283
383.172	125649
383.253	162890
383.334	57260
383.416	26097
383.497	19769
383.578	23057
383.659	39600
383.741	110503
383.822	207306
383.903	113196
383.984	34139
384.066	21507
384.147	13403
384.228	10272
384.309	8125
384.390	7774
384.471	6770
384.553	6971
384.634	6307
384.715	7421
384.796	5524
384.877	5393
384.958	6757
385.039	5085
385.120	4825
385.201	5187
385.282	4281
385.363	7622
385.444	5831
385.525	7051
385.606	7861
385.687	7291
385.768	5496
385.849	4998
385.930	9339
386.011	13184
386.092	5682
386.173	5556
386.254	4866
386.335	4921
386.416	3299
386.496	4366
386.577	5781
386.658	4309
386.739	3490
386.820	5584
386.901	3136
386.981	5353
387.062	4750
387.143	5444
387.224	6780
387.304	9163
387.385	7339
387.466	5181
387.547	7671
387.627	6714
387.708	7230
387.789	9179
387.869	7898
387.950	6954
388.031	4506
388.111	3252
388.192	5547
388.273	7619
388.353	4398
388.434	2969
388.514	3702
388.595	7464
388.676	6831
388.756	5274
388.837	4698
388.917	3489
388.998	1659
389.078	4504
389.159	3865
389.239	1172
389.320	4098
389.400	1628
389.480	3705
389.561	4435
389.641	3810
389.722	3877
389.802	1741
389.883	3567
389.963	5291
390.043	4366
390.124	2164
390.204	3335
390.284	3349
390.365	3031
390.445	6302
390.525	4875
390.605	3866
390.686	2471
390.766	3159
390.846	4609
390.927	2010
391.007	2392
391.087	3284
391.167	3456
391.247	1719
391.328	4368
391.408	5142
391.488	3871
391.568	2278
391.648	3732
391.728	4150
391.808	4492
391.888	3461
391.969	4527
392.049	4129
392.129	6170
392.209	5295
392.289	8097
392.369	6647
392.449	8178
392.529	6322
392.609	8804
392.689	8505
392.769	10388
392.849	11737
392.929	17221
393.009	22233
393.089	29725
393.169	53552
393.248	125709
393.328	279706
393.408	275523
393.488	120843
393.568	50923
393.648	26413
393.728	17564
393.807	11993
393.887	11100
393.967	9116
394.047	7553
394.127	5083
394.206	6068
394.286	7441
394.366	20260
394.446	20429
394.525	5575
394.605	4317
394.685	4747
394.764	7975
394.844	14135
394.924	13707
395.003	6227
395.083	2603
395.163	4070
395.242	3620
395.322	4114
395.402	1260
395.481	5804
395.561	6006
395.640	19090
395.720	31270
395.799	19217
395.879	9155
395.958	5695
396.038	7980
396.117	28498
396.197	28039
396.276	11893
396.356	8139
396.435	9921
396.515	13120
396.594	18937
396.673	40628
396.753	118503
396.832	249688
396.912	180082
396.991	58007
397.070	26316
397.150	13450
397.229	14481
397.308	23510
397.388	42361
397.467	19296
397.546	7554
397.625	3509
397.705	6872
397.784	4743
397.863	4070
397.942	3564
398.022	3714
398.101	4655
398.180	10151
398.259	5431
398.338	4959
398.417	2063
398.497	2848
398.576	3359
398.655	2367
398.734	3308
398.813	2757
398.892	5066
398.971	10291
399.050	4468
399.129	2298
399.208	2611
399.287	3475
399.366	1526
399.445	2615
399.524	2339
399.603	1176
399.682	2698
399.761	3274
399.840	10779
399.919	8944
399.998	2625
400.077	715
400.156	388
400.235	3698
400.313	1296
400.392	1019
400.471	2736
400.550	2497
400.629	1107
400.708	2188
400.786	1221
400.865	3167
400.944	2286
401.023	3576
401.102	1372
401.180	1609
401.259	958
401.338	689
401.416	1311
401.495	850
401.574	1915
401.652	1127
401.731	2245
401.810	277
401.888	738
401.967	1372
402.046	1321
402.124	2308
402.203	632
402.281	2494
402.360	68
402.438	3633
402.517	1104
402.596	2201
402.674	1544
402.753	1262
402.831	1175
402.910	2070
402.988	1626
403.066	4454
403.145	3070
403.223	3421
403.302	2848
403.380	3543
403.459	3077
403.537	2013
403.615	1523
403.694	1192
403.772	2556
403.850	1291
403.929	1214
404.007	742
404.085	3038
404.164	206
404.242	522
404.320	2328
404.398	3395
404.477	1929
404.555	7322
404.633	5603
404.711	2154
404.789	2616
404.868	692
404.946	1150
405.024	1022
405.102	1538
405.180	-24
405.258	606
405.336	2260
405.415	146
405.493	1521
405.571	2033
405.649	938
405.727	465
405.805	2497
405.883	2427
405.961	2360
406.039	903
406.117	409
406.195	1506
406.273	390
406.351	4565
406.429	3479
406.507	1087
406.585	423
406.663	1577
406.740	1070
406.818	649
406.896	18
406.974	1679
407.052	-710
407.130	2977
407.208	2835
407.285	1192
407.363	-476
407.441	1153
407.519	400
407.596	1176
407.674	1775
407.752	4481
407.830	3976
407.907	1983
407.985	433
408.063	873
408.141	711
408.218	2036
408.296	-26
408.373	573
408.451	1835
408.529	2265
408.606	1083
408.684	1832
408.762	2299
408.839	2158
408.917	1646
408.994	2841
409.072	1807
409.149	2923
409.227	5538
409.304	8927
409.382	8170
409.459	10708
409.537	13628
409.614	11163
409.692	7468
409.769	8056
409.846	14384
409.924	17484
410.001	9131
410.079	7043
410.156	5797
410.233	3394
410.311	2248
410.388	3020
410.465	3900
410.543	1778
410.620	3034
410.697	2529
410.775	2153
410.852	1574
410.929	4175
411.006	3543
411.083	2453
411.161	2135
411.238	2269
411.315	1600
411.392	2410
411.469	2409
411.547	1789
411.624	599
411.701	881
411.778	1578
411.855	1547
411.932	1452
412.009	1037
412.086	1662
412.163	1524
412.240	2209
412.317	1838
412.394	1786
412.471	1617
412.548	1615
412.625	1266
412.702	1781
412.779	939
412.856	859
412.933	886
413.010	1380
413.087	531
413.164	1047
413.241	1637
413.318	516
413.395	1718
413.471	1236
413.548	1340
413.625	1138
413.702	171
413.779	1082
413.855	544
413.932	1047
414.009	-240
414.086	533
414.162	1592
414.239	1662
414.316	932
414.393	2319
414.469	-292
414.546	1166
414.623	1367
414.699	1172
414.776	560
414.853	572
414.929	1499
415.006	368
415.082	313
415.159	632
415.236	998
415.312	1587
415.389	699
415.465	387
415.542	1208
415.618	85
415.695	1338
415.771	1090
415.848	593
415.924	1891
416.000	301
416.077	1842
416.153	-686
416.230	813
416.306	314
416.383	1163
416.459	86
416.535	920
416.612	633
416.688	1079
416.764	1471
416.841	1280
416.917	316
416.993	783
417.069	833
417.146	238
417.222	621
417.298	655
417.374	267
417.451	1013
417.527	-524
417.603	194
417.679	1375
417.755	454
417.831	-193
417.908	1511
417.984	332
418.060	58
418.136	1389
418.212	403
418.288	422
418.364	1458
418.440	-593
418.516	1652
418.592	1149
418.668	1393
418.744	745
418.820	1105
418.896	1934
418.972	-7
419.048	131
419.124	2277
419.200	373
419.276	1044
419.352	790
419.428	1511
419.504	-389
419.579	1101
419.655	466
419.731	1462
419.807	1140
419.883	1278
419.959	1052
420.034	1942
420.110	1662
420.186	1519
420.262	2343
420.337	1195
420.413	1455
420.489	2585
420.565	2099
420.640	2469
420.716	2816
420.792	1276
420.867	3662
420.943	2186
421.019	3147
421.094	2703
421.170	3417
421.245	3494
421.321	4719
421.397	3958
421.472	5945
421.548	6993
421.623	6616
421.699	6937
421.774	7276
421.850	7580
421.925	10631
422.001	12370
422.076	15586
422.152	18971
422.227	25404
422.302	34351
422.378	49899
422.453	75632
422.529	113227
422.604	135825
422.679	117629
422.755	132902
422.830	116681
422.905	78414
422.981	53470
423.056	37960
423.131	30173
423.207	22765
423.282	17390
423.357	15315
423.432	11757
423.508	10253
423.583	8416
423.658	7853
423.733	7698
423.808	6583
423.883	5810
423.959	7042
424.034	8502
424.109	7451
424.184	5232
424.259	4579
424.334	4173
424.409	2400
424.484	2550
424.559	3256
424.634	3062
424.709	2258
424.784	2177
424.859	2026
424.934	1674
425.009	2669
425.084	2128
425.159	2238
425.234	2167
425.309	2003
425.384	1915
425.459	1962
425.534	1849
425.609	775
425.683	791
425.758	1902
425.833	1644
425.908	2288
425.983	998
426.058	3191
426.132	1203
426.207	1788
426.282	2620
426.357	1391
426.431	1283
426.506	1829
426.581	1058
426.655	1353
426.730	1676
426.805	87
426.879	1534
426.954	1090
427.029	91
427.103	2274
427.178	2538
427.253	2009
427.327	403
427.402	430
427.476	1643
427.551	714
427.625	1016
427.700	1310
427.774	59
427.849	981
427.923	253
427.998	921
428.072	275
428.147	4494
428.221	17595
428.296	53639
428.370	27497
428.444	4524
428.519	1867
428.593	2327
428.667	1678
428.742	3497
428.816	6720
428.890	33887
428.965	48941
429.039	12363
429.113	2912
429.188	1240
429.262	172
429.336	1514
429.410	873
429.485	2112
429.559	2197
429.633	1939
429.707	1934
429.781	5766
429.855	32510
429.930	43409
430.004	13621
430.078	11104
430.152	22490
430.226	71323
430.300	64932
430.374	14055
430.448	4325
430.522	4652
430.596	8798
430.670	13210
430.744	40825
430.818	42542
430.892	7273
430.966	1935
431.040	1043
431.114	-475
431.188	-611
431.262	-201
431.336	-88
431.410	1334
431.484	1337
431.557	2268
431.631	725
431.705	2785
431.779	13185
431.853	50855
431.927	32410
432.000	5068
432.074	500
432.148	981
432.222	461
432.295	394
432.369	-1
432.443	-301
432.516	1109
432.590	2993
432.664	991
432.737	-207
432.811	-642
432.885	-349
432.958	-7
433.032	-638
433.106	-950
433.179	-163
433.253	-141
433.326	-179
433.400	-505
433.473	225
433.547	-591
433.620	160
433.694	-763
433.767	106
433.841	-777
433.914	971
433.988	-664
434.061	699
434.134	149
434.208	447
434.281	-880
434.355	-29
434.428	27
434.501	-915
434.575	-728
434.648	21
434.721	-533
434.795	21
434.868	-501
434.941	278
435.014	-626
435.088	663
435.161	708
435.234	2336
435.307	994
435.381	2346
435.454	3767
435.527	7069
435.600	7092
435.673	5235
435.746	3240
435.819	2624
435.892	1123
435.966	1463
436.039	430
436.112	672
436.185	-239
436.258	621
436.331	-338
436.404	248
436.477	108
436.550	-378
436.623	81
436.696	493
436.769	124
436.842	369
436.915	-215
436.987	233
437.060	-357
437.133	-442
437.206	-170
437.279	433
437.352	-479
437.425	-261
437.498	-156
437.570	-336
437.643	204
437.716	192
437.789	-1270
437.861	176
437.934	328
438.007	24
438.080	-463
438.152	861
438.225	427
438.298	2156
438.370	4926
438.443	1987
438.516	-452
438.588	-198
438.661	-788
438.734	12
438.806	-763
438.879	501
438.951	75
439.024	98
439.096	-805
439.169	-522
439.241	-323
439.314	-683
439.386	-592
439.459	-13
439.531	-468
439.604	-711
439.676	-241
439.749	-600
439.821	-151
439.893	14
439.966	157
440.038	-295
440.110	-666
440.183	-611
440.255	-995
440.327	451
440.400	-211
440.472	1580
440.544	845
440.617	392
440.689	1376
440.761	122
440.833	361
440.905	385
440.978	-922
441.050	627
441.122	-577
441.194	-110
441.266	-108
441.338	-541
441.411	136
441.483	950
441.555	617
441.627	435
441.699	540
441.771	-209
441.843	168
441.915	-552
441.987	-42
442.059	1306
442.131	764
442.203	1532
442.275	1680
442.347	2868
442.419	8565
442.491	41506
442.563	81664
442.635	31759
442.706	7152
442.778	2995
442.850	1443
442.922	1031
442.994	1474
443.066	2301
443.137	2442
443.209	3134
443.281	5866
443.353	12273
443.425	46655
443.496	126133
443.568	127323
443.640	51375
443.711	11860
443.783	5307
443.855	2848
443.926	2397
443.998	1081
444.070	1527
444.141	1066
444.213	925
444.285	894
444.356	978
444.428	586
444.499	1726
444.571	427
444.642	1411
444.714	365
444.785	1373
444.857	695
444.928	2514
445.000	2419
445.071	3374
445.143	3352
445.214	5631
445.285	9477
445.357	26661
445.428	84387
445.500	150880
445.571	117782
445.642	77520
445.714	26103
445.785	10323
445.856	3365
445.928	2469
445.999	1551
446.070	1515
446.141	1097
446.213	616
446.284	-33
446.355	39
446.426	314
446.497	678
446.569	-266
446.640	130
446.711	-130
446.782	831
446.853	-261
446.924	282
446.995	-244
447.066	134
447.138	679
447.209	-222
447.280	-891
447.351	-456
447.422	-861
447.493	223
447.564	-534
447.635	-559
447.706	-994
447.777	-204
447.847	22
447.918	-609
447.989	-240
448.060	766
448.131	-359
448.202	-193
448.273	-848
448.344	82
448.414	-331
448.485	-235
448.556	63
448.627	-270
448.698	455
448.768	-357
448.839	-373
448.910	-1012
448.981	-689
449.051	-325
449.122	-1408
449.193	-663
449.263	-1385
449.334	-77
449.405	-543
449.475	-272
449.546	-308
449.616	271
449.687	382
449.758	-140
449.828	-666
449.899	-614
449.969	-914
450.040	-302
450.110	165
450.181	-392
450.251	-1086
450.322	-771
450.392	-639
450.463	-566
450.533	-454
450.604	-645
450.674	-1202
450.744	-467
450.815	10
450.885	72
450.955	28
451.026	-138
451.096	-27
451.166	199
451.237	320
451.307	1849
451.377	847
451.447	-243
451.518	-200
451.588	-761
451.658	-223
451.728	-569
451.799	690
451.869	549
451.939	-469
452.009	-655
452.079	-1241
452.149	-931
452.219	-196
452.289	1404
452.360	-927
452.430	171
452.500	-157
452.570	1147
452.640	5097
452.710	15344
452.780	14930
452.850	5991
452.920	2700
452.990	1198
453.060	227
453.129	67
453.199	-812
453.269	1720
453.339	2601
453.409	3495
453.479	5446
453.549	6342
453.619	7116
453.688	437
453.758	-453
453.828	-672
453.898	-1008
453.968	-684
454.037	89
454.087	-437
454.107	-658
454.168	-1131
454.177	-1213
454.247	-504
454.249	-514
454.316	-1112
454.330	-1004
454.386	-635
454.411	-651
454.456	-770
454.492	-393
454.525	-42
454.574	-405
454.595	-581
454.655	-615
454.665	-628
454.734	168
454.736	181
454.804	25
454.817	96
454.873	362
454.898	510
454.943	710
454.979	110
455.013	-454
455.060	264
455.082	600
455.141	64
455.152	-48
455.221	725
455.222	743
455.291	859
455.303	708
455.360	50
455.384	-15
455.430	-329
455.465	45
455.499	412
455.546	590
455.569	668
455.627	546
455.638	551
455.707	-801
455.708	-780
455.777	-142
455.789	-185
455.846	-100
455.869	-102
455.916	-303
455.950	-144
455.985	99
456.031	28
456.054	-109
456.112	52
456.124	101
456.193	473
456.193	462
456.262	-599
456.274	-366
456.332	937
456.355	785
456.401	273
456.436	317
456.470	303
456.516	253
456.540	261
456.597	-40
456.609	-104
456.678	399
456.678	385
456.747	443
456.759	300
456.817	-134
456.840	83
456.886	197
456.920	161
456.955	291
457.001	616
457.024	719
457.082	906
457.093	926
457.162	1054
457.163	1067
457.232	743
457.243	766
457.301	980
457.324	1044
457.370	1020
457.405	1181
457.439	1446
457.485	1597
457.508	1568
457.566	1707
457.577	1962
457.646	3370
457.647	3418
457.715	10335
457.727	11748
457.784	21374
457.808	28559
457.853	35264
457.889	38540
457.922	36673
457.969	23490
457.991	24110
458.050	32110
458.060	33673
458.129	60141
458.130	60858
458.198	53192
458.211	46813
458.267	24717
458.292	16392
458.336	10397
458.372	10455
458.405	16491
458.453	26250
458.474	33460
458.533	61202
458.543	62763
458.611	90317
458.614	90583
458.680	48748
458.694	36873
458.749	16151
458.775	11354
458.818	6636
458.855	4995
458.887	4099
458.936	3371
458.955	3100
459.016	2247
459.024	2205
459.093	2428
459.097	2416
459.162	1544
459.177	1642
459.230	2493
459.257	2338
459.299	1768
459.338	2037
459.368	2230
459.418	1901
459.437	1674
459.499	1383
459.505	1475
459.574	2398
459.579	2440
459.643	1435
459.659	1303
459.711	1945
459.740	2214
459.780	1894
459.820	1505
459.849	1394
459.900	1490
459.917	1653
459.981	1860
459.986	1813
460.054	1982
460.061	1949
460.123	1499
460.141	1532
460.191	2106
460.222	2105
460.260	1796
460.302	1885
460.328	2105
460.382	1833
460.397	1713
460.462	1983
460.465	2023
460.534	2913
460.543	3008
460.602	6200
460.623	7703
460.671	12089
460.703	15535
460.739	13396
460.783	9414
460.808	8149
460.864	3432
460.876	2892
460.944	1660
460.945	1658
461.013	2332
461.024	2368
461.081	1736
461.104	1607
461.150	1725
461.184	1867
461.218	2044
461.264	2238
461.286	2231
461.345	1962
461.355	1919
461.423	2099
461.425	2096
461.491	1721
461.505	1687
461.559	2014
461.585	1969
461.628	2037
461.665	2692
461.696	2963
461.745	3361
461.764	3371
461.825	2503
461.832	2509
461.901	2576
461.905	2614
461.969	1950
461.985	1805
462.037	2511
462.065	2813
462.105	2309
462.145	1934
462.173	2318
462.225	2785
462.241	2785
462.305	2913
462.310	2900
462.378	2800
462.385	2747
462.446	2965
462.465	3111
462.514	2717
462.545	2559
462.582	2470
462.625	1989
462.650	1964
462.705	2269
462.718	2327
462.785	2622
462.786	2615
462.854	1872
462.865	1770
462.922	2377
462.945	2737
462.990	2742
463.025	2392
463.058	2103
463.104	1995
463.126	2101
463.184	2418
463.194	2457
463.262	2203
463.264	2215
463.330	3132
463.344	3229
463.398	3403
463.424	3590
463.466	2708
463.504	1840
463.533	2500
463.583	3357
463.601	3096
463.663	2442
463.669	2444
463.737	2715
463.743	2718
463.805	3584
463.823	3779
463.873	3832
463.903	3971
463.940	4131
463.982	4250
464.008	3820
464.062	2785
464.076	2753
464.142	2616
464.144	2614
464.211	2552
464.221	2532
464.279	2651
464.301	2589
464.347	2805
464.381	3078
464.414	2620
464.461	2000
464.482	2340
464.540	3308
464.550	3213
464.617	2379
464.620	2348
464.685	3297
464.699	3472
464.753	2907
464.779	2621
464.820	3133
464.859	3688
464.888	3216
464.938	2305
464.956	2718
465.018	4206
465.023	4102
465.091	2695
465.098	2525
465.158	3434
465.177	3803
465.226	3322
465.257	2884
465.293	2776
465.336	2676
465.361	2860
465.416	3388
465.428	3540
465.495	4228
465.496	4233
465.563	3854
465.575	3813
465.631	4404
465.654	4679
465.698	4120
465.734	3523
465.765	3563
465.813	3552
465.833	3349
465.893	2874
465.900	2965
465.968	3710
465.972	3745
466.035	2928
466.052	2741
466.102	2823
466.131	2846
466.170	2878
466.210	2813
466.237	2944
466.290	3294
466.304	3149
466.369	2374
466.372	2390
466.439	2737
466.449	2788
466.506	3363
466.528	3543
466.573	3820
466.607	3996
466.641	4476
466.687	5249
466.708	5613
466.766	6427
466.775	6130
466.842	3879
466.845	3764
466.909	3889
466.925	3915
466.977	3820
467.004	3775
467.044	4264
467.083	4701
467.111	4477
467.163	4043
467.178	4100
467.242	4309
467.245	4299
467.312	3915
467.321	3858
467.379	3747
467.400	3693
467.446	4208
467.480	4570
467.559	5023
467.638	4564
467.717	3856
467.796	4758
467.875	4361
467.955	4279
468.034	5340
468.113	6795
468.192	10798
468.271	8971
468.350	12570
468.429	18929
468.508	20473
468.588	11569
468.667	7086
468.746	5323
468.825	5247
468.904	4877
468.983	5545
469.062	4294
469.141	4875
469.220	4584
469.299	5131
469.378	3042
469.456	5610
469.535	4598
469.614	3301
469.693	3834
469.772	6046
469.851	4153
469.930	4397
470.009	4546
470.088	6239
470.166	8466
470.245	14134
470.324	15172
470.403	9679
470.482	6107
470.560	5084
470.639	4590
470.718	4860
470.797	3502
470.875	4036
470.954	4084
471.033	4807
471.111	3654
471.190	4656
471.269	3920
471.347	5037
471.426	3679
471.505	4514
471.583	3541
471.662	5213
471.740	3833
471.819	4198
471.898	3478
471.976	4496
472.055	3928
472.133	3965
472.212	4000
472.290	3488
472.369	3784
472.447	3377
472.526	2503
472.604	4062
472.683	3501
472.761	4301
472.839	3685
472.918	5284
472.996	4080
473.075	5157
473.153	4198
473.231	4630
473.310	4383
473.388	5094
473.466	4048
473.545	4801
473.623	4786
473.701	4781
473.780	4395
473.858	3293
473.936	5869
474.014	5238
474.093	5320
474.171	5149
474.249	4880
474.327	4478
474.405	3769
474.484	4450
474.562	3976
474.640	4941
474.718	3174
474.796	3642
474.874	4073
474.952	4278
475.030	4303
475.108	4234
475.187	4151
475.265	4564
475.343	5137
475.421	4495
475.499	3493
475.577	4583
475.655	5003
475.733	5521
475.811	4824
475.889	5006
475.966	4847
476.044	4022
476.122	4791
476.200	4210
476.278	3579
476.356	4228
476.434	4009
476.512	4202
476.590	4403
476.667	4276
476.745	3496
476.823	4571
476.901	3796
476.979	4315
477.056	4772
477.134	4160
477.212	3756
477.290	4808
477.367	4059
477.445	4362
477.523	3694
477.601	3729
477.678	4851
477.756	4734
477.834	3700
477.911	4703
477.989	3668
478.066	3883
478.144	3748
478.222	3947
478.299	3688
478.377	3975
478.454	4355
478.532	3674
478.609	4441
478.687	4273
478.764	3238
478.842	3950
478.919	3686
478.997	3940
479.074	3670
479.152	4398
479.229	4569
479.307	3550
479.384	3840
479.461	4398
479.539	3658
479.616	4418
479.694	4175
479.771	4753
479.848	2474
479.926	3065
480.003	5652
480.080	3395
480.157	3223
480.235	3926
480.312	3347
480.389	4334
480.467	5103
480.544	5113
480.621	4350
480.698	4622
480.775	4287
480.853	4870
480.930	4306
481.007	4948
481.084	4251
481.161	4547
481.238	4329
481.315	4594
481.392	3448
481.470	4853
481.547	3989
481.624	4088
481.701	4138
481.778	4455
481.855	4461
481.932	5210
482.009	5757
482.086	5539
482.163	5910
482.240	6802
482.317	6629
482.393	6481
482.470	5299
482.547	6126
482.624	4515
482.701	5789
482.778	4610
482.855	4771
482.932	4724
483.009	5273
483.085	5496
483.162	6086
483.239	7356
483.316	6422
483.393	8044
483.469	5650
483.546	5506
483.623	5724
483.699	4185
483.776	3976
483.853	4383
483.930	4213
484.006	5465
484.083	7757
484.160	4884
484.236	5973
484.313	4907
484.389	5060
484.466	6237
484.543	7072
484.619	9672
484.696	11841
484.772	6982
484.849	6278
484.925	4654
485.002	6026
485.078	4791
485.155	4704
485.231	4801
485.308	4294
485.384	3896
485.461	4750
485.537	3660
485.614	7022
485.690	3160
485.766	4344
485.843	3820
485.919	4514
485.995	4025
486.072	5092
486.148	4447
486.224	3931
486.301	4463
486.377	4470
486.453	3257
486.530	5446
486.606	4750
486.682	4722
486.758	6060
486.835	5658
486.911	2812
486.987	7837
487.063	7245
487.139	7327
487.215	7073
487.292	9534
487.368	10087
487.444	10986
487.520	16805
487.596	23820
487.672	64886
487.748	211088
487.824	293074
487.900	77982
487.976	21190
488.052	12263
488.128	9463
488.204	7221
488.280	6291
488.356	6443
488.432	7393
488.508	7866
488.584	5019
488.660	4925
488.736	4606
488.812	4767
488.888	5199
488.964	4671
489.039	4709
489.115	6519
489.191	4656
489.267	5239
489.343	3641
489.418	4669
489.494	4619
489.570	3500
489.646	5581
489.722	5089
489.797	4128
489.873	5993
489.949	7069
490.024	5788
490.100	3791
490.176	4845
490.251	3463
490.327	5102
490.403	4911
490.478	4188
490.554	4315
490.629	4919
490.705	4029
490.781	5320
490.856	4144
490.932	4136
491.007	4341
491.083	4223
491.158	3825
491.234	4783
491.309	6045
491.385	5330
491.460	3825
491.536	5538
491.611	3371
491.686	4688
491.762	3665
491.837	5064
491.913	4594
491.988	6201
492.063	4733
492.139	5717
492.214	4218
492.289	4382
492.365	2444
492.440	4725
492.515	3486
492.590	4363
492.666	4010
492.741	4683
492.816	4104
492.891	3704
492.967	4155
493.042	4971
493.117	3203
493.192	3897
493.267	4352
493.342	5253
493.418	5308
493.493	4719
493.568	4281
493.643	4284
493.718	4594
493.793	5227
493.868	3848
493.943	4641
494.018	4186
494.093	4351
494.168	4933
494.243	4833
494.318	3882
494.393	4831
494.468	3768
494.543	4648
494.618	4511
494.693	4197
494.768	4092
494.842	5380
494.917	5028
494.992	5008
495.067	4914
495.142	4583
495.217	4213
495.292	5076
495.366	3626
495.441	4032
495.516	5075
495.591	5555
495.665	5910
495.740	7689
495.815	5507
495.890	5547
495.964	2320
496.039	7626
496.114	4944
496.188	6372
496.263	5991
496.338	5761
496.412	3763
496.487	5705
496.561	5424
496.636	5764
496.710	4597
496.785	5767
496.860	4584
496.934	5258
497.009	5610
497.083	4873
497.158	5844
497.232	6479
497.307	5909
497.381	8146
497.455	7643
497.530	6399
497.604	5652
497.679	5693
497.753	5636
497.827	5336
497.902	4096
497.976	7109
498.050	10558
498.125	26690
498.199	28724
498.273	7729
498.348	6095
498.422	7353
498.496	7651
498.570	9247
498.645	4646
498.719	3953
498.793	4719
498.867	4459
498.941	6111
499.016	12504
499.090	27519
499.164	15362
499.238	6209
499.312	6484
499.386	6768
499.460	5772
499.534	7862
499.609	10177
499.683	6859
499.757	5450
499.831	6364
499.905	17837
499.979	20016
500.053	6043
500.127	5429
500.201	4868
500.275	5350
500.349	5892
500.422	5823
500.496	7529
500.570	9679
500.644	18579
500.718	24321
500.792	8387
500.866	4786
500.940	3867
501.013	4867
501.087	3395
501.161	3899
501.235	2725
501.309	9008
501.382	16168
501.456	16748
501.530	4984
501.603	6827
501.677	4389
501.751	1629
501.825	4974
501.898	4780
501.972	8335
502.046	5908
502.119	3055
502.193	4952
502.266	8070
502.340	5083
502.413	5334
502.487	8464
502.561	4800
502.634	4043
502.708	3291
502.781	2831
502.855	4242
502.928	2048
503.002	3365
503.075	3060
503.149	3264
503.222	2632
503.295	3671
503.369	3784
503.442	4455
503.516	7796
503.589	12962
503.662	10819
503.736	8599
503.809	13336
503.882	13942
503.956	21575
504.029	41516
504.102	117883
504.175	161593
504.249	48970
504.322	17567
504.395	10074
504.468	7397
504.542	4486
504.615	3856
504.688	4919
504.761	2860
504.834	4622
504.907	2753
504.980	3725
505.053	3875
505.127	800
505.200	5600
505.273	1961
505.346	2399
505.419	1603
505.492	3115
505.565	2055
505.638	2510
505.711	1306
505.784	1826
505.857	1249
505.930	4480
506.003	1020
506.076	4759
506.149	2080
506.221	1886
506.294	4243
506.367	2134
506.440	9061
506.513	7444
506.586	2576
506.659	2889
506.731	2204
506.804	2897
506.877	941
506.950	3089
507.022	3002
507.095	1374
507.168	2605
507.241	3329
507.313	1832
507.386	1745
507.459	2936
507.531	2348
507.604	1181
507.677	3768
507.749	459
507.822	3732
507.894	1225
507.967	3246
508.040	1584
508.112	3011
508.185	2323
508.257	858
508.330	3451
508.402	1865
508.475	1367
508.547	2583
508.620	2730
508.692	3307
508.765	3095
508.837	1631
508.909	2401
508.982	1786
509.054	3726
509.127	2656
509.199	1491
509.271	1130
509.344	2216
509.416	2453
509.488	1936
509.560	3067
509.633	1889
509.705	2402
509.777	1212
509.849	2924
509.922	957
509.994	1896
510.066	2826
510.138	386
510.210	4196
510.283	2354
510.355	3015
510.427	3647
510.499	1661
510.571	2091
510.643	1556
510.715	3019
510.787	-242
510.859	4272
510.931	1673
511.003	2444
511.076	3175
511.148	1705
511.219	613
511.291	2506
511.363	3064
511.435	2197
511.507	936
511.579	2962
511.651	4455
511.723	2477
511.795	1829
511.867	2472
511.939	2362
512.010	1963
512.082	2774
512.154	2136
512.226	1482
512.298	3548
512.369	1956
512.441	3546
512.513	1933
512.585	1522
512.656	3362
512.728	2834
512.800	2190
512.871	3541
512.943	2230
513.015	1534
513.086	1675
513.158	3432
513.230	1337
513.301	2141
513.373	2996
513.444	2333
513.516	2084
513.588	1652
513.659	2913
513.731	2238
513.802	566
513.874	4244
513.945	2431
514.016	1784
514.088	2680
514.159	1378
514.231	2427
514.302	3053
514.374	2419
514.445	1129
514.516	4863
514.588	3160
514.659	2457
514.730	2242
514.802	4156
514.873	-78
514.944	5477
515.016	3024
515.087	2426
515.158	2554
515.229	3393
515.301	1152
515.372	2753
515.443	2601
515.514	2076
515.585	1368
515.656	3261
515.728	4149
515.799	2062
515.870	3853
515.941	3808
516.012	1902
516.083	5613
516.154	2825
516.225	5479
516.296	8149
516.367	6219
516.438	8233
516.509	10854
516.580	19434
516.651	78407
516.722	238161
516.793	73748
516.864	15332
516.935	15622
517.006	19766
517.077	25123
517.148	65465
517.219	313951
517.289	386403
517.360	53907
517.431	17716
517.502	8284
517.573	10670
517.643	7705
517.714	8217
517.785	8946
517.856	9150
517.926	13907
517.997	16704
518.068	20430
518.138	30511
518.209	51473
518.280	207243
518.350	628337
518.421	196699
518.492	34402
518.562	23124
518.633	23790
518.703	31753
518.774	77766
518.845	209814
518.915	174125
518.986	42805
519.056	17982
519.127	13393
519.197	9368
519.268	13981
519.338	12683
519.408	5507
519.479	4309
519.549	4398
519.620	4423
519.690	4064
519.760	2984
519.831	3855
519.901	2723
519.971	4104
520.042	2568
520.112	2893
520.182	4692
520.253	3923
520.323	2359
520.393	2732
520.463	5167
520.534	681
520.604	5923
520.674	3806
520.744	2970
520.814	2427
520.885	3497
520.955	4815
521.025	11659
521.095	6677
521.165	3557
521.235	2063
521.305	1243
521.375	3124
521.445	3356
521.515	1590
521.585	3166
521.655	1088
521.725	3077
521.795	4369
521.865	-383
521.935	4590
522.005	1881
522.075	2398
522.145	3514
522.215	1343
522.285	2984
522.355	3036
522.424	4078
522.494	2509
522.564	2749
522.634	3306
522.704	4551
522.774	2260
522.843	3423
522.913	2887
522.983	2464
523.053	1313
523.122	2519
523.192	1656
523.262	2374
523.331	2135
523.401	3378
523.471	2925
523.540	2655
523.610	2887
523.680	2711
523.749	3456
523.819	2703
523.888	2384
523.958	2552
524.027	3219
524.097	2566
524.166	3628
524.236	1193
524.305	4973
524.375	1308
524.444	1922
524.514	4593
524.583	2712
524.653	2115
524.722	3824
524.791	1346
524.861	5358
524.930	2159
524.999	2717
525.069	4419
525.138	3939
525.207	3255
525.277	4727
525.346	4431
525.415	5837
525.484	5571
525.554	5566
525.623	7967
525.692	10228
525.761	11513
525.830	16409
525.900	18917
525.969	33037
526.038	61931
526.107	139666
526.176	371118
526.245	252591
526.314	74251
526.383	189329
526.452	230304
526.522	362307
526.591	276122
526.660	43446
526.729	27999
526.797	32256
526.867	44639
526.935	147532
527.004	535813
527.073	272171
527.142	35877
527.211	16087
527.280	10470
527.349	8730
527.418	5402
527.487	7674
527.555	4121
527.624	4633
527.693	2522
527.762	5242
527.831	2482
527.899	5791
527.968	3534
528.037	3124
528.106	3908
528.174	4142
528.243	4287
528.312	4170
528.380	3776
528.449	2863
528.518	4626
528.586	2190
528.655	4754
528.723	3368
528.792	2576
528.861	2103
528.929	1170
528.998	3652
529.066	2244
529.135	3723
529.203	2671
529.272	2531
529.340	3596
529.409	4581
529.477	1797
529.545	2634
529.614	5140
529.682	2046
529.751	2420
529.819	5602
529.887	3125
529.956	3072
530.024	4615
530.092	2968
530.161	3026
530.229	4566
530.297	2235
530.365	4511
530.434	3633
530.502	2462
530.570	3096
530.638	2691
530.707	4272
530.775	4317
530.843	2790
530.911	3706
530.979	4145
531.047	3812
531.115	3336
531.183	4929
531.252	3947
531.320	3534
531.388	2840
531.456	4812
531.524	1794
531.592	4541
531.660	5175
531.728	3647
531.796	2686
531.864	4397
531.932	4176
532.000	3743
532.067	3520
532.135	4964
532.203	6467
532.271	4551
532.339	6150
532.407	6834
532.475	4995
532.542	6100
532.610	5487
532.678	3714
532.746	7040
532.814	9396
532.881	5930
532.949	6239
533.017	6101
533.084	5417
533.152	6044
533.220	4629
533.287	3878
533.355	5472
533.423	5138
533.490	3933
533.558	4742
533.625	5912
533.693	4593
533.761	6115
533.828	5419
533.896	4363
533.963	6905
534.031	6952
534.098	8680
534.166	9201
534.233	8333
534.300	11835
534.368	10759
534.435	9223
534.503	10800
534.570	11449
534.637	13012
534.705	14896
534.772	18618
534.840	36836
534.907	169494
534.974	172163
535.041	20145
535.109	11662
535.176	9453
535.243	9973
535.310	8410
535.378	8106
535.445	8599
535.512	9759
535.579	9218
535.646	8288
535.714	8614
535.781	10425
535.848	9741
535.915	9346
535.982	8546
536.049	8630
536.116	10082
536.183	9182
536.250	7914
536.317	9010
536.384	9847
536.451	9889
536.518	10706
536.585	8624
536.652	11623
536.719	11172
536.786	7443
536.853	9831
536.920	10497
536.987	9703
537.053	8059
537.120	12507
537.187	12008
537.254	10995
537.321	10170
537.388	11398
537.454	9118
537.521	10025
537.588	9915
537.654	11156
537.721	11493
537.788	12128
537.855	9848
537.921	10657
537.988	9711
538.055	9581
538.121	7371
538.188	9530
538.254	8868
538.321	9564
538.388	10080
538.454	11746
538.521	11461
538.587	12036
538.654	10296
538.720	11070
538.787	10702
538.853	11324
538.920	10284
538.986	10125
539.053	10212
539.119	10056
539.185	9409
539.252	11717
539.318	10933
539.385	13650
539.451	9660
539.517	10801
539.583	12157
539.650	11385
539.716	11184
539.782	11129
539.849	9637
539.915	10926
539.981	8930
540.047	9972
540.114	10419
540.180	12237
540.246	10155
540.312	12802
540.378	10933
540.444	12377
540.510	12261
540.576	12864
540.643	10615
540.709	9851
540.775	9946
540.841	10369
540.907	10888
540.973	11408
541.039	10278
541.105	11485
541.171	11046
541.237	11202
541.303	11993
541.369	13202
541.435	11164
541.500	11509
541.566	9524
541.632	11167
541.698	10278
541.764	12005
541.830	10301
541.896	9764
541.961	11236
542.027	10269
542.093	11371
542.159	12336
542.224	9449
542.290	12556
542.356	10716
542.421	10864
542.487	9694
542.553	9663
542.618	10225
542.684	10548
542.750	9739
542.815	11916
542.881	10369
542.947	12828
543.012	12811
543.078	10145
543.143	8658
543.209	11087
543.274	10477
543.340	10654
543.405	11900
543.471	11410
543.536	10952
543.602	10948
543.667	9593
543.732	12687
543.798	9327
543.863	11897
543.928	10701
543.994	9833
544.059	11966
544.124	11988
544.190	11197
544.255	13415
544.320	12850
544.386	11711
544.451	13612
544.516	12202
544.581	12167
544.646	12874
544.712	14805
544.777	13706
544.842	12886
544.907	13705
544.972	13233
545.037	13756
545.102	13814
545.168	15141
545.233	14828
545.298	15670
545.363	13659
545.428	15424
545.493	16490
545.558	15273
545.623	15681
545.688	15837
545.753	15715
545.818	17046
545.883	18318
545.947	18034
546.012	19721
546.077	20154
546.142	21800
546.207	21801
546.272	22031
546.337	22812
546.401	23914
546.466	26176
546.531	24880
546.596	29244
546.661	28195
546.725	30528
546.790	32393
546.855	36710
546.919	38205
546.984	44290
547.049	47834
547.113	54371
547.178	58991
547.243	67539
547.307	78098
547.372	84889
547.436	85612
547.501	92670
547.565	98763
547.630	88586
547.695	85610
547.759	86334
547.823	86732
547.888	91303
547.952	91565
548.017	95228
548.081	95538
548.146	95678
548.210	100590
548.274	108537
548.339	104348
548.403	95669
548.468	89105
548.532	90524
548.596	90982
548.660	92477
548.725	102782
548.789	110438
548.853	104834
548.917	101498
548.982	97639
549.046	88624
549.110	79705
549.174	83271
549.238	99277
549.303	108061
549.367	109204
549.431	103240
549.495	96000
549.559	98921
549.623	114149
549.687	122671
549.751	120859
549.815	146761
549.879	145375
549.943	140238
550.007	146720
550.071	145366
550.135	130523
550.199	123280
550.263	121562
550.327	116354
550.391	119376
550.455	132428
550.519	139728
550.582	147522
550.646	165116
550.710	166784
550.774	163402
550.838	167775
550.901	170276
550.965	178999
551.029	185476
551.093	197905
551.156	206935
551.220	222888
551.284	239827
551.347	197049
551.411	175982
551.475	174965
551.538	180632
551.602	169838
551.666	158237
551.729	151019
551.793	147953
551.856	148284
551.920	144791
551.983	144750
552.047	143049
552.110	145694
552.174	145755
552.237	148767
552.301	138497
552.364	134655
552.428	130642
552.491	135263
552.554	136469
552.618	136896
552.681	138555
552.745	136822
552.808	147139
552.871	157584
552.934	144678
552.998	137410
553.061	133779
553.124	129001
553.187	129460
553.251	133861
553.314	132577
553.377	135183
553.440	142924
553.503	147059
553.567	145898
553.630	147150
553.693	145566
553.756	147814
553.819	144048
553.882	140560
553.945	141555
554.008	140108
554.071	143055
554.134	142589
554.197	135442
554.260	134949
554.323	136313
554.386	136869
554.449	141460
554.512	140887
554.575	134689
554.638	134806
554.701	132235
554.764	133265
554.827	128004
554.889	124464
554.952	114832
555.015	115810
555.078	116692
555.141	117972
555.203	116511
555.266	116046
555.329	113732
555.391	109304
555.454	108434
555.517	103104
555.580	100341
555.642	97888
555.705	93713
555.768	94867
555.830	91360
555.893	87534
555.955	84261
556.018	82794
556.080	82675
556.143	85560
556.206	83569
556.268	82171
556.330	80006
556.393	78038
556.455	75561
556.518	74986
556.580	72306
556.643	69348
556.705	67415
556.767	66399
556.830	65725
556.892	63700
556.955	61902
557.017	61616
557.079	59978
557.142	59804
557.204	56815
557.266	56235
557.328	54373
557.391	49814
557.453	49792
557.515	50233
557.577	50330
557.639	49152
557.701	49161
557.764	49337
557.826	49535
557.888	50554
557.950	50361
558.012	53755
558.074	66652
558.136	131129
558.198	248674
558.260	89539
558.322	48962
558.384	50527
558.446	52237
558.508	55480
558.570	59916
558.632	67733
558.694	83138
558.756	135091
558.818	357730
558.880	639986
558.942	248081
559.003	266448
559.065	117607
559.127	60025
559.189	56278
559.251	64659
559.312	86725
559.374	199160
559.436	499131
559.498	213662
559.559	63374
559.621	54967
559.683	64504
559.744	102365
559.806	293759
559.868	345722
559.929	79496
559.991	60696
560.052	100713
560.114	246527
560.176	139292
560.237	153904
560.299	202249
560.360	45830
560.422	27048
560.483	23836
560.545	23073
560.606	22826
560.667	20821
560.729	20268
560.790	19307
560.852	19373
560.913	17879
560.974	18220
561.036	18971
561.097	18923
561.158	17611
561.220	18450
561.281	16620
561.342	16609
561.403	17414
561.465	15935
561.526	16687
561.587	17815
561.648	15279
561.709	15234
561.771	15851
561.832	15865
561.893	15264
561.954	15390
562.015	14410
562.076	14559
562.137	14456
562.198	15380
562.259	14326
562.320	13111
562.381	13713
562.442	14116
562.503	13924
562.564	12601
562.625	13332
562.686	13618
562.747	11957
562.808	12921
562.869	12439
562.930	13403
562.991	12283
563.051	13139
563.112	11705
563.173	12626
563.234	12241
563.294	12313
563.355	11694
563.416	12515
563.477	11675
563.537	11688
563.598	11382
563.659	12199
563.720	10910
563.780	12146
563.841	10982
563.901	11196
563.962	11431
564.023	11714
564.083	11921
564.144	12287
564.204	10946
564.265	10752
564.325	11051
564.386	12308
564.446	11795
564.507	11129
564.567	9487
564.628	9962
564.688	9659
564.749	10516
564.809	10513
564.869	10466
564.930	10022
564.990	11184
565.050	9589
565.111	10482
565.171	10724
565.231	9938
565.292	10686
565.352	9806
565.412	10406
565.472	10670
565.532	10031
565.593	9761
565.653	9231
565.713	10514
565.773	9938
565.833	11158
565.893	10814
565.953	10079
566.013	9633
566.074	9381
566.134	9646
566.194	10679
566.254	10179
566.314	9595
566.374	8380
566.434	10022
566.494	8831
566.554	9059
566.614	9581
566.673	9762
566.733	10203
566.793	9860
566.853	10490
566.913	10981
566.973	9474
567.033	11901
567.092	8730
567.152	10119
567.212	10035
567.272	10269
567.331	9804
567.391	10497
567.451	10970
567.511	11852
567.570	10209
567.630	10333
567.690	10208
567.749	10359
567.809	9889
567.868	10185
567.928	9610
567.988	10439
568.047	9857
568.107	11161
568.166	9895
568.226	9818
568.285	10595
568.345	10725
568.404	10670
568.464	10227
568.523	10151
568.582	10827
568.642	9872
568.701	9892
568.761	9170
568.820	9428
568.879	9397
568.939	10837
568.998	9301
569.057	10142
569.116	9865
569.176	9673
569.235	8596
569.294	9846
569.353	9185
569.413	9361
569.472	9811
569.531	8527
569.590	8353
569.649	9738
569.708	9697
569.767	10430
569.827	9541
569.886	8897
569.945	9230
570.004	9897
570.063	9294
570.122	10016
570.181	9824
570.240	10201
570.299	9632
570.358	9427
570.417	10281
570.475	10514
570.534	10887
570.593	10865
570.652	10851
570.711	10381
570.770	9380
570.829	9740
570.887	9921
570.946	11257
571.005	9909
571.064	11363
571.122	10810
571.181	10394
571.240	8999
571.299	9868
571.357	9414
571.416	9606
571.475	9140
571.533	10611
571.592	10599
571.650	10781
571.709	11035
571.768	11894
571.826	11483
571.885	11684
571.943	10064
572.002	10214
572.060	9574
572.119	10205
572.177	10037
572.236	10683
572.294	9684
572.352	11402
572.411	9798
572.469	10571
572.528	9455
572.586	10002
572.644	9251
572.703	10101
572.761	9685
572.819	10407
572.877	8318
572.936	8857
572.994	9023
573.052	9565
573.110	9317
573.169	9487
573.227	9053
573.285	9599
573.343	8651
573.401	9321
573.459	9724
573.517	9813
573.576	8878
573.634	9211
573.692	9144
573.750	9353
573.808	8622
573.866	8542
573.924	8601
573.982	8666
574.040	8592
574.098	8986
574.155	7398
574.213	7674
574.271	8453
574.329	8849
574.387	7771
574.445	7746
574.503	8759
574.560	8114
574.618	7937
574.676	8626
574.734	7648
574.792	7090
574.849	6652
574.907	6697
574.965	6812
575.022	6071
575.080	6016
575.138	6694
575.195	5681
575.253	5882
575.311	6241
575.368	6511
575.426	6037
575.483	7558
575.541	7258
575.598	7151
575.656	6808
575.713	6029
575.771	6753
575.828	6163
575.886	7134
575.943	7649
576.001	6445
576.058	6087
576.115	5821
576.173	6863
576.230	6187
576.287	6641
576.345	6418
576.402	6598
576.459	6499
576.517	6476
576.574	6168
576.631	6700
576.688	5888
576.746	5707
576.803	5954
576.860	6058
576.917	5697
576.974	6473
577.031	6855
577.089	6479
577.146	6172
577.203	6120
577.260	5597
577.317	6349
577.374	6071
577.431	5980
577.488	4945
577.545	4722
577.602	5716
577.659	6045
577.716	5791
577.773	6038
577.830	5909
577.886	5823
577.943	4799
578.000	5215
578.057	5133
578.114	7038
578.171	5543
578.227	5505
578.284	5700
578.341	6976
578.398	5822
578.454	6469
578.511	5343
578.568	6399
578.625	6188
578.681	6567
578.738	5749
578.794	6249
578.851	6051
578.908	6048
578.964	4718
579.021	6406
579.077	5781
579.134	5484
579.190	6022
579.247	6272
579.303	5385
579.360	5417
579.416	4941
579.473	6290
579.529	5403
579.586	5923
579.642	5126
579.698	6243
579.755	4810
579.811	5843
579.867	5574
579.924	6776
579.980	5541
580.036	5941
580.093	6727
580.149	6407
580.205	5666
580.261	6677
580.317	6614
580.374	7140
580.430	6743
580.486	6313
580.542	5806
580.598	6239
580.619	6418
580.654	6735
580.692	6134
580.710	5842
580.765	6779
580.767	6815
580.823	6806
580.838	6742
580.879	6563
580.911	6731
580.935	6876
580.984	5837
580.991	5696
581.047	6430
581.057	6426
581.103	6454
581.130	6759
581.159	7049
581.203	6276
581.215	6090
581.270	6527
581.276	6505
581.326	6249
581.349	6508
581.382	6970
581.422	6361
581.438	6077
581.494	5977
581.494	5971
581.550	5593
581.567	6185
581.606	7445
581.640	6554
581.661	6017
581.713	7133
581.717	7219
581.773	5819
581.786	6013
581.829	6726
581.859	6639
581.885	6575
581.932	6401
581.940	6368
581.996	6377
582.004	6630
582.052	7944
582.077	6755
582.107	5431
582.150	6482
582.163	6770
582.219	6576
582.223	6544
582.274	6134
582.296	5722
582.330	5213
582.368	6376
582.386	6888
582.441	6711
582.441	6710
582.497	6315
582.514	6278
582.552	6308
582.587	6267
582.608	6208
582.659	5712
582.663	5675
582.719	7975
582.732	7701
582.774	6806
582.805	6787
582.830	6796
582.877	6656
582.885	6629
582.941	7351
582.950	7102
582.996	5854
583.023	6169
583.052	6584
583.095	7141
583.107	7259
583.162	6666
583.168	6717
583.218	7094
583.240	7040
583.273	7033
583.313	6608
583.328	6464
583.384	7358
583.385	7336
583.439	6565
583.458	6651
583.494	6861
583.531	6585
583.549	6449
583.603	6910
583.605	6921
583.660	7083
583.676	7003
583.715	7002
583.748	7245
583.770	7322
583.820	7842
583.825	7861
583.881	6697
583.893	6621
583.936	6960
583.965	7502
583.991	7698
584.038	7631
584.046	7657
584.101	7166
584.110	7178
584.156	7235
584.183	7383
584.211	7582
584.255	7562
584.266	7540
584.321	8070
584.328	8100
584.376	8411
584.400	8403
584.431	8367
584.472	8291
584.486	8266
584.541	8777
584.545	8768
584.596	8604
584.617	8513
584.651	8596
584.689	8975
584.706	9051
584.761	9439
584.762	9437
584.816	9785
584.834	9967
584.871	10302
584.906	10920
584.926	11251
584.978	10905
584.980	10916
585.035	12790
585.051	13157
585.090	13896
585.123	14771
585.145	15605
585.195	17130
585.200	17292
585.254	19721
585.267	20186
585.309	21857
585.340	24278
585.364	26607
585.412	30777
585.419	31434
585.473	38871
585.484	40852
585.528	53739
585.556	66184
585.583	92722
585.628	153103
585.637	174412
585.692	352950
585.700	378776
585.747	443387
585.772	377496
585.801	235024
585.845	85301
585.856	68985
585.910	36594
585.917	33210
585.965	25318
585.989	22657
586.019	21090
586.061	19109
586.074	18665
586.128	17530
586.133	17455
586.183	17308
586.205	17213
586.237	17058
586.277	16221
586.292	16010
586.346	16592
586.349	16564
586.401	16674
586.421	16712
586.455	16457
586.493	16565
586.509	16990
586.564	18015
586.565	18016
586.618	19093
586.637	19867
586.672	22113
586.709	24528
586.727	25476
586.781	27281
586.781	27300
586.835	21439
586.853	20016
586.889	18337
586.925	16701
586.944	16515
586.996	18026
586.998	18074
587.052	17659
587.068	17645
587.106	18364
587.140	18418
587.161	18210
587.212	18555
587.215	18608
587.269	18096
587.284	18404
587.323	19457
587.356	19450
587.377	19521
587.427	20511
587.431	20628
587.485	21284
587.499	21535
587.539	21779
587.571	21507
587.593	21762
587.643	23063
587.648	23222
587.702	24083
587.715	24357
587.755	24745
587.786	24586
587.810	24319
587.858	24060
587.864	24187
587.917	24857
587.930	24954
587.971	24793
588.001	25067
588.025	25450
588.073	24979
588.079	24932
588.133	24645
588.145	24711
588.187	25323
588.217	25054
588.241	25164
588.288	26091
588.295	26222
588.348	26705
588.360	26801
588.402	27493
588.431	27663
588.456	27977
588.503	29141
588.510	29395
588.564	30731
588.575	31020
588.617	32034
588.646	32645
588.671	33595
588.718	35634
588.725	36209
588.778	41552
588.789	42804
588.832	58949
588.861	72120
588.886	102010
588.932	168835
588.939	174458
588.993	209978
589.004	207277
589.047	110564
589.075	57418
589.100	47048
589.147	35051
589.154	34722
589.207	32556
589.218	32141
589.261	33027
589.290	33602
589.314	34382
589.361	36379
589.368	37430
589.421	46439
589.433	48761
589.475	78482
589.504	102089
589.528	131527
589.576	193051
589.582	186856
589.635	94147
589.647	76432
589.689	49252
589.718	33973
589.742	32866
589.790	30540
589.795	30633
589.849	30944
589.861	31092
589.902	30947
589.932	30505
589.955	30280
590.004	29601
590.009	29670
590.062	29926
590.075	29910
590.115	29932
590.146	29771
590.168	29601
590.218	29195
590.222	29397
590.275	31018
590.289	31499
590.328	32194
590.360	32303
590.381	32318
590.431	32362
590.435	32455
590.488	32768
590.503	32747
590.541	33324
590.574	33808
590.594	34460
590.645	35802
590.647	35904
590.700	36154
590.716	36312
590.753	37629
590.787	38478
590.806	39024
590.859	40288
590.859	40390
590.912	40530
590.930	40618
590.965	41266
591.001	41510
591.018	41390
591.071	40877
591.072	40773
591.124	40495
591.143	40335
591.177	39919
591.214	39219
591.230	39741
591.283	41474
591.285	41426
591.336	41353
591.356	41363
591.389	41775
591.427	41835
591.442	41626
591.495	40575
591.498	40390
591.547	40780
591.569	40946
591.600	41736
591.640	42288
591.653	42439
591.706	42776
591.711	42706
591.759	44783
591.782	45727
591.811	46856
591.853	48004
591.864	48042
591.917	47767
591.924	47579
591.969	47893
591.995	47945
592.022	48361
592.066	48717
592.075	49018
592.127	50064
592.137	50139
592.180	51313
592.208	51846
592.233	52563
592.279	53524
592.285	53822
592.338	55181
592.350	55341
592.390	55063
592.421	54605
592.443	55425
592.491	56780
592.495	56963
592.548	57420
592.562	57396
592.600	58336
592.633	58866
592.653	58798
592.704	57891
592.705	58260
592.775	60096
592.846	61535
592.916	61288
592.987	61908
593.058	63112
593.128	63039
593.199	65219
593.270	65699
593.341	66324
593.411	68898
593.482	70952
593.553	74598
593.623	73399
593.694	77526
593.764	76021
593.835	76561
593.906	77201
593.976	78407
594.047	82068
594.117	84899
594.188	87057
594.258	85149
594.329	86187
594.399	88490
594.470	90963
594.540	94402
594.611	94838
594.681	96487
594.751	95878
594.822	98085
594.892	103322
594.963	106707
595.033	109436
595.103	111934
595.174	112432
595.244	117312
595.314	119754
595.384	123390
595.455	125554
595.525	130700
595.595	136256
595.665	134452
595.736	131979
595.806	135271
595.876	137573
595.946	137661
596.016	144801
596.087	148121
596.157	149129
596.227	149698
596.297	157433
596.367	168533
596.437	176848
596.507	175041
596.577	175942
596.647	183212
596.717	191858
596.787	194998
596.857	191641
596.927	195774
596.997	195427
597.067	197634
597.137	201963
597.207	201514
597.277	203742
597.347	193937
597.417	189754
597.487	189996
597.557	195241
597.626	199694
597.696	201769
597.766	199271
597.836	186585
597.906	179032
597.975	175489
598.045	178388
598.115	188086
598.185	201608
598.254	225406
598.324	242580
598.394	247150
598.464	237710
598.533	232122
598.603	216303
598.672	210254
598.742	217371
598.812	216049
598.881	223982
598.951	217761
599.020	226626
599.090	234211
599.159	235750
599.229	226836
599.299	224656
599.368	230126
599.437	226225
599.507	207669
599.576	200243
599.646	198667
599.715	196781
599.785	193217
599.854	186870
599.924	184261
599.993	185414
600.062	187355
600.132	192237
600.201	206615
600.270	237569
600.340	249359
600.409	244886
600.478	242011
600.547	249135
600.617	218452
600.686	176827
600.755	159615
600.824	152693
600.894	146905
600.963	148963
601.032	147606
601.101	141139
601.170	133777
601.239	129432
601.308	130511
601.378	131473
601.447	130579
601.516	131419
601.585	132406
601.654	134418
601.723	136632
601.792	138562
601.861	141175
601.930	147849
601.999	147735
602.068	147892
602.137	150923
602.206	153612
602.275	154123
602.343	156119
602.412	157631
602.481	157784
602.550	161080
602.619	166028
602.688	165905
602.756	169668
602.825	169635
602.894	176814
602.963	178250
603.032	181576
603.100	180802
603.169	182327
603.238	183570
603.307	184418
603.375	187498
603.444	191081
603.513	194220
603.581	196809
603.650	198315
603.719	195623
603.787	203682
603.856	207786
603.924	213564
603.993	221157
604.061	230410
604.130	240041
604.198	243124
604.267	249932
604.335	252332
604.404	256821
604.472	257491
604.541	264071
604.609	265789
604.678	265025
604.746	264529
604.815	274438
604.883	276296
604.951	277391
605.020	282975
605.088	290853
605.156	296765
605.225	301063
605.293	298396
605.361	301501
605.429	304018
605.498	309489
605.566	319965
605.634	335679
605.702	348628
605.771	355570
605.839	357068
605.907	350145
605.975	335966
606.043	331059
606.111	334467
606.180	331450
606.248	327557
606.316	327069
606.384	323410
606.452	330678
606.520	339594
606.588	350339
606.656	350731
606.724	346278
606.792	325700
606.860	293746
606.928	271134
606.996	260493
607.064	255949
607.132	263449
607.200	277954
607.267	288413
607.335	294684
607.403	300741
607.471	290169
607.539	282873
607.607	279035
607.674	248614
607.742	249655
607.810	246142
607.878	245845
607.946	253347
608.013	264890
608.081	266817
608.149	271644
608.216	283046
608.284	289632
608.352	292301
608.419	286977
608.487	283039
608.555	276778
608.622	286833
608.690	305160
608.757	333618
608.825	339128
608.893	330483
608.960	310117
609.028	299541
609.095	299943
609.163	296505
609.230	265521
609.298	245293
609.365	260372
609.432	279450
609.500	304073
609.567	348594
609.635	393518
609.702	407684
609.769	385902
609.837	298827
609.904	263142
609.971	265721
610.039	283352
610.106	335008
610.173	513588
610.241	911206
610.308	547342
610.375	313307
610.442	283218
610.509	274037
610.577	276235
610.644	280268
610.711	288775
610.778	297150
610.845	309340
610.912	327695
610.980	340065
611.047	337566
611.114	331689
611.181	321571
611.248	323729
611.315	342949
611.382	352081
611.449	360835
611.516	366024
611.583	360914
611.650	362092
611.717	365510
611.784	370601
611.851	380811
611.918	387473
611.984	426803
612.051	513847
612.118	773612
612.185	1306475
612.252	909011
612.319	496409
612.386	454054
612.452	420890
612.519	403594
612.586	397983
612.653	408142
612.719	422664
612.786	405860
612.853	381229
612.919	377632
612.986	379688
613.053	358345
613.120	339214
613.186	327542
613.253	331074
613.319	331631
613.386	334122
613.453	340342
613.519	341911
613.586	332897
613.652	339157
613.719	332144
613.785	341440
613.852	342277
613.918	340602
613.985	345943
614.051	356094
614.118	350044
614.184	337087
614.250	341593
614.317	348260
614.383	343344
614.449	348799
614.516	346740
614.582	350511
614.648	342874
614.715	341362
614.781	333753
614.847	335809
614.914	330256
614.980	324367
615.046	328177
615.112	335848
615.179	336285
615.245	339960
615.311	335172
615.377	340729
615.443	341787
615.509	346596
615.575	353074
615.642	350833
615.708	359547
615.774	369991
615.840	381755
615.906	389301
615.972	431364
616.038	546202
616.104	885409
616.170	1431305
616.236	1159514
616.302	603542
616.368	520608
616.434	418687
616.500	398422
616.565	429859
616.631	500252
616.697	430708
616.763	440976
616.829	590795
616.895	894941
616.961	794611
617.026	443137
617.092	364927
617.158	353601
617.224	345858
617.289	323618
617.355	312145
617.421	309839
617.487	309932
617.552	295164
617.618	295262
617.684	293850
617.749	296810
617.815	286251
617.880	278748
617.946	279502
618.012	284824
618.077	292169
618.143	278759
618.208	281805
618.274	304828
618.339	300167
618.405	252646
618.470	257750
618.536	253535
618.601	250994
618.667	231450
618.732	221597
618.798	222487
618.863	219895
618.928	218585
618.994	221071
619.059	218336
619.124	220348
619.190	219147
619.255	217351
619.320	218045
619.386	218766
619.451	217524
619.516	208757
619.581	216242
619.647	222161
619.712	221376
619.777	211724
619.842	213218
619.907	218300
619.972	219811
620.038	218140
620.103	215405
620.168	215880
620.233	220184
620.298	219163
620.363	222711
620.428	229266
620.493	232920
620.558	235751
620.623	238951
620.688	236545
620.753	235856
620.818	239409
620.883	240240
620.948	239058
621.013	236495
621.078	234111
621.143	236378
621.207	238570
621.272	233956
621.337	226186
621.402	225600
621.467	224862
621.532	223504
621.596	225597
621.661	218551
621.726	217830
621.791	218940
621.855	220834
621.920	217696
621.985	222594
622.049	226412
622.114	224709
622.179	227714
622.243	231954
622.308	241208
622.373	249004
622.437	239535
622.502	229287
622.566	230229
622.631	227851
622.695	233340
622.760	230786
622.824	231121
622.889	231094
622.953	230875
623.018	245635
623.082	245886
623.147	245130
623.211	238956
623.276	238079
623.340	227783
623.404	224988
623.469	224599
623.533	227259
623.597	222907
623.662	220334
623.726	205516
623.790	194466
623.854	189084
623.919	192859
623.983	196954
624.047	198168
624.111	201264
624.176	203363
624.240	206247
624.304	212980
624.368	202896
624.432	203906
624.496	209297
624.560	219973
624.625	221300
624.689	219707
624.753	230204
624.817	216206
624.881	213633
624.945	192118
625.009	188122
625.073	192229
625.137	198382
625.201	205161
625.265	203269
625.329	196473
625.393	199791
625.456	201300
625.520	205540
625.584	208559
625.648	213546
625.712	219764
625.776	218610
625.839	204429
625.903	173616
625.967	165213
626.031	178253
626.095	205614
626.158	188516
626.222	150984
626.286	143571
626.349	137684
626.413	130059
626.477	129468
626.540	130835
626.604	129963
626.668	127119
626.731	125531
626.795	125299
626.858	125493
626.922	123538
626.986	121640
627.049	121083
627.113	128496
627.176	122948
627.240	120067
627.303	119819
627.366	117477
627.430	119559
627.493	117856
627.557	115422
627.620	119555
627.684	124120
627.747	122884
627.810	111482
627.874	103207
627.937	98060
628.000	102676
628.064	97410
628.127	88862
628.190	88653
628.253	86520
628.317	82078
628.380	77537
628.443	76705
628.506	75634
628.569	72401
628.632	69612
628.696	70208
628.759	67893
628.822	65809
628.885	65081
628.948	63560
629.011	62452
629.074	59525
629.137	58860
629.200	56050
629.263	57337
629.326	55547
629.389	57160
629.452	54104
629.515	54720
629.578	53634
629.641	56002
629.704	54427
629.767	54066
629.830	52556
629.892	51228
629.955	50959
630.018	54141
630.081	50709
630.144	52722
630.207	48496
630.269	52221
630.332	47336
630.395	48735
630.458	46305
630.520	44520
630.583	46941
630.646	46866
630.708	47764
630.771	47510
630.834	51002
630.896	48661
630.959	48635
631.021	48336
631.084	47042
631.146	48722
631.209	48657
631.272	47335
631.334	48936
631.397	49045
631.459	47840
631.522	51385
631.584	50860
631.646	52806
631.709	54701
631.771	54697
631.834	51283
631.896	49866
631.958	47219
632.021	48515
632.083	45143
632.145	45889
632.208	44465
632.270	46259
632.332	44376
632.395	44242
632.457	46346
632.519	44247
632.581	45366
632.643	43673
632.706	44237
632.768	42680
632.830	43964
632.892	46515
632.954	44864
633.016	46354
633.078	44663
633.141	44763
633.203	43252
633.265	44809
633.327	44665
633.389	44004
633.451	45034
633.513	44318
633.575	46099
633.637	44478
633.698	45240
633.760	47265
633.822	50254
633.884	49975
633.946	51253
634.008	51195
634.070	51633
634.132	53762
634.193	57182
634.255	61446
634.317	60097
634.379	61316
634.441	55627
634.502	51259
634.564	47687
634.626	45590
634.687	44603
634.749	42134
634.811	42516
634.873	41439
634.934	42224
634.996	43948
635.057	40945
635.119	43454
635.181	44087
635.242	44281
635.304	42565
635.365	45711
635.427	42483
635.488	42857
635.550	42480
635.611	44117
635.673	41346
635.734	45868
635.796	46874
635.857	50856
635.918	52068
635.980	57231
636.041	59105
636.102	62533
636.164	62329
636.225	60884
636.286	51283
636.348	48990
636.409	45255
636.470	43284
636.531	43004
636.593	41706
636.654	41490
636.715	39184
636.776	39013
636.838	38196
636.899	38680
636.960	38226
637.021	36870
637.082	36446
637.143	37854
637.204	35658
637.265	35009
637.326	37765
637.387	38372
637.448	35953
637.509	36739
637.570	36875
637.631	36573
637.692	34081
637.753	33566
637.814	35109
637.875	34093
637.936	34933
637.997	34323
638.058	33264
638.119	34648
638.179	34200
638.240	33363
638.301	34437
638.362	32163
638.423	32578
638.483	33209
638.544	29686
638.605	32694
638.666	30979
638.726	32335
638.787	32434
638.848	31173
638.908	31483
638.969	31515
639.030	30438
639.090	29496
639.151	30606
639.211	31687
639.272	31477
639.332	31335
639.393	31735
639.453	33156
639.514	33741
639.574	30566
639.635	28051
639.695	29312
639.756	27889
639.816	28893
639.877	28785
639.937	29863
639.997	29894
640.058	27578
640.118	28616
640.178	29637
640.239	28670
640.299	28462
640.359	28581
640.420	30078
640.480	33935
640.540	36184
640.600	35807
640.661	32774
640.721	30970
640.781	32322
640.841	27768
640.901	28862
640.961	30059
641.021	29976
641.082	30751
641.142	28817
641.202	28829
641.262	26149
641.322	28677
641.382	26016
641.442	28919
641.502	26324
641.562	28052
641.622	27497
641.682	31058
641.742	31921
641.802	29445
641.861	28036
641.921	26199
641.981	26622
642.041	24934
642.101	24014
642.161	23002
642.221	25041
642.280	25141
642.340	24759
642.400	25271
642.460	26977
642.519	26905
642.579	26651
642.639	27090
642.698	24396
642.758	28764
642.818	27496
642.877	25372
642.937	26141
642.997	26902
643.056	26458
643.116	25264
643.175	28139
643.235	26870
643.294	27694
643.354	28364
643.414	29446
643.473	32954
643.532	36064
643.592	45853
643.651	66208
643.711	104950
643.770	195789
643.830	446862
643.889	708787
643.948	200755
644.008	61992
644.067	42571
644.126	33299
644.186	30774
644.245	28846
644.304	26294
644.363	28117
644.423	24475
644.482	25594
644.541	27040
644.600	26125
644.659	32803
644.719	37851
644.778	53464
644.837	86833
644.896	175713
644.955	341175
645.014	101124
645.073	36881
645.132	29602
645.191	28046
645.250	27872
645.309	29879
645.368	31190
645.427	40945
645.486	68598
645.545	100920
645.604	33183
645.663	25758
645.722	25027
645.781	27111
645.840	28647
645.898	33109
645.957	44507
646.016	59910
646.075	101133
646.134	185929
646.192	468372
646.251	530682
646.310	107203
646.369	47557
646.427	41755
646.486	31461
646.545	27551
646.603	24412
646.662	24476
646.721	22776
646.779	22643
646.838	23551
646.896	27948
646.955	36223
647.014	54973
647.072	103653
647.131	252739
647.189	98789
647.248	25212
647.306	22488
647.365	20872
647.423	18545
647.481	20492
647.540	19236
647.598	18932
647.657	18946
647.715	19921
647.773	17025
647.832	18020
647.890	16084
647.948	15877
648.007	16972
648.065	15029
648.123	15916
648.181	17368
648.240	16365
648.298	15216
648.356	14870
648.414	15966
648.472	15013
648.531	15337
648.589	14640
648.647	13523
648.705	13818
648.763	14656
648.821	14791
648.879	15131
648.937	16327
648.995	18859
649.053	22532
649.111	30968
649.169	48426
649.227	84988
649.285	179929
649.343	432671
649.401	169376
649.459	33686
649.516	21655
649.574	18182
649.632	19417
649.690	21167
649.748	26122
649.806	36387
649.863	71249
649.921	192352
649.979	98030
650.037	19996
650.094	12591
650.152	13669
650.210	11240
650.268	13344
650.325	11108
650.383	11737
650.440	9538
650.498	11018
650.556	11276
650.613	10643
650.671	11357
650.728	12693
650.786	11899
650.843	16950
650.901	10762
650.958	11160
651.016	9325
651.073	9634
651.131	8627
651.188	9016
651.246	8452
651.303	8747
651.360	8848
651.418	9031
651.475	9381
651.532	7787
651.590	9084
651.647	8567
651.704	8037
651.762	7654
651.819	7912
651.876	8595
651.933	7598
651.990	8847
652.048	6339
652.105	6679
652.162	8638
652.219	7483
652.276	8140
652.333	8094
652.390	6458
652.448	7879
652.505	7179
652.562	6704
652.619	6621
652.676	7891
652.733	7437
652.790	7363
652.847	6124
652.904	6672
652.961	5333
653.017	5514
653.074	7294
653.131	6544
653.188	6967
653.245	6759
653.302	5955
653.359	6421
653.415	6800
653.472	5900
653.529	6534
653.586	6332
653.642	5804
653.699	7647
653.756	5870
653.813	5530
653.869	6677
653.926	5854
653.983	5982
654.039	7128
654.096	5506
654.152	7233
654.209	5175
654.266	5664
654.322	5055
654.379	6641
654.435	6338
654.492	6117
654.548	6300
654.605	5802
654.661	6858
654.717	5701
654.774	5756
654.830	5680
654.887	5645
654.943	5009
655.000	6213
655.056	5986
655.112	6415
655.168	5444
655.225	6315
655.281	6755
655.337	6079
655.394	5451
655.450	5894
655.506	6052
655.562	6257
655.618	5966
655.675	5057
655.731	5890
655.787	4858
655.843	6254
655.899	5144
655.955	7183
656.011	6015
656.067	5412
656.123	6907
656.179	5569
656.235	7674
656.291	5025
656.347	6307
656.403	5333
656.459	6016
656.515	6186
656.571	5284
656.627	5272
656.683	4952
656.739	6767
656.795	5767
656.850	5728
656.906	5716
656.962	6773
657.018	6421
657.074	7515
657.129	10083
657.185	17859
657.241	38472
657.297	15888
657.352	5675
657.408	4862
657.464	5087
657.519	4872
657.575	4127
657.630	4569
657.686	4458
657.742	4403
657.797	4202
657.853	5176
657.908	5321
657.964	4265
658.019	4138
658.075	4958
658.130	4818
658.186	3912
658.241	5304
658.297	4091
658.352	4463
658.407	5000
658.463	4072
658.518	4329
658.573	4865
658.629	4514
658.684	3398
658.739	4839
658.795	3756
658.850	4728
658.905	3795
658.960	4034
659.016	3306
659.071	4236
659.126	4327
659.181	4127
659.236	4899
659.291	4677
659.346	3840
659.401	3726
659.457	3749
659.512	4849
659.567	4378
659.622	4398
659.677	4566
659.732	3854
659.787	3970
659.842	3862
659.897	3812
659.952	3940
660.007	3739
660.061	4398
660.116	2885
660.171	3634
660.226	3989
660.281	4917
660.336	3582
660.391	3825
660.445	3564
660.500	3270
660.555	3728
660.610	3931
660.664	3731
660.719	3439
660.774	3891
660.828	3949
660.883	3202
660.938	4272
660.992	3417
661.047	4122
661.101	3053
661.156	3554
661.211	2460
661.265	3646
661.320	4136
661.374	4401
661.429	2696
661.483	4254
661.538	2871
661.592	2892
661.647	3658
661.701	4606
661.755	3878
661.810	3599
661.864	3872
661.919	3073
661.973	3657
662.027	4390
662.081	2910
662.136	3463
662.190	3837
662.244	3934
662.299	2974
662.353	3957
662.407	2713
662.461	2853
662.515	3789
662.569	3289
662.624	3479
662.678	3242
662.732	3365
662.786	3710
662.840	3297
662.894	2923
662.948	2911
663.002	3687
663.056	4079
663.110	3521
663.164	2917
663.218	3712
663.272	3708
663.326	3906
663.380	3154
663.434	2842
663.488	2930
663.542	3746
663.595	3802
663.649	3963
663.703	3033
663.757	3440
663.811	3249
663.864	3711
663.918	2833
663.972	3833
664.026	3360
664.079	3796
664.133	4282
664.187	3578
664.240	3543
664.294	3476
664.348	4133
664.401	3477
664.455	3206
664.508	3911
664.562	3191
664.615	3516
664.669	3821
664.722	3008
664.776	3343
664.829	3541
664.883	3296
664.936	3596
664.990	3055
665.043	3232
665.097	3202
665.150	4756
665.203	3422
665.257	3255
665.310	3542
665.363	4016
665.417	3428
665.470	4594
665.523	3536
665.576	4190
665.630	3141
665.683	3548
665.736	3981
665.789	4104
665.842	3455
665.895	3785
665.949	2952
666.002	4300
666.055	3553
666.108	4307
666.161	4087
666.214	3980
666.267	3577
666.320	4759
666.373	4263
666.426	3867
666.479	3791
666.532	3964
666.585	4588
666.638	4752
666.691	3555
666.744	4390
666.796	3644
666.849	4276
666.902	4178
666.955	4137
667.008	3050
667.060	4106
667.113	3855
667.166	3713
667.219	4833
667.271	4593
667.324	4722
667.377	4081
667.430	3921
667.482	4262
667.535	3866
667.587	5086
667.640	3913
667.693	3847
667.745	4854
667.798	4217
667.850	4212
667.903	4394
667.955	4449
668.008	3863
668.060	3527
668.113	4445
668.165	4387
668.218	4346
668.270	3973
668.322	4275
668.375	3528
668.427	4798
668.479	3916
668.532	4178
668.584	3411
668.636	4212
668.689	3994
668.741	3193
668.793	3232
668.845	3251
668.898	3975
668.950	4638
669.002	4296
669.054	3814
669.106	3301
669.158	4011
669.211	3158
669.263	3542
669.315	3123
669.367	3715
669.419	3523
669.471	4612
669.523	3875
669.575	3839
669.627	3314
669.679	3354
669.731	3210
669.783	4262
669.835	3339
669.886	3906
669.938	3181
669.990	3571
670.042	2785
670.094	3136
670.146	2950
670.197	2655
670.249	3190
670.301	3949
670.353	3397
670.404	4653
670.456	2661
670.508	4265
670.560	5154
670.611	6281
670.663	7343
670.715	17188
670.766	19939
670.818	6043
670.869	4280
670.921	4190
670.972	4388
671.024	3036
671.075	3704
671.127	3758
671.178	3638
671.230	4237
671.281	4800
671.333	4068
671.384	5519
671.436	7245
671.487	11561
671.538	16025
671.590	25613
671.641	42610
671.692	83450
671.744	145956
671.795	79603
671.846	25946
671.897	13319
671.949	9348
672.000	6867
672.051	4937
672.102	5136
672.153	4138
672.204	3721
672.256	3710
672.307	4125
672.358	3351
672.409	2267
672.460	3640
672.511	2243
672.562	2849
672.613	1930
672.664	2462
672.715	2785
672.766	2903
672.817	2108
672.868	1965
672.919	3030
672.970	2000
673.021	2124
673.071	1433
673.122	1536
673.173	2246
673.224	2585
673.275	2075
673.326	1657
673.376	2004
673.427	2390
673.478	3300
673.528	2574
673.579	1903
673.630	1959
673.680	2862
673.731	1259
673.782	2515
673.832	1675
673.883	2237
673.934	2249
673.984	1902
674.035	2570
674.085	2888
674.136	2572
674.186	2423
674.237	2051
674.287	1886
674.338	2611
674.388	2051
674.438	2360
674.489	2925
674.539	3676
674.589	3087
674.640	2879
674.690	1783
674.740	2162
674.791	1862
674.841	2831
674.891	2452
674.942	578
674.992	1234
675.042	1761
675.092	1761
675.142	1444
675.193	1201
675.243	841
675.293	1833
675.343	1806
675.393	1882
675.443	1855
675.493	2522
675.543	1123
675.593	2414
675.643	2194
675.693	2631
675.743	1537
675.793	2355
675.843	1948
675.893	1123
675.943	1683
675.993	1958
676.043	1415
676.093	1761
676.142	1424
676.192	2079
676.242	1623
676.292	1504
676.341	1099
676.391	1597
676.441	2272
676.491	1743
676.540	403
676.590	2326
676.640	1266
676.689	1617
676.739	383
676.789	2464
676.838	1004
676.888	1443
676.937	1110
676.987	924
677.037	1765
677.086	480
677.136	1201
677.185	1122
677.235	1165
677.284	940
677.333	1073
677.383	1502
677.432	401
677.482	1830
677.531	1629
677.580	676
677.630	939
677.679	758
677.728	1286
677.778	1554
677.827	1250
677.876	508
677.925	1408
677.975	1770
678.024	1289
678.073	1814
678.122	1117
678.171	1724
678.220	1124
678.269	2077
678.319	2326
678.368	2295
678.417	1230
678.466	1941
678.515	1486
678.564	1197
678.613	680
678.662	669
678.711	858
678.760	1465
678.809	917
678.857	867
678.906	1261
678.955	676
679.004	655
679.053	852
679.102	1150
679.151	1112
679.199	1188
679.248	1157
679.297	1259
679.346	564
679.394	177
679.443	1197
679.492	1086
679.540	1505
679.589	1258
679.638	1379
679.686	1536
679.735	1547
679.784	862
679.832	2175
679.881	1275
679.929	1815
679.978	763
680.026	993
680.075	1103
680.123	529
680.172	749
680.220	181
680.268	677
680.317	953
680.365	298
680.414	348
680.462	517
680.510	900
680.559	869
680.607	1002
680.655	854
680.703	769
680.752	788
680.800	461
680.848	666
680.896	1325
680.945	645
680.993	717
681.041	445
681.089	642
681.137	255
681.185	728
681.233	1153
681.258	1059
681.281	947
681.329	465
681.377	947
681.380	971
681.425	1004
681.473	1397
681.502	1182
681.521	987
681.569	2242
681.617	1025
681.624	1020
681.665	810
681.713	1758
681.745	1420
681.761	1224
681.809	538
681.857	1895
681.867	1790
681.904	1336
681.952	2072
681.989	1817
682.000	1715
682.048	1067
682.096	705
682.111	890
682.143	1181
682.191	942
682.233	2312
682.239	2500
682.286	2263
682.334	1262
682.354	1329
682.382	1374
682.430	2347
682.476	2244
682.477	2219
682.525	2047
682.572	1701
682.598	1717
682.620	1719
682.667	2155
682.715	1694
682.720	1713
682.763	1703
682.810	2333
682.841	2194
682.857	2084
682.905	1744
682.952	2954
682.963	2922
683.000	2711
683.047	2155
683.085	3316
683.095	3615
683.142	2953
683.190	2018
683.206	2074
683.237	2115
683.284	3330
683.328	2495
683.332	2412
683.379	2747
683.426	2097
683.449	2490
683.473	2851
683.521	2559
683.568	2944
683.571	2917
683.615	2307
683.662	2900
683.693	2963
683.709	2966
683.757	3044
683.804	3213
683.814	3198
683.851	3090
683.898	3314
683.936	3099
683.945	3039
683.992	2800
684.039	3372
684.057	3485
684.086	3591
684.133	3036
684.179	2949
684.180	2931
684.227	3614
684.274	3757
684.300	3914
684.321	4054
684.368	2486
684.415	3685
684.422	3601
684.462	2989
684.509	2322
684.543	3367
684.556	3740
684.603	4076
684.649	3373
684.665	3672
684.696	4214
684.743	3546
684.786	3947
684.790	3970
684.837	3804
684.883	4338
684.908	3974
684.930	3623
684.977	4523
685.023	3820
685.029	3873
685.070	4188
685.117	4028
685.150	3910
685.164	3841
685.210	4053
685.257	4516
685.272	4713
685.303	5140
685.350	4788
685.393	4994
685.396	4989
685.443	4147
685.490	5113
685.514	4655
685.536	4286
685.583	3944
685.629	3799
685.636	3881
685.675	4367
685.722	4311
685.757	4228
685.768	4187
685.815	4955
685.861	4996
685.878	5083
685.908	5259
685.954	4302
686.000	5295
686.000	5305
686.047	5123
686.093	5178
686.121	5352
686.139	5434
686.185	5222
686.232	5064
686.242	5097
686.278	5167
686.324	4686
686.363	4799
686.370	4823
686.416	4943
686.463	5389
686.484	5029
686.509	4662
686.555	5276
686.601	5475
686.606	5516
686.647	5722
686.693	5167
686.727	5363
686.739	5467
686.785	5080
686.831	5322
686.848	5371
686.877	5373
686.923	5876
686.969	5783
686.969	5782
687.015	5687
687.061	6285
687.090	6445
687.107	6424
687.153	5505
687.199	5967
687.211	5767
687.245	5428
687.291	5854
687.332	5588
687.336	5566
687.382	6011
687.428	6241
687.453	6453
687.474	6539
687.520	6174
687.565	6445
687.574	6409
687.611	6478
687.657	6782
687.695	7057
687.702	7085
687.748	7162
687.794	6673
687.816	6641
687.839	6551
687.885	6914
687.931	6343
687.937	6357
687.976	6548
688.022	6224
688.058	6368
688.067	6394
688.113	7091
688.158	6291
688.179	6303
688.204	6411
688.249	6995
688.295	6917
688.300	6937
688.340	6987
688.386	7505
688.421	6863
688.431	6745
688.477	6849
688.522	7499
688.542	7621
688.567	7735
688.613	7805
688.658	8061
688.663	8056
688.703	7807
688.749	7668
688.784	7478
688.794	7471
688.839	7550
688.884	7925
688.905	7825
688.930	7658
688.975	7522
689.020	7673
689.026	7643
689.065	7604
689.110	7094
689.146	7509
689.155	7630
689.201	7301
689.246	7424
689.267	7428
689.291	7423
689.336	7697
689.381	7694
689.388	7694
689.426	7780
689.471	8037
689.509	7822
689.516	7802
689.561	8458
689.606	8218
689.630	7917
689.651	7551
689.696	7523
689.741	7500
689.750	7521
689.785	7905
689.830	8353
689.871	8342
689.875	8310
689.920	7889
689.965	7518
689.992	7401
690.010	7562
690.054	7698
690.099	7888
690.112	8017
690.144	8125
690.189	8234
690.233	7423
690.233	7432
690.278	8078
690.323	7602
690.354	7958
690.367	8185
690.412	8220
690.457	7980
690.474	8179
690.501	8204
690.546	7893
690.590	7522
690.595	7441
690.635	7308
690.680	7644
690.716	7577
690.724	7579
690.769	7829
690.813	8384
690.836	8368
690.857	8428
690.902	8334
690.946	8765
690.957	8838
690.991	9349
691.035	9724
691.077	10755
691.080	10774
691.124	9748
691.168	9484
691.198	8942
691.213	8809
691.257	8757
691.301	8475
691.318	8374
691.346	8387
691.390	8446
691.434	8550
691.439	8526
691.478	8725
691.522	8904
691.559	9158
691.567	9176
691.611	9374
691.655	9205
691.680	9107
691.699	8991
691.743	8810
691.787	8739
691.800	8663
691.831	8902
691.875	9270
691.919	9338
691.921	9338
691.964	9701
692.008	9478
692.041	9730
692.052	9785
692.096	9423
692.139	9481
692.162	9261
692.183	9194
692.227	9503
692.271	9481
692.282	9536
692.315	9674
692.359	9463
692.402	9623
692.403	9644
692.447	9344
692.490	9468
692.523	9487
692.534	9608
692.578	9557
692.622	9846
692.643	10023
692.666	9877
692.709	9036
692.753	8870
692.763	8729
692.797	8900
692.840	8918
692.884	9366
692.884	9389
692.928	9550
692.971	9477
693.004	9471
693.015	9551
693.059	9483
693.102	9714
693.124	9798
693.146	9741
693.189	9346
693.233	9305
693.245	9297
693.276	9548
693.320	9475
693.363	9620
693.365	9600
693.407	9772
693.450	9946
693.485	10088
693.493	10155
693.537	10416
693.580	10501
693.605	10578
693.624	10630
693.667	10864
693.710	10930
693.725	10943
693.753	11554
693.797	12485
693.840	13519
693.845	13577
693.883	12766
693.926	12128
693.966	11444
693.970	11446
694.013	10881
694.056	10670
694.086	10442
694.099	10400
694.142	10091
694.185	10013
694.206	9838
694.229	9937
694.272	10286
694.315	10427
694.326	10424
694.358	10320
694.401	10372
694.444	10409
694.446	10381
694.487	10501
694.530	10400
694.566	10620
694.573	10682
694.616	10695
694.659	10731
694.686	10831
694.702	11038
694.745	11410
694.787	11580
694.806	11763
694.830	11615
694.873	11113
694.916	10551
694.926	10438
694.959	10902
695.002	11361
695.044	11749
695.046	11745
695.087	11980
695.130	11838
695.166	12140
695.172	12267
695.215	12341
695.258	12508
695.286	12729
695.301	12767
695.343	13026
695.386	12718
695.406	12625
695.428	13159
695.471	14427
695.514	15503
695.526	15788
695.556	16643
695.599	17743
695.641	18631
695.646	18705
695.684	17920
695.726	17010
695.766	16144
695.769	16145
695.811	15330
695.854	14769
695.886	14263
695.896	14447
695.938	15135
695.981	15813
696.005	16065
696.023	16397
696.065	17265
696.108	18095
696.125	18439
696.150	18739
696.192	19013
696.235	19218
696.245	19286
696.277	19539
696.319	19673
696.361	19741
696.365	19703
696.404	19516
696.446	19285
696.485	18872
696.488	18888
696.530	18527
696.572	18231
696.604	17976
696.614	18019
696.656	17963
696.698	17893
696.724	17792
696.740	18009
696.783	18551
696.825	19106
696.844	19261
696.867	19450
696.909	19589
696.951	19917
696.964	19995
696.992	20088
697.034	20004
697.076	19937
697.083	19886
697.118	20341
697.160	20721
697.202	21208
697.203	21164
697.244	21214
697.286	21315
697.323	21284
697.327	21320
697.369	21230
697.411	20993
697.442	20817
697.453	20848
697.494	20811
697.536	20674
697.562	20572
697.578	20807
697.620	21259
697.661	21733
697.682	21898
697.703	22174
697.744	22639
697.786	23178
697.801	23276
697.828	23253
697.869	23108
697.911	22957
697.921	22882
697.952	22905
697.994	22765
698.035	22700
698.040	22627
698.077	22703
698.118	22771
698.160	22794
698.160	22735
698.201	23669
698.243	24533
698.279	25277
698.284	25383
698.325	25710
698.367	26086
698.399	26300
698.408	26374
698.449	26385
698.491	26420
698.518	26345
698.532	26506
698.573	26847
698.614	27132
698.638	27242
698.656	27211
698.697	26974
698.738	26703
698.757	26518
698.779	26723
698.820	26989
698.862	27225
698.877	27251
698.903	27359
698.944	27407
698.985	27460
698.996	27403
699.026	27236
699.067	26913
699.116	26458
699.235	26332
699.354	26562
699.474	24967
699.593	25126
699.713	24979
699.832	25198
699.951	26544
700.070	25428
700.190	24173
700.309	23759
700.428	23614
700.547	22954
700.667	22392
700.786	22363
700.905	21682
701.024	22805
701.143	20045
701.262	23325
701.381	23279
701.500	23266
701.619	22302
701.738	23948
701.857	22889
701.976	20546
702.095	21437
702.214	22690
702.333	21837
702.452	24055
702.571	23078
702.690	21445
702.809	22433
702.928	21201
703.047	19996
703.165	21657
703.284	20395
703.403	20003
703.522	19682
703.640	19911
703.759	19226
703.878	19321
703.997	19932
704.115	19263
704.234	18821
704.353	19949
704.471	17097
704.590	19100
704.708	17135
704.827	17309
704.946	16861
705.064	17610
705.183	18006
705.301	17880
705.420	17782
705.538	17149
705.656	15497
705.775	15356
705.893	16972
706.012	16043
706.130	16721
706.249	18378
706.367	15405
706.485	15955
706.604	15321
706.722	14607
706.840	16506
706.958	17403
707.077	15696
707.195	14727
707.313	15536
707.431	13958
707.549	14571
707.668	13237
707.786	14971
707.904	14331
708.022	15488
708.140	14081
708.258	13057
708.376	15332
708.494	12617
708.612	15156
708.730	14893
708.848	14110
708.966	14148
709.084	13956
709.202	14175
709.320	12794
709.438	13747
709.556	14500
709.674	12261
709.791	13879
709.909	12725
710.027	13664
710.145	11964
710.263	12827
710.380	12555
710.498	12176
710.616	12621
710.733	11448
710.851	11966
710.969	12524
711.086	11198
711.204	12389
711.322	12397
711.439	12013
711.557	10512
711.674	11145
711.792	11173
711.909	10670
712.027	10845
712.144	10267
712.262	10921
712.379	11158
712.497	12157
712.614	11147
712.732	11837
712.849	11052
712.966	10837
713.084	11516
713.201	9454
713.318	11255
713.436	11638
713.553	10925
713.670	12118
713.787	12393
713.905	10891
714.022	11651
714.139	11565
714.256	14962
714.373	19930
714.490	36718
714.608	100936
714.725	385624
714.842	277841
714.959	30103
715.076	16352
715.193	13326
715.310	12175
715.427	10403
715.544	10714
715.661	10029
715.778	10078
715.895	10526
716.011	10170
716.128	10037
716.245	9867
716.362	10141
716.479	8050
716.596	10255
716.713	8550
716.829	9413
716.946	8289
717.063	8651
717.180	8164
717.296	8904
717.413	8163
717.530	8215
717.646	7600
717.763	8243
717.880	8366
717.996	7595
718.113	7292
718.229	7970
718.346	6903
718.462	6966
718.579	7761
718.695	8359
718.812	6517
718.928	8021
719.045	7263
719.161	7746
719.277	7165
719.394	7709
719.510	7904
719.626	8575
719.743	9805
719.859	16801
719.975	36572
720.092	146521
720.208	247296
720.324	26642
720.440	10755
720.557	9049
720.673	9207
720.789	8520
720.905	8568
721.021	8036
721.137	5649
721.253	5946
721.369	5927
721.486	6608
721.602	6274
721.718	7487
721.834	6428
721.950	6684
722.066	5930
722.181	5422
722.297	6684
722.413	6759
722.529	5793
722.645	6196
722.761	5893
722.877	6396
722.993	6582
723.108	8415
723.224	6979
723.340	6461
723.456	5635
723.571	5605
723.687	5097
723.803	6198
723.918	5385
724.034	6117
724.150	4986
724.265	5366
724.381	5464
724.497	6578
724.612	5477
724.728	5356
724.843	4858
724.959	5375
725.074	5985
725.190	5802
725.305	5544
725.421	5821
725.536	5042
725.651	6332
725.767	5637
725.882	5649
725.997	4960
726.113	5542
726.228	5560
726.343	5131
726.459	5068
726.574	5556
726.689	4562
726.804	5337
726.920	4749
727.035	5492
727.150	5003
727.265	5336
727.380	5324
727.495	5322
727.610	5049
727.725	4524
727.841	5073
727.956	4284
728.071	4738
728.186	5404
728.301	5060
728.416	5335
728.531	5480
728.645	4497
728.760	4747
728.875	5243
728.990	5302
729.105	4982
729.220	4955
729.335	4795
729.449	5159
729.564	5016
729.679	4900
729.794	5281
729.908	4604
730.023	5111
730.138	5653
730.253	5314
730.367	5135
730.482	5533
730.596	5596
730.711	6599
730.826	8688
730.940	6909
731.055	6698
731.169	6455
731.284	6984
731.398	7185
731.513	6939
731.627	8151
731.742	10622
731.856	12775
731.970	11557
732.085	14339
732.199	19201
732.313	33216
732.428	89764
732.542	255445
732.656	116148
732.771	26198
732.885	17032
732.999	17944
733.113	18124
733.227	19060
733.342	17097
733.456	17735
733.570	16451
733.684	15913
733.798	15331
733.912	15899
734.026	14576
734.140	16393
734.254	14631
734.368	14892
734.482	15438
734.596	15289
734.710	13758
734.824	14069
734.938	14571
735.052	14098
735.166	14118
735.280	14126
735.393	13833
735.507	13182
735.621	12592
735.735	12886
735.849	13621
735.962	12685
736.076	13625
736.190	12562
736.303	12418
736.417	12658
736.531	12391
736.644	11776
736.758	11686
736.872	11816
736.985	11255
737.099	12064
737.212	10544
737.326	11695
737.439	12516
737.553	10652
737.666	11037
737.780	11361
737.893	11593
738.007	10684
738.120	11800
738.233	10473
738.347	10683
738.460	9853
738.573	12149
738.687	8901
738.800	10577
738.913	10715
739.026	10087
739.140	10536
739.253	10770
739.366	9865
739.479	10533
739.592	10134
739.705	9238
739.818	11214
739.932	8294
740.045	10814
740.158	8108
740.271	9867
740.384	9387
740.497	8895
740.610	9537
740.723	9122
740.836	8831
740.949	9479
741.062	9884
741.174	8840
741.287	8874
741.400	8824
741.513	8302
741.626	9621
741.739	8313
741.851	8206
741.964	9433
742.077	7772
742.189	8825
742.302	9025
742.415	7790
742.527	8288
742.640	8370
742.753	7609
742.865	8353
742.978	7625
743.090	7300
743.203	8479
743.316	6988
743.428	7616
743.541	7580
743.653	7119
743.766	7545
743.878	8064
743.990	6726
744.103	8485
744.215	7609
744.327	6982
744.440	10008
744.552	7277
744.664	6303
744.777	8080
744.889	6810
745.001	6839
745.113	8137
745.226	6311
745.338	6387
745.450	7923
745.562	6477
745.674	6368
745.786	7171
745.898	7094
746.010	6687
746.122	7315
746.234	6551
746.347	6728
746.459	6185
746.570	5960
746.682	7767
746.794	7888
746.906	6625
747.018	6468
747.130	6475
747.242	5032
747.354	6197
747.466	6508
747.577	5717
747.689	7117
747.801	6976
747.913	5632
748.024	5636
748.136	5461
748.248	5896
748.359	5991
748.471	6365
748.583	4880
748.694	4467
748.806	6333
748.918	5204
749.029	5779
749.141	6093
749.252	6291
749.364	3901
749.475	5297
749.587	4455
749.698	5395
749.809	5899
749.921	5357
750.032	4333
750.144	4582
750.255	4236
750.366	5683
750.478	4457
750.589	5097
750.700	4354
750.811	5399
750.923	4236
751.034	3658
751.145	5690
751.256	5464
751.367	3686
751.479	5212
751.590	4344
751.701	4101
751.812	3996
751.923	5070
752.034	5302
752.145	5174
752.256	4774
752.367	3874
752.478	4734
752.589	5617
752.700	4251
752.811	4020
752.922	4817
753.032	5209
753.143	4625
753.254	4256
753.365	6321
753.476	5160
753.586	4797
753.697	4266
753.808	4098
753.919	3952
754.029	3454
754.140	4257
754.251	4290
754.361	4514
754.472	4961
754.582	3964
754.693	4370
754.804	5950
754.914	3862
755.025	3027
755.135	3349
755.246	4564
755.356	3496
755.466	3684
755.577	3583
755.687	4655
755.798	4290
755.908	3197
756.018	3767
756.129	4291
756.239	4246
756.349	4431
756.460	3764
756.570	4599
756.680	3760
756.790	4184
756.900	4218
757.011	4210
757.121	3646
757.231	3399
757.341	3560
757.451	3767
757.561	2547
757.671	4256
757.781	3405
757.891	4157
758.001	3909
758.111	4165
758.221	4184
758.331	3624
758.441	3854
758.551	3559
758.661	4567
758.771	4120
758.880	2751
758.990	3981
759.100	3499
759.210	3576
759.320	3625
759.429	3694
759.539	4508
759.649	4709
759.758	5022
759.868	5767
759.978	4824
760.087	6528
760.197	5154
760.307	4778
760.416	4353
760.526	4304
760.635	5129
760.745	5507
760.854	5009
760.964	6445
761.073	5783
761.182	5354
761.292	5014
761.401	4606
761.511	3307
761.620	3941
761.729	3514
761.839	3687
761.948	3480
762.057	3582
762.166	3312
762.276	1585
762.385	4343
762.494	3306
762.603	3103
762.712	3460
762.822	3667
762.931	3522
763.040	1977
763.149	3386
763.258	3973
763.367	3054
763.476	3556
763.585	3421
763.694	3035
763.803	3287
763.912	4057
764.021	3355
764.130	2914
764.238	3596
764.347	3185
764.456	3514
764.565	3355
764.674	3319
764.783	3335
764.891	2608
765.000	4026
765.109	4321
765.217	3913
765.326	4835
765.435	4915
765.543	5717
765.652	5901
765.761	6095
765.869	9520
765.978	13052
766.086	22973
766.195	45499
766.303	117090
766.412	259744
766.520	179657
766.629	61333
766.737	24888
766.846	15994
766.954	9663
767.062	9106
767.171	6271
767.279	5901
767.387	5117
767.496	4986
767.604	4501
767.712	5281
767.820	4012
767.928	4564
768.037	3312
768.145	3822
768.253	4629
768.361	3753
768.469	3384
768.577	3551
768.685	4738
768.793	4245
768.901	3710
769.009	5111
769.117	4120
769.225	5613
769.333	8616
769.441	11830
769.549	19857
769.657	44048
769.765	134593
769.873	200839
769.981	70066
770.088	19952
770.196	11102
770.304	9491
770.412	6731
770.519	6642
770.627	5893
770.735	5295
770.842	5422
770.950	5434
771.058	5149
771.165	7041
771.273	6981
771.380	7247
771.488	10677
771.595	10969
771.703	8801
771.810	9656
771.918	9192
772.025	12322
772.133	12611
772.240	11424
772.348	13640
772.455	14335
772.562	11633
772.670	11697
772.777	12333
772.884	11892
772.991	10510
773.099	11838
773.206	11418
773.313	11769
773.420	11458
773.528	10731
773.635	10131
773.742	11754
773.849	10816
773.956	10364
774.063	10136
774.170	11331
774.277	10701
774.384	9865
774.491	9815
774.598	10056
774.705	10020
774.812	10404
774.919	9335
775.026	10277
775.133	10106
775.239	9837
775.346	8701
775.453	9719
775.560	9208
775.667	9947
775.773	7430
775.880	10879
775.987	9024
776.093	9724
776.200	9811
776.307	6537
776.413	8418
776.520	10393
776.627	8675
776.733	7853
776.840	6920
776.946	12217
777.053	9475
777.159	10471
777.266	8257
777.372	10049
777.478	9914
777.585	8830
777.691	6396
777.798	9759
777.904	8163
778.010	7098
778.117	7925
778.223	6961
778.329	6303
778.435	6182
778.542	8270
778.648	6909
778.754	6200
778.860	8278
778.966	7528
779.072	7301
779.178	7631
779.284	6642
779.391	6978
779.497	6717
779.603	9170
779.708	5498
779.815	5693
779.920	8493
780.026	7371
780.132	7867
780.238	6517
780.344	5440
780.450	7962
780.556	4866
780.661	5783
780.767	7669
780.873	4379
780.979	6368
781.085	7070
781.190	6102
781.296	5911
781.402	6141
781.507	6445
781.613	5288
781.719	5875
781.824	6694
781.930	5762
782.035	7022
782.141	6346
782.246	4761
782.352	4883
782.457	5928
782.563	6610
782.668	5731
782.773	4083
782.879	4875
782.984	6021
783.090	5475
783.195	5725
783.300	6755
783.405	4837
783.511	4345
783.616	4491
783.721	5039
783.826	4445
783.932	4987
784.037	4450
784.142	5553
784.247	4248
784.352	5483
784.457	4146
784.562	5639
784.667	5095
784.772	3066
784.877	3255
784.982	5906
785.087	5553
785.192	5037
785.297	4256
785.402	5216
785.507	4490
785.611	4408
785.716	3600
785.821	5256
785.926	4164
786.031	4054
786.135	3424
786.240	4820
786.345	3141
786.450	3666
786.554	4741
786.659	3351
786.763	3039
786.868	4669
786.973	5118
787.077	3340
787.182	2952
787.286	5279
787.391	4749
787.495	2630
787.600	2918
787.704	3319
787.809	4739
787.913	3398
788.017	4280
788.122	3728
788.226	3504
788.330	1888
788.435	3750
788.539	4662
788.643	2495
788.747	2380
788.852	4199
788.956	3240
789.060	4011
789.164	2848
789.268	2857
789.372	4959
789.476	3109
789.580	3125
789.684	2911
789.788	4220
789.892	3181
789.996	3082
790.100	2683
790.204	4482
790.308	4095
790.412	2965
790.516	2032
790.620	3296
790.724	4152
790.828	2952
790.931	1653
791.035	4514
791.139	3179
791.242	3425
791.346	3515
791.450	2563
791.554	2117
791.657	1974
791.761	2923
791.864	3080
791.968	2448
792.072	3395
792.175	2496
792.279	2505
792.382	2619
792.486	2337
792.589	1995
792.693	3260
792.796	1648
792.899	4001
793.003	3953
793.106	1722
793.209	2261
793.313	3510
793.416	757
793.519	3442
793.623	3607
793.726	3080
793.829	860
793.932	2065
794.035	1420
794.138	3413
794.242	3512
794.345	1212
794.448	1090
794.551	1529
794.654	3634
794.757	4421
794.860	2334
794.963	3097
795.066	1703
795.169	2744
795.272	2019
795.375	3604
795.477	1496
795.580	1911
795.683	1105
795.786	3013
795.889	1015
795.991	2837
796.094	2630
796.197	836
796.300	3574
796.402	2223
796.505	731
796.608	1182
796.710	2189
796.813	1967
796.915	2036
797.018	2905
797.120	2507
797.223	1137
797.326	3752
797.428	1614
797.530	990
797.633	1933
797.735	2790
797.838	1120
797.940	2965
798.042	2231
798.145	1474
798.247	1404
798.349	381
798.452	2951
798.554	2143
798.656	1479
798.758	3657
798.860	2246
798.962	1392
799.065	1510
799.167	570
799.269	2522
799.371	2094
799.473	4051
799.575	1621
799.677	1457
799.779	2665
799.881	441
799.983	2738
800.085	1670
800.187	980
800.289	707
800.390	730
800.492	3103
800.594	2166
800.696	433
800.798	1999
800.899	1612
801.001	2176
801.103	2015
801.205	1351
801.306	2053
801.408	1368
801.509	1914
801.611	978
801.713	1553
801.814	573
801.916	1545
802.017	1708
802.119	718
802.220	2197
802.322	797
802.423	2803
802.525	369
802.626	1396
802.727	2343
802.829	1703
802.930	-647
803.031	2278
803.133	1306
803.234	2335
803.335	1588
803.436	-277
803.538	1907
803.639	-213
803.740	2013
803.841	975
803.942	2433
804.043	1471
804.144	1051
804.245	1123
804.346	929
804.447	494
804.548	1793
804.649	2309
804.750	494
804.851	1329
804.952	1548
805.053	1370
805.154	181
805.255	2163
805.355	1091
805.456	1474
805.557	1328
805.658	279
805.758	2116
805.859	1355
805.960	1236
806.061	682
806.161	764
806.262	592
806.362	806
806.463	578
806.564	1948
806.664	167
806.765	556
806.865	1606
806.966	436
807.066	354
807.166	1691
807.267	1646
807.367	666
807.468	1273
807.568	-249
807.668	1845
807.769	2283
807.869	664
807.969	2158
808.069	1005
808.170	1635
808.270	-118
808.370	915
808.470	1418
808.570	-156
808.670	134
808.770	1384
808.870	375
808.970	1772
809.070	314
809.170	771
809.271	2404
809.370	1325
809.470	850
809.570	178
809.670	-544
809.770	1579
809.870	1001
809.970	1368
810.070	73
810.169	1465
810.269	12
810.369	2381
810.469	848
810.568	538
810.668	75
810.768	836
810.867	727
810.967	782
811.066	243
811.166	1198
811.265	1652
811.365	314
811.464	616
811.564	1559
811.663	693
811.763	18
811.862	315
811.962	1299
812.061	655
812.160	824
812.260	1162
812.359	1470
812.458	30
812.557	1260
812.657	-1
812.756	1440
812.855	378
812.954	782
813.053	807
813.153	1353
813.252	299
813.351	1249
813.450	1262
813.549	1585
813.648	1148
813.747	389
813.846	1253
813.945	1116
814.044	768
814.143	1448
814.242	1829
814.341	1387
814.439	1107
814.538	2615
814.637	1696
814.736	2276
814.835	1785
814.933	2224
815.032	1936
815.131	4145
815.229	7757
815.328	11303
815.427	6707
815.525	7554
815.624	5937
815.722	6332
815.821	6615
815.919	6695
816.018	5856
816.116	7414
816.215	6923
816.313	7145
816.412	9845
816.510	8971
816.609	9995
816.707	10308
816.805	8443
816.904	8925
817.002	8232
817.100	9872
817.198	9838
817.296	7772
817.395	8299
817.493	8771
817.591	7230
817.689	8473
817.787	8076
817.885	8847
817.983	6003
818.081	8056
818.179	7414
818.277	10635
818.375	8800
818.473	7495
818.571	6725
818.669	8182
818.767	8672
818.865	6943
818.963	6208
819.061	7870
819.158	7134
819.256	9557
819.354	7315
819.452	11158
819.549	6943
819.647	8609
819.745	5728
819.842	7120
819.940	6631
820.038	5905
820.135	5852
820.233	8196
820.330	5787
820.428	5910
820.525	8030
820.623	5501
820.720	5674
820.818	7196
820.915	6667
821.012	6106
821.110	4468
821.207	7148
821.304	5485
821.402	6591
821.499	5451
821.596	5760
821.693	6380
821.791	7078
821.888	6316
821.985	7303
822.082	4112
822.179	6811
822.276	6224
822.373	4519
822.470	4904
822.567	6530
822.664	3958
822.761	5474
822.858	5600
822.955	5690
823.052	4754
823.149	5108
823.246	5400
823.343	3993
823.440	5033
823.536	5873
823.633	4871
823.730	4653
823.827	5655
823.923	4917
824.020	4838
824.117	4605
824.213	5712
824.310	4409
824.407	3899
824.503	5899
824.600	3869
824.696	4722
824.793	5769
824.889	4718
824.986	3538
825.082	2628
825.179	4138
825.275	4592
825.371	4602
825.468	3715
825.564	1433
825.660	5241
825.757	6406
825.853	3852
825.949	2372
826.045	3838
826.142	4243
826.238	4508
826.334	4855
826.430	3461
826.526	2968
826.622	2929
826.718	5176
826.814	4977
826.910	4454
827.006	1473
827.102	2664
827.198	4937
827.294	4460
827.390	4890
827.486	3492
827.582	2207
827.678	2049
827.774	5147
827.869	2145
827.965	4023
828.061	1637
828.157	4654
828.252	4065
828.348	3474
828.444	3841
828.539	2126
828.635	3280
828.731	4330
828.826	2107
828.922	3969
829.017	4021
829.113	5055
829.208	1155
829.304	3407
829.399	4741
829.495	3230
829.590	3365
829.685	2519
829.781	3561
829.876	3845
829.971	784
830.066	1520
830.162	3252
830.257	5567
830.352	1612
830.447	2401
830.543	2719
830.638	3401
830.733	3926
830.828	2251
830.923	3017
831.018	3179
831.113	4217
831.208	1374
831.303	1062
831.398	1746
831.493	3382
831.588	5397
831.683	2314
831.778	1068
831.873	2041
831.967	4092
832.062	2977
832.157	2561
832.252	3351
832.346	2601
832.441	2992
832.536	2719
832.631	3268
832.725	2307
832.820	2337
832.914	2922
833.009	700
833.104	1423
833.198	1362
833.293	2417
833.387	3815
833.482	2875
833.576	2336
833.670	2771
833.765	1574
833.859	3142
833.954	3112
834.048	2804
834.142	1877
834.237	950
834.331	1999
834.425	2544
834.519	1925
834.613	2654
834.708	1211
834.802	1931
834.896	1776
834.990	1942
835.084	1519
835.178	1006
835.272	1860
835.366	3289
835.460	2334
835.554	989
835.648	1159
835.742	594
835.836	1681
835.930	1352
836.024	2805
836.117	2972
836.211	507
836.305	1334
836.399	1925
836.493	789
836.586	2637
836.680	1829
836.774	907
836.867	2254
836.961	-188
837.055	759
837.148	692
837.242	1694
837.335	1676
837.429	2242
837.522	674
837.616	963
837.709	1660
837.803	1034
837.896	2256
837.989	2101
838.083	825
838.176	705
838.269	173
838.363	1801
838.456	603
838.549	2824
838.642	-55
838.735	2210
838.829	1494
838.922	1121
839.015	971
839.108	580
839.201	1446
839.294	2442
839.387	1637
839.480	86
839.573	1102
839.666	943
839.759	1272
839.852	1800
839.945	2463
840.038	1145
840.131	491
840.223	853
840.316	1968
840.409	2100
840.502	1220
840.594	2711
840.687	-660
840.780	951
840.873	-164
840.965	966
841.058	1467
841.150	2124
841.243	-561
841.336	1071
841.428	575
841.521	1162
841.613	586
841.706	1600
841.798	1000
841.890	1516
841.983	340
842.075	889
842.167	579
842.260	1994
842.352	1707
842.444	1715
842.537	-135
842.629	553
842.721	292
842.813	1167
842.905	-725
842.997	1326
843.090	1704
843.182	552
843.274	251
843.366	1550
843.458	317
843.550	2139
843.642	657
843.734	1331
843.826	148
843.918	1128
844.009	1806
844.101	867
844.193	561
844.285	1122
844.377	1156
844.469	1614
844.560	183
844.652	658
844.744	1211
844.835	988
844.927	1094
845.019	136
845.110	625
845.202	1631
845.293	-159
845.385	46
845.476	463
845.568	1962
845.659	431
845.751	736
845.842	587
845.934	425
846.025	315
846.116	1595
846.208	705
846.299	282
846.390	119
846.482	975
846.573	459
846.664	932
846.755	737
846.846	1883
846.937	-1086
847.029	1251
847.120	-743
847.211	705
847.302	1137
847.393	517
847.484	1214
847.575	99
847.666	-543
847.757	173
847.847	387
847.938	1882
848.029	1025
848.120	-220
848.211	528
848.302	-281
848.392	510
848.483	1146
848.574	-61
848.664	565
848.755	-588
848.846	506
848.936	-142
849.027	826
849.118	654
849.208	979
849.299	994
849.389	3288
849.480	5081
849.570	10008
849.661	20630
849.751	30373
849.841	8254
849.932	1729
850.022	126
850.112	551
850.203	20
850.293	56
850.383	38
850.474	-690
850.564	524
850.654	-127
850.744	236
850.834	1493
850.924	-329
851.014	1942
851.104	-336
851.194	445
851.284	24
851.374	458
851.464	414
851.554	976
851.644	-30
851.734	1366
851.824	306
851.914	805
852.004	-97
852.094	-99
852.183	-25
852.273	524
852.363	103
852.452	1108
852.542	-170
852.632	-553
852.721	130
852.811	119
852.901	1360
852.990	536
853.080	953
853.169	352
853.259	1530
853.348	906
853.438	631
853.527	2650
853.617	2222
853.706	5864
853.795	10114
853.885	23195
853.974	39727
854.063	76059
854.152	93032
854.242	33885
854.331	7052
854.420	3783
854.509	2360
854.598	2604
854.687	1482
854.777	1223
854.866	867
854.955	1044
855.044	-560
855.133	964
855.222	710
855.311	901
855.400	963
855.488	422
855.577	26
855.666	203
855.755	1120
855.844	557
855.933	373
856.021	1141
856.110	737
856.199	-120
856.288	-739
856.376	-793
856.465	331
856.554	74
856.642	589
856.731	1381
856.819	-623
856.908	1036
856.996	1011
857.085	-173
857.173	-338
857.262	-15
857.350	-405
857.438	-100
857.527	993
857.615	702
857.703	24
857.792	-355
857.880	-290
857.968	-647
858.056	116
858.145	405
858.233	-92
858.321	520
858.409	635
858.497	117
858.585	-158
858.673	480
858.761	-489
858.849	365
858.937	-268
859.025	516
859.113	16
859.201	520
859.289	814
859.377	818
859.465	-4
859.552	19
859.640	-646
859.728	38
859.816	78
859.903	163
859.991	-575
860.079	779
860.166	581
860.254	0
860.342	146
860.429	479
860.517	154
860.604	687
860.692	476
860.779	169
860.867	280
860.954	691
861.042	753
861.129	740
861.216	410
861.304	1110
861.391	1126
861.478	157
861.565	698
861.653	790
861.740	-741
861.827	-257
861.914	275
862.001	473
862.089	384
862.176	1659
862.263	559
862.350	-4
862.437	-578
862.524	-41
862.611	13
862.698	1125
862.785	547
862.871	1423
862.958	-26
863.045	452
863.132	307
863.219	645
863.306	-298
863.392	295
863.479	-204
863.566	-48
863.652	610
863.739	411
863.826	655
863.912	1020
863.999	-85
864.086	-248
864.172	1104
864.259	1700
864.345	955
864.432	590
864.518	365
864.604	1631
864.691	1398
864.777	1650
864.863	2597
864.950	4845
865.036	4970
865.122	10283
865.209	10016
865.295	9242
865.381	7995
865.467	7302
865.553	7971
865.639	9361
865.726	11345
865.812	19136
865.898	26846
865.984	38711
866.070	65448
866.156	59011
866.242	20235
866.328	12220
866.414	7401
866.499	8530
866.585	7512
866.671	7493
866.757	7588
866.843	7199
866.928	6512
867.014	7404
867.100	6001
867.186	7372
867.271	6572
867.357	6654
867.442	5507
867.528	5928
867.614	5947
867.699	6185
867.785	7409
867.870	6526
867.956	5686
868.041	6779
868.127	6268
868.212	6636
868.297	4922
868.383	6523
868.468	5368
868.553	6476
868.639	5770
868.724	5337
868.809	5413
868.894	5400
868.979	5832
869.065	5828
869.150	3792
869.235	5417
869.320	5059
869.405	5594
869.490	5747
869.575	5042
869.660	4307
869.745	6185
869.830	5225
869.915	4748
870.000	4892
870.085	5576
870.169	6329
870.254	5887
870.339	3714
870.424	3712
870.509	4797
870.593	7107
870.678	5331
870.763	5088
870.847	4899
870.932	5263
871.016	4646
871.101	3811
871.186	5555
871.270	5970
871.355	2710
871.439	4435
871.523	5189
871.608	3948
871.692	3689
871.777	5661
871.861	5237
871.945	4579
872.030	4295
872.114	4489
872.198	3550
872.282	3721
872.367	4100
872.451	3609
872.535	4151
872.619	4325
872.703	3534
872.787	5396
872.871	4310
872.955	3264
873.039	2014
873.123	4672
873.207	4435
873.291	1998
873.375	3105
873.459	4750
873.543	3386
873.627	3694
873.711	2769
873.794	4000
873.878	3188
873.962	2488
874.045	2765
874.129	3670
874.137	3691
874.213	3902
874.245	3883
874.296	3859
874.352	3096
874.380	2719
874.460	3315
874.464	3341
874.547	2495
874.568	3059
874.631	4718
874.676	3772
874.714	2969
874.784	3995
874.798	4206
874.881	3424
874.892	3356
874.965	2894
874.999	2837
875.048	2726
875.107	3079
875.131	3213
875.215	1735
875.215	1735
875.298	2698
875.323	2774
875.381	2914
875.430	3891
875.465	4573
875.538	3346
875.548	3172
875.631	2256
875.646	2180
875.714	1918
875.753	2306
875.798	2747
875.861	3275
875.881	3400
875.964	2551
875.968	2499
876.047	1759
876.076	2340
876.130	3304
876.183	3091
876.213	3065
876.291	3453
876.296	3463
876.379	2266
876.398	2189
876.462	1882
876.506	1591
876.545	1443
876.613	2159
876.628	2291
876.711	2377
876.721	2401
876.794	2691
876.828	2678
876.877	2541
876.935	1720
876.960	1457
877.043	1734
877.043	1737
877.125	2423
877.150	2783
877.208	3485
877.258	2833
877.291	2446
877.365	2004
877.374	1963
877.456	2182
877.472	2170
877.539	1999
877.579	2455
877.622	2931
877.687	2741
877.704	2689
877.787	2590
877.794	2577
877.869	2691
877.901	2748
877.952	2481
878.008	1413
878.034	983
878.115	1391
878.117	1405
878.199	1349
878.222	1761
878.282	2787
878.329	3097
878.364	3189
878.437	2800
878.447	2774
878.529	1439
878.544	1483
878.611	1456
878.651	1769
878.694	2280
878.758	2038
878.776	1948
878.858	2614
878.865	2554
878.941	1431
878.972	1122
879.023	960
879.078	1406
879.105	1686
879.185	2408
879.187	2412
879.269	2411
879.292	2168
879.351	1786
879.399	1738
879.433	1626
879.506	2187
879.516	2266
879.598	2237
879.613	2099
879.680	1644
879.720	1856
879.762	2014
879.827	2122
879.844	2129
879.926	2086
879.933	2100
880.007	2343
880.040	2150
880.089	1711
880.147	2110
880.171	2525
880.253	3702
880.254	3708
880.335	3936
880.360	4300
880.417	5801
880.467	7863
880.499	9002
880.574	8959
880.580	8830
880.662	4015
880.680	3534
880.744	2228
880.787	2020
880.825	2046
880.893	1672
880.907	1625
880.989	1399
881.000	1501
881.070	2259
881.106	2455
881.152	2317
881.213	1543
881.233	1454
881.315	1363
881.319	1385
881.396	1905
881.426	1890
881.478	1627
881.532	2031
881.559	2347
881.639	2211
881.641	2184
881.722	1379
881.745	1213
881.803	1777
881.852	2013
881.885	1806
881.958	1238
881.966	1224
882.047	1680
882.064	1550
882.129	911
882.171	1263
882.210	1494
882.277	1246
882.291	1342
882.372	2614
882.383	2724
882.454	2712
882.489	2278
882.535	1848
882.596	2308
882.616	2412
882.697	1656
882.702	1614
882.778	1045
882.808	1022
882.859	1015
882.914	1142
882.940	1299
883.020	1403
883.021	1403
883.102	1420
883.127	1593
883.183	2289
883.233	2151
883.264	1718
883.339	1073
883.345	1051
883.426	1076
883.445	1215
883.507	1545
883.551	1260
883.587	1507
883.657	2347
883.668	2356
883.749	2006
883.763	1910
883.830	1001
883.869	694
883.910	859
883.975	1503
883.991	1614
884.072	1569
884.081	1570
884.152	2026
884.187	2295
884.233	2361
884.292	2028
884.314	1725
884.394	599
884.398	566
884.475	585
884.504	594
884.555	947
884.610	1336
884.636	1534
884.716	1978
884.716	1984
884.797	2876
884.821	2799
884.877	1852
884.927	1460
884.958	1430
885.033	909
885.038	901
885.118	1386
885.139	1388
885.199	1349
885.244	1582
885.279	1848
885.350	2133
885.359	2146
885.439	2575
885.456	2448
885.520	1596
885.561	1383
885.600	1420
885.667	1661
885.680	1729
885.760	1944
885.773	1913
885.840	1396
885.878	1423
885.920	1508
885.984	1373
886.000	1451
886.080	1953
886.089	1985
886.160	1802
886.195	1659
886.240	1432
886.300	1429
886.320	1655
886.400	2238
886.406	2257
886.480	1355
886.511	1172
886.560	1473
886.616	1515
886.640	1448
886.720	1576
886.722	1571
886.800	1536
886.827	1543
886.879	1565
886.932	1490
886.959	1764
887.038	2814
887.039	2810
887.119	1749
887.143	1567
887.198	1772
887.248	1760
887.278	1732
887.354	1742
887.358	1727
887.437	1328
887.459	1241
887.517	1639
887.564	1857
887.596	1639
887.669	1169
887.676	1134
887.755	689
887.774	592
887.835	1264
887.880	1804
887.914	1644
887.985	1098
887.994	1216
888.073	2553
888.090	2774
888.153	2373
888.195	2067
888.232	1922
888.300	1774
888.311	1716
888.391	1242
888.405	1150
888.470	1170
888.510	1182
888.549	1232
888.615	1426
888.628	1568
888.708	2269
888.720	2375
888.787	1892
888.825	1607
888.866	1287
888.930	818
888.945	960
889.024	1746
889.035	1842
889.103	1695
889.140	1598
889.182	1166
889.245	593
889.261	802
889.340	1769
889.349	1880
889.419	1736
889.454	1647
889.498	1687
889.559	1770
889.577	1782
889.656	1814
889.664	1816
889.735	1300
889.768	1053
889.814	1325
889.873	1680
889.978	1821
890.083	1215
890.187	2344
890.292	2319
890.397	1942
890.501	1711
890.606	1036
890.710	2010
890.815	3022
890.919	1785
891.024	1480
891.128	1406
891.233	1457
891.337	2070
891.442	2094
891.546	1114
891.650	1402
891.755	1588
891.859	2573
891.963	1810
892.068	1913
892.172	1271
892.276	820
892.380	1006
892.484	2128
892.589	1360
892.693	1321
892.797	949
892.901	785
893.005	1456
893.109	2071
893.213	2041
893.317	1308
893.421	1896
893.525	356
893.629	1552
893.733	1810
893.837	1271
893.941	1430
894.045	1334
894.148	629
894.252	618
894.356	2669
894.460	2700
894.564	1862
894.667	709
894.771	873
894.875	400
894.978	987
895.082	935
895.186	2013
895.289	1221
895.393	1642
895.496	1738
895.600	810
895.703	903
895.807	691
895.910	526
896.014	1070
896.117	973
896.221	1716
896.324	1540
896.427	1586
896.531	1046
896.634	1373
896.737	1019
896.840	2018
896.944	1298
897.047	2265
897.150	1406
897.253	954
897.356	1022
897.460	393
897.563	248
897.666	1679
897.769	1623
897.872	1001
897.975	495
898.078	351
898.181	1662
898.284	1195
898.387	2346
898.490	1876
898.593	1366
898.695	1009
898.798	1278
898.901	929
899.004	1085
899.107	1028
899.209	1167
899.312	1896
899.415	1692
899.518	768
899.620	1285
899.723	1077
899.826	420
899.928	1187
900.031	1550
900.133	1561
900.236	760
900.338	504
900.441	1505
900.543	952
900.646	1637
900.748	474
900.851	1305
900.953	239
901.055	602
901.158	1231
901.260	744
901.362	1320
901.465	130
901.567	1057
901.669	1066
901.771	603
901.873	703
901.976	973
902.078	1008
902.180	1084
902.282	373
902.384	1239
902.486	1355
902.588	686
902.690	428
902.792	-64
902.894	833
902.996	1711
903.098	1449
903.200	1010
903.302	712
903.404	736
903.505	713
903.607	1098
903.709	2077
903.811	1801
903.913	1564
904.014	987
904.116	92
904.218	517
904.319	921
904.421	2269
904.523	2584
904.624	749
904.726	999
904.827	829
904.929	1087
905.030	755
905.132	1667
905.233	1775
905.335	567
905.436	715
905.537	363
905.639	1045
905.740	471
905.841	814
905.943	1901
906.044	1762
906.145	594
906.247	714
906.348	847
906.449	1469
906.550	1784
906.651	995
906.752	1275
906.854	500
906.955	712
907.056	885
907.157	1574
907.258	1950
907.359	864
907.460	1272
907.561	732
907.662	474
907.762	682
907.863	910
907.964	626
908.065	1145
908.166	-68
908.267	795
908.367	484
908.468	933
908.569	795
908.670	1009
908.770	1440
908.871	596
908.971	900
909.072	1068
909.173	1197
909.273	548
909.374	714
909.474	1178
909.575	633
909.675	232
909.776	1028
909.876	490
909.977	1652
910.077	1436
910.177	1732
910.278	669
910.378	546
910.478	503
910.579	1319
910.679	1207
910.779	918
910.879	687
910.980	1339
911.080	2005
911.180	927
911.280	794
911.380	-119
911.480	802
911.580	966
911.680	1285
911.780	587
911.880	1214
911.980	590
912.080	743
912.180	860
912.280	740
912.380	338
912.480	255
912.580	1104
912.679	963
912.779	1552
912.879	2119
912.979	665
913.078	198
913.178	828
913.278	699
913.377	806
913.477	1099
913.577	758
913.676	1177
913.776	1982
913.875	1200
913.975	807
914.074	764
914.174	1255
914.273	590
914.373	1378
914.472	902
914.572	169
914.671	485
914.770	636
914.870	1545
914.969	967
915.068	1667
915.167	482
915.267	988
915.366	907
915.465	1196
915.564	716
915.663	1711
915.763	1557
915.862	1441
915.961	1351
916.060	1464
916.159	866
916.258	746
916.357	631
916.456	1735
916.555	1148
916.654	1753
916.752	1027
916.851	1607
916.950	1488
917.049	994
917.148	202
917.247	927
917.345	203
917.444	429
917.543	1336
917.642	550
917.740	356
917.839	1618
917.937	1863
918.036	1517
918.135	524
918.233	809
918.332	649
918.430	271
918.529	1059
918.627	853
918.726	1370
918.824	1458
918.923	1544
919.021	1335
919.119	1309
919.218	1301
919.316	603
919.414	915
919.512	1091
919.611	1313
919.709	1729
919.807	1785
919.905	1953
920.003	1516
920.102	1611
920.200	2017
920.298	2250
920.396	1322
920.494	1652
920.592	1295
920.690	2230
920.788	1740
920.886	1947
920.984	2149
921.082	1659
921.180	2941
921.277	1895
921.375	2569
921.473	4290
921.571	3752
921.669	3774
921.766	2618
921.864	2874
921.962	3040
922.060	3612
922.157	3241
922.255	3336
922.352	4096
922.450	4560
922.548	3105
922.645	3903
922.743	5889
922.840	9070
922.938	9298
923.035	7706
923.133	7109
923.230	9953
923.327	11304
923.425	9834
923.522	9836
923.619	8881
923.717	8847
923.814	8183
923.911	7212
924.008	8796
924.106	7600
924.203	7518
924.300	7463
924.397	7414
924.494	7972
924.591	8273
924.688	7555
924.786	7553
924.883	8093
924.979	7569
925.077	7425
925.173	7595
925.270	7363
925.367	7443
925.464	8398
925.561	8441
925.658	8437
925.755	7179
925.852	7793
925.948	7387
926.045	7411
926.142	7119
926.239	8587
926.335	5790
926.432	7563
926.529	8098
926.625	8170
926.722	6082
926.818	6879
926.915	6999
927.011	6598
927.108	7130
927.204	6944
927.301	5936
927.397	7592
927.494	8098
927.590	5389
927.687	4908
927.783	6942
927.879	7509
927.976	6152
928.072	5832
928.168	7074
928.264	7446
928.361	6800
928.457	7519
928.553	6214
928.649	6037
928.745	6476
928.841	5513
928.937	6727
929.033	7177
929.129	6334
929.225	6653
929.321	6417
929.417	5324
929.513	6058
929.609	5370
929.705	5147
929.801	6956
929.897	5598
929.993	5588
930.089	6736
930.184	5016
930.280	5585
930.376	7374
930.471	5720
930.567	4761
930.663	5894
930.758	5473
930.854	5995
930.950	6313
931.045	5968
931.141	5163
931.236	7259
931.332	5902
931.427	3986
931.523	7168
931.618	6739
931.714	3163
931.809	5649
931.905	6688
932.000	4144
932.095	3699
932.191	7024
932.286	6300
932.381	5587
932.476	4530
932.572	4874
932.667	4984
932.762	5580
932.857	4863
932.952	7122
933.047	4873
933.142	3491
933.237	5944
933.332	5400
933.427	6154
933.522	4697
933.617	3881
933.712	4719
933.807	5851
933.902	6367
933.997	5939
934.092	3921
934.187	5490
934.282	5214
934.376	4790
934.471	6118
934.566	5212
934.661	4338
934.755	5207
934.850	5300
934.945	4071
935.039	4226
935.134	3425
935.228	4882
935.323	7754
935.417	4563
935.512	3401
935.606	3329
935.701	4767
935.795	5905
935.890	5454
935.984	4198
936.079	2378
936.173	4180
936.267	4909
936.362	4251
936.456	4635
936.550	6120
936.644	5342
936.738	3780
936.833	4083
936.927	3162
937.021	3481
937.115	4621
937.209	4293
937.303	3753
937.397	3362
937.491	4030
937.585	5033
937.679	4867
937.773	3978
937.867	3242
937.961	3295
938.055	5685
938.149	4793
938.243	3168
938.337	2903
938.430	3657
938.524	6191
938.618	4815
938.712	3719
938.805	3933
938.899	4765
938.993	5452
939.086	3963
939.180	2308
939.274	3313
939.367	5140
939.461	4139
939.554	3041
939.648	3206
939.741	2883
939.835	3874
939.928	5717
940.022	5092
940.115	3057
940.208	4257
940.302	4963
940.395	5044
940.488	2746
940.582	3167
940.675	3000
940.768	2962
940.861	3696
940.954	5686
941.048	2231
941.141	2044
941.234	2885
941.327	3601
941.420	4431
941.513	3837
941.606	2334
941.699	3012
941.792	4542
941.885	3571
941.978	4061
942.071	3537
942.164	2065
942.257	3256
942.349	3177
942.442	3861
942.535	2441
942.628	2788
942.721	3504
942.813	2490
942.906	3727
942.999	2864
943.091	2413
943.184	3374
943.277	3543
943.369	1904
943.462	1987
943.554	3080
943.647	2033
943.739	3091
943.832	3745
943.924	1871
944.017	2577
944.109	2173
944.201	2350
944.294	2279
944.386	3520
944.478	2264
944.571	3113
944.663	2647
944.755	3427
944.847	3827
944.940	3073
945.032	1856
945.124	2147
945.216	3649
945.308	3497
945.400	3379
945.492	2841
945.584	3299
945.676	3531
945.768	3574
945.860	3747
945.952	4104
946.044	3202
946.136	1990
946.228	2221
946.320	2212
946.412	2817
946.503	3046
946.595	4034
946.687	1811
946.779	1447
946.870	1610
946.962	1746
947.054	2829
947.145	3300
947.237	2274
947.329	2547
947.420	2838
947.512	2912
947.603	1694
947.695	2358
947.786	1715
947.878	3240
947.969	2355
948.061	3350
948.152	1591
948.243	1963
948.335	2538
948.426	1259
948.517	1811
948.609	4006
948.700	2186
948.791	2463
948.882	748
948.973	1513
949.065	2206
949.156	2994
949.247	1290
949.338	2634
949.429	1460
949.520	1848
949.611	2343
949.702	3248
949.793	2357
949.884	2276
949.975	2239
950.066	1037
950.157	1161
950.247	2394
950.338	1404
950.429	2004
950.520	2752
950.611	1772
950.701	1673
950.792	3780
950.883	2914
950.973	2469
951.064	2065
951.155	2332
951.245	2347
951.336	2064
951.427	1642
951.517	3228
951.608	3169
951.698	2284
951.788	1669
951.879	1567
951.969	1523
952.060	696
952.150	2065
952.240	2913
952.331	1901
952.421	3595
952.511	576
952.602	1824
952.692	1293
952.782	1232
952.872	1416
952.962	2758
953.052	2299
953.143	1726
953.233	1818
953.323	1181
953.413	1630
953.503	1939
953.593	1907
953.683	1932
953.773	941
953.863	1468
953.953	1159
954.042	2443
954.132	1548
954.222	2376
954.312	1859
954.402	1152
954.492	1675
954.581	2055
954.671	1730
954.761	632
954.850	2768
954.940	1211
955.030	1499
955.119	1382
955.209	1692
955.298	884
955.388	2262
955.477	2667
955.567	1106
955.656	1802
955.746	1512
955.835	1411
955.925	443
956.014	2114
956.103	2626
956.193	2781
956.282	2340
956.371	2356
956.461	1593
956.550	1448
956.639	1724
956.728	1247
956.817	1247
956.906	711
956.995	1963
957.085	1650
957.174	1991
957.263	2025
957.352	622
957.441	2001
957.530	1488
957.619	1890
957.708	603
957.796	1345
957.885	1453
957.974	1454
958.063	1887
958.152	58
958.241	1336
958.329	1004
958.418	1512
958.507	254
958.596	2830
958.684	678
958.773	1699
958.861	635
958.950	1102
959.039	1245
959.127	982
959.216	3070
959.304	306
959.393	1688
959.481	1671
959.570	1096
959.658	570
959.746	317
959.835	1657
959.923	1105
960.011	936
960.100	2051
960.188	1772
960.276	2115
960.365	476
960.453	1042
960.541	414
960.629	1052
960.717	1107
960.805	-73
960.893	404
960.981	1178
961.069	2299
961.158	1320
961.245	2855
961.333	2218
961.421	1155
961.509	1194
961.597	1346
961.685	360
961.773	1361
961.861	1449
961.949	2481
962.036	990
962.124	877
962.212	211
962.299	975
962.387	394
962.475	1221
962.562	272
962.650	1867
962.738	1065
962.825	724
962.913	895
963.000	852
963.088	1718
963.175	875
963.263	917
963.350	839
963.438	977
963.525	228
963.612	1807
963.700	623
963.787	1293
963.874	1489
963.962	391
964.049	1160
964.136	1310
964.223	419
964.310	861
964.398	744
964.485	897
964.572	2063
964.659	1612
964.746	1014
964.833	480
964.920	1099
965.007	1168
965.094	1604
965.181	-125
965.268	2183
965.355	862
965.441	927
965.528	202
965.615	1914
965.702	1101
965.789	518
965.875	708
965.962	1307
966.049	395
966.136	808
966.222	1213
966.309	1706
966.395	374
966.482	1366
966.569	1450
966.655	1757
966.742	1237
966.828	1593
966.915	1440
967.001	570
967.087	464
967.174	719
967.260	1390
967.347	1000
967.433	1023
967.519	1430
967.605	614
967.692	1144
967.778	1018
967.864	306
967.950	1645
968.036	704
968.123	750
968.209	907
968.295	-84
968.381	2397
968.467	506
968.553	-79
968.639	2763
968.725	-27
968.811	1443
968.897	2321
968.983	1107
969.069	19
969.154	1254
969.240	1364
969.326	848
969.412	542
969.497	366
969.583	67
969.669	1602
969.755	1592
969.840	1781
969.926	2070
970.012	1794
970.097	2804
970.183	1980
970.268	1579
970.354	657
970.439	-265
970.525	2342
970.610	527
970.696	2110
970.781	1010
970.866	200
970.952	1902
971.037	995
971.122	1465
971.208	2157
971.293	1646
971.378	144
971.463	1007
971.549	1078
971.634	814
971.719	810
971.804	542
971.889	1390
971.974	9
972.059	1154
972.144	1441
972.229	601
972.314	601
972.399	2051
972.484	514
972.569	47
972.654	-1112
972.739	1131
972.824	1102
972.908	769
972.993	1207
973.078	1489
973.163	871
973.247	1599
973.332	-230
973.417	2354
973.501	768
973.586	623
973.671	1574
973.755	998
973.840	2477
973.924	1238
974.009	2195
974.093	1086
974.178	2381
974.262	1480
974.346	1093
974.431	1180
974.515	979
974.600	583
974.684	1407
974.768	1015
974.852	1940
974.937	-211
975.021	1462
975.105	1276
975.189	1801
975.273	331
975.358	299
975.442	105
975.526	1538
975.610	1034
975.694	118
975.778	1526
975.862	839
975.946	-847
976.030	2695
976.114	445
976.198	1481
976.281	1109
976.365	1821
976.449	546
976.533	1385
976.617	296
976.700	493
976.784	1186
976.868	1189
976.951	336
977.035	1128
977.119	1165
977.202	1641
977.286	1488
977.369	1985
977.453	3349
977.536	1923
977.620	1446
977.703	1361
977.787	563
977.870	2811
977.953	2404
978.037	84
978.120	2400
978.203	1052
978.287	1495
978.370	1726
978.453	1081
978.536	1657
978.620	1679
978.703	723
978.786	671
978.869	1170
978.952	508
979.035	2859
979.118	2146
979.201	672
979.284	872
979.367	449
979.450	1725
979.533	334
979.616	1010
979.699	833
979.782	1397
979.865	795
979.948	1201
980.030	1568
980.113	687
980.196	1160
980.279	1939
980.361	1122
980.444	989
980.526	1660
980.609	2604
980.692	2319
980.774	1959
980.857	1196
980.939	2102
981.022	1082
981.104	1725
981.187	949
981.269	2019
981.352	1078
981.434	177
981.516	1388
981.599	2655
981.681	1597
981.763	1044
981.846	1805
981.928	1574
982.010	1321
982.092	1069
982.174	2501
982.256	1411
982.339	843
982.421	938
982.503	1770
982.585	-71
982.667	508
982.749	1201
982.831	1033
982.913	1287
982.995	2219
983.077	1133
983.158	3177
983.240	694
983.322	2765
983.404	3503
983.486	2262
983.568	3278
983.649	2076
983.731	1619
983.813	1759
983.894	1934
983.976	1307
984.058	2040
984.139	2644
984.221	909
984.302	1875
984.384	1824
984.465	890
984.547	2047
984.628	1696
984.710	2303
984.791	2368
984.872	1506
984.954	1174
985.035	1891
985.116	1370
985.198	1036
985.279	3046
985.360	1425
985.441	1457
985.522	2215
985.604	1011
985.685	-42
985.766	2452
985.847	3027
985.928	1500
986.009	1730
986.090	1643
986.171	2392
986.252	1099
986.333	2212
986.414	1576
986.495	2107
986.576	2415
986.656	2316
986.737	2395
986.818	1949
986.899	1534
986.980	2344
987.060	2875
987.141	1639
987.222	2319
987.302	3529
987.383	3364
987.464	2601
987.544	2847
987.625	2242
987.705	3648
987.786	3182
987.866	2750
987.947	2344
988.027	2623
988.108	2051
988.188	3116
988.268	2488
988.349	2923
988.429	2116
988.509	2600
988.589	2108
988.670	946
988.750	3239
988.830	2106
988.910	2881
988.990	2543
989.070	2152
989.151	1963
989.231	1304
989.311	2416
989.391	2544
989.471	1885
989.551	1985
989.631	1128
989.711	2802
989.791	2033
989.870	821
989.950	2408
990.030	1525
990.110	1480
990.190	508
990.269	658
990.349	2155
990.429	1946
990.509	2063
990.588	406
990.668	1743
990.747	1250
990.827	2004
990.907	1982
990.986	1169
991.066	1146
991.145	937
991.225	1947
991.304	1613
991.383	1420
991.463	889
991.542	2124
991.622	1477
991.701	1688
991.780	878
991.859	1329
991.939	1374
992.018	1273
992.097	2193
992.176	1076
992.256	933
992.335	469
992.414	2597
992.493	475
992.572	620
992.651	3089
992.730	1245
992.809	1780
992.888	829
992.967	1558
993.046	1415
993.125	-175
993.203	966
993.282	1583
993.361	1539
993.440	1243
993.519	828
993.597	1434
993.676	826
993.755	2131
993.834	854
993.912	416
993.991	2018
994.069	708
994.148	1279
994.226	-48
994.305	751
994.384	594
994.462	2060
994.540	952
994.619	320
994.697	2117
994.776	1161
994.854	1948
994.932	284
995.011	852
995.089	766
995.167	39
995.245	1473
995.324	453
995.402	1573
995.480	623
995.558	526
995.636	372
995.714	1175
995.792	2206
995.870	-85
995.948	764
996.026	781
996.104	-663
996.182	590
996.260	255
996.338	544
996.416	37
996.494	-57
996.572	1116
996.649	7
996.727	-663
996.805	1148
996.883	381
996.960	93
997.038	1005
997.116	1580
997.193	-538
997.271	443
997.348	-441
997.426	130
997.504	524
997.581	1329
997.658	-289
997.736	-1085
997.813	-1038
997.891	924
997.968	-184
998.046	827
998.123	-685
998.200	686
998.277	62
998.355	226
998.432	-766
998.509	-106
998.586	56
998.663	446
998.741	3
998.818	-105
998.895	235
998.972	416
999.049	859
999.126	368
999.203	-213
999.280	184
999.357	89
999.434	-165
999.511	153
999.587	1155
999.664	-433
999.741	483
999.818	1103
999.895	-512
999.971	-77
1000.048	-209
1000.125	442
1000.202	-1116
1000.278	140
1000.355	276
1000.431	641
1000.508	-851
1000.584	-699
1000.661	325
1000.738	-108
1000.814	-23
1000.890	-439
1000.967	-135
1001.043	237
1001.120	-636
1001.196	-177
1001.272	-1130
1001.349	-392
1001.425	720
1001.501	-16
1001.577	-677
1001.654	564
1001.730	-110
1001.806	64
1001.882	-1119
1001.958	1281
1002.034	582
1002.110	-471
1002.186	-543
1002.262	-243
1002.338	-676
1002.414	-269
1002.490	-186
1002.566	-506
1002.642	-1273
1002.718	-374
1002.794	-495
1002.870	-324
1002.945	-787
1003.021	-416
1003.097	-715
1003.173	-110
1003.248	-1553
1003.324	-726
1003.400	-466
1003.475	-869
1003.551	-371
1003.626	-171
1003.702	-992
1003.777	-760
1003.853	-822
1003.928	-165
1004.004	-591
1004.079	162
1004.155	-383
1004.230	-1358
1004.305	264
1004.381	-492
1004.456	-483
1004.531	-609
1004.607	85
1004.682	-1261
1004.757	-129
1004.832	-691
1004.907	-621
1004.982	-29
1005.057	20
1005.133	-456
1005.208	-569
1005.283	201
1005.358	317
1005.433	-1023
1005.508	-515
1005.583	-643
1005.657	-91
1005.732	-106
1005.807	-698
1005.882	-453
1005.957	-1082
1006.032	193
1006.106	-1197
1006.181	-79
1006.256	-481
1006.331	-1398
1006.405	-1434
1006.480	-1098
1006.554	-402
1006.629	-414
1006.704	-1863
1006.778	-1351
1006.853	-8
1006.927	-437
1007.002	-809
1007.076	-1774
1007.150	-1166
1007.225	-90
1007.299	-1510
1007.373	-1495
1007.448	-807
1007.522	82
1007.596	-606
1007.671	-777
1007.745	-744
1007.819	-1395
1007.893	-548
1007.967	-763
1008.041	-1609
1008.115	-1049
1008.190	-1136
1008.264	-610
1008.338	-1209
1008.412	-363
1008.486	-332
1008.560	-1276
1008.633	-758
1008.707	-552
1008.781	-849
1008.855	-1205
1008.929	-214
1009.003	-541
1009.076	-1467
1009.150	-344
1009.224	-551
1009.298	-214
1009.371	-1438
1009.445	3
1009.519	-857
1009.592	-1105
1009.666	-438
1009.739	-189
1009.813	-1775
1009.886	111
1009.960	-2406
1010.033	-515
1010.107	-326
1010.180	-1705
1010.253	-529
1010.327	-1054
1010.400	-1331
1010.473	-893
1010.547	-10
1010.620	-908
1010.693	-328
1010.766	-996
1010.840	-614
1010.913	-567
1010.986	-1368
1011.059	-694
1011.132	-1117
1011.205	-503
1011.278	-1099
1011.351	-1044
1011.424	-376
1011.497	-1579
1011.570	-497
1011.643	-620
1011.716	-1027
1011.789	-823
1011.862	-1366
1011.934	-1430
1012.007	-1294
1012.080	-1480
1012.153	-62
1012.225	333
1012.298	-979
1012.371	-920
1012.443	-664
1012.516	-1707
1012.588	-22
1012.661	-184
1012.733	-1320
1012.806	161
1012.879	-1745
1012.951	-1265
1013.023	-971
1013.096	-876
1013.168	-1253
1013.241	272
1013.313	-1092
1013.385	-1414
1013.458	-748
1013.530	-853
1013.602	-1817
1013.674	-14
1013.746	-1292
1013.819	-1145
1013.891	-733
1013.963	-956
1014.035	-1053
1014.107	-814
1014.179	-1026
1014.251	-1188
1014.323	-587
1014.395	-743
1014.467	-765
1014.539	-1311
1014.611	-2494
1014.683	-1655
1014.754	-532
1014.826	-1163
1014.898	-1034
1014.970	-1019
1015.042	-114
1015.113	-947
1015.185	-927
1015.257	-1852
1015.328	-797
1015.400	-1044
1015.471	-681
1015.543	-1426
1015.615	-1188
1015.686	-1267
1015.757	-1090
1015.829	-1139
1015.901	-1617
1015.972	-1115
1016.043	-1071
1016.115	-966
1016.186	-923
1016.257	-2016
1016.328	-1207
1016.400	-1179
1016.471	-2553
1016.542	-1311
1016.613	-983
1016.685	-685
1016.756	-434
1016.827	-1182
1016.898	-960
1016.969	-133
1017.040	-1957
1017.111	-1273
1017.182	-1032
1017.253	-1260
1017.324	-1188
1017.395	-2439
1017.466	-1266
1017.537	-1777
1017.608	-1502
1017.678	-63
1017.749	-1218
1017.820	-1217
1017.891	-1755
1017.961	-1216
1018.032	-1205
1018.103	-1066
1018.173	-1160
1018.244	-1198
1018.315	-1959
1018.385	-263
1018.456	-1337
1018.526	-1797
1018.597	-1641
1018.667	-1293
1018.738	-1507
1018.808	-1755
1018.878	-1577
1018.949	-585
1019.019	-1242
1019.089	-1511
1019.160	-1099
1019.230	-1133
1019.300	-197
1019.371	-1829
1019.441	-942
1019.511	-1164
1019.581	-860
1019.651	-1869
1019.721	-1046
1019.791	-1461
1019.861	-1443
1019.931	-817
1020.001	-1133
1020.071	-656
1020.141	-1394
1020.211	-736
1020.281	-1976
1020.351	-1726
1020.421	-1522
1020.491	-320
1020.560	-1869
1020.630	-400
1020.700	-534
1020.770	-1277
1020.839	-1588
1020.909	-1228
1020.979	-1331
1021.048	-1315
1021.118	-1461
1021.187	-1101
1021.257	-1962
1021.326	-1987
1021.396	-2170
1021.465	-541
1021.535	-1814
1021.604	-1667
1021.674	-1159
1021.743	-1997
1021.812	-838
1021.882	-992
1021.951	-1922
1022.020	-830
1022.089	-991
1022.159	-1844
1022.228	-676
1022.297	-1746
1022.366	-1402
1022.435	-1884
1022.504	-1950
1022.573	-1569
1022.642	-1481
1022.711	-1496
1022.781	-1005
1022.849	-274
1022.918	-1905
1022.987	-1779
1023.056	-1623
1023.125	-1377
1023.194	-1256
1023.263	-723
1023.331	-1243
1023.400	-2183
1023.469	-1291
1023.538	-966
1023.606	-669
1023.675	-1382
1023.744	-1942
1023.812	-1235
1023.881	-1510
1023.949	-554
1024.018	-1664
1024.086	-751
1024.155	-1805
1024.223	-1460
1024.292	-898
1024.360	-1325
1024.429	-1385
1024.497	-1286
1024.565	-737
1024.634	-1994
1024.702	-1013
1024.770	-702
1024.838	-946
1024.907	-1273
1024.975	-1698
1025.043	-1385
1025.111	-1326
1025.179	-1821
1025.247	-1986
1025.315	-1600
1025.383	-1010
1025.451	-532
1025.519	-775
1025.587	-1689
1025.655	-1409
1025.723	-1894
1025.791	-1121
1025.859	-1014
1025.927	-1281
1025.995	-1940
1026.062	-920
1026.130	-1689
1026.198	-655
1026.266	-1047
1026.333	-858
1026.401	-618
1026.469	-1538
1026.536	-2161
1026.604	-1341
1026.671	-1539
1026.739	-1649
1026.806	-1452
1026.874	-1703
1026.941	-1176
1027.009	-1701
1027.076	-2015
1027.144	-367
1027.211	-1709
1027.278	-1998
1027.345	-1777
1027.413	-1325
1027.480	-905
1027.547	-976
1027.614	-1150
1027.682	-931
1027.749	-1387
1027.816	-341
1027.883	-1323
1027.950	-963
1028.017	-1949
1028.084	-1223
1028.151	-2379
1028.218	-1728
1028.285	-1359
1028.352	-1444
1028.419	-1371
1028.486	-949
1028.553	-2218
1028.619	-2225
1028.686	-1610
1028.753	-1471
1028.820	-2048
1028.886	-1856
1028.953	-1787
1029.020	-1025
1029.086	-1145
1029.153	-1554
1029.220	-1867
1029.286	-1467
1029.353	-1190
1029.419	-1866
1029.486	-1442
1029.552	-1088
1029.619	-2154
1029.685	-1563
1029.751	-1626
1029.818	-385
1029.884	-2383
1029.951	-838
1030.017	-1426
1030.083	-2178
1030.149	-2259
1030.216	-2103
1030.282	-1303
1030.348	-1452
1030.414	-1738
1030.480	-1907
1030.546	-1285
1030.612	-1495
1030.678	-2700
1030.744	-1694
1030.810	-1750
1030.876	-877
1030.942	-1627
1031.008	-1196
1031.074	-1634
1031.140	-2231
1031.206	-392
1031.272	-1837
1031.337	-986
1031.403	-1320
1031.469	-1097
1031.534	-1977
1031.600	-1575
1031.666	-2221
1031.731	-2093
1031.797	-1809
1031.863	-1387
1031.928	-1472
1031.994	-2251
1032.059	-1955
1032.125	-1683
1032.190	-1821
1032.256	-2037
1032.321	-2027
1032.386	-1679
1032.452	-1530
1032.517	-1205
1032.582	-1426
1032.647	-1456
1032.713	-1577
1032.778	-1003
1032.843	-2182
1032.908	-1574
1032.974	-1373
1033.039	-1961
1033.104	-1294
1033.169	-664
1033.234	-1762
1033.299	-1238
1033.364	-1825
1033.429	-1982
1033.494	-1464
1033.559	-1941
1033.624	-1128
1033.688	-1608
1033.753	-1142
1033.818	-1074
1033.883	-551
1033.948	-1398
1034.013	-1171
1034.077	-108
1034.142	-764
1034.207	-563
1034.271	296
1034.336	903
1034.400	-110
1034.465	-1471
1034.530	-1144
1034.594	-981
1034.658	-1711
1034.723	-946
1034.787	-1277
1034.852	-2186
1034.916	-2138
1034.981	-1020
1035.045	-1806
1035.109	-1994
1035.173	-1071
1035.238	-2888
1035.302	-1197
1035.366	-2394
1035.430	-1767
1035.495	-2351
1035.559	-1158
1035.623	-2424
1035.687	-1766
1035.751	-1747
1035.815	-2131
1035.879	-1857
1035.943	-1287
1036.007	-1947
1036.071	-2016
1036.135	-972
1036.198	-1850
1036.262	-2331
1036.326	-1878
1036.390	-1671
1036.454	-1262
1036.517	-1422
1036.581	-1671
1036.645	-1446
1036.709	-2057
1036.772	-2005
1036.836	-1319
1036.900	-1460
1036.963	-2292
1037.026	-1793
1037.090	-1521
1037.154	-1945
1037.217	-1675
1037.280	-1759
1037.344	-1440
1037.407	-1406
1037.471	-2021
1037.534	-2273
1037.597	-1245
1037.661	-2039
1037.724	-1490
1037.787	-1871
1037.850	-1719
1037.913	-1998
1037.977	-1166
1038.040	-2096
1038.103	-2009
1038.166	-2068
1038.229	-2067
1038.292	-1373
1038.355	-1187
1038.418	-2264
1038.481	-1497
1038.544	-1419
1038.607	-1622
1038.670	-1846
1038.732	-2217
1038.795	-1847
1038.858	-1756
1038.921	-1831
1038.984	-1355
1039.046	-1684
1039.109	-2655
1039.172	-2054
1039.234	-1860
1039.297	-2686
1039.360	-1607
1039.422	-2069
1039.485	-1357
1039.547	-1744
1039.610	-979
1039.672	-2252
1039.734	-1987
1039.797	-1409
1039.859	-1826
1039.922	-1868
1039.984	-2094
1040.046	-1809
1040.109	-1454
1040.171	-2181
1040.233	-2200
1040.295	-2346
1040.358	-1282
1040.420	-2164
1040.482	-1832
1040.544	-1475
1040.606	-1280
1040.668	-1691
1040.730	-2109
1040.792	-2615
1040.854	-1559
1040.916	-1407
1040.978	-2068
1041.040	-1343
1041.102	-1361
1041.164	-1944
1041.225	-1818
1041.287	-2711
1041.349	-1945
1041.411	-1743
1041.472	-2416
1041.534	-2179
1041.596	-1529
1041.657	-2334
1041.719	-1629
1041.781	-2126
1041.842	-2236
1041.904	-1939
1041.965	-2286
1042.027	-1587
1042.088	-2100
1042.150	-1419
1042.211	-1362
1042.272	-1724
1042.334	-1633
1042.395	-2074
1042.456	-1824
1042.518	-1552
1042.579	-1271
1042.640	-1980
1042.701	-1787
1042.763	-1647
1042.824	-2205
1042.885	-1356
1042.946	-1662
1043.007	-1558
1043.068	-1426
1043.129	-2137
1043.190	-2066
1043.251	-1926
1043.312	-1698
1043.373	-1707
1043.434	-1877
1043.495	-2357
1043.556	-1741
1043.616	-1702
1043.677	-1832
1043.738	-1542
1043.799	-2102
1043.859	-1657
1043.920	-1645
1043.981	-1180
1044.041	-1771
1044.102	-1798
1044.162	-1523
1044.223	-1685
1044.284	-1627
1044.344	-1607
1044.405	-2524
1044.465	-1915
1044.525	-1380
1044.586	-1174
1044.646	-1813
1044.707	-1437
1044.767	-1587
1044.827	-1521
1044.887	-1730
1044.948	-859
1045.008	-1899
1045.068	-1509
1045.128	-1852
1045.188	-2073
1045.249	-189
1045.309	-2542
1045.369	-1750
1045.429	-1689
1045.489	-2389
1045.549	-1822
1045.609	-2119
1045.669	-1830
1045.729	-1685
1045.789	-2112
1045.848	-1609
1045.908	-910
1045.968	-2182
1046.028	-1661
1046.088	-1067
1046.147	-1568
1046.207	-1897
1046.267	-1616
1046.326	-1798
1046.386	-1137
1046.446	-1045
1046.505	-1436
1046.565	-1204
1046.624	-1088
1046.684	-1241
1046.743	-466
1046.803	-219
1046.862	-718
1046.922	0
