'Start Wavelength	183.907
'End Wavelength	1046.922
'Gate Delay	5.000
'Gate Width (ms)	1.050
'Laser Output Level	0.000
'X Position	0.000
'Y Position	0.000
'Z Position	0.000
'Grid Point Number	1.000
'Shot Number	100.000
183.907	707.000
183.977	-565.000
184.047	386
184.116	124
184.186	-565
184.256	-281
184.325	233
184.395	-590
184.465	1108
184.534	0
184.604	-1230
184.674	409
184.743	-384
184.813	613
184.883	-686
184.952	-178
185.022	12
185.092	-490
185.161	210
185.231	-472
185.301	525
185.370	202
185.440	-778
185.509	-542
185.579	412
185.649	-28
185.718	385
185.788	602
185.857	-392
185.927	-974
185.996	202
186.066	-466
186.136	337
186.205	564
186.275	167
186.344	-734
186.414	524
186.483	-591
186.553	1358
186.622	561
186.692	-75
186.761	257
186.831	358
186.900	-225
186.970	-65
187.039	488
187.109	569
187.178	463
187.248	-166
187.317	509
187.387	-1163
187.456	156
187.526	-201
187.595	-557
187.664	-362
187.734	451
187.803	-334
187.873	530
187.942	363
188.012	-383
188.081	147
188.150	162
188.220	467
188.289	162
188.358	-146
188.428	615
188.497	-225
188.567	267
188.636	-469
188.705	-75
188.775	689
188.844	-1201
188.913	1063
188.983	-671
189.052	407
189.121	-63
189.191	-851
189.260	-661
189.329	720
189.399	441
189.468	351
189.537	42
189.606	266
189.676	18
189.745	237
189.814	-318
189.883	-249
189.953	-1091
190.022	434
190.091	-92
190.161	355
190.230	1
190.299	71
190.368	-273
190.437	-297
190.507	-409
190.576	-919
190.645	-321
190.714	193
190.783	-1183
190.853	414
190.922	477
190.991	215
191.060	73
191.129	-446
191.198	500
191.268	-106
191.337	291
191.406	-130
191.475	45
191.544	193
191.613	462
191.682	-69
191.752	-696
191.821	-578
191.890	-77
191.959	555
192.028	-33
192.097	445
192.166	-643
192.235	-343
192.304	-93
192.373	-828
192.442	-513
192.511	-321
192.580	-814
192.650	430
192.719	-34
192.788	336
192.857	-240
192.926	-229
192.995	-216
193.064	-257
193.133	501
193.202	-699
193.271	-436
193.340	-279
193.409	223
193.478	154
193.547	-340
193.615	409
193.684	341
193.753	191
193.822	489
193.891	-680
193.960	-193
194.029	265
194.098	-363
194.167	-396
194.236	-34
194.305	-63
194.374	223
194.443	286
194.512	-369
194.580	136
194.649	241
194.718	-56
194.787	-238
194.856	-359
194.925	247
194.994	-345
195.062	-218
195.131	655
195.200	-742
195.269	374
195.338	391
195.407	-702
195.475	-775
195.544	-191
195.613	-756
195.682	40
195.751	-128
195.819	-173
195.888	66
195.957	617
196.026	-223
196.094	-6
196.163	2
196.232	-356
196.301	-139
196.369	-655
196.438	-632
196.507	-272
196.576	286
196.644	-265
196.713	-324
196.782	-189
196.850	-79
196.919	183
196.988	266
197.056	-457
197.125	-13
197.194	-332
197.262	-1042
197.331	-916
197.400	151
197.468	-178
197.537	-967
197.606	-317
197.674	204
197.743	-122
197.812	-672
197.880	-280
197.949	-345
198.017	-42
198.086	-344
198.155	-520
198.223	-49
198.292	-364
198.360	-389
198.429	-40
198.497	-246
198.566	219
198.635	241
198.703	179
198.772	56
198.840	-742
198.909	-382
198.977	-371
199.046	-812
199.114	-683
199.183	347
199.251	128
199.320	-804
199.388	197
199.457	-1018
199.525	-299
199.594	-197
199.662	-484
199.731	-576
199.799	511
199.867	-1006
199.936	-866
200.004	133
200.073	227
200.141	-36
200.210	60
200.278	-538
200.346	342
200.415	-374
200.483	-396
200.552	-311
200.620	-416
200.688	-41
200.757	253
200.825	-846
200.893	-227
200.962	-391
201.030	-622
201.098	-987
201.167	-225
201.235	-142
201.303	-1477
201.372	-899
201.440	-351
201.508	233
201.577	-466
201.645	-41
201.713	-86
201.781	-570
201.850	25
201.918	-5
201.986	-377
202.055	820
202.123	-97
202.191	-48
202.259	-363
202.327	-165
202.396	-351
202.464	-645
202.532	-25
202.600	773
202.669	373
202.737	-439
202.805	-381
202.873	71
202.941	-252
203.009	-679
203.078	-1102
203.146	93
203.214	-112
203.282	-531
203.350	499
203.418	-1494
203.487	-44
203.555	-690
203.623	-399
203.691	346
203.759	-622
203.827	-697
203.895	-880
203.963	-107
204.031	-337
204.099	117
204.168	21
204.236	-785
204.304	547
204.372	281
204.440	208
204.508	-1373
204.576	-608
204.644	-698
204.712	-946
204.780	-326
204.848	-161
204.916	-601
204.984	-220
205.052	24
205.120	-332
205.188	-851
205.256	1
205.324	-617
205.392	-1003
205.460	-282
205.528	-867
205.596	414
205.664	-837
205.732	-845
205.799	-209
205.867	-907
205.935	-1148
206.003	195
206.071	-574
206.139	-91
206.207	-708
206.275	435
206.343	-66
206.411	-350
206.478	159
206.546	-108
206.614	142
206.682	-708
206.750	-588
206.818	-406
206.885	1299
206.953	-1514
207.021	597
207.089	708
207.157	-46
207.225	481
207.292	-354
207.360	-759
207.428	-690
207.496	-813
207.563	168
207.631	-32
207.699	324
207.767	662
207.834	-502
207.902	-439
207.970	245
208.038	-541
208.105	415
208.173	-894
208.241	-1761
208.309	-727
208.376	-624
208.444	59
208.512	-530
208.579	-1254
208.647	875
208.715	623
208.782	-495
208.850	-188
208.918	-536
208.985	-1120
209.053	-174
209.120	-397
209.188	-702
209.256	-569
209.323	-533
209.391	-1382
209.459	1120
209.526	-474
209.594	-115
209.661	-254
209.729	-303
209.796	597
209.864	-237
209.932	-1363
209.999	1054
210.067	-457
210.134	317
210.202	64
210.269	836
210.337	-4
210.404	-610
210.472	-158
210.539	649
210.607	-684
210.674	-79
210.742	-630
210.809	-295
210.877	-713
210.944	128
211.012	-1124
211.079	1332
211.146	-843
211.214	-194
211.281	109
211.349	310
211.416	531
211.484	-114
211.551	-923
211.618	-473
211.686	-519
211.753	-920
211.821	458
211.888	-675
211.955	-149
212.023	-898
212.090	-299
212.157	-526
212.225	-684
212.292	-312
212.359	-115
212.427	-621
212.494	-786
212.561	70
212.629	-1300
212.696	295
212.763	-538
212.831	-1472
212.898	162
212.965	-1076
213.032	-456
213.100	-483
213.167	-1444
213.234	40
213.301	734
213.369	-501
213.436	-930
213.503	-477
213.570	147
213.638	-40
213.705	-765
213.772	-666
213.839	-808
213.906	4
213.973	-331
214.041	-856
214.108	-554
214.175	-152
214.242	-537
214.309	-35
214.376	-360
214.444	-1159
214.511	-895
214.578	-656
214.645	83
214.712	-173
214.779	-420
214.846	-1036
214.913	727
214.980	-356
215.048	-105
215.115	-457
215.182	-683
215.249	220
215.316	-761
215.383	848
215.450	-538
215.517	-73
215.584	-527
215.651	-394
215.718	-1010
215.785	-14
215.852	-549
215.919	105
215.986	-745
216.053	-435
216.120	-747
216.187	103
216.254	183
216.321	176
216.388	-693
216.455	-771
216.522	242
216.589	-519
216.656	-574
216.722	-292
216.789	-297
216.856	-388
216.923	-811
216.990	-117
217.057	-638
217.124	47
217.191	-726
217.258	12
217.324	-226
217.391	-726
217.458	-494
217.525	175
217.592	7
217.659	-653
217.725	1041
217.792	-590
217.859	387
217.926	-723
217.993	-1013
218.059	-97
218.126	-610
218.193	-1073
218.260	-211
218.327	-283
218.393	-366
218.460	-1099
218.527	-1143
218.594	-459
218.660	-1278
218.727	-133
218.794	-1448
218.860	-41
218.927	-807
218.994	110
219.061	-1528
219.127	-1360
219.194	-525
219.261	-320
219.327	25
219.394	1151
219.461	-1320
219.527	-57
219.594	302
219.661	-913
219.727	-1157
219.794	606
219.860	-1254
219.927	449
219.994	279
220.060	1046
220.127	1190
220.193	687
220.260	-932
220.326	-464
220.393	-983
220.460	-1117
220.526	-1360
220.593	-498
220.659	1512
220.726	-395
220.792	-118
220.859	-549
220.925	-1073
220.992	-871
221.058	52
221.125	666
221.191	-1739
221.258	-747
221.324	-56
221.391	-975
221.457	-938
221.524	-101
221.590	544
221.657	247
221.723	-1309
221.789	-289
221.856	653
221.922	-1114
221.989	697
222.055	-384
222.121	-1340
222.188	836
222.254	-127
222.321	-66
222.387	-1313
222.453	-936
222.520	-508
222.586	-596
222.652	235
222.719	-832
222.785	-507
222.851	-717
222.918	-342
222.984	-174
223.050	-1020
223.116	-1944
223.183	43
223.249	-846
223.315	-631
223.382	-426
223.448	43
223.514	-374
223.580	-481
223.647	-1792
223.713	-1594
223.779	-257
223.845	-682
223.911	-144
223.978	-941
224.044	-210
224.110	-888
224.176	-663
224.242	-410
224.309	-1259
224.375	121
224.441	242
224.507	-1154
224.573	-1143
224.639	98
224.705	-185
224.772	22
224.838	-1018
224.904	-320
224.970	196
225.036	-1226
225.102	-1008
225.168	299
225.234	185
225.300	-741
225.366	-5
225.432	-291
225.499	-189
225.565	-1479
225.631	-939
225.697	-861
225.763	-174
225.829	-155
225.895	-459
225.961	-864
226.027	-317
226.093	-1039
226.159	578
226.225	210
226.291	-661
226.357	-250
226.423	-419
226.489	-237
226.554	315
226.620	-934
226.686	-352
226.752	-460
226.818	-529
226.884	-897
226.950	97
227.016	125
227.082	-339
227.148	-799
227.214	-44
227.279	-165
227.345	-1259
227.411	-149
227.477	757
227.543	2799
227.609	3231
227.674	914
227.740	275
227.806	213
227.872	-476
227.938	-423
228.003	-564
228.069	-1158
228.135	-806
228.201	-272
228.267	-376
228.332	-36
228.398	-1658
228.464	63
228.530	-889
228.595	-1027
228.661	-938
228.727	-969
228.792	1369
228.858	-1092
228.924	-2245
228.990	1103
229.055	-1253
229.121	-444
229.187	-615
229.252	-1871
229.318	-405
229.384	395
229.449	-618
229.515	-1653
229.581	-1056
229.646	1033
229.712	-1417
229.777	-1129
229.843	-1063
229.909	-364
229.974	-292
230.040	-428
230.105	58
230.171	-1289
230.236	-859
230.302	-633
230.368	-1029
230.433	-1743
230.499	-428
230.564	400
230.630	-1429
230.695	-735
230.761	110
230.826	-1701
230.892	1074
230.957	-2019
231.023	-444
231.088	-838
231.154	-921
231.219	174
231.284	-825
231.350	-386
231.415	-752
231.481	42
231.546	-1671
231.612	-350
231.677	-624
231.742	-1778
231.808	1153
231.873	-1435
231.939	-2082
232.004	594
232.069	1351
232.135	-704
232.200	-721
232.265	425
232.331	-170
232.396	4
232.461	-352
232.527	-349
232.592	-993
232.657	-639
232.723	-836
232.788	-540
232.853	227
232.918	-596
232.984	-1026
233.049	-533
233.114	-1087
233.179	-236
233.245	-546
233.310	-28
233.375	-1871
233.440	172
233.506	85
233.571	-1191
233.636	-918
233.701	-329
233.766	-295
233.832	156
233.897	-78
233.962	-2218
234.027	440
234.092	544
234.157	-482
234.222	-524
234.288	-657
234.353	-841
234.418	161
234.483	-481
234.548	-638
234.613	-1213
234.678	-458
234.743	-1218
234.808	868
234.873	-1027
234.938	830
235.004	-593
235.069	-425
235.134	-1373
235.199	-561
235.264	77
235.329	-888
235.394	-96
235.459	433
235.524	-1159
235.589	433
235.654	-1079
235.719	-1134
235.784	-1282
235.849	-634
235.913	-481
235.978	-342
236.043	-245
236.108	-60
236.173	-2513
236.238	-198
236.303	-540
236.368	-439
236.433	-216
236.498	-719
236.563	-396
236.627	-455
236.692	-389
236.757	-318
236.822	-1266
236.887	-1535
236.952	-98
237.017	-1518
237.081	617
237.146	-2106
237.211	-226
237.276	-504
237.341	-472
237.405	-859
237.470	-292
237.535	-1042
237.600	-352
237.664	8
237.729	-1607
237.794	-1363
237.859	3
237.923	-912
237.988	-992
238.053	-54
238.118	-723
238.182	-537
238.247	592
238.312	-1405
238.376	-209
238.441	-1615
238.506	507
238.570	-1341
238.635	11
238.700	-50
238.764	-1541
238.829	-222
238.893	-1449
238.958	-75
239.023	-750
239.087	-741
239.152	296
239.216	-694
239.281	-376
239.346	-222
239.410	-926
239.475	-948
239.539	-282
239.604	-1630
239.668	1193
239.733	373
239.797	1117
239.862	6792
239.926	3281
239.991	903
240.055	339
240.120	-1012
240.184	239
240.249	-962
240.313	-572
240.378	-1113
240.442	-11
240.507	-85
240.571	-244
240.635	-905
240.700	-568
240.764	-665
240.829	-607
240.893	-1855
240.957	35
241.022	57
241.086	146
241.151	-1800
241.215	-1944
241.279	278
241.344	-323
241.408	-91
241.472	-1002
241.537	112
241.601	-313
241.665	-1566
241.730	-1479
241.794	379
241.858	-826
241.922	-622
241.987	-766
242.051	-1101
242.115	-1096
242.179	-62
242.244	-1823
242.308	62
242.372	-1307
242.436	-1367
242.501	94
242.565	-1044
242.629	-816
242.693	545
242.757	-1306
242.822	-1290
242.886	-693
242.950	238
243.014	-581
243.078	-867
243.142	-510
243.206	-847
243.271	-763
243.335	-1206
243.399	300
243.463	-318
243.527	-335
243.591	-1097
243.655	-513
243.719	-1765
243.783	376
243.847	-161
243.911	291
243.975	-1220
244.040	-2022
244.104	280
244.168	-417
244.232	-253
244.296	-1067
244.360	-109
244.424	-1786
244.488	325
244.552	-395
244.615	-2235
244.679	-517
244.743	-563
244.807	-1284
244.871	-230
244.935	-382
244.999	-1906
245.063	-1546
245.127	105
245.191	-506
245.255	-1177
245.319	-305
245.383	-1927
245.446	368
245.510	-1250
245.574	-178
245.638	-476
245.702	-2272
245.766	-115
245.829	468
245.893	-369
245.957	-1519
246.021	570
246.085	-641
246.149	-281
246.212	422
246.276	-590
246.340	-674
246.404	-297
246.467	291
246.531	-1820
246.595	67
246.659	398
246.722	-1295
246.786	-672
246.850	-798
246.913	-672
246.977	-1478
247.041	-819
247.104	-1171
247.168	92
247.232	-769
247.295	486
247.359	173
247.423	-283
247.486	-169
247.550	289
247.614	-725
247.677	-418
247.741	-1176
247.804	118
247.868	1444
247.932	-479
247.995	1653
248.059	-68
248.122	-2028
248.186	504
248.249	-1
248.313	1528
248.376	2185
248.440	650
248.503	-1380
248.567	1403
248.630	-1339
248.694	-768
248.757	360
248.821	1681
248.884	1802
248.948	-551
249.011	943
249.075	2668
249.138	2044
249.202	-360
249.265	-693
249.328	492
249.392	-1616
249.455	323
249.519	-600
249.582	-1214
249.645	-696
249.709	239
249.772	-520
249.835	-454
249.899	-933
249.962	191
250.025	-466
250.089	183
250.152	386
250.215	-363
250.279	-1203
250.342	-202
250.405	-153
250.468	-913
250.532	-840
250.595	62
250.658	-492
250.721	2327
250.785	-495
250.848	1265
250.911	-1521
250.974	-509
251.038	-642
251.101	1042
251.164	595
251.227	651
251.290	-941
251.354	-90
251.417	961
251.480	1867
251.543	-50
251.606	4100
251.669	2953
251.732	55
251.795	759
251.859	831
251.922	831
251.985	382
252.048	-72
252.111	-602
252.174	-1306
252.237	426
252.300	2253
252.363	977
252.426	3666
252.489	202
252.552	-851
252.615	-812
252.678	-256
252.741	1874
252.804	451
252.867	2803
252.930	1839
252.993	724
253.056	79
253.119	-36
253.182	-968
253.245	-11
253.308	495
253.371	-942
253.434	190
253.497	448
253.559	1007
253.622	235
253.685	258
253.748	-1002
253.811	-901
253.874	372
253.937	-1005
254.000	-431
254.062	-601
254.125	188
254.188	566
254.251	-368
254.314	-1464
254.376	-512
254.439	-319
254.502	-522
254.565	-627
254.628	1765
254.690	-596
254.753	-149
254.816	-666
254.878	-838
254.941	340
255.004	614
255.067	-503
255.129	-698
255.192	-121
255.255	-695
255.317	-816
255.380	313
255.443	-670
255.505	266
255.568	-1442
255.631	-1282
255.693	-779
255.756	-1067
255.819	562
255.881	-25
255.944	184
256.006	49
256.069	-815
256.132	-905
256.194	-340
256.257	-837
256.319	-524
256.382	-739
256.444	574
256.507	-165
256.569	-1766
256.632	-637
256.694	-759
256.757	147
256.819	132
256.882	-1685
256.944	-1166
257.007	-255
257.069	-612
257.132	-642
257.194	387
257.257	-897
257.319	-690
257.381	-810
257.444	-299
257.506	136
257.569	290
257.631	447
257.693	-114
257.756	-246
257.818	-670
257.880	-428
257.943	126
258.005	-682
258.067	-629
258.130	76
258.192	-396
258.254	-1215
258.317	-720
258.379	-76
258.441	-936
258.503	327
258.566	205
258.628	206
258.690	-1077
258.753	30
258.815	-343
258.877	-425
258.939	-449
259.001	737
259.064	-621
259.126	-683
259.188	-450
259.250	-97
259.312	-649
259.375	-453
259.437	-712
259.499	-493
259.561	-497
259.623	69
259.685	-927
259.747	-317
259.809	290
259.872	-278
259.934	1026
259.996	1135
260.058	-385
260.120	-1344
260.182	-522
260.244	-495
260.306	-844
260.368	469
260.430	-1819
260.492	-357
260.554	-146
260.616	-731
260.678	337
260.740	648
260.802	-212
260.864	-397
260.926	-1903
260.988	598
261.050	-535
261.112	-1127
261.174	448
261.236	190
261.298	-520
261.359	-598
261.421	-4
261.483	-1251
261.545	42
261.607	-747
261.669	-181
261.731	-40
261.793	49
261.854	-1212
261.916	-276
261.978	-1019
262.040	-699
262.102	59
262.164	-960
262.225	-423
262.287	-366
262.349	-581
262.411	-1373
262.472	245
262.534	-1059
262.596	-250
262.658	58
262.719	-665
262.781	389
262.843	-462
262.904	-501
262.966	-956
263.028	-11
263.090	23
263.151	359
263.213	566
263.275	-541
263.336	-445
263.398	496
263.459	-304
263.521	-1036
263.583	-253
263.644	-48
263.706	-384
263.767	-1309
263.829	584
263.891	-681
263.952	-476
264.014	-798
264.075	-1235
264.137	-184
264.198	407
264.260	-437
264.321	-222
264.383	-370
264.444	747
264.506	-736
264.567	-322
264.629	343
264.690	-1023
264.752	-469
264.813	-526
264.875	-1114
264.936	560
264.998	-815
265.059	-231
265.120	-247
265.182	-617
265.243	-766
265.305	-490
265.366	-323
265.427	33
265.489	3
265.550	-1832
265.611	-1243
265.673	-1073
265.734	-450
265.795	-313
265.857	-735
265.918	-937
265.979	-217
266.040	-476
266.102	-104
266.163	124
266.224	96
266.286	-672
266.347	-512
266.408	-318
266.469	218
266.530	297
266.592	-226
266.653	96
266.714	-397
266.775	-310
266.836	-504
266.898	-680
266.959	-35
267.020	-81
267.081	1333
267.142	-287
267.203	65
267.264	-206
267.326	817
267.387	-192
267.448	-830
267.509	560
267.570	-411
267.631	-303
267.692	-1111
267.753	-297
267.814	-935
267.875	98
267.936	919
267.997	-667
268.058	-815
268.119	-615
268.180	-231
268.241	-1322
268.302	-708
268.363	-380
268.424	-998
268.485	-659
268.546	-219
268.607	346
268.668	-159
268.729	-496
268.790	-1477
268.851	-400
268.912	-1258
268.972	-84
269.033	-610
269.094	-119
269.155	-89
269.216	-274
269.277	-609
269.338	-15
269.398	-168
269.459	-831
269.520	33
269.581	-1058
269.642	-640
269.702	-990
269.763	-393
269.824	-970
269.885	-340
269.945	-879
270.006	-525
270.067	-864
270.128	-1050
270.188	-794
270.249	-1223
270.310	-582
270.370	535
270.431	-280
270.492	-908
270.553	-401
270.613	-767
270.674	115
270.734	-255
270.795	-801
270.856	-31
270.916	-487
270.977	-128
271.038	244
271.098	-944
271.159	-689
271.219	-1341
271.280	-253
271.340	296
271.401	-785
271.462	-970
271.522	-190
271.583	-882
271.643	-397
271.704	-242
271.764	6
271.825	-777
271.885	1559
271.946	3334
272.006	14
272.066	695
272.127	3805
272.187	2887
272.248	1081
272.308	-294
272.369	1168
272.429	1006
272.489	-398
272.550	-638
272.610	494
272.671	186
272.731	-153
272.791	-252
272.852	-1145
272.912	-58
272.972	-36
273.033	109
273.093	33
273.153	719
273.214	636
273.274	13
273.334	1096
273.394	2343
273.455	1222
273.515	1860
273.575	1849
273.635	1702
273.696	2972
273.756	3746
273.816	2915
273.876	1763
273.936	1205
273.997	949
274.057	264
274.117	-511
274.177	726
274.237	1842
274.297	1727
274.358	685
274.418	952
274.478	778
274.538	-454
274.598	-569
274.658	404
274.718	-198
274.778	-172
274.838	-849
274.898	-247
274.958	899
275.018	2131
275.078	1268
275.138	194
275.198	-618
275.258	-344
275.318	45
275.378	-226
275.438	-931
275.498	364
275.558	-161
275.618	1189
275.678	362
275.738	123
275.798	-178
275.858	-662
275.918	-618
275.978	-827
276.038	261
276.098	-162
276.157	-882
276.217	816
276.277	-68
276.337	-133
276.397	310
276.457	222
276.517	-174
276.576	-101
276.636	-132
276.696	91
276.756	-40
276.815	358
276.875	398
276.935	291
276.995	415
277.055	113
277.114	970
277.174	387
277.234	852
277.293	470
277.353	-62
277.413	257
277.472	-196
277.532	598
277.592	1925
277.651	6436
277.711	16635
277.771	4843
277.830	14488
277.890	14922
277.950	7777
278.009	27806
278.069	12182
278.128	11213
278.188	18260
278.248	7754
278.307	16982
278.367	13182
278.426	2950
278.486	1841
278.545	566
278.605	939
278.664	456
278.724	982
278.783	789
278.843	3911
278.902	1929
278.962	937
279.021	1360
279.081	4339
279.140	4247
279.199	2378
279.259	2285
279.318	3933
279.378	6333
279.437	10791
279.496	25351
279.556	109915
279.615	94876
279.675	26489
279.734	13187
279.793	12018
279.853	14541
279.912	7410
279.971	5430
280.031	4173
280.090	5791
280.149	10468
280.208	14252
280.268	71207
280.327	79380
280.386	20061
280.445	8803
280.505	5743
280.564	4157
280.623	2937
280.682	3070
280.742	2769
280.801	1521
280.860	1751
280.919	1706
280.978	1667
281.037	1597
281.097	277
281.156	2271
281.215	1148
281.274	1433
281.333	1249
281.392	1824
281.451	1371
281.510	454
281.569	681
281.628	-49
281.688	1366
281.747	1425
281.806	-318
281.865	773
281.924	757
281.983	452
282.042	727
282.101	357
282.160	906
282.219	-270
282.278	61
282.337	193
282.396	1276
282.454	1641
282.513	480
282.572	1653
282.631	-71
282.690	373
282.749	-387
282.808	476
282.867	1206
282.926	315
282.985	1413
283.043	483
283.102	464
283.161	460
283.220	997
283.279	2119
283.338	1065
283.396	763
283.455	1131
283.514	1108
283.573	1789
283.631	1874
283.690	1901
283.749	397
283.808	1370
283.866	1644
283.925	1755
283.984	1920
284.043	2501
284.101	2032
284.160	2462
284.219	2989
284.277	2992
284.336	3302
284.395	4582
284.453	4432
284.512	5061
284.570	6164
284.629	6982
284.688	8685
284.746	10293
284.805	12896
284.863	16877
284.922	22586
284.981	28170
285.039	37607
285.098	55233
285.156	82938
285.215	76025
285.273	63393
285.332	85686
285.390	68996
285.449	46797
285.507	32547
285.566	24281
285.624	17849
285.683	14570
285.741	10607
285.799	8912
285.858	7661
285.916	6353
285.975	5449
286.033	4184
286.091	4677
286.150	4101
286.208	4758
286.267	2703
286.325	2529
286.383	2346
286.442	2691
286.500	2165
286.558	1731
286.616	1337
286.675	1516
286.733	1205
286.791	676
286.850	2256
286.908	1129
286.966	1170
287.024	915
287.083	946
287.141	1216
287.199	1797
287.257	1150
287.315	1638
287.374	1093
287.432	997
287.490	1189
287.548	185
287.606	931
287.664	647
287.723	601
287.781	1067
287.839	726
287.897	241
287.955	428
288.013	143
288.071	1576
288.129	2013
288.187	8695
288.245	4029
288.303	1570
288.361	-296
288.419	-277
288.477	537
288.535	735
288.593	237
288.651	-283
288.709	224
288.767	262
288.825	-409
288.883	609
288.941	117
288.999	601
289.057	-11
289.115	-344
289.173	-15
289.231	-116
289.289	-492
289.346	-60
289.404	-590
289.462	-121
289.520	54
289.578	116
289.636	-14
289.694	-175
289.751	-48
289.809	110
289.867	377
289.925	115
289.983	650
290.040	-608
290.098	319
290.156	446
290.214	96
290.271	-103
290.329	561
290.387	-508
290.444	3
290.502	64
290.560	325
290.617	492
290.675	381
290.733	442
290.790	-123
290.848	413
290.906	-10
290.963	-434
291.021	53
291.078	-587
291.136	-489
291.194	-126
291.251	489
291.309	48
291.366	-49
291.424	-371
291.481	169
291.539	543
291.596	938
291.654	-257
291.711	775
291.769	-30
291.826	244
291.884	884
291.941	-178
291.999	-256
292.056	346
292.114	23
292.171	-189
292.228	-74
292.286	477
292.343	-338
292.401	-14
292.458	-162
292.515	269
292.573	168
292.630	-62
292.687	1459
292.745	-330
292.802	-897
292.859	250
292.917	1113
292.974	551
293.031	167
293.089	396
293.146	808
293.203	-235
293.260	-271
293.318	-1035
293.375	-344
293.432	84
293.489	-239
293.546	105
293.604	668
293.661	1875
293.718	4572
293.775	1776
293.832	1731
293.889	2787
293.947	1639
294.004	403
294.061	-642
294.118	-10
294.175	1210
294.232	4187
294.289	2216
294.346	444
294.403	170
294.460	-97
294.517	-308
294.574	96
294.631	-310
294.688	-224
294.745	193
294.802	2148
294.859	2047
294.916	73
294.973	208
295.030	-311
295.087	-623
295.144	-264
295.201	216
295.258	-401
295.315	-418
295.372	332
295.429	1496
295.486	212
295.542	-879
295.599	153
295.656	-380
295.713	524
295.770	1013
295.827	-237
295.883	336
295.940	-529
295.997	-190
296.054	-475
296.111	-484
296.167	471
296.224	-67
296.281	-971
296.338	-1261
296.394	-383
296.451	-1008
296.508	397
296.564	15
296.621	763
296.678	1828
296.734	5169
296.791	1544
296.848	16
296.904	-31
296.961	-50
297.018	387
297.074	974
297.131	163
297.187	423
297.244	186
297.301	1278
297.357	6392
297.414	1740
297.470	933
297.527	-652
297.583	-221
297.640	235
297.696	-830
297.753	-269
297.809	-249
297.866	-672
297.922	10
297.979	-303
298.035	-316
298.092	173
298.148	239
298.204	469
298.261	-286
298.317	1018
298.374	3810
298.430	2563
298.486	257
298.543	-172
298.599	-598
298.656	-283
298.712	-406
298.768	39
298.824	-24
298.881	181
298.937	775
298.993	861
299.050	-131
299.106	-237
299.162	-746
299.218	745
299.275	41
299.331	718
299.387	183
299.443	4224
299.500	9878
299.556	8356
299.612	2476
299.668	1480
299.724	6876
299.780	9925
299.837	3736
299.893	2339
299.949	5219
300.005	10662
300.061	6048
300.117	13272
300.173	5815
300.229	2110
300.285	349
300.341	877
300.397	798
300.453	365
300.510	273
300.566	951
300.622	1973
300.678	10002
300.734	17729
300.790	7392
300.845	4955
300.901	6325
300.957	11071
301.013	5508
301.069	2179
301.125	1716
301.181	-433
301.237	211
301.293	256
301.349	368
301.405	148
301.461	147
301.516	-168
301.572	-93
301.628	-235
301.684	-459
301.740	23
301.796	746
301.851	729
301.907	382
301.963	587
302.019	2382
302.074	9820
302.130	11469
302.186	4942
302.242	2022
302.297	1017
302.353	494
302.409	166
302.464	769
302.520	191
302.576	1778
302.631	2124
302.687	-8
302.743	113
302.798	694
302.854	-523
302.910	-402
302.965	-513
303.021	-358
303.076	445
303.132	-462
303.187	-84
303.243	-770
303.299	-1489
303.354	-1013
303.410	-161
303.465	-259
303.521	-403
303.576	223
303.632	35
303.687	-355
303.743	2070
303.798	2483
303.853	442
303.909	72
303.964	-372
304.020	-363
304.075	-124
304.130	-22
304.186	44
304.241	682
304.297	-512
304.352	44
304.358	-15
304.407	-498
304.449	-171
304.463	-57
304.518	-63
304.539	-270
304.573	-615
304.629	63
304.630	66
304.684	208
304.720	1057
304.739	1472
304.794	4039
304.811	3366
304.850	1796
304.902	668
304.905	592
304.960	-614
304.992	-229
305.015	84
305.071	-142
305.083	-108
305.126	-89
305.173	-384
305.181	-413
305.236	81
305.264	75
305.292	55
305.347	-320
305.354	-355
305.402	-573
305.445	-12
305.457	121
305.512	-678
305.535	-396
305.567	59
305.622	-917
305.626	-882
305.678	-287
305.716	386
305.733	685
305.788	2018
305.807	1709
305.843	1051
305.897	1537
305.898	1544
305.953	2963
305.988	2177
306.008	1683
306.063	529
306.078	380
306.118	179
306.168	-766
306.173	-877
306.228	169
306.259	-219
306.283	-399
306.338	-19
306.349	-86
306.393	-517
306.440	-267
306.448	-177
306.503	263
306.530	99
306.558	-204
306.613	-528
306.620	-493
306.668	33
306.711	470
306.723	494
306.778	924
306.801	597
306.833	327
306.888	168
306.892	172
306.943	169
306.982	156
306.997	127
307.052	-88
307.072	7
307.107	276
307.162	386
307.163	380
307.217	-7
307.253	52
307.272	9
307.327	482
307.343	378
307.381	293
307.434	415
307.436	415
307.491	146
307.524	-21
307.546	-85
307.600	810
307.614	637
307.655	96
307.704	368
307.710	392
307.765	14
307.795	312
307.819	633
307.874	243
307.885	308
307.929	670
307.975	1053
307.984	1083
308.038	815
308.065	866
308.093	1476
308.148	2556
308.156	3024
308.202	4873
308.246	5742
308.257	5800
308.312	3386
308.336	2578
308.366	1865
308.421	1289
308.426	1263
308.475	1412
308.517	1551
308.530	1557
308.585	1292
308.607	1480
308.639	1805
308.694	1618
308.697	1618
308.748	1730
308.787	1897
308.803	1964
308.857	2390
308.877	2387
308.912	2677
308.967	3957
308.967	3982
309.021	7277
309.058	9718
309.076	10804
309.130	15505
309.148	16744
309.185	21143
309.238	26823
309.239	26917
309.293	35737
309.328	39028
309.348	37014
309.402	24634
309.418	21210
309.457	16827
309.508	12274
309.511	12310
309.566	15902
309.598	19274
309.620	24253
309.674	39903
309.688	44617
309.729	44775
309.778	36109
309.783	35140
309.837	21223
309.868	14512
309.892	12144
309.946	8515
309.959	8035
310.001	6861
310.049	5705
310.055	5533
310.109	4021
310.139	3501
310.163	3130
310.218	2233
310.229	2053
310.272	2127
310.319	2291
310.326	2170
310.381	1604
310.409	1116
310.435	924
310.489	921
310.499	873
310.543	681
310.589	590
310.598	627
310.652	1036
310.679	1176
310.706	1115
310.760	758
310.769	746
310.814	1120
310.859	1433
310.868	1368
310.923	805
310.948	597
310.977	744
311.031	1125
311.038	1173
311.085	605
311.128	-97
311.139	27
311.193	874
311.218	1231
311.247	1178
311.301	1091
311.308	1080
311.356	963
311.398	763
311.410	719
311.464	584
311.488	541
311.518	712
311.572	967
311.578	989
311.626	1120
311.668	1307
311.680	1306
311.734	1191
311.758	1176
311.788	930
311.842	433
311.847	382
311.896	830
311.937	1231
311.950	1095
312.004	481
312.027	220
312.058	327
312.112	525
312.117	549
312.165	741
312.207	913
312.297	534
312.386	503
312.476	854
312.566	1103
312.656	1118
312.745	394
312.835	618
312.925	404
313.015	717
313.104	959
313.194	1425
313.284	630
313.374	1601
313.463	1108
313.553	1256
313.643	1149
313.732	1482
313.822	535
313.912	1803
314.001	1348
314.091	2100
314.180	972
314.270	883
314.360	1669
314.449	1832
314.539	504
314.628	1852
314.718	1649
314.808	1522
314.897	1861
314.987	1962
315.076	1816
315.166	1862
315.255	1678
315.345	2337
315.434	2034
315.524	1653
315.613	1563
315.703	3359
315.792	10060
315.881	32213
315.971	8867
316.060	3946
316.150	1668
316.239	2534
316.328	1106
316.418	1675
316.507	1500
316.597	2316
316.686	2270
316.775	1479
316.865	1280
316.954	1902
317.043	1609
317.133	1930
317.222	929
317.311	1854
317.400	103
317.490	3066
317.579	1341
317.668	2034
317.757	4510
317.847	19071
317.936	48549
318.025	14083
318.114	12812
318.203	5296
318.293	2609
318.382	2746
318.471	2615
318.560	2355
318.649	2514
318.738	1726
318.828	925
318.917	665
319.006	995
319.095	1293
319.184	1834
319.273	2180
319.362	792
319.451	1180
319.540	658
319.629	798
319.718	851
319.807	1143
319.896	1126
319.985	3148
320.074	1452
320.163	1132
320.252	1529
320.341	1775
320.430	438
320.519	1879
320.608	1121
320.697	2256
320.786	2051
320.875	3088
320.964	2372
321.053	2949
321.142	2166
321.230	3894
321.319	3952
321.408	5135
321.497	4417
321.586	4195
321.675	2408
321.764	2848
321.852	2399
321.941	3178
322.030	1588
322.119	3839
322.207	3852
322.296	4366
322.385	4887
322.474	6923
322.562	7335
322.651	5683
322.740	3035
322.829	3706
322.917	2183
323.006	2443
323.095	1403
323.183	2301
323.272	912
323.361	1280
323.449	2088
323.538	1702
323.626	1888
323.715	1610
323.804	645
323.892	1139
323.981	851
324.069	2307
324.158	1567
324.246	1991
324.335	603
324.424	1120
324.512	1016
324.601	1335
324.689	1141
324.778	1268
324.866	1043
324.954	1413
325.043	696
325.131	779
325.220	1932
325.308	1738
325.397	656
325.485	1279
325.574	319
325.662	697
325.750	96
325.839	1910
325.927	482
326.015	1111
326.104	533
326.192	1643
326.280	233
326.369	704
326.457	1418
326.545	797
326.634	1056
326.722	1469
326.810	699
326.898	1947
326.987	993
327.075	81
327.163	1120
327.251	899
327.340	1236
327.428	3316
327.516	1574
327.604	1540
327.692	738
327.781	1242
327.869	-30
327.957	1154
328.045	-46
328.133	670
328.221	497
328.309	1366
328.397	1068
328.485	1359
328.574	2013
328.662	3704
328.750	995
328.838	1264
328.926	1439
329.014	2011
329.102	470
329.190	1713
329.278	136
329.366	1201
329.454	268
329.542	1403
329.630	159
329.718	1913
329.806	535
329.893	695
329.981	525
330.069	1365
330.157	872
330.245	1801
330.333	963
330.421	1353
330.509	256
330.597	1377
330.684	573
330.772	1188
330.860	646
330.948	1033
331.036	1219
331.123	815
331.211	142
331.299	1524
331.387	998
331.475	1290
331.562	763
331.650	1122
331.738	495
331.825	895
331.913	349
332.001	1361
332.089	388
332.176	985
332.264	787
332.352	706
332.439	552
332.527	1351
332.614	245
332.702	1407
332.790	984
332.877	2613
332.965	4578
333.052	3944
333.140	5860
333.228	13492
333.315	3016
333.403	2121
333.490	2270
333.578	6141
333.665	20078
333.753	7073
333.840	1838
333.928	1995
334.015	1336
334.103	2611
334.190	3367
334.278	5301
334.365	6102
334.452	8113
334.540	3856
334.627	3306
334.715	4886
334.802	6919
334.889	12682
334.977	18967
335.064	11962
335.151	4329
335.239	3335
335.326	2476
335.413	3675
335.501	2442
335.588	2644
335.675	3184
335.762	3676
335.850	5210
335.937	7660
336.024	15310
336.111	25345
336.199	25214
336.286	9378
336.373	4845
336.460	3082
336.547	2907
336.635	2006
336.722	1058
336.809	913
336.896	1548
336.983	2020
337.070	2480
337.157	1773
337.245	2165
337.332	1825
337.419	1748
337.506	773
337.593	1638
337.680	845
337.767	1433
337.854	553
337.941	1529
338.028	1298
338.115	737
338.202	1513
338.289	1355
338.376	417
338.463	1704
338.550	956
338.637	2279
338.724	491
338.811	1403
338.898	1273
338.984	444
339.071	-436
339.158	1440
339.245	824
339.332	1528
339.419	1051
339.506	1048
339.593	-62
339.679	2039
339.766	270
339.853	915
339.940	1334
340.027	601
340.113	163
340.200	1716
340.287	37
340.374	142
340.460	1418
340.547	127
340.634	1070
340.720	2040
340.807	523
340.894	1232
340.980	1248
341.067	1156
341.154	1017
341.240	1415
341.327	946
341.414	2199
341.500	51
341.587	1621
341.674	1033
341.760	1174
341.847	142
341.933	1646
342.020	-327
342.106	1177
342.193	1041
342.279	1220
342.366	581
342.452	657
342.539	1079
342.625	1325
342.712	1205
342.798	731
342.885	77
342.971	928
343.058	772
343.144	1492
343.230	1079
343.317	1675
343.403	197
343.490	1534
343.576	-11
343.662	1276
343.749	-638
343.835	1012
343.921	1330
344.008	6050
344.094	9876
344.180	2152
344.267	871
344.353	1451
344.439	2026
344.525	1133
344.612	1161
344.698	1323
344.784	371
344.870	1500
344.957	556
345.043	1682
345.129	-52
345.215	1074
345.301	178
345.387	600
345.474	311
345.560	1112
345.646	-127
345.732	1658
345.818	179
345.904	797
345.990	789
346.076	877
346.162	1224
346.249	1736
346.335	217
346.421	1281
346.507	933
346.593	3146
346.679	337
346.765	1812
346.851	2220
346.937	1220
347.023	895
347.108	1483
347.194	577
347.280	2069
347.366	1508
347.452	6199
347.538	5894
347.624	5156
347.710	2022
347.796	2155
347.882	570
347.967	1217
348.053	1142
348.139	1470
348.225	611
348.311	414
348.397	896
348.482	1786
348.568	1143
348.654	2318
348.740	7273
348.825	5392
348.911	2548
348.997	3442
349.083	3640
349.168	961
349.254	522
349.340	1685
349.425	326
349.511	1157
349.597	690
349.682	1040
349.768	2179
349.854	1368
349.939	1336
350.025	889
350.110	959
350.196	847
350.282	-51
350.367	2274
350.453	150
350.538	1131
350.624	94
350.709	1394
350.795	-13
350.880	168
350.966	1029
351.051	1096
351.137	793
351.222	1370
351.308	1228
351.393	2130
351.479	764
351.564	883
351.649	463
351.735	1731
351.820	953
351.906	663
351.991	134
352.076	1886
352.162	1205
352.247	1758
352.332	1214
352.418	913
352.503	875
352.588	2417
352.673	671
352.759	731
352.844	30
352.929	1798
353.014	-124
353.100	1426
353.185	545
353.270	472
353.355	871
353.441	1228
353.526	356
353.611	1002
353.696	619
353.781	1739
353.866	-162
353.952	2202
354.037	201
354.122	2241
354.207	1189
354.292	1377
354.377	916
354.462	1024
354.547	-73
354.632	2275
354.717	1394
354.802	348
354.887	306
354.972	1185
355.057	336
355.142	997
355.227	266
355.312	570
355.397	433
355.482	2018
355.567	760
355.652	2028
355.737	1687
355.822	2362
355.907	751
355.991	2442
356.076	-164
356.161	905
356.246	450
356.331	1552
356.416	525
356.501	6086
356.585	3391
356.670	1016
356.755	2570
356.840	2552
356.924	5021
357.009	10578
357.094	3892
357.179	717
357.263	569
357.348	2245
357.433	807
357.517	1946
357.602	202
357.687	997
357.771	1006
357.856	980
357.941	2117
358.025	4777
358.110	15365
358.195	6049
358.279	787
358.364	1379
358.448	1784
358.533	3610
358.617	2127
358.702	2474
358.787	1160
358.871	1693
358.956	1801
359.040	1605
359.125	1538
359.209	1270
359.294	863
359.378	2624
359.462	1178
359.547	1723
359.631	1079
359.716	351
359.800	501
359.885	1984
359.969	-316
360.053	2281
360.138	3
360.222	1045
360.306	-172
360.391	1788
360.475	913
360.559	1193
360.644	2219
360.728	405
360.812	4120
360.896	6888
360.981	2198
361.065	872
361.149	1545
361.233	2153
361.318	163
361.402	1521
361.486	1872
361.570	1630
361.654	775
361.739	1826
361.823	4388
361.907	8243
361.991	1596
362.075	2414
362.159	1694
362.243	7522
362.327	17495
362.411	30502
362.495	9778
362.580	5061
362.664	3924
362.748	3886
362.832	7722
362.916	15493
363.000	50710
363.084	71658
363.168	26192
363.252	7235
363.336	4668
363.420	3756
363.503	3069
363.587	3209
363.671	2331
363.755	2107
363.839	3851
363.923	2093
364.007	4164
364.091	5513
364.175	6748
364.258	22771
364.342	54067
364.426	106447
364.510	50053
364.594	14235
364.677	7184
364.761	7998
364.845	5045
364.929	2637
365.013	1592
365.096	2620
365.180	1341
365.264	2483
365.347	3811
365.431	1584
365.515	116
365.598	485
365.682	3043
365.766	621
365.849	1158
365.933	1083
366.017	2312
366.100	1454
366.184	469
366.267	2176
366.351	1407
366.435	1081
366.518	922
366.602	1468
366.685	1717
366.769	1524
366.852	2007
366.936	1708
367.019	1861
367.103	890
367.186	1912
367.270	1672
367.353	216
367.436	3041
367.520	2060
367.603	2282
367.687	-226
367.770	2025
367.853	2838
367.937	3341
368.020	2461
368.104	1163
368.187	2042
368.270	1519
368.353	963
368.437	1708
368.520	2247
368.603	1425
368.687	58
368.770	2914
368.853	1002
368.936	2392
369.020	2435
369.103	1026
369.186	57
369.269	1002
369.352	1959
369.436	1301
369.519	1188
369.602	-444
369.685	2853
369.768	-38
369.851	1665
369.934	1506
370.018	1022
370.101	-313
370.184	3937
370.267	2355
370.350	1567
370.433	1983
370.516	7757
370.599	19916
370.682	5856
370.765	4367
370.848	3448
370.931	3515
371.014	3236
371.097	1176
371.180	1520
371.263	3275
371.346	105
371.429	3302
371.511	1261
371.594	2309
371.677	2810
371.760	3944
371.843	2797
371.926	8825
372.009	14918
372.091	9794
372.174	4099
372.257	6915
372.340	3745
372.423	4426
372.505	5006
372.588	2987
372.671	2975
372.754	3428
372.836	3128
372.919	3481
373.002	4502
373.085	1744
373.167	3634
373.250	3711
373.332	4857
373.415	9807
373.498	16069
373.580	11816
373.663	30811
373.746	27554
373.828	4883
373.911	4004
373.993	1739
374.076	3164
374.159	1952
374.241	3028
374.324	3614
374.406	3887
374.489	5212
374.571	12095
374.654	3872
374.736	4401
374.819	6659
374.901	12671
374.983	10068
375.066	4214
375.148	2184
375.231	2852
375.313	4281
375.395	3116
375.478	3527
375.560	3512
375.643	2578
375.725	4422
375.807	7574
375.890	7156
375.972	725
376.054	3286
376.136	2593
376.219	2038
376.301	3803
376.383	5216
376.465	2560
376.548	1606
376.630	1887
376.712	5310
376.794	2084
376.877	1650
376.959	934
377.041	1809
377.123	398
377.205	971
377.287	1082
377.369	2442
377.452	1803
377.534	2466
377.616	769
377.698	1233
377.780	728
377.862	2241
377.944	2466
378.026	1214
378.108	1400
378.190	1972
378.272	2183
378.354	2112
378.436	1064
378.518	1285
378.600	1543
378.682	2132
378.764	1903
378.846	3238
378.928	637
379.010	1674
379.091	1790
379.173	1737
379.255	1227
379.337	1639
379.419	1374
379.501	4223
379.583	2031
379.664	1409
379.746	588
379.828	4197
379.910	1702
379.991	3147
380.073	2036
380.155	2659
380.237	1215
380.318	1787
380.400	1306
380.482	2899
380.564	1233
380.645	2400
380.727	1602
380.809	3310
380.890	1719
380.972	1173
381.053	2590
381.135	3840
381.217	1802
381.298	4765
381.380	1781
381.461	3276
381.543	5192
381.624	7123
381.706	2630
381.787	3090
381.869	3328
381.951	6096
382.032	12251
382.113	11158
382.195	2932
382.276	6703
382.358	4781
382.439	7213
382.521	11442
382.602	15380
382.684	13498
382.765	23288
382.846	67397
382.928	136836
383.009	73648
383.090	66244
383.172	174068
383.253	201841
383.334	65894
383.416	29605
383.497	22427
383.578	28045
383.659	55428
383.741	155053
383.822	262786
383.903	136937
383.984	40003
384.066	23289
384.147	13104
384.228	10888
384.309	7380
384.390	7406
384.471	6484
384.553	6061
384.634	5278
384.715	6881
384.796	5319
384.877	5712
384.958	6819
385.039	5972
385.120	3673
385.201	4548
385.282	4011
385.363	6264
385.444	5736
385.525	7069
385.606	7032
385.687	6608
385.768	4413
385.849	4538
385.930	9698
386.011	13518
386.092	4552
386.173	4939
386.254	3017
386.335	4690
386.416	3015
386.496	4280
386.577	3977
386.658	2995
386.739	1637
386.820	4530
386.901	2304
386.981	5440
387.062	4640
387.143	4654
387.224	4641
387.304	7913
387.385	5913
387.466	3629
387.547	5573
387.627	5997
387.708	6485
387.789	9012
387.869	6359
387.950	6488
388.031	3640
388.111	2731
388.192	4121
388.273	5334
388.353	3778
388.434	2909
388.514	2104
388.595	6170
388.676	5014
388.756	3640
388.837	3019
388.917	2143
388.998	970
389.078	3272
389.159	2244
389.239	1485
389.320	3683
389.400	761
389.480	2741
389.561	3774
389.641	3575
389.722	2646
389.802	981
389.883	3249
389.963	4964
390.043	2859
390.124	630
390.204	3451
390.284	2951
390.365	2099
390.445	3096
390.525	2135
390.605	2888
390.686	1892
390.766	3001
390.846	3928
390.927	2016
391.007	1366
391.087	2988
391.167	2708
391.247	813
391.328	3008
391.408	3073
391.488	3282
391.568	1478
391.648	2977
391.728	2649
391.808	4323
391.888	2704
391.969	4514
392.049	3965
392.129	5028
392.209	5010
392.289	7555
392.369	6078
392.449	6711
392.529	6009
392.609	8425
392.689	8631
392.769	11478
392.849	13357
392.929	18793
393.009	24770
393.089	36255
393.169	71274
393.248	172226
393.328	349207
393.408	321637
393.488	141780
393.568	58896
393.648	30946
393.728	19918
393.807	13203
393.887	12567
393.967	8891
394.047	8147
394.127	5877
394.206	6756
394.286	6815
394.366	13496
394.446	12907
394.525	5230
394.605	4271
394.685	4649
394.764	4873
394.844	8131
394.924	9290
395.003	4809
395.083	3217
395.163	3490
395.242	2925
395.322	3660
395.402	1048
395.481	5261
395.561	4464
395.640	15050
395.720	25038
395.799	11385
395.879	5263
395.958	4706
396.038	6883
396.117	20284
396.197	19394
396.276	9432
396.356	7032
396.435	9961
396.515	14322
396.594	24331
396.673	54280
396.753	161363
396.832	308909
396.912	207597
396.991	66605
397.070	28462
397.150	15187
397.229	15485
397.308	24203
397.388	37847
397.467	16870
397.546	6942
397.625	3326
397.705	6323
397.784	3491
397.863	4250
397.942	2861
398.022	3236
398.101	1551
398.180	3358
398.259	2019
398.338	3666
398.417	1474
398.497	2952
398.576	2525
398.655	1658
398.734	1513
398.813	2532
398.892	1657
398.971	2949
399.050	526
399.129	1067
399.208	1052
399.287	2548
399.366	210
399.445	1684
399.524	1818
399.603	605
399.682	1387
399.761	1852
399.840	2230
399.919	3224
399.998	1246
400.077	206
400.156	283
400.235	3844
400.313	-312
400.392	399
400.471	2418
400.550	2382
400.629	-186
400.708	1691
400.786	353
400.865	885
400.944	36
401.023	3409
401.102	610
401.180	1327
401.259	-141
401.338	1086
401.416	1226
401.495	317
401.574	1044
401.652	542
401.731	1177
401.810	25
401.888	1208
401.967	759
402.046	-597
402.124	999
402.203	-1055
402.281	1397
402.360	-472
402.438	1308
402.517	-200
402.596	1804
402.674	-172
402.753	487
402.831	1036
402.910	1856
402.988	367
403.066	2885
403.145	2452
403.223	1955
403.302	1901
403.380	2115
403.459	2001
403.537	1268
403.615	973
403.694	-191
403.772	2053
403.850	1024
403.929	369
404.007	369
404.085	1358
404.164	460
404.242	-348
404.320	1149
404.398	1129
404.477	1656
404.555	6335
404.633	4373
404.711	1081
404.789	2158
404.868	-273
404.946	125
405.024	213
405.102	1258
405.180	-343
405.258	-798
405.336	1141
405.415	811
405.493	888
405.571	1070
405.649	-585
405.727	-415
405.805	1421
405.883	1344
405.961	1452
406.039	-28
406.117	-472
406.195	1145
406.273	341
406.351	3837
406.429	2008
406.507	378
406.585	-1009
406.663	947
406.740	190
406.818	310
406.896	-179
406.974	1594
407.052	-848
407.130	2247
407.208	2349
407.285	2072
407.363	-811
407.441	848
407.519	184
407.596	804
407.674	1392
407.752	3968
407.830	1765
407.907	1618
407.985	-234
408.063	636
408.141	-410
408.218	708
408.296	-1035
408.373	324
408.451	879
408.529	990
408.606	-71
408.684	869
408.762	219
408.839	1983
408.917	296
408.994	1309
409.072	539
409.149	2050
409.227	4599
409.304	7564
409.382	6779
409.459	8791
409.537	11742
409.614	8773
409.692	5675
409.769	6320
409.846	11373
409.924	14795
410.001	5518
410.079	5049
410.156	4068
410.233	3056
410.311	1276
410.388	2359
410.465	1548
410.543	1881
410.620	2042
410.697	2389
410.775	1521
410.852	1431
410.929	2775
411.006	1972
411.083	658
411.161	1639
411.238	1383
411.315	1447
411.392	283
411.469	2337
411.547	1047
411.624	-77
411.701	317
411.778	1009
411.855	584
411.932	883
412.009	254
412.086	1456
412.163	177
412.240	950
412.317	-430
412.394	452
412.471	531
412.548	874
412.625	-181
412.702	694
412.779	-208
412.856	707
412.933	-414
413.010	904
413.087	759
413.164	939
413.241	1367
413.318	517
413.395	719
413.471	417
413.548	618
413.625	721
413.702	-1238
413.779	463
413.855	125
413.932	177
414.009	-725
414.086	522
414.162	698
414.239	639
414.316	762
414.393	3026
414.469	-215
414.546	101
414.623	-371
414.699	643
414.776	-675
414.853	-310
414.929	28
415.006	43
415.082	617
415.159	111
415.236	94
415.312	963
415.389	-206
415.465	88
415.542	-27
415.618	-458
415.695	871
415.771	62
415.848	68
415.924	739
416.000	-483
416.077	1291
416.153	-613
416.230	236
416.306	-286
416.383	371
416.459	687
416.535	216
416.612	-8
416.688	431
416.764	502
416.841	370
416.917	-410
416.993	781
417.069	102
417.146	43
417.222	-1185
417.298	121
417.374	-846
417.451	738
417.527	-603
417.603	-221
417.679	-598
417.755	974
417.831	-227
417.908	804
417.984	-174
418.060	-583
418.136	-32
418.212	-123
418.288	-212
418.364	1021
418.440	-899
418.516	829
418.592	270
418.668	-212
418.744	-767
418.820	790
418.896	-131
418.972	-732
419.048	36
419.124	1366
419.200	-919
419.276	1144
419.352	-251
419.428	1368
419.504	-299
419.579	1145
419.655	211
419.731	763
419.807	463
419.883	1208
419.959	184
420.034	1960
420.110	537
420.186	-44
420.262	1296
420.337	596
420.413	995
420.489	967
420.565	1928
420.640	656
420.716	1843
420.792	838
420.867	1838
420.943	1427
421.019	948
421.094	1342
421.170	1938
421.245	1675
421.321	2006
421.397	2327
421.472	3199
421.548	4672
421.623	4564
421.699	4172
421.774	4580
421.850	5159
421.925	7421
422.001	8784
422.076	10390
422.152	12806
422.227	17157
422.302	25738
422.378	39705
422.453	67365
422.529	118237
422.604	153277
422.679	136009
422.755	152713
422.830	115628
422.905	66978
422.981	40517
423.056	28324
423.131	19975
423.207	14895
423.282	11256
423.357	9600
423.432	7547
423.508	7344
423.583	4744
423.658	5583
423.733	4116
423.808	4668
423.883	4680
423.959	5421
424.034	5096
424.109	5715
424.184	3582
424.259	3133
424.334	2583
424.409	2211
424.484	1212
424.559	1696
424.634	1587
424.709	1669
424.784	142
424.859	1433
424.934	427
425.009	1962
425.084	1461
425.159	2123
425.234	953
425.309	1093
425.384	413
425.459	1121
425.534	80
425.609	288
425.683	-405
425.758	650
425.833	-174
425.908	1510
425.983	-59
426.058	2490
426.132	76
426.207	864
426.282	1067
426.357	-196
426.431	589
426.506	1265
426.581	399
426.655	283
426.730	381
426.805	405
426.879	-34
426.954	579
427.029	-301
427.103	2147
427.178	1640
427.253	1486
427.327	307
427.402	275
427.476	-335
427.551	346
427.625	682
427.700	687
427.774	-529
427.849	726
427.923	-762
427.998	583
428.072	722
428.147	4283
428.221	18754
428.296	53819
428.370	25975
428.444	3943
428.519	794
428.593	775
428.667	1093
428.742	2266
428.816	6632
428.890	33976
428.965	46865
429.039	10762
429.113	1050
429.188	1002
429.262	852
429.336	1371
429.410	-2
429.485	501
429.559	700
429.633	729
429.707	1147
429.781	6742
429.855	32988
429.930	41918
430.004	9509
430.078	6656
430.152	20892
430.226	74037
430.300	64675
430.374	12941
430.448	3376
430.522	2506
430.596	1898
430.670	11275
430.744	43655
430.818	43382
430.892	6461
430.966	1750
431.040	191
431.114	44
431.188	-230
431.262	242
431.336	-833
431.410	627
431.484	-1060
431.557	1480
431.631	-484
431.705	3049
431.779	14633
431.853	54053
431.927	30458
432.000	3776
432.074	306
432.148	442
432.222	-914
432.295	-128
432.369	-1080
432.443	-675
432.516	229
432.590	3250
432.664	554
432.737	-70
432.811	-1319
432.885	-296
432.958	-62
433.032	476
433.106	-1001
433.179	-680
433.253	-440
433.326	-170
433.400	-502
433.473	372
433.547	-1100
433.620	-244
433.694	-886
433.767	353
433.841	-1301
433.914	-429
433.988	-403
434.061	-228
434.134	-274
434.208	-479
434.281	-1060
434.355	-616
434.428	-656
434.501	-55
434.575	-789
434.648	-98
434.721	-778
434.795	67
434.868	-1303
434.941	-216
435.014	-357
435.088	133
435.161	287
435.234	2451
435.307	1837
435.381	2122
435.454	2816
435.527	7728
435.600	6333
435.673	5468
435.746	2148
435.819	2135
435.892	277
435.966	381
436.039	190
436.112	410
436.185	-374
436.258	-299
436.331	-1178
436.404	-649
436.477	-908
436.550	-835
436.623	-1009
436.696	-277
436.769	-564
436.842	215
436.915	-931
436.987	-936
437.060	-504
437.133	-760
437.206	-470
437.279	483
437.352	-853
437.425	-463
437.498	-706
437.570	-148
437.643	-1054
437.716	278
437.789	-988
437.861	-552
437.934	-1639
438.007	-618
438.080	-1816
438.152	-466
438.225	-487
438.298	1986
438.370	4400
438.443	2565
438.516	-637
438.588	-773
438.661	-808
438.734	-158
438.806	-807
438.879	-310
438.951	-1148
439.024	-442
439.096	-910
439.169	-110
439.241	-1096
439.314	-225
439.386	-1463
439.459	-507
439.531	-542
439.604	-49
439.676	-657
439.749	-44
439.821	-642
439.893	-591
439.966	-1003
440.038	-213
440.110	-1106
440.183	-1230
440.255	-1592
440.327	402
440.400	599
440.472	2889
440.544	1163
440.617	208
440.689	-233
440.761	189
440.833	-789
440.905	-682
440.978	-1102
441.050	-34
441.122	-184
441.194	-91
441.266	-731
441.338	-439
441.411	44
441.483	231
441.555	272
441.627	278
441.699	-70
441.771	46
441.843	-608
441.915	509
441.987	20
442.059	540
442.131	-336
442.203	1584
442.275	1589
442.347	3337
442.419	8714
442.491	47906
442.563	91442
442.635	36306
442.706	5761
442.778	3032
442.850	890
442.922	1976
442.994	938
443.066	1095
443.137	2096
443.209	3023
443.281	5378
443.353	14065
443.425	53629
443.496	149216
443.568	150587
443.640	60301
443.711	11980
443.783	5035
443.855	2414
443.926	1934
443.998	383
444.070	1030
444.141	198
444.213	1035
444.285	356
444.356	1431
444.428	-297
444.499	1170
444.571	-647
444.642	1794
444.714	-419
444.785	518
444.857	966
444.928	1144
445.000	1169
445.071	2595
445.143	2771
445.214	5737
445.285	10213
445.357	28805
445.428	101310
445.500	180715
445.571	142687
445.642	91545
445.714	28625
445.785	9439
445.856	2149
445.928	2886
445.999	1133
446.070	819
446.141	1303
446.213	918
446.284	-282
446.355	1150
446.426	-527
446.497	-1012
446.569	-548
446.640	100
446.711	-418
446.782	379
446.853	-591
446.924	-95
446.995	-854
447.066	-655
447.138	-827
447.209	240
447.280	-1439
447.351	-299
447.422	-1493
447.493	-490
447.564	-1583
447.635	-1043
447.706	-478
447.777	-122
447.847	-1154
447.918	-812
447.989	-708
448.060	461
448.131	-539
448.202	-852
448.273	-737
448.344	324
448.414	-654
448.485	-654
448.556	-304
448.627	-953
448.698	-299
448.768	-1037
448.839	-1863
448.910	-943
448.981	-1022
449.051	74
449.122	-1261
449.193	323
449.263	-867
449.334	-294
449.405	-928
449.475	-219
449.546	-655
449.616	-226
449.687	128
449.758	23
449.828	-1547
449.899	-964
449.969	-1853
450.040	-896
450.110	-313
450.181	-192
450.251	-1154
450.322	336
450.392	-895
450.463	-1121
450.533	-1416
450.604	88
450.674	-303
450.744	44
450.815	-176
450.885	-400
450.955	280
451.026	183
451.096	-874
451.166	-479
451.237	-302
451.307	1393
451.377	-270
451.447	-549
451.518	-587
451.588	-968
451.658	-556
451.728	-362
451.799	-1355
451.869	10
451.939	-782
452.009	-716
452.079	-1487
452.149	-528
452.219	-1441
452.289	-239
452.360	-1027
452.430	-376
452.500	79
452.570	1338
452.640	6321
452.710	17176
452.780	16586
452.850	7366
452.920	2692
452.990	1170
453.060	567
453.129	-61
453.199	-778
453.269	492
453.339	793
453.409	1093
453.479	525
453.549	1232
453.619	-444
453.688	-1
453.758	-402
453.828	-45
453.898	-1734
453.968	116
454.037	-937
454.087	-367
454.107	-155
454.168	-1546
454.177	-1778
454.247	-1029
454.249	-998
454.316	-928
454.330	-859
454.386	-667
454.411	-849
454.456	-1272
454.492	-792
454.525	-404
454.574	-185
454.595	-132
454.655	60
454.665	75
454.734	-217
454.736	-194
454.804	-537
454.817	-449
454.873	-222
454.898	83
454.943	555
454.979	221
455.013	-115
455.060	-114
455.082	-147
455.141	-730
455.152	-883
455.221	286
455.222	311
455.291	123
455.303	236
455.360	592
455.384	583
455.430	508
455.465	727
455.499	785
455.546	146
455.569	-148
455.627	942
455.638	1127
455.707	-189
455.708	-157
455.777	684
455.789	697
455.846	639
455.869	552
455.916	233
455.950	504
455.985	821
456.031	796
456.054	657
456.112	-189
456.124	-337
456.193	1362
456.193	1336
456.262	1098
456.274	1256
456.332	1956
456.355	1769
456.401	1278
456.436	1444
456.470	1635
456.516	1166
456.540	885
456.597	1246
456.609	1262
456.678	1730
456.678	1703
456.747	1651
456.759	1544
456.817	1067
456.840	1482
456.886	2122
456.920	2088
456.955	2075
457.001	2394
457.024	2547
457.082	2233
457.093	2038
457.162	3323
457.163	3350
457.232	2174
457.243	2270
457.301	2794
457.324	2462
457.370	1975
457.405	2653
457.439	2954
457.485	2859
457.508	2977
457.566	3985
457.577	4399
457.646	6354
457.647	6434
457.715	17229
457.727	19435
457.784	34248
457.808	44237
457.853	53051
457.889	57825
457.922	53448
457.969	35521
457.991	38109
458.050	50605
458.060	53058
458.129	91563
458.130	92625
458.198	75209
458.211	66255
458.267	36203
458.292	24291
458.336	17232
458.372	17283
458.405	26296
458.453	41604
458.474	52927
458.533	94464
458.543	96648
458.611	133313
458.614	133870
458.680	72409
458.694	54839
458.749	24843
458.775	17407
458.818	10981
458.855	8908
458.887	7855
458.936	7055
458.955	6710
459.016	5801
459.024	5712
459.093	5874
459.097	5834
459.162	4876
459.177	4975
459.230	5085
459.257	5041
459.299	5029
459.338	5000
459.368	4839
459.418	4441
459.437	4407
459.499	4887
459.505	4917
459.574	4843
459.579	4906
459.643	5203
459.659	5050
459.711	4791
459.740	5137
459.780	5242
459.820	4847
459.849	4741
459.900	5200
459.917	5300
459.981	4662
459.986	4593
460.054	4983
460.061	5003
460.123	5332
460.141	5485
460.191	5694
460.222	5489
460.260	5235
460.302	5631
460.328	5890
460.382	5518
460.397	5399
460.462	5975
460.465	6060
460.534	7366
460.543	7646
460.602	13990
460.623	16235
460.671	22843
460.703	28350
460.739	23979
460.783	16795
460.808	14046
460.864	6640
460.876	6417
460.944	6181
460.945	6156
461.013	5260
461.024	5134
461.081	5362
461.104	5659
461.150	6140
461.184	6076
461.218	5834
461.264	5905
461.286	6074
461.345	6064
461.355	6019
461.423	6213
461.425	6202
461.491	5120
461.505	5129
461.559	6175
461.585	6361
461.628	6380
461.665	6683
461.696	6673
461.745	6518
461.764	6479
461.825	6478
461.832	6598
461.901	6888
461.905	6974
461.969	6583
461.985	6432
462.037	6972
462.065	7178
462.105	6633
462.145	6215
462.173	6648
462.225	7317
462.241	7316
462.305	7244
462.310	7217
462.378	7300
462.385	7219
462.446	7480
462.465	7680
462.514	7639
462.545	7586
462.582	7395
462.625	7033
462.650	6963
462.705	6889
462.718	6850
462.785	7067
462.786	7077
462.854	6852
462.865	6869
462.922	6880
462.945	6887
462.990	6903
463.025	6797
463.058	7345
463.104	8111
463.126	7790
463.184	7077
463.194	7129
463.262	6900
463.264	6917
463.330	7323
463.344	7287
463.398	7765
463.424	7931
463.466	7376
463.504	7022
463.533	7421
463.583	8170
463.601	8069
463.663	7057
463.669	6997
463.737	7027
463.743	6960
463.805	7346
463.823	7612
463.873	8059
463.903	8026
463.940	7838
463.982	7985
464.008	8133
464.062	8054
464.076	7962
464.142	7786
464.144	7814
464.211	7995
464.221	8073
464.279	7796
464.301	7623
464.347	7581
464.381	7532
464.414	7351
464.461	7141
464.482	7449
464.540	8158
464.550	8149
464.617	7858
464.620	7848
464.685	8064
464.699	7999
464.753	7887
464.779	7996
464.820	8288
464.859	8285
464.888	7824
464.938	7189
464.956	7641
465.018	8865
465.023	8844
465.091	8792
465.098	8750
465.158	8124
465.177	7988
465.226	8615
465.257	8742
465.293	8482
465.336	8436
465.361	8624
465.416	8889
465.428	8935
465.495	9027
465.496	9042
465.563	8436
465.575	8381
465.631	9165
465.654	9356
465.698	9024
465.734	8825
465.765	8975
465.813	8962
465.833	8925
465.893	9006
465.900	9047
465.968	9010
465.972	9004
466.035	8746
466.052	8594
466.102	8775
466.131	8901
466.170	8556
466.210	8168
466.237	8352
466.290	8657
466.304	8685
466.369	8646
466.372	8695
466.439	9630
466.449	9738
466.506	9116
466.528	8877
466.573	8879
466.607	8773
466.641	9389
466.687	10304
466.708	10380
466.766	10408
466.775	10390
466.842	10129
466.845	10093
466.909	9662
466.925	9530
466.977	9976
467.004	10178
467.044	10347
467.083	10493
467.111	10593
467.163	10676
467.178	10662
467.242	10509
467.245	10505
467.312	9936
467.321	9840
467.379	10764
467.400	11064
467.446	10950
467.480	10826
467.559	11079
467.638	10005
467.717	10360
467.796	10792
467.875	11777
467.955	11367
468.034	12661
468.113	13485
468.192	16382
468.271	17832
468.350	25151
468.429	33947
468.508	35709
468.588	22445
468.667	15333
468.746	13094
468.825	11753
468.904	11475
468.983	10901
469.062	11724
469.141	11722
469.220	9785
469.299	11196
469.378	9233
469.456	11660
469.535	11447
469.614	11330
469.693	10205
469.772	12031
469.851	13192
469.930	12573
470.009	13359
470.088	14074
470.166	20377
470.245	33705
470.324	41572
470.403	26028
470.482	15787
470.560	13414
470.639	11836
470.718	12509
470.797	11859
470.875	11017
470.954	10296
471.033	11360
471.111	10367
471.190	10347
471.269	10927
471.347	11069
471.426	10651
471.505	10854
471.583	10782
471.662	10612
471.740	10562
471.819	11014
471.898	10698
471.976	11148
472.055	10264
472.133	10911
472.212	11470
472.290	10020
472.369	10870
472.447	10870
472.526	10567
472.604	11455
472.683	10519
472.761	11073
472.839	10280
472.918	11149
472.996	10795
473.075	12358
473.153	10858
473.231	10663
473.310	10423
473.388	11845
473.466	11016
473.545	11508
473.623	11918
473.701	10842
473.780	12032
473.858	9893
473.936	13118
474.014	11600
474.093	11133
474.171	11914
474.249	12671
474.327	11703
474.405	10647
474.484	11774
474.562	11739
474.640	11428
474.718	12008
474.796	11366
474.874	12301
474.952	10894
475.030	12003
475.108	11243
475.187	11551
475.265	11219
475.343	12363
475.421	12514
475.499	10604
475.577	12021
475.655	11770
475.733	11700
475.811	11672
475.889	11476
475.966	10923
476.044	11038
476.122	11281
476.200	11389
476.278	10636
476.356	11427
476.434	11098
476.512	11417
476.590	12113
476.667	12594
476.745	11497
476.823	12086
476.901	11911
476.979	11800
477.056	11538
477.134	11081
477.212	11213
477.290	11262
477.367	11422
477.445	10548
477.523	10755
477.601	11140
477.678	11295
477.756	10216
477.834	11067
477.911	11018
477.989	11160
478.066	10936
478.144	10619
478.222	11105
478.299	11942
478.377	12734
478.454	11464
478.532	10951
478.609	11327
478.687	11227
478.764	10122
478.842	12048
478.919	10873
478.997	11502
479.074	10789
479.152	11779
479.229	12041
479.307	10830
479.384	11189
479.461	11123
479.539	10819
479.616	11199
479.694	10462
479.771	10701
479.848	9971
479.926	10499
480.003	12190
480.080	11511
480.157	11643
480.235	10583
480.312	10953
480.389	10969
480.467	10629
480.544	12195
480.621	12006
480.698	13028
480.775	11993
480.853	11726
480.930	10985
481.007	11871
481.084	10302
481.161	12424
481.238	11905
481.315	11146
481.392	10787
481.470	11222
481.547	10896
481.624	11323
481.701	10323
481.778	11846
481.855	11210
481.932	12005
482.009	13260
482.086	12446
482.163	13248
482.240	15798
482.317	15271
482.393	14939
482.470	13718
482.547	13580
482.624	12203
482.701	12256
482.778	11328
482.855	11001
482.932	12082
483.009	11786
483.085	13415
483.162	13191
483.239	15232
483.316	14288
483.393	15619
483.469	13456
483.546	11743
483.623	12814
483.699	11456
483.776	10728
483.853	10289
483.930	10570
484.006	11317
484.083	12581
484.160	11444
484.236	12501
484.313	12114
484.389	12022
484.466	13510
484.543	15754
484.619	19000
484.696	22400
484.772	16102
484.849	12893
484.925	11878
485.002	11559
485.078	11766
485.155	10256
485.231	10393
485.308	10363
485.384	10538
485.461	11591
485.537	9719
485.614	11290
485.690	10627
485.766	10178
485.843	10402
485.919	10088
485.995	10593
486.072	10158
486.148	10227
486.224	10624
486.301	9194
486.377	10766
486.453	9768
486.530	11263
486.606	12006
486.682	11961
486.758	11345
486.835	11364
486.911	10866
486.987	13441
487.063	13272
487.139	14830
487.215	15560
487.292	17900
487.368	19870
487.444	22519
487.520	29788
487.596	42783
487.672	102883
487.748	326004
487.824	457089
487.900	121045
487.976	36202
488.052	23257
488.128	18762
488.204	15017
488.280	14936
488.356	13575
488.432	13256
488.508	13240
488.584	11641
488.660	11750
488.736	12208
488.812	10974
488.888	11685
488.964	11686
489.039	12334
489.115	13793
489.191	12240
489.267	11353
489.343	11304
489.418	10754
489.494	10696
489.570	8892
489.646	12768
489.722	10814
489.797	11725
489.873	11675
489.949	11369
490.024	11667
490.100	10437
490.176	11020
490.251	11106
490.327	12850
490.403	11678
490.478	11205
490.554	11095
490.629	11058
490.705	11416
490.781	11398
490.856	10992
490.932	11345
491.007	11161
491.083	11022
491.158	10609
491.234	11356
491.309	11338
491.385	11216
491.460	10863
491.536	11327
491.611	11047
491.686	10860
491.762	11986
491.837	12029
491.913	12817
491.988	14111
492.063	13296
492.139	12061
492.214	11589
492.289	12086
492.365	11507
492.440	11977
492.515	11356
492.590	11301
492.666	11131
492.741	11278
492.816	11680
492.891	10317
492.967	13498
493.042	12133
493.117	11563
493.192	13241
493.267	12613
493.342	12895
493.418	14087
493.493	13334
493.568	13929
493.643	11667
493.718	12065
493.793	12188
493.868	11880
493.943	12902
494.018	12550
494.093	12572
494.168	12928
494.243	12202
494.318	13260
494.393	12384
494.468	13023
494.543	14054
494.618	13652
494.693	14709
494.768	14868
494.842	14121
494.917	14692
494.992	13524
495.067	14146
495.142	13573
495.217	14606
495.292	14124
495.366	13279
495.441	13371
495.516	14781
495.591	14593
495.665	16922
495.740	21302
495.815	15206
495.890	14218
495.964	13252
496.039	16504
496.114	16545
496.188	17256
496.263	15952
496.338	15588
496.412	14044
496.487	15077
496.561	15049
496.636	14988
496.710	14919
496.785	14489
496.860	14656
496.934	14998
497.009	16534
497.083	16311
497.158	15509
497.232	18122
497.307	18543
497.381	21291
497.455	19555
497.530	15158
497.604	14460
497.679	13892
497.753	14285
497.827	13576
497.902	13354
497.976	14835
498.050	17650
498.125	25661
498.199	23197
498.273	17062
498.348	16842
498.422	19504
498.496	22256
498.570	23173
498.645	14099
498.719	10917
498.793	12079
498.867	12670
498.941	13388
499.016	15494
499.090	21449
499.164	16785
499.238	15665
499.312	16023
499.386	16717
499.460	19388
499.534	22202
499.609	26676
499.683	17436
499.757	10971
499.831	11930
499.905	16154
499.979	14415
500.053	12447
500.127	13926
500.201	12605
500.275	15633
500.349	16011
500.422	17674
500.496	21545
500.570	25461
500.644	34983
500.718	31537
500.792	11299
500.866	9079
500.940	9024
501.013	9508
501.087	8481
501.161	9593
501.235	7671
501.309	11708
501.382	13679
501.456	11598
501.530	9138
501.603	9254
501.677	8699
501.751	6930
501.825	9314
501.898	9320
501.972	8971
502.046	7867
502.119	7838
502.193	8434
502.266	8711
502.340	9662
502.413	8764
502.487	9414
502.561	8305
502.634	8357
502.708	8228
502.781	7937
502.855	9749
502.928	6843
503.002	8420
503.075	6905
503.149	9022
503.222	8159
503.295	8409
503.369	8732
503.442	9010
503.516	11983
503.589	13007
503.662	13051
503.736	14622
503.809	18223
503.882	21048
503.956	30370
504.029	60366
504.102	184493
504.175	245763
504.249	76449
504.322	29660
504.395	18370
504.468	14566
504.542	10885
504.615	9409
504.688	10362
504.761	8101
504.834	9691
504.907	7946
504.980	7642
505.053	8065
505.127	5452
505.200	10059
505.273	7181
505.346	7359
505.419	6642
505.492	8905
505.565	7780
505.638	7529
505.711	7003
505.784	6995
505.857	7061
505.930	8625
506.003	5871
506.076	8753
506.149	6703
506.221	5815
506.294	8396
506.367	6236
506.440	9348
506.513	8102
506.586	7033
506.659	6132
506.731	7446
506.804	6717
506.877	6006
506.950	7297
507.022	7823
507.095	5958
507.168	7021
507.241	7159
507.313	7034
507.386	6031
507.459	7362
507.531	6686
507.604	6628
507.677	8210
507.749	5734
507.822	7920
507.894	6791
507.967	8001
508.040	6053
508.112	7260
508.185	7525
508.257	5448
508.330	8344
508.402	6536
508.475	6300
508.547	7675
508.620	7056
508.692	7830
508.765	6848
508.837	4812
508.909	6718
508.982	5902
509.054	7485
509.127	6484
509.199	5643
509.271	5272
509.344	6884
509.416	6992
509.488	6965
509.560	6783
509.633	6333
509.705	6105
509.777	6086
509.849	7459
509.922	5632
509.994	6067
510.066	7680
510.138	4999
510.210	8456
510.283	6940
510.355	6815
510.427	7458
510.499	6850
510.571	6634
510.643	6175
510.715	8052
510.787	4601
510.859	8129
510.931	6824
511.003	6857
511.076	7121
511.148	6631
511.219	5715
511.291	7254
511.363	6863
511.435	7560
511.507	6077
511.579	8511
511.651	8027
511.723	6887
511.795	6137
511.867	7668
511.939	6400
512.010	6368
512.082	7066
512.154	5357
512.226	6361
512.298	8270
512.369	7119
512.441	7810
512.513	8482
512.585	5512
512.656	8342
512.728	5551
512.800	6302
512.871	7705
512.943	6872
513.015	5959
513.086	6667
513.158	7240
513.230	5817
513.301	6994
513.373	7882
513.444	7267
513.516	6411
513.588	6397
513.659	7316
513.731	6949
513.802	6101
513.874	9882
513.945	7392
514.016	6291
514.088	8196
514.159	6065
514.231	7464
514.302	6995
514.374	7192
514.445	5775
514.516	9285
514.588	6895
514.659	7556
514.730	6326
514.802	8520
514.873	4919
514.944	9024
515.016	7822
515.087	6869
515.158	6955
515.229	8621
515.301	6048
515.372	7560
515.443	6520
515.514	7139
515.585	6366
515.656	8386
515.728	9111
515.799	7041
515.870	9375
515.941	9967
516.012	9019
516.083	11296
516.154	10087
516.225	13051
516.296	16195
516.367	17273
516.438	20045
516.509	26080
516.580	44138
516.651	167380
516.722	494223
516.793	138949
516.864	33361
516.935	32631
517.006	38193
517.077	51049
517.148	127788
517.219	569536
517.289	665506
517.360	91895
517.431	31575
517.502	19774
517.573	20098
517.643	16547
517.714	17348
517.785	19486
517.856	21431
517.926	27044
517.997	32804
518.068	40631
518.138	56151
518.209	101215
518.280	377107
518.350	986676
518.421	336593
518.492	67184
518.562	43686
518.633	42960
518.703	54941
518.774	121393
518.845	318765
518.915	253459
518.986	65243
519.056	30462
519.127	22237
519.197	18340
519.268	14992
519.338	13512
519.408	9894
519.479	10808
519.549	7960
519.620	10508
519.690	8291
519.760	8539
519.831	7596
519.901	7524
519.971	8342
520.042	6815
520.112	7075
520.182	8319
520.253	7661
520.323	7491
520.393	6085
520.463	9180
520.534	5150
520.604	9073
520.674	8902
520.744	6585
520.814	6254
520.885	8817
520.955	7482
521.025	9012
521.095	7372
521.165	8062
521.235	6845
521.305	6591
521.375	6934
521.445	6777
521.515	6025
521.585	8501
521.655	4881
521.725	7051
521.795	7296
521.865	4308
521.935	9138
522.005	6487
522.075	6047
522.145	8202
522.215	5104
522.285	6157
522.355	6449
522.424	8449
522.494	5843
522.564	7102
522.634	7195
522.704	10464
522.774	6195
522.843	7481
522.913	7494
522.983	6242
523.053	6628
523.122	7823
523.192	7986
523.262	8010
523.331	7499
523.401	7945
523.471	6565
523.540	7409
523.610	7433
523.680	7994
523.749	7415
523.819	8000
523.888	6691
523.958	6731
524.027	7016
524.097	8043
524.166	7590
524.236	5829
524.305	9265
524.375	7186
524.444	6852
524.514	9295
524.583	6999
524.653	6759
524.722	8440
524.791	6814
524.861	9458
524.930	7055
524.999	7107
525.069	8908
525.138	7556
525.207	7949
525.277	8652
525.346	8855
525.415	11477
525.484	11172
525.554	12230
525.623	14708
525.692	17379
525.761	22045
525.830	26364
525.900	33176
525.969	52509
526.038	96318
526.107	210937
526.176	552345
526.245	359859
526.314	112407
526.383	287155
526.452	328835
526.522	513667
526.591	373024
526.660	63627
526.729	42816
526.797	48694
526.867	69163
526.935	212582
527.004	717584
527.073	357481
527.142	51317
527.211	25817
527.280	19565
527.349	15402
527.418	12117
527.487	12940
527.555	9634
527.624	9817
527.693	8242
527.762	11407
527.831	8236
527.899	10228
527.968	9286
528.037	7248
528.106	9733
528.174	9112
528.243	8799
528.312	8888
528.380	8210
528.449	7020
528.518	10138
528.586	5690
528.655	8027
528.723	8201
528.792	8496
528.861	8013
528.929	7314
528.998	8707
529.066	8448
529.135	8556
529.203	8584
529.272	7669
529.340	9821
529.409	9692
529.477	7593
529.545	7076
529.614	9995
529.682	7902
529.751	9373
529.819	12919
529.887	9078
529.956	8819
530.024	10164
530.092	8780
530.161	9265
530.229	9163
530.297	9330
530.365	10864
530.434	11221
530.502	8997
530.570	9429
530.638	8210
530.707	9229
530.775	10179
530.843	9163
530.911	9662
530.979	9876
531.047	9223
531.115	10705
531.183	10025
531.252	10467
531.320	9220
531.388	7760
531.456	10312
531.524	9049
531.592	11386
531.660	12308
531.728	9575
531.796	9616
531.864	10193
531.932	9866
532.000	10111
532.067	9887
532.135	12429
532.203	13112
532.271	11800
532.339	14099
532.407	14067
532.475	13825
532.542	12442
532.610	13073
532.678	11497
532.746	17690
532.814	19309
532.881	14449
532.949	13301
533.017	12303
533.084	11896
533.152	11726
533.220	12450
533.287	10514
533.355	12225
533.423	12511
533.490	11793
533.558	12610
533.625	12459
533.693	12599
533.761	14375
533.828	13294
533.896	12003
533.963	13969
534.031	15717
534.098	19158
534.166	20116
534.233	18402
534.300	21782
534.368	21112
534.435	20231
534.503	21778
534.570	22905
534.637	24831
534.705	27619
534.772	32852
534.840	61165
534.907	253403
534.974	242447
535.041	35229
535.109	23570
535.176	19398
535.243	20649
535.310	20261
535.378	18416
535.445	19428
535.512	19509
535.579	18715
535.646	18149
535.714	20193
535.781	20238
535.848	21572
535.915	20509
535.982	18450
536.049	18679
536.116	20422
536.183	18737
536.250	18233
536.317	19590
536.384	21306
536.451	21439
536.518	21494
536.585	18213
536.652	22167
536.719	21956
536.786	18603
536.853	19868
536.920	21271
536.987	21626
537.053	19041
537.120	23807
537.187	23964
537.254	23227
537.321	22289
537.388	23516
537.454	21232
537.521	21843
537.588	20969
537.654	22019
537.721	24000
537.788	23650
537.855	21769
537.921	22246
537.988	21690
538.055	21027
538.121	18662
538.188	19998
538.254	18522
538.321	19495
538.388	21415
538.454	24463
538.521	24037
538.587	23432
538.654	22678
538.720	22776
538.787	23488
538.853	23442
538.920	21251
538.986	19458
539.053	19645
539.119	20325
539.185	21515
539.252	22481
539.318	21858
539.385	25820
539.451	21800
539.517	23786
539.583	22980
539.650	22348
539.716	23019
539.782	21053
539.849	19745
539.915	21771
539.981	20394
540.047	20011
540.114	20273
540.180	23475
540.246	22086
540.312	24240
540.378	22959
540.444	23974
540.510	24883
540.576	25394
540.643	21069
540.709	20022
540.775	22129
540.841	20687
540.907	21179
540.973	21702
541.039	21096
541.105	22022
541.171	23511
541.237	23967
541.303	23777
541.369	25590
541.435	23467
541.500	21836
541.566	20050
541.632	20989
541.698	20833
541.764	24253
541.830	21736
541.896	21626
541.961	21983
542.027	20997
542.093	24247
542.159	23715
542.224	21289
542.290	23532
542.356	21937
542.421	21377
542.487	21679
542.553	21235
542.618	20535
542.684	20847
542.750	21751
542.815	23531
542.881	21492
542.947	25057
543.012	24328
543.078	20850
543.143	20957
543.209	21345
543.274	20321
543.340	21817
543.405	22386
543.471	22519
543.536	22399
543.602	23438
543.667	21322
543.732	23955
543.798	22784
543.863	23640
543.928	24043
543.994	21884
544.059	23136
544.124	24576
544.190	23786
544.255	24108
544.320	24677
544.386	24514
544.451	26001
544.516	25320
544.581	24704
544.646	26427
544.712	27569
544.777	25698
544.842	25641
544.907	25234
544.972	25266
545.037	27864
545.102	26707
545.168	27878
545.233	27498
545.298	27954
545.363	27594
545.428	30568
545.493	31156
545.558	30163
545.623	29556
545.688	30214
545.753	32387
545.818	33164
545.883	35097
545.947	35573
546.012	36722
546.077	37090
546.142	40519
546.207	39870
546.272	43414
546.337	43591
546.401	46458
546.466	47053
546.531	48067
546.596	53796
546.661	54724
546.725	59765
546.790	62056
546.855	68294
546.919	74858
546.984	82473
547.049	88536
547.113	103358
547.178	113228
547.243	128658
547.307	149063
547.372	163174
547.436	162054
547.501	173359
547.565	184666
547.630	166816
547.695	161796
547.759	161816
547.823	165950
547.888	170665
547.952	173130
548.017	179742
548.081	182499
548.146	182126
548.210	189550
548.274	203244
548.339	194627
548.403	177809
548.468	169080
548.532	167490
548.596	170299
548.660	172994
548.725	189123
548.789	201690
548.853	194540
548.917	188896
548.982	179902
549.046	162586
549.110	147817
549.174	158146
549.238	185218
549.303	199181
549.367	200112
549.431	189496
549.495	177338
549.559	182764
549.623	214300
549.687	225893
549.751	227819
549.815	271305
549.879	267332
549.943	259081
550.007	272826
550.071	265504
550.135	236831
550.199	227903
550.263	223728
550.327	211945
550.391	217738
550.455	243106
550.519	254901
550.582	270418
550.646	305550
550.710	302624
550.774	300160
550.838	304044
550.901	312481
550.965	324362
551.029	334818
551.093	350279
551.156	365613
551.220	381221
551.284	398923
551.347	340444
551.411	313713
551.475	308352
551.538	323064
551.602	300459
551.666	288086
551.729	271262
551.793	268357
551.856	262178
551.920	257746
551.983	258506
552.047	252152
552.110	256883
552.174	260000
552.237	263936
552.301	244253
552.364	236822
552.428	230340
552.491	241216
552.554	243075
552.618	242129
552.681	248322
552.745	240275
552.808	268564
552.871	290111
552.934	258348
552.998	242962
553.061	237400
553.124	227170
553.187	227698
553.251	233336
553.314	231768
553.377	234309
553.440	249616
553.503	254107
553.567	251748
553.630	252598
553.693	252128
553.756	253314
553.819	247812
553.882	240029
553.945	243477
554.008	241401
554.071	245198
554.134	244554
554.197	230101
554.260	230863
554.323	233345
554.386	234246
554.449	243813
554.512	238972
554.575	230112
554.638	229276
554.701	226062
554.764	226581
554.827	217790
554.889	209307
554.952	198501
555.015	194148
555.078	197633
555.141	198850
555.203	195568
555.266	195707
555.329	193407
555.391	184897
555.454	182973
555.517	174667
555.580	168278
555.642	162523
555.705	159935
555.768	159127
555.830	152872
555.893	147231
555.955	141360
556.018	140841
556.080	142006
556.143	143695
556.206	142012
556.268	137879
556.330	135570
556.393	131538
556.455	128412
556.518	123915
556.580	120338
556.643	116246
556.705	112919
556.767	109207
556.830	110032
556.892	108206
556.955	105083
557.017	102124
557.079	102596
557.142	99161
557.204	96131
557.266	94018
557.328	88697
557.391	83799
557.453	82841
557.515	82745
557.577	83315
557.639	82621
557.701	81727
557.764	79856
557.826	81307
557.888	83195
557.950	82406
558.012	89070
558.074	105936
558.136	199997
558.198	357144
558.260	128311
558.322	80032
558.384	80998
558.446	83150
558.508	86546
558.570	92501
558.632	100588
558.694	122804
558.756	193404
558.818	479717
558.880	800446
558.942	335578
559.003	379210
559.065	167208
559.127	88765
559.189	85636
559.251	95728
559.312	128266
559.374	277643
559.436	647603
559.498	278653
559.559	92026
559.621	82967
559.683	97293
559.744	147324
559.806	406177
559.868	455146
559.929	114129
559.991	91974
560.052	148832
560.114	354153
560.176	192715
560.237	224416
560.299	286138
560.360	68253
560.422	43224
560.483	38677
560.545	36478
560.606	37072
560.667	35409
560.729	33165
560.790	31787
560.852	31707
560.913	30737
560.974	30966
561.036	29960
561.097	30974
561.158	29652
561.220	30105
561.281	28011
561.342	27247
561.403	27166
561.465	26782
561.526	28907
561.587	28504
561.648	25043
561.709	24618
561.771	26116
561.832	25397
561.893	24683
561.954	24976
562.015	23848
562.076	23103
562.137	23641
562.198	23782
562.259	24002
562.320	23493
562.381	22359
562.442	22503
562.503	22828
562.564	22387
562.625	20381
562.686	21801
562.747	21935
562.808	21397
562.869	20802
562.930	20560
562.991	20465
563.051	20211
563.112	20146
563.173	19884
563.234	19655
563.294	21570
563.355	19685
563.416	20216
563.477	20111
563.537	19446
563.598	19023
563.659	19870
563.720	19613
563.780	18577
563.841	18997
563.901	18816
563.962	19414
564.023	18573
564.083	18154
564.144	18564
564.204	19071
564.265	18021
564.325	18894
564.386	17489
564.446	18596
564.507	18283
564.567	17830
564.628	17086
564.688	18117
564.749	16861
564.809	17973
564.869	17601
564.930	16645
564.990	18441
565.050	17443
565.111	18134
565.171	17879
565.231	18529
565.292	18007
565.352	17052
565.412	18276
565.472	16864
565.532	16838
565.593	16247
565.653	17304
565.713	17138
565.773	18345
565.833	18243
565.893	18903
565.953	17622
566.013	16386
566.074	16073
566.134	16589
566.194	15152
566.254	14994
566.314	16018
566.374	15736
566.434	15387
566.494	15964
566.554	16494
566.614	16893
566.673	17083
566.733	17647
566.793	17695
566.853	17020
566.913	17689
566.973	16500
567.033	18028
567.092	17690
567.152	16193
567.212	17771
567.272	17429
567.331	17405
567.391	18512
567.451	18603
567.511	19534
567.570	17611
567.630	18443
567.690	17772
567.749	17773
567.809	16756
567.868	16902
567.928	16366
567.988	17271
568.047	16733
568.107	16516
568.166	16843
568.226	17512
568.285	17935
568.345	17496
568.404	17379
568.464	18061
568.523	17505
568.582	17339
568.642	17268
568.701	16865
568.761	16288
568.820	17307
568.879	16417
568.939	18010
568.998	17140
569.057	16736
569.116	16271
569.176	16818
569.235	16725
569.294	17067
569.353	15993
569.413	16276
569.472	15070
569.531	17051
569.590	15441
569.649	15469
569.708	15571
569.767	17452
569.827	15879
569.886	15866
569.945	15823
570.004	16786
570.063	16499
570.122	16459
570.181	16980
570.240	17656
570.299	17461
570.358	16791
570.417	17089
570.475	17670
570.534	17159
570.593	17152
570.652	17495
570.711	17657
570.770	17005
570.829	16802
570.887	17237
570.946	17461
571.005	17204
571.064	18547
571.122	19396
571.181	17311
571.240	16253
571.299	15535
571.357	16195
571.416	15856
571.475	15570
571.533	15707
571.592	17600
571.650	17147
571.709	17251
571.768	19165
571.826	18794
571.885	17761
571.943	17299
572.002	16344
572.060	16807
572.119	17247
572.177	16420
572.236	16220
572.294	17350
572.352	17470
572.411	17617
572.469	17043
572.528	16336
572.586	16139
572.644	16000
572.703	16277
572.761	14991
572.819	15054
572.877	15032
572.936	14669
572.994	13458
573.052	14241
573.110	14765
573.169	14958
573.227	15420
573.285	15534
573.343	15648
573.401	15234
573.459	16138
573.517	15075
573.576	16183
573.634	15662
573.692	14781
573.750	14707
573.808	14262
573.866	14112
573.924	15101
573.982	13959
574.040	14048
574.098	13984
574.155	13141
574.213	13554
574.271	14142
574.329	14997
574.387	13834
574.445	13624
574.503	13205
574.560	13197
574.618	12626
574.676	13752
574.734	12788
574.792	13631
574.849	12443
574.907	11358
574.965	11908
575.022	11738
575.080	11580
575.138	11861
575.195	11514
575.253	10991
575.311	10400
575.368	12515
575.426	10480
575.483	11396
575.541	11676
575.598	11126
575.656	11142
575.713	12186
575.771	12010
575.828	10947
575.886	10534
575.943	9825
576.001	10125
576.058	10451
576.115	9897
576.173	11120
576.230	11905
576.287	11067
576.345	10564
576.402	11349
576.459	11090
576.517	10913
576.574	10231
576.631	11125
576.688	10095
576.746	10148
576.803	9503
576.860	10456
576.917	10794
576.974	10648
577.031	10834
577.089	10295
577.146	10254
577.203	10571
577.260	10712
577.317	9609
577.374	9758
577.431	10051
577.488	9264
577.545	9104
577.602	10202
577.659	9904
577.716	10541
577.773	10335
577.830	8564
577.886	9329
577.943	9724
578.000	9513
578.057	9314
578.114	8877
578.171	9264
578.227	9953
578.284	9442
578.341	10507
578.398	10310
578.454	10127
578.511	9911
578.568	10867
578.625	9637
578.681	10085
578.738	10121
578.794	9418
578.851	9247
578.908	8848
578.964	10825
579.021	10231
579.077	9910
579.134	10422
579.190	9527
579.247	10033
579.303	9683
579.360	8973
579.416	10149
579.473	10205
579.529	10051
579.586	10301
579.642	10227
579.698	10413
579.755	10332
579.811	10613
579.867	10920
579.924	9912
579.980	10602
580.036	10281
580.093	10818
580.149	11137
580.205	10293
580.261	10450
580.317	10002
580.374	10879
580.430	11526
580.486	11093
580.542	10675
580.598	10186
580.619	10315
580.654	10551
580.692	10624
580.710	10684
580.765	10925
580.767	10948
580.823	12130
580.838	11794
580.879	10943
580.911	10894
580.935	10881
580.984	10578
580.991	10557
581.047	11100
581.057	11205
581.103	11715
581.130	11263
581.159	10812
581.203	10239
581.215	10110
581.270	10508
581.276	10453
581.326	10022
581.349	10040
581.382	10053
581.422	10089
581.438	10145
581.494	10143
581.494	10136
581.550	10363
581.567	10537
581.606	10889
581.640	9919
581.661	9355
581.713	10590
581.717	10697
581.773	10594
581.786	10647
581.829	10865
581.859	10753
581.885	10684
581.932	10505
581.940	10469
581.996	10062
582.004	10057
582.052	10139
582.077	10432
582.107	10797
582.150	10144
582.163	9934
582.219	9831
582.223	9824
582.274	9830
582.296	9417
582.330	8817
582.368	9459
582.386	9758
582.441	10070
582.441	10074
582.497	9989
582.514	9794
582.552	9580
582.587	9434
582.608	9332
582.659	9617
582.663	9634
582.719	10653
582.732	10267
582.774	9193
582.805	9803
582.830	10232
582.877	10217
582.885	10243
582.941	8908
582.950	9041
582.996	9429
583.023	9428
583.052	9648
583.095	9900
583.107	9924
583.162	9586
583.168	9622
583.218	9855
583.240	9348
583.273	8647
583.313	8793
583.328	8926
583.384	9001
583.385	8986
583.439	8158
583.458	8175
583.494	8425
583.531	9035
583.549	9373
583.603	9127
583.605	9109
583.660	8906
583.676	9229
583.715	10020
583.748	9551
583.770	9306
583.820	9096
583.825	9044
583.881	8793
583.893	8724
583.936	8958
583.965	8767
583.991	8395
584.038	8720
584.046	8785
584.101	8849
584.110	8864
584.156	8947
584.183	9014
584.211	9117
584.255	9881
584.266	10058
584.321	9694
584.328	9620
584.376	9003
584.400	9268
584.431	9644
584.472	9723
584.486	9682
584.541	10010
584.545	9995
584.596	10000
584.617	10029
584.651	10230
584.689	10551
584.706	10390
584.761	10564
584.762	10566
584.816	11049
584.834	11297
584.871	11359
584.906	11426
584.926	11649
584.978	13014
584.980	13056
585.035	14006
585.051	14533
585.090	15906
585.123	16608
585.145	17139
585.195	18841
585.200	19056
585.254	22575
585.267	23509
585.309	25928
585.340	28043
585.364	30165
585.412	35149
585.419	35994
585.473	45839
585.484	48468
585.528	62137
585.556	77762
585.583	105521
585.628	174201
585.637	196376
585.692	397069
585.700	425756
585.747	511201
585.772	419322
585.801	253961
585.845	91291
585.856	70133
585.910	37788
585.917	34738
585.965	25967
585.989	23079
586.019	21018
586.061	19197
586.074	18700
586.128	17362
586.133	17322
586.183	17089
586.205	16617
586.237	16027
586.277	15972
586.292	15995
586.346	15250
586.349	15325
586.401	16383
586.421	16099
586.455	15382
586.493	15509
586.509	15792
586.564	15874
586.565	15924
586.618	17731
586.637	18273
586.672	20133
586.709	23158
586.727	24174
586.781	25420
586.781	25395
586.835	19331
586.853	18165
586.889	16835
586.925	15453
586.944	14980
586.996	15456
586.998	15454
587.052	15412
587.068	15514
587.106	15926
587.140	15741
587.161	15510
587.212	15804
587.215	15801
587.269	15822
587.284	15907
587.323	16128
587.356	16508
587.377	16828
587.427	17487
587.431	17512
587.485	17463
587.499	17645
587.539	17898
587.571	18271
587.593	18592
587.643	19405
587.648	19451
587.702	19612
587.715	19847
587.755	20289
587.786	20122
587.810	19779
587.858	19563
587.864	19581
587.917	19840
587.930	20023
587.971	20272
588.001	20287
588.025	20100
588.073	19794
588.079	19824
588.133	19947
588.145	20207
588.187	20539
588.217	20452
588.241	20168
588.288	20111
588.295	20206
588.348	21505
588.360	21713
588.402	22060
588.431	22486
588.456	22783
588.503	23785
588.510	23888
588.564	24963
588.575	25317
588.617	26610
588.646	27649
588.671	28802
588.718	31691
588.725	32119
588.778	37725
588.789	39592
588.832	55568
588.861	70485
588.886	98534
588.932	169904
588.939	176466
588.993	212553
589.004	204755
589.047	99310
589.075	50072
589.100	38196
589.147	28504
589.154	27965
589.207	25712
589.218	25315
589.261	25659
589.290	26668
589.314	27616
589.361	30790
589.368	31770
589.421	41789
589.433	44823
589.475	71251
589.504	96172
589.528	125004
589.576	185402
589.582	180804
589.635	82118
589.647	65769
589.689	37344
589.718	24209
589.742	22948
589.790	21474
589.795	21358
589.849	20717
589.861	20690
589.902	20151
589.932	19844
589.955	19835
590.004	19672
590.009	19651
590.062	20158
590.075	20278
590.115	19751
590.146	19575
590.168	19544
590.218	19289
590.222	19284
590.275	20068
590.289	20271
590.328	20475
590.360	20634
590.381	20527
590.431	20510
590.435	20499
590.488	21047
590.503	21192
590.541	20966
590.574	20972
590.594	21127
590.645	21857
590.647	21859
590.700	23023
590.716	23394
590.753	23236
590.787	23206
590.806	23474
590.859	24740
590.859	24694
590.912	24710
590.930	24839
590.965	25244
591.001	25811
591.018	25476
591.071	24426
591.072	24466
591.124	24161
591.143	24192
591.177	24201
591.214	24310
591.230	24451
591.283	25006
591.285	25077
591.336	24366
591.356	24170
591.389	24848
591.427	25737
591.442	25463
591.495	24468
591.498	24463
591.547	24421
591.569	24445
591.600	24835
591.640	25486
591.653	25493
591.706	25542
591.711	25627
591.759	25822
591.782	26007
591.811	26335
591.853	26877
591.864	26992
591.917	27894
591.924	28080
591.969	27386
591.995	27082
592.022	27477
592.066	28334
592.075	28235
592.127	27955
592.137	27985
592.180	28208
592.208	28437
592.233	28918
592.279	30041
592.285	30061
592.338	30854
592.350	31088
592.390	30614
592.421	30413
592.443	30714
592.491	31652
592.495	31595
592.548	31878
592.562	32037
592.600	32170
592.633	32442
592.653	32149
592.704	31423
592.705	31621
592.775	32705
592.846	33687
592.916	32941
592.987	33679
593.058	33512
593.128	34810
593.199	35180
593.270	35949
593.341	35166
593.411	37358
593.482	37848
593.553	40368
593.623	39737
593.694	40294
593.764	41406
593.835	41908
593.906	41729
593.976	43573
594.047	44011
594.117	46953
594.188	47380
594.258	47946
594.329	48045
594.399	49132
594.470	50863
594.540	52446
594.611	51957
594.681	52915
594.751	52209
594.822	55033
594.892	56446
594.963	58036
595.033	59653
595.103	62904
595.174	62131
595.244	64294
595.314	66794
595.384	67709
595.455	69261
595.525	71869
595.595	76099
595.665	74878
595.736	72867
595.806	75313
595.876	76138
595.946	76396
596.016	79849
596.087	82997
596.157	81745
596.227	82598
596.297	88287
596.367	93260
596.437	100207
596.507	97747
596.577	97088
596.647	101272
596.717	107921
596.787	108245
596.857	107554
596.927	108008
596.997	109941
597.067	109543
597.137	111138
597.207	112479
597.277	112544
597.347	107758
597.417	105492
597.487	104649
597.557	107518
597.626	111083
597.696	112631
597.766	109725
597.836	103286
597.906	100015
597.975	97899
598.045	99262
598.115	104082
598.185	112871
598.254	126762
598.324	137339
598.394	138960
598.464	133723
598.533	131858
598.603	121939
598.672	117586
598.742	122946
598.812	120111
598.881	125438
598.951	123157
599.020	127709
599.090	130330
599.159	133667
599.229	126306
599.299	124215
599.368	128865
599.437	126398
599.507	115982
599.576	112382
599.646	109305
599.715	108354
599.785	107352
599.854	104615
599.924	101305
599.993	101985
600.062	104109
600.132	109391
600.201	114609
600.270	135258
600.340	139754
600.409	138444
600.478	134891
600.547	140294
600.617	121096
600.686	97622
600.755	88337
600.824	84901
600.894	81568
600.963	82696
601.032	81337
601.101	77845
601.170	73249
601.239	70726
601.308	70820
601.378	70146
601.447	71941
601.516	70227
601.585	72604
601.654	73614
601.723	75520
601.792	76057
601.861	78617
601.930	81449
601.999	80881
602.068	81074
602.137	82086
602.206	84617
602.275	84871
602.343	85663
602.412	86854
602.481	88493
602.550	88718
602.619	91233
602.688	91417
602.756	92873
602.825	94415
602.894	96115
602.963	96997
603.032	99983
603.100	98578
603.169	99681
603.238	100931
603.307	103637
603.375	103815
603.444	105991
603.513	106416
603.581	109995
603.650	109669
603.719	108252
603.787	112285
603.856	116203
603.924	119087
603.993	123240
604.061	127479
604.130	132725
604.198	136752
604.267	139145
604.335	141960
604.404	143816
604.472	145718
604.541	147014
604.609	147819
604.678	147640
604.746	148086
604.815	152415
604.883	154104
604.951	155884
605.020	159897
605.088	163774
605.156	166662
605.225	168708
605.293	169586
605.361	170232
605.429	172565
605.498	176529
605.566	180004
605.634	189110
605.702	196744
605.771	203006
605.839	201373
605.907	197784
605.975	188795
606.043	188316
606.111	187635
606.180	187108
606.248	183800
606.316	183486
606.384	182248
606.452	185290
606.520	193468
606.588	197196
606.656	200498
606.724	192983
606.792	183748
606.860	163404
606.928	150633
606.996	144071
607.064	141276
607.132	146789
607.200	156007
607.267	162004
607.335	164805
607.403	168644
607.471	160515
607.539	157291
607.607	158567
607.674	139139
607.742	139758
607.810	136601
607.878	137420
607.946	140772
608.013	147270
608.081	150398
608.149	150930
608.216	158517
608.284	161078
608.352	162516
608.419	159838
608.487	159161
608.555	154882
608.622	160412
608.690	173094
608.757	190936
608.825	190722
608.893	186865
608.960	173761
609.028	168142
609.095	168601
609.163	167994
609.230	147849
609.298	137250
609.365	146227
609.432	157684
609.500	172995
609.567	197406
609.635	225420
609.702	233743
609.769	219122
609.837	168886
609.904	148237
609.971	153037
610.039	170468
610.106	214012
610.173	368455
610.241	724876
610.308	387626
610.375	182675
610.442	161125
610.509	154558
610.577	155932
610.644	158279
610.711	162981
610.778	167349
610.845	175069
610.912	184249
610.980	191675
611.047	192253
611.114	188454
611.181	183474
611.248	182268
611.315	196036
611.382	198378
611.449	205581
611.516	207494
611.583	205455
611.650	206194
611.717	209646
611.784	211678
611.851	220558
611.918	230117
611.984	261300
612.051	339289
612.118	576234
612.185	1081127
612.252	694259
612.319	304726
612.386	265582
612.452	243870
612.519	233088
612.586	227387
612.653	234557
612.719	243711
612.786	230218
612.853	215576
612.919	214117
612.986	214906
613.053	202945
613.120	190483
613.186	184436
613.253	187485
613.319	185692
613.386	187817
613.453	189876
613.519	191787
613.586	186791
613.652	190653
613.719	188798
613.785	191522
613.852	192435
613.918	191377
613.985	196808
614.051	200775
614.118	199259
614.184	190351
614.250	192537
614.317	197009
614.383	194012
614.449	198088
614.516	197151
614.582	196768
614.648	194268
614.715	190858
614.781	187155
614.847	188055
614.914	185733
614.980	180741
615.046	185668
615.112	189057
615.179	190057
615.245	191943
615.311	187764
615.377	192553
615.443	192934
615.509	196050
615.575	202948
615.642	199653
615.708	205086
615.774	213938
615.840	223367
615.906	234981
615.972	271744
616.038	371282
616.104	677956
616.170	1167994
616.236	937033
616.302	405069
616.368	335315
616.434	250358
616.500	238801
616.565	266586
616.631	322892
616.697	265253
616.763	276315
616.829	411628
616.895	674471
616.961	587818
617.026	277063
617.092	210495
617.158	203368
617.224	194112
617.289	182814
617.355	172547
617.421	172774
617.487	171903
617.552	166115
617.618	163075
617.684	163895
617.749	165717
617.815	157794
617.880	153727
617.946	155742
618.012	158529
618.077	160954
618.143	153196
618.208	155571
618.274	170146
618.339	165868
618.405	138211
618.470	140839
618.536	138184
618.601	137298
618.667	127269
618.732	121611
618.798	119879
618.863	121476
618.928	119545
618.994	121378
619.059	119281
619.124	122304
619.190	118580
619.255	119701
619.320	119678
619.386	120693
619.451	117277
619.516	115017
619.581	118356
619.647	121668
619.712	120320
619.777	115768
619.842	116280
619.907	119393
619.972	119996
620.038	118081
620.103	117604
620.168	117447
620.233	119177
620.298	119575
620.363	119200
620.428	123929
620.493	128015
620.558	128177
620.623	129502
620.688	129948
620.753	127836
620.818	130587
620.883	131562
620.948	131147
621.013	127641
621.078	127653
621.143	127495
621.207	131990
621.272	128020
621.337	122983
621.402	123366
621.467	122569
621.532	121199
621.596	122003
621.661	118636
621.726	117985
621.791	118905
621.855	119074
621.920	118030
621.985	119979
622.049	123769
622.114	122853
622.179	123255
622.243	126125
622.308	132026
622.373	136879
622.437	131534
622.502	125583
622.566	124288
622.631	121835
622.695	126045
622.760	124876
622.824	125938
622.889	124711
622.953	124700
623.018	134815
623.082	132997
623.147	132312
623.211	128694
623.276	130802
623.340	125361
623.404	121954
623.469	122233
623.533	124177
623.597	120618
623.662	118634
623.726	110269
623.790	105370
623.854	102095
623.919	103651
623.983	104613
624.047	107731
624.111	107532
624.176	109112
624.240	109431
624.304	115084
624.368	110814
624.432	110793
624.496	113786
624.560	118902
624.625	117879
624.689	119265
624.753	124477
624.817	117238
624.881	113367
624.945	104564
625.009	100908
625.073	103099
625.137	106154
625.201	109794
625.265	109347
625.329	106524
625.393	107387
625.456	108070
625.520	111003
625.584	112839
625.648	113470
625.712	117912
625.776	115028
625.839	109548
625.903	91644
625.967	87240
626.031	95978
626.095	111461
626.158	100101
626.222	80825
626.286	75232
626.349	72373
626.413	66472
626.477	68906
626.540	68914
626.604	68258
626.668	67190
626.731	65274
626.795	65781
626.858	65401
626.922	64729
626.986	64686
627.049	62808
627.113	67163
627.176	64201
627.240	63826
627.303	61902
627.366	61420
627.430	63422
627.493	60921
627.557	59271
627.620	61681
627.684	64495
627.747	64922
627.810	56499
627.874	53190
627.937	49883
628.000	54866
628.064	50842
628.127	44914
628.190	45907
628.253	44107
628.317	42151
628.380	41291
628.443	38979
628.506	38802
628.569	38465
628.632	35406
628.696	35267
628.759	35697
628.822	33544
628.885	33203
628.948	33119
629.011	32907
629.074	30938
629.137	30271
629.200	28810
629.263	29701
629.326	28109
629.389	27785
629.452	28954
629.515	27753
629.578	27517
629.641	28095
629.704	27871
629.767	26744
629.830	26658
629.892	25839
629.955	25718
630.018	28977
630.081	24233
630.144	26744
630.207	24526
630.269	26638
630.332	24778
630.395	24677
630.458	23723
630.520	22454
630.583	24161
630.646	24729
630.708	24366
630.771	24303
630.834	26605
630.896	25616
630.959	25748
631.021	24313
631.084	24624
631.146	24417
631.209	24905
631.272	24644
631.334	25414
631.397	26085
631.459	25070
631.522	28050
631.584	27499
631.646	31171
631.709	31488
631.771	32077
631.834	30017
631.896	27514
631.958	25206
632.021	25864
632.083	23236
632.145	24778
632.208	23104
632.270	23604
632.332	22461
632.395	22214
632.457	23548
632.519	21935
632.581	24058
632.643	21942
632.706	22741
632.768	20996
632.830	23166
632.892	23184
632.954	22184
633.016	24373
633.078	23028
633.141	23638
633.203	22574
633.265	22924
633.327	23035
633.389	21801
633.451	23574
633.513	22864
633.575	24218
633.637	22708
633.698	23875
633.760	26332
633.822	26876
633.884	27462
633.946	27730
634.008	28690
634.070	30198
634.132	31162
634.193	35258
634.255	39113
634.317	38580
634.379	39259
634.441	32912
634.502	29922
634.564	26917
634.626	24836
634.687	24389
634.749	23075
634.811	22172
634.873	21625
634.934	22281
634.996	23714
635.057	21723
635.119	22400
635.181	22220
635.242	25561
635.304	22350
635.365	25402
635.427	23154
635.488	22808
635.550	22908
635.611	24833
635.673	22918
635.734	26673
635.796	27311
635.857	31060
635.918	31798
635.980	36138
636.041	38605
636.102	42380
636.164	44208
636.225	41128
636.286	32688
636.348	31994
636.409	26490
636.470	24687
636.531	24236
636.593	22618
636.654	22228
636.715	20816
636.776	20953
636.838	19936
636.899	20268
636.960	19759
637.021	18300
637.082	18625
637.143	18538
637.204	18890
637.265	17747
637.326	19079
637.387	19775
637.448	17950
637.509	19416
637.570	18193
637.631	19660
637.692	16538
637.753	16160
637.814	18243
637.875	17734
637.936	17924
637.997	16437
638.058	16184
638.119	16841
638.179	16950
638.240	17118
638.301	17604
638.362	15602
638.423	16827
638.483	16749
638.544	14340
638.605	17002
638.666	14949
638.726	16557
638.787	16783
638.848	16317
638.908	15984
638.969	15864
639.030	14522
639.090	14525
639.151	15237
639.211	15856
639.272	16470
639.332	15990
639.393	16690
639.453	16413
639.514	17867
639.574	15606
639.635	14235
639.695	15792
639.756	13379
639.816	14101
639.877	14742
639.937	15301
639.997	14836
640.058	13333
640.118	13393
640.178	14806
640.239	14967
640.299	14731
640.359	14045
640.420	15041
640.480	19543
640.540	21420
640.600	20187
640.661	18387
640.721	16762
640.781	16479
640.841	13217
640.901	15796
640.961	14562
641.021	15141
641.082	16553
641.142	15008
641.202	15070
641.262	12276
641.322	14245
641.382	12773
641.442	13740
641.502	13454
641.562	14802
641.622	13846
641.682	15901
641.742	18532
641.802	16294
641.861	14897
641.921	12908
641.981	13126
642.041	13004
642.101	12326
642.161	11106
642.221	11288
642.280	13199
642.340	12228
642.400	11793
642.460	13674
642.519	12029
642.579	13111
642.639	15057
642.698	10111
642.758	15604
642.818	14015
642.877	12497
642.937	12988
642.997	13937
643.056	13272
643.116	12308
643.175	14448
643.235	14474
643.294	14122
643.354	15527
643.414	16638
643.473	20368
643.532	23000
643.592	31799
643.651	47538
643.711	81227
643.770	157613
643.830	373529
643.889	605680
643.948	158805
644.008	40918
644.067	26029
644.126	20118
644.186	17414
644.245	15748
644.304	13302
644.363	16311
644.423	13314
644.482	13915
644.541	15978
644.600	14320
644.659	19241
644.719	24222
644.778	39030
644.837	67275
644.896	142109
644.955	288734
645.014	78987
645.073	22260
645.132	17015
645.191	15527
645.250	14508
645.309	16757
645.368	18859
645.427	26025
645.486	48074
645.545	74573
645.604	20108
645.663	14389
645.722	14092
645.781	15143
645.840	18039
645.898	19922
645.957	29862
646.016	43592
646.075	79130
646.134	151954
646.192	396065
646.251	456054
646.310	81084
646.369	30905
646.427	25665
646.486	18740
646.545	15370
646.603	13908
646.662	13798
646.721	12505
646.779	12535
646.838	12454
646.896	18095
646.955	24203
647.014	39743
647.072	81101
647.131	205818
647.189	77864
647.248	15899
647.306	12209
647.365	12228
647.423	9080
647.481	11623
647.540	8330
647.598	9704
647.657	9664
647.715	10719
647.773	8458
647.832	9465
647.890	6699
647.948	7668
648.007	8691
648.065	7141
648.123	6610
648.181	9688
648.240	8032
648.298	6999
648.356	7744
648.414	7837
648.472	7325
648.531	7742
648.589	7023
648.647	6302
648.705	7605
648.763	7418
648.821	8128
648.879	8088
648.937	9083
648.995	11341
649.053	15046
649.111	22869
649.169	37698
649.227	69402
649.285	149664
649.343	373286
649.401	144214
649.459	23679
649.516	14373
649.574	10753
649.632	11674
649.690	13303
649.748	18052
649.806	27046
649.863	54720
649.921	152437
649.979	79549
650.037	12091
650.094	6668
650.152	7145
650.210	4579
650.268	6783
650.325	5000
650.383	5644
650.440	4351
650.498	5644
650.556	4305
650.613	4326
650.671	5488
650.728	4409
650.786	5317
650.843	9163
650.901	4431
650.958	4484
651.016	4661
651.073	3692
651.131	3725
651.188	3727
651.246	3599
651.303	3033
651.360	2923
651.418	3516
651.475	5070
651.532	3059
651.590	4485
651.647	3545
651.704	3568
651.762	3880
651.819	3721
651.876	3277
651.933	3788
651.990	4362
652.048	1869
652.105	2597
652.162	3286
652.219	1995
652.276	3806
652.333	3125
652.390	1651
652.448	2662
652.505	3679
652.562	2778
652.619	2280
652.676	2847
652.733	3627
652.790	2538
652.847	1613
652.904	3297
652.961	1739
653.017	2415
653.074	2702
653.131	2889
653.188	2408
653.245	2697
653.302	1840
653.359	2383
653.415	2718
653.472	2250
653.529	2679
653.586	1145
653.642	2910
653.699	3294
653.756	1792
653.813	2063
653.869	2766
653.926	2272
653.983	2057
654.039	2528
654.096	2122
654.152	3068
654.209	1341
654.266	2704
654.322	1719
654.379	2758
654.435	2663
654.492	2369
654.548	2001
654.605	2147
654.661	3409
654.717	1796
654.774	2060
654.830	2082
654.887	2118
654.943	2597
655.000	1893
655.056	2321
655.112	2048
655.168	1966
655.225	2438
655.281	2612
655.337	1856
655.394	1623
655.450	2075
655.506	2728
655.562	2485
655.618	3137
655.675	1909
655.731	2120
655.787	2651
655.843	3304
655.899	2180
655.955	3321
656.011	4049
656.067	2698
656.123	4266
656.179	3665
656.235	5610
656.291	3689
656.347	4099
656.403	2985
656.459	3029
656.515	3780
656.571	2372
656.627	2827
656.683	2533
656.739	1884
656.795	2570
656.850	2086
656.906	1899
656.962	2901
657.018	1844
657.074	4279
657.129	5190
657.185	9610
657.241	22999
657.297	9370
657.352	3013
657.408	1876
657.464	2264
657.519	1485
657.575	1178
657.630	1797
657.686	1864
657.742	1125
657.797	981
657.853	1022
657.908	2093
657.964	820
658.019	1173
658.075	1517
658.130	2173
658.186	1177
658.241	1868
658.297	404
658.352	1345
658.407	1444
658.463	840
658.518	1880
658.573	1145
658.629	1149
658.684	2246
658.739	2076
658.795	952
658.850	2565
658.905	579
658.960	1763
659.016	404
659.071	1714
659.126	368
659.181	1249
659.236	2539
659.291	1844
659.346	1195
659.401	770
659.457	1115
659.512	971
659.567	2036
659.622	998
659.677	1570
659.732	759
659.787	1429
659.842	597
659.897	566
659.952	1149
660.007	663
660.061	1727
660.116	811
660.171	705
660.226	1813
660.281	1917
660.336	817
660.391	1569
660.445	885
660.500	1558
660.555	1206
660.610	1573
660.664	1349
660.719	1392
660.774	840
660.828	599
660.883	977
660.938	1165
660.992	311
661.047	1675
661.101	123
661.156	438
661.211	-60
661.265	855
661.320	306
661.374	1106
661.429	334
661.483	2066
661.538	116
661.592	782
661.647	1550
661.701	1237
661.755	1279
661.810	1586
661.864	141
661.919	1040
661.973	887
662.027	704
662.081	231
662.136	603
662.190	882
662.244	1098
662.299	998
662.353	1807
662.407	807
662.461	694
662.515	642
662.569	618
662.624	1539
662.678	910
662.732	1020
662.786	1132
662.840	926
662.894	1445
662.948	297
663.002	1212
663.056	730
663.110	803
663.164	867
663.218	1117
663.272	1167
663.326	1590
663.380	1238
663.434	1365
663.488	313
663.542	1111
663.595	961
663.649	606
663.703	1899
663.757	783
663.811	441
663.864	1480
663.918	1372
663.972	809
664.026	912
664.079	1509
664.133	1251
664.187	774
664.240	1179
664.294	756
664.348	1239
664.401	1755
664.455	954
664.508	539
664.562	389
664.615	924
664.669	823
664.722	1033
664.776	1036
664.829	1601
664.883	1328
664.936	1026
664.990	1139
665.043	2101
665.097	979
665.150	1802
665.203	1772
665.257	1767
665.310	1126
665.363	1182
665.417	1616
665.470	2031
665.523	1091
665.576	1260
665.630	1042
665.683	1766
665.736	1632
665.789	918
665.842	680
665.895	2276
665.949	1810
666.002	1712
666.055	1255
666.108	1956
666.161	1102
666.214	2425
666.267	1675
666.320	2357
666.373	1441
666.426	1210
666.479	842
666.532	788
666.585	1813
666.638	2131
666.691	1417
666.744	2760
666.796	343
666.849	1447
666.902	1474
666.955	1052
667.008	972
667.060	1592
667.113	1030
667.166	1882
667.219	2095
667.271	2212
667.324	1560
667.377	1942
667.430	651
667.482	1733
667.535	902
667.587	1881
667.640	1121
667.693	1807
667.745	2531
667.798	2307
667.850	2119
667.903	1917
667.955	1228
668.008	1134
668.060	1028
668.113	1789
668.165	1757
668.218	814
668.270	1682
668.322	1134
668.375	1245
668.427	1156
668.479	1636
668.532	985
668.584	1429
668.636	1481
668.689	1336
668.741	1538
668.793	1548
668.845	1501
668.898	1348
668.950	1856
669.002	942
669.054	752
669.106	853
669.158	1023
669.211	1267
669.263	1319
669.315	1881
669.367	1964
669.419	525
669.471	2219
669.523	389
669.575	1564
669.627	556
669.679	1858
669.731	1311
669.783	1213
669.835	1217
669.886	1049
669.938	1425
669.990	1989
670.042	518
670.094	956
670.146	269
670.197	998
670.249	963
670.301	1557
670.353	977
670.404	1750
670.456	1354
670.508	1743
670.560	2470
670.611	2384
670.663	4445
670.715	12413
670.766	15677
670.818	4859
670.869	2157
670.921	1873
670.972	1887
671.024	1992
671.075	1514
671.127	2164
671.178	789
671.230	2431
671.281	2762
671.333	3220
671.384	3263
671.436	5472
671.487	8649
671.538	12327
671.590	19025
671.641	34766
671.692	67860
671.744	123150
671.795	70410
671.846	20821
671.897	10449
671.949	5846
672.000	4708
672.051	4136
672.102	3268
672.153	2007
672.204	2075
672.256	1895
672.307	1747
672.358	1771
672.409	896
672.460	1535
672.511	1188
672.562	908
672.613	775
672.664	684
672.715	1129
672.766	89
672.817	1177
672.868	523
672.919	748
672.970	557
673.021	839
673.071	64
673.122	663
673.173	489
673.224	288
673.275	1009
673.326	669
673.376	723
673.427	594
673.478	1348
673.528	1345
673.579	934
673.630	-11
673.680	1442
673.731	882
673.782	740
673.832	605
673.883	740
673.934	657
673.984	838
674.035	1495
674.085	1216
674.136	1120
674.186	818
674.237	236
674.287	-42
674.338	660
674.388	1236
674.438	366
674.489	1171
674.539	1373
674.589	1109
674.640	754
674.690	1100
674.740	811
674.791	787
674.841	1126
674.891	863
674.942	529
674.992	754
675.042	-153
675.092	45
675.142	99
675.193	657
675.243	-268
675.293	1531
675.343	150
675.393	548
675.443	232
675.493	1348
675.543	470
675.593	1017
675.643	439
675.693	595
675.743	845
675.793	539
675.843	-224
675.893	937
675.943	772
675.993	772
676.043	524
676.093	1116
676.142	-500
676.192	280
676.242	793
676.292	384
676.341	-739
676.391	844
676.441	-725
676.491	546
676.540	-285
676.590	670
676.640	-482
676.689	123
676.739	-189
676.789	181
676.838	78
676.888	652
676.937	-365
676.987	32
677.037	-113
677.086	-88
677.136	93
677.185	960
677.235	-332
677.284	810
677.333	105
677.383	-172
677.432	-845
677.482	1295
677.531	-413
677.580	-721
677.630	-1123
677.679	-511
677.728	-702
677.778	448
677.827	259
677.876	109
677.925	-43
677.975	615
678.024	464
678.073	590
678.122	71
678.171	225
678.220	-233
678.269	963
678.319	1464
678.368	663
678.417	873
678.466	56
678.515	169
678.564	-14
678.613	-495
678.662	-904
678.711	-378
678.760	378
678.809	193
678.857	199
678.906	218
678.955	-51
679.004	165
679.053	-138
679.102	-887
679.151	241
679.199	-556
679.248	-23
679.297	159
679.346	332
679.394	-415
679.443	230
679.492	-142
679.540	338
679.589	-144
679.638	-53
679.686	-483
679.735	773
679.784	304
679.832	1141
679.881	-249
679.929	-261
679.978	-514
680.026	224
680.075	906
680.123	178
680.172	-696
680.220	546
680.268	-138
680.317	-100
680.365	-16
680.414	-404
680.462	-512
680.510	203
680.559	518
680.607	-625
680.655	-6
680.703	-501
680.752	-347
680.800	-539
680.848	-619
680.896	-78
680.945	-318
680.993	-581
681.041	-841
681.089	165
681.137	-7
681.185	-280
681.233	-510
681.258	-421
681.281	-350
681.329	-204
681.377	291
681.380	251
681.425	-724
681.473	284
681.502	120
681.521	-18
681.569	623
681.617	-476
681.624	-420
681.665	-136
681.713	524
681.745	394
681.761	304
681.809	-852
681.857	314
681.867	342
681.904	400
681.952	238
681.989	64
682.000	-5
682.048	354
682.096	-13
682.111	-71
682.143	-239
682.191	500
682.233	1123
682.239	1200
682.286	616
682.334	-239
682.354	54
682.382	415
682.430	620
682.476	352
682.477	336
682.525	108
682.572	276
682.598	453
682.620	592
682.667	698
682.715	722
682.720	715
682.763	503
682.810	741
682.841	448
682.857	277
682.905	483
682.952	619
682.963	674
683.000	834
683.047	831
683.085	1366
683.095	1502
683.142	629
683.190	1442
683.206	1092
683.237	412
683.284	1691
683.328	1095
683.332	1031
683.379	907
683.426	627
683.449	710
683.473	815
683.521	752
683.568	985
683.571	958
683.615	427
683.662	1073
683.693	814
683.709	642
683.757	729
683.804	1188
683.814	1158
683.851	1084
683.898	1250
683.936	864
683.945	754
683.992	450
684.039	1893
684.057	1830
684.086	1668
684.133	1347
684.179	534
684.180	504
684.227	1409
684.274	827
684.300	1364
684.321	1782
684.368	927
684.415	1456
684.422	1384
684.462	791
684.509	965
684.543	794
684.556	759
684.603	1656
684.649	1040
684.665	1085
684.696	1137
684.743	1704
684.786	1637
684.790	1618
684.837	1611
684.883	1476
684.908	1396
684.930	1361
684.977	1853
685.023	1622
685.029	1586
685.070	1173
685.117	1944
685.150	1838
685.164	1807
685.210	1400
685.257	2277
685.272	2094
685.303	1644
685.350	2201
685.393	1427
685.396	1357
685.443	1747
685.490	1929
685.514	1567
685.536	1334
685.583	1615
685.629	2011
685.636	1973
685.675	1603
685.722	2135
685.757	1834
685.768	1767
685.815	1075
685.861	1767
685.878	1939
685.908	2105
685.954	1958
686.000	2018
686.000	2017
686.047	1855
686.093	2365
686.121	2263
686.139	2211
686.185	1908
686.232	1634
686.242	1852
686.278	2470
686.324	2515
686.363	2224
686.370	2200
686.416	2020
686.463	2656
686.484	2527
686.509	2289
686.555	2221
686.601	2121
686.606	2150
686.647	2508
686.693	1872
686.727	2079
686.739	2173
686.785	1734
686.831	2297
686.848	2464
686.877	2630
686.923	2207
686.969	2351
686.969	2352
687.015	1954
687.061	2305
687.090	2927
687.107	3207
687.153	2888
687.199	2998
687.211	2773
687.245	2271
687.291	2674
687.332	2715
687.336	2708
687.382	2892
687.428	2990
687.453	3122
687.474	3319
687.520	2808
687.565	3477
687.574	3398
687.611	2990
687.657	3357
687.695	3170
687.702	3148
687.748	3297
687.794	3039
687.816	3392
687.839	3688
687.885	3684
687.931	3222
687.937	3259
687.976	3538
688.022	3418
688.058	3253
688.067	3179
688.113	3012
688.158	2617
688.179	2824
688.204	3246
688.249	2876
688.295	3951
688.300	3853
688.340	2895
688.386	3633
688.421	2793
688.431	2640
688.477	3522
688.522	3662
688.542	3767
688.567	3916
688.613	3800
688.658	4349
688.663	4369
688.703	4106
688.749	3427
688.784	3437
688.794	3524
688.839	3632
688.884	3687
688.905	3708
688.930	3613
688.975	3339
689.020	3085
689.026	3076
689.065	3317
689.110	3941
689.146	3536
689.155	3428
689.201	3986
689.246	3654
689.267	3725
689.291	3782
689.336	3887
689.381	4056
689.388	4005
689.426	3841
689.471	4206
689.509	3990
689.516	3918
689.561	3955
689.606	3734
689.630	3893
689.651	4125
689.696	3664
689.741	3731
689.750	3768
689.785	4025
689.830	3973
689.871	4068
689.875	4063
689.920	4180
689.965	3967
689.992	3901
690.010	3895
690.054	3743
690.099	3863
690.112	3893
690.144	4026
690.189	3784
690.233	3593
690.233	3599
690.278	3640
690.323	3885
690.354	3834
690.367	3883
690.412	3705
690.457	4186
690.474	4286
690.501	4237
690.546	3856
690.590	3285
690.595	3286
690.635	3693
690.680	3606
690.716	3915
690.724	3961
690.769	3882
690.813	4101
690.836	3768
690.857	3677
690.902	4590
690.946	4525
690.957	4548
690.991	4486
691.035	4837
691.077	5433
691.080	5459
691.124	4619
691.168	4670
691.198	4548
691.213	4476
691.257	4712
691.301	4337
691.318	4114
691.346	4066
691.390	4020
691.434	4474
691.439	4445
691.478	4135
691.522	4407
691.559	4515
691.567	4545
691.611	4651
691.655	4544
691.680	4549
691.699	4602
691.743	4337
691.787	4864
691.800	4707
691.831	4282
691.875	4528
691.919	4306
691.921	4298
691.964	4389
692.008	4378
692.041	4274
692.052	4303
692.096	4301
692.139	4564
692.162	4542
692.183	4399
692.227	4434
692.271	4068
692.282	4054
692.315	4258
692.359	4430
692.402	4260
692.403	4270
692.447	4412
692.490	4725
692.523	4496
692.534	4419
692.578	4541
692.622	4510
692.643	4563
692.666	4551
692.709	4681
692.753	4422
692.763	4373
692.797	4443
692.840	4364
692.884	4844
692.884	4857
692.928	4457
692.971	4396
693.004	4444
693.015	4535
693.059	4484
693.102	4652
693.124	4504
693.146	4300
693.189	4501
693.233	4498
693.245	4461
693.276	4471
693.320	4568
693.363	4298
693.365	4292
693.407	4704
693.450	5137
693.485	5086
693.493	5063
693.537	5307
693.580	5071
693.605	5416
693.624	5582
693.667	5232
693.710	5033
693.725	4965
693.753	5113
693.797	5199
693.840	5621
693.845	5655
693.883	5680
693.926	4841
693.966	5046
693.970	5107
694.013	5193
694.056	5146
694.086	5109
694.099	5058
694.142	4964
694.185	5086
694.206	4997
694.229	5127
694.272	5246
694.315	5711
694.326	5733
694.358	5605
694.401	5663
694.444	5420
694.446	5408
694.487	5649
694.530	5507
694.566	5668
694.573	5685
694.616	5558
694.659	5472
694.686	5180
694.702	5095
694.745	5473
694.787	5449
694.806	5442
694.830	5468
694.873	5509
694.916	5393
694.926	5397
694.959	5634
695.002	5930
695.044	6129
695.046	6124
695.087	6287
695.130	6263
695.166	6415
695.172	6465
695.215	6329
695.258	6632
695.286	6627
695.301	6629
695.343	6758
695.386	6791
695.406	6753
695.428	7058
695.471	7746
695.514	8372
695.526	8536
695.556	9108
695.599	9968
695.641	10817
695.646	10857
695.684	10231
695.726	9518
695.766	8996
695.769	8992
695.811	8432
695.854	8118
695.886	7669
695.896	7788
695.938	8408
695.981	8731
696.005	9068
696.023	9307
696.065	9760
696.108	10238
696.125	10355
696.150	10603
696.192	11030
696.235	11365
696.245	11484
696.277	11658
696.319	11517
696.361	11524
696.365	11504
696.404	11141
696.446	10623
696.485	9987
696.488	10025
696.530	10327
696.572	10487
696.604	10640
696.614	10585
696.656	10121
696.698	9815
696.724	9602
696.740	9905
696.783	10556
696.825	11210
696.844	11547
696.867	11667
696.909	11513
696.951	11550
696.964	11526
696.992	11399
697.034	11239
697.076	11062
697.083	10989
697.118	11531
697.160	12258
697.202	12885
697.203	12869
697.244	12193
697.286	11529
697.323	10839
697.327	10920
697.369	11574
697.411	11958
697.442	12348
697.453	12380
697.494	12280
697.536	12280
697.562	12208
697.578	12173
697.620	11977
697.661	11793
697.682	11685
697.703	11969
697.744	12508
697.786	13014
697.801	13135
697.828	13247
697.869	13428
697.911	13597
697.921	13594
697.952	13276
697.994	12814
698.035	12426
698.040	12341
698.077	12804
698.118	13273
698.160	13724
698.160	13689
698.201	13862
698.243	13973
698.279	14074
698.284	14165
698.325	14633
698.367	15133
698.399	15439
698.408	15489
698.449	15529
698.491	15604
698.518	15606
698.532	15606
698.573	15494
698.614	15386
698.638	15251
698.656	15303
698.697	15395
698.738	15427
698.757	15416
698.779	15373
698.820	15209
698.862	15043
698.877	14946
698.903	15185
698.944	15488
698.985	15798
698.996	15844
699.026	15640
699.067	15296
699.116	14848
699.235	14987
699.354	15140
699.474	13910
699.593	14017
699.713	14320
699.832	14014
699.951	15152
700.070	14918
700.190	13670
700.309	13183
700.428	13821
700.547	13360
700.667	12619
700.786	13019
700.905	11563
701.024	13088
701.143	11984
701.262	12874
701.381	12914
701.500	13796
701.619	12913
701.738	13129
701.857	13371
701.976	12207
702.095	12504
702.214	13340
702.333	12142
702.452	12944
702.571	12759
702.690	13388
702.809	12252
702.928	13099
703.047	11303
703.165	12622
703.284	11022
703.403	11226
703.522	10931
703.640	11593
703.759	10967
703.878	11887
703.997	11632
704.115	12464
704.234	12073
704.353	11235
704.471	9487
704.590	11136
704.708	9909
704.827	10721
704.946	9877
705.064	10304
705.183	9807
705.301	10280
705.420	10006
705.538	9220
705.656	9133
705.775	8646
705.893	10259
706.012	9549
706.130	9361
706.249	9541
706.367	9215
706.485	9258
706.604	8217
706.722	8869
706.840	9308
706.958	9039
707.077	8243
707.195	8453
707.313	8640
707.431	8114
707.549	8085
707.668	7129
707.786	9234
707.904	7405
708.022	8148
708.140	8203
708.258	8015
708.376	8888
708.494	8061
708.612	8730
708.730	8619
708.848	8204
708.966	8352
709.084	8113
709.202	8004
709.320	7540
709.438	7202
709.556	7306
709.674	6700
709.791	7231
709.909	6709
710.027	7023
710.145	7256
710.263	7397
710.380	6618
710.498	6058
710.616	6571
710.733	6393
710.851	6120
710.969	6772
711.086	5532
711.204	6207
711.322	6253
711.439	6579
711.557	5962
711.674	5662
711.792	5990
711.909	5754
712.027	5803
712.144	6768
712.262	6408
712.379	6737
712.497	6059
712.614	5751
712.732	7089
712.849	5860
712.966	5737
713.084	6618
713.201	5658
713.318	6767
713.436	6346
713.553	6533
713.670	7103
713.787	7663
713.905	6277
714.022	7109
714.139	7991
714.256	12997
714.373	19673
714.490	42704
714.608	132421
714.725	547928
714.842	401178
714.959	34484
715.076	13149
715.193	10541
715.310	9146
715.427	6983
715.544	7074
715.661	6969
715.778	5048
715.895	6152
716.011	5860
716.128	6375
716.245	5920
716.362	6125
716.479	4304
716.596	6418
716.713	5300
716.829	4208
716.946	4504
717.063	4597
717.180	4808
717.296	5015
717.413	4818
717.530	5155
717.646	4001
717.763	4421
717.880	4504
717.996	4354
718.113	3877
718.229	4609
718.346	3965
718.462	3650
718.579	4905
718.695	5333
718.812	4376
718.928	4489
719.045	3883
719.161	4638
719.277	4599
719.394	5108
719.510	4968
719.626	6579
719.743	9766
719.859	17913
719.975	43471
720.092	201433
720.208	358478
720.324	30665
720.440	9349
720.557	5873
720.673	6906
720.789	4769
720.905	4227
721.021	4595
721.137	4240
721.253	3938
721.369	4278
721.486	3742
721.602	3012
721.718	3822
721.834	3480
721.950	3935
722.066	3998
722.181	3458
722.297	3360
722.413	3249
722.529	3752
722.645	3341
722.761	3455
722.877	3496
722.993	4668
723.108	7595
723.224	4245
723.340	3910
723.456	3270
723.571	3085
723.687	2665
723.803	3371
723.918	2825
724.034	3634
724.150	2334
724.265	3832
724.381	2588
724.497	2699
724.612	3018
724.728	2164
724.843	2471
724.959	2613
725.074	3888
725.190	2949
725.305	3298
725.421	2756
725.536	2551
725.651	3408
725.767	3239
725.882	3396
725.997	2803
726.113	3312
726.228	2479
726.343	3103
726.459	2692
726.574	3409
726.689	3417
726.804	3985
726.920	2714
727.035	3201
727.150	2800
727.265	2746
727.380	2784
727.495	3321
727.610	3266
727.725	2874
727.841	2191
727.956	3254
728.071	3418
728.186	2574
728.301	2271
728.416	3423
728.531	2541
728.645	2677
728.760	2385
728.875	3470
728.990	1934
729.105	1906
729.220	2382
729.335	2571
729.449	2423
729.564	2782
729.679	2349
729.794	3054
729.908	2373
730.023	3289
730.138	2736
730.253	2948
730.367	2738
730.482	2538
730.596	2640
730.711	4159
730.826	5163
730.940	4707
731.055	3807
731.169	4102
731.284	4186
731.398	4269
731.513	3705
731.627	6061
731.742	7576
731.856	8739
731.970	9435
732.085	12646
732.199	18870
732.313	38727
732.428	115701
732.542	340756
732.656	151114
732.771	25093
732.885	13965
732.999	12694
733.113	13038
733.227	12197
733.342	10491
733.456	10745
733.570	10446
733.684	8957
733.798	8897
733.912	9858
734.026	8631
734.140	10075
734.254	7763
734.368	9612
734.482	9116
734.596	9320
734.710	8519
734.824	8060
734.938	7579
735.052	8362
735.166	8129
735.280	8574
735.393	7379
735.507	7752
735.621	8057
735.735	7054
735.849	7407
735.962	7941
736.076	7887
736.190	7986
736.303	6904
736.417	8476
736.531	6732
736.644	6992
736.758	6385
736.872	7167
736.985	7659
737.099	6811
737.212	6579
737.326	7548
737.439	7463
737.553	6025
737.666	7097
737.780	6247
737.893	5855
738.007	6871
738.120	5979
738.233	6185
738.347	6193
738.460	6298
738.573	6585
738.687	5679
738.800	5359
738.913	6999
739.026	6248
739.140	5972
739.253	5929
739.366	5771
739.479	5881
739.592	6104
739.705	5452
739.818	6251
739.932	5732
740.045	6100
740.158	5355
740.271	6360
740.384	6048
740.497	4574
740.610	4900
740.723	5826
740.836	5322
740.949	5161
741.062	5768
741.174	5310
741.287	4881
741.400	5170
741.513	4553
741.626	5393
741.739	4858
741.851	5091
741.964	6013
742.077	5377
742.189	5359
742.302	6756
742.415	5392
742.527	5322
742.640	5140
742.753	4310
742.865	5388
742.978	4785
743.090	4162
743.203	5478
743.316	3728
743.428	4593
743.541	5006
743.653	5070
743.766	5434
743.878	5814
743.990	4709
744.103	7162
744.215	7016
744.327	3898
744.440	5152
744.552	4113
744.664	3606
744.777	5327
744.889	3583
745.001	5063
745.113	4810
745.226	4042
745.338	3662
745.450	5351
745.562	3248
745.674	3648
745.786	4423
745.898	3869
746.010	4064
746.122	4634
746.234	3915
746.347	4574
746.459	4503
746.570	3442
746.682	6200
746.794	8539
746.906	4384
747.018	3929
747.130	3634
747.242	4087
747.354	4186
747.466	5085
747.577	3223
747.689	4921
747.801	4087
747.913	2955
748.024	3264
748.136	3516
748.248	2624
748.359	3175
748.471	3156
748.583	2515
748.694	3030
748.806	4278
748.918	2717
749.029	3375
749.141	2966
749.252	3518
749.364	2898
749.475	3589
749.587	2833
749.698	2927
749.809	3425
749.921	3091
750.032	3306
750.144	2965
750.255	2406
750.366	2646
750.478	2653
750.589	3387
750.700	2467
750.811	4133
750.923	2780
751.034	2293
751.145	3167
751.256	2980
751.367	2328
751.479	3271
751.590	2290
751.701	2455
751.812	2419
751.923	2185
752.034	3567
752.145	3003
752.256	3512
752.367	2574
752.478	2331
752.589	3480
752.700	3083
752.811	2616
752.922	3168
753.032	2643
753.143	2799
753.254	2462
753.365	3487
753.476	3756
753.586	2964
753.697	2828
753.808	1985
753.919	2384
754.029	2724
754.140	2849
754.251	2476
754.361	2813
754.472	2750
754.582	2912
754.693	2215
754.804	3417
754.914	2748
755.025	2128
755.135	2365
755.246	2585
755.356	1862
755.466	2836
755.577	2321
755.687	1928
755.798	2360
755.908	2745
756.018	2122
756.129	2851
756.239	1931
756.349	2488
756.460	2814
756.570	3770
756.680	1496
756.790	2475
756.900	2497
757.011	2436
757.121	2840
757.231	2149
757.341	2292
757.451	1211
757.561	2736
757.671	3019
757.781	2118
757.891	2891
758.001	1740
758.111	2828
758.221	3000
758.331	3574
758.441	3490
758.551	2901
758.661	3606
758.771	3330
758.880	2971
758.990	2793
759.100	2920
759.210	2363
759.320	2687
759.429	3282
759.539	3033
759.649	4044
759.758	4740
759.868	4967
759.978	3711
760.087	5391
760.197	5317
760.307	4691
760.416	4177
760.526	3358
760.635	4453
760.745	4596
760.854	5556
760.964	6277
761.073	6474
761.182	5626
761.292	3872
761.401	3915
761.511	1726
761.620	2728
761.729	1772
761.839	1760
761.948	2418
762.057	2269
762.166	2146
762.276	2124
762.385	3271
762.494	2425
762.603	1790
762.712	2386
762.822	1290
762.931	2579
763.040	1636
763.149	1343
763.258	1468
763.367	2076
763.476	1522
763.585	1572
763.694	1627
763.803	1941
763.912	1164
764.021	1792
764.130	1631
764.238	2540
764.347	1230
764.456	2231
764.565	2738
764.674	1898
764.783	1370
764.891	1369
765.000	2210
765.109	1431
765.217	767
765.326	2233
765.435	2118
765.543	2835
765.652	1581
765.761	3192
765.869	3313
765.978	4956
766.086	8299
766.195	15347
766.303	44592
766.412	143437
766.520	88524
766.629	14256
766.737	5706
766.846	4592
766.954	2558
767.062	3772
767.171	2063
767.279	2469
767.387	1532
767.496	2111
767.604	1738
767.712	2189
767.820	2055
767.928	1566
768.037	1178
768.145	2292
768.253	1458
768.361	961
768.469	1643
768.577	1528
768.685	1950
768.793	2040
768.901	1147
769.009	1874
769.117	2567
769.225	2098
769.333	2490
769.441	3834
769.549	6457
769.657	15993
769.765	60174
769.873	111778
769.981	22305
770.088	4667
770.196	3556
770.304	3982
770.412	2937
770.519	2973
770.627	2354
770.735	1227
770.842	2181
770.950	2524
771.058	2767
771.165	3757
771.273	3223
771.380	4564
771.488	5921
771.595	6775
771.703	5298
771.810	5833
771.918	4651
772.025	7035
772.133	7446
772.240	7793
772.348	9094
772.455	8395
772.562	6026
772.670	6381
772.777	7298
772.884	6717
772.991	5322
773.099	7550
773.206	5364
773.313	7582
773.420	6218
773.528	5728
773.635	5857
773.742	7109
773.849	6418
773.956	6706
774.063	5960
774.170	6290
774.277	6160
774.384	6315
774.491	5557
774.598	6398
774.705	4827
774.812	4959
774.919	5563
775.026	5969
775.133	6867
775.239	4767
775.346	4117
775.453	5802
775.560	5027
775.667	6020
775.773	4086
775.880	5840
775.987	5019
776.093	5611
776.200	6060
776.307	3829
776.413	5529
776.520	5854
776.627	5262
776.733	5021
776.840	3943
776.946	9282
777.053	9306
777.159	12788
777.266	7783
777.372	13124
777.478	10030
777.585	5884
777.691	3866
777.798	5577
777.904	5852
778.010	4507
778.117	5440
778.223	4291
778.329	4085
778.435	3493
778.542	4852
778.648	4562
778.754	3664
778.860	4288
778.966	3755
779.072	4422
779.178	3709
779.284	3162
779.391	4481
779.497	3837
779.603	5167
779.708	2556
779.815	4036
779.920	4405
780.026	3330
780.132	5095
780.238	2452
780.344	3843
780.450	5445
780.556	3171
780.661	3756
780.767	4035
780.873	3001
780.979	3955
781.085	3619
781.190	4016
781.296	2545
781.402	3666
781.507	3535
781.613	3143
781.719	3115
781.824	3976
781.930	3035
782.035	4179
782.141	3567
782.246	2804
782.352	3058
782.457	3527
782.563	3897
782.668	3237
782.773	2626
782.879	2149
782.984	3023
783.090	2886
783.195	3156
783.300	4115
783.405	2824
783.511	2011
783.616	2990
783.721	3381
783.826	2165
783.932	3058
784.037	2737
784.142	3571
784.247	2066
784.352	3016
784.457	1387
784.562	3147
784.667	2459
784.772	2130
784.877	1899
784.982	3613
785.087	2289
785.192	3370
785.297	2526
785.402	2890
785.507	2663
785.611	2928
785.716	1230
785.821	2099
785.926	2879
786.031	2615
786.135	1868
786.240	2418
786.345	1088
786.450	2378
786.554	1804
786.659	2483
786.763	1586
786.868	2335
786.973	2849
787.077	1883
787.182	2004
787.286	2244
787.391	3343
787.495	1495
787.600	1613
787.704	1709
787.809	2773
787.913	1830
788.017	1904
788.122	2876
788.226	2363
788.330	1511
788.435	1851
788.539	2623
788.643	1471
788.747	1676
788.852	1418
788.956	1567
789.060	2456
789.164	2401
789.268	1934
789.372	2465
789.476	2147
789.580	1293
789.684	1400
789.788	2355
789.892	1213
789.996	1272
790.100	1220
790.204	2225
790.308	1353
790.412	1101
790.516	415
790.620	1203
790.724	2831
790.828	1346
790.931	-102
791.035	2847
791.139	1205
791.242	1104
791.346	1746
791.450	1425
791.554	1093
791.657	287
791.761	1746
791.864	1801
791.968	1895
792.072	1762
792.175	1652
792.279	1424
792.382	2007
792.486	1670
792.589	991
792.693	1829
792.796	28
792.899	2456
793.003	1650
793.106	207
793.209	1263
793.313	2408
793.416	-971
793.519	1570
793.623	1417
793.726	1768
793.829	855
793.932	819
794.035	327
794.138	2352
794.242	1800
794.345	1138
794.448	615
794.551	377
794.654	2255
794.757	1898
794.860	411
794.963	1734
795.066	292
795.169	1927
795.272	179
795.375	1855
795.477	559
795.580	1474
795.683	406
795.786	1357
795.889	605
795.991	2245
796.094	1581
796.197	446
796.300	2207
796.402	905
796.505	93
796.608	651
796.710	1939
796.813	1909
796.915	677
797.018	1727
797.120	976
797.223	-39
797.326	2390
797.428	1084
797.530	585
797.633	1329
797.735	2480
797.838	1515
797.940	1661
798.042	672
798.145	117
798.247	1529
798.349	-1316
798.452	2271
798.554	598
798.656	1144
798.758	2657
798.860	1138
798.962	-316
799.065	-142
799.167	166
799.269	2376
799.371	2027
799.473	2328
799.575	469
799.677	608
799.779	2324
799.881	-871
799.983	1690
800.085	940
800.187	1070
800.289	52
800.390	736
800.492	1210
800.594	1156
800.696	368
800.798	379
800.899	1112
801.001	248
801.103	1610
801.205	372
801.306	1147
801.408	-188
801.509	1178
801.611	1439
801.713	1318
801.814	-93
801.916	861
802.017	280
802.119	688
802.220	292
802.322	-668
802.423	2081
802.525	-510
802.626	1178
802.727	1692
802.829	1162
802.930	-1752
803.031	1929
803.133	554
803.234	690
803.335	839
803.436	-694
803.538	935
803.639	-594
803.740	1042
803.841	-186
803.942	1962
804.043	651
804.144	332
804.245	1020
804.346	-65
804.447	-809
804.548	346
804.649	1879
804.750	404
804.851	8
804.952	35
805.053	732
805.154	-734
805.255	1073
805.355	670
805.456	-128
805.557	-306
805.658	-490
805.758	669
805.859	985
805.960	486
806.061	-1005
806.161	110
806.262	289
806.362	80
806.463	802
806.564	1036
806.664	567
806.765	434
806.865	42
806.966	627
807.066	-336
807.166	1300
807.267	388
807.367	328
807.468	982
807.568	-1486
807.668	1350
807.769	881
807.869	160
807.969	573
808.069	191
808.170	1010
808.270	-420
808.370	1153
808.470	821
808.570	51
808.670	264
808.770	-275
808.870	-667
808.970	890
809.070	94
809.170	-2
809.271	828
809.370	922
809.470	857
809.570	-434
809.670	178
809.770	924
809.870	1252
809.970	665
810.070	-128
810.169	847
810.269	-796
810.369	1558
810.469	125
810.568	-162
810.668	-263
810.768	323
810.867	799
810.967	98
811.066	-394
811.166	684
811.265	871
811.365	-101
811.464	506
811.564	610
811.663	1375
811.763	-1290
811.862	244
811.962	1511
812.061	340
812.160	623
812.260	220
812.359	457
812.458	-357
812.557	1050
812.657	-318
812.756	1022
812.855	683
812.954	72
813.053	447
813.153	787
813.252	-767
813.351	151
813.450	51
813.549	-139
813.648	290
813.747	643
813.846	862
813.945	458
814.044	592
814.143	1182
814.242	1110
814.341	211
814.439	683
814.538	443
814.637	122
814.736	1290
814.835	1977
814.933	497
815.032	1647
815.131	1714
815.229	4987
815.328	6318
815.427	4497
815.525	4312
815.624	4216
815.722	3304
815.821	3477
815.919	3680
816.018	3727
816.116	4488
816.215	3925
816.313	4406
816.412	5720
816.510	5735
816.609	6619
816.707	7665
816.805	4791
816.904	5133
817.002	6140
817.100	6523
817.198	6241
817.296	4847
817.395	5480
817.493	5919
817.591	4347
817.689	5321
817.787	4632
817.885	4157
817.983	4615
818.081	5068
818.179	5141
818.277	7889
818.375	6385
818.473	5341
818.571	4096
818.669	6424
818.767	6009
818.865	4117
818.963	3320
819.061	4506
819.158	4051
819.256	7024
819.354	5136
819.452	7517
819.549	5369
819.647	6170
819.745	3040
819.842	4027
819.940	4655
820.038	3810
820.135	3630
820.233	5328
820.330	3836
820.428	3766
820.525	4133
820.623	3988
820.720	2455
820.818	4157
820.915	4216
821.012	3531
821.110	3036
821.207	4627
821.304	3398
821.402	4532
821.499	5336
821.596	6262
821.693	4075
821.791	3686
821.888	3821
821.985	4406
822.082	2119
822.179	4738
822.276	3877
822.373	2889
822.470	2804
822.567	3854
822.664	2229
822.761	4400
822.858	3459
822.955	3476
823.052	2446
823.149	3358
823.246	2871
823.343	1969
823.440	2573
823.536	4226
823.633	2393
823.730	2664
823.827	3377
823.923	2892
824.020	4001
824.117	3225
824.213	3271
824.310	3593
824.407	1717
824.503	4168
824.600	3302
824.696	2091
824.793	3930
824.889	3932
824.986	2387
825.082	1429
825.179	2866
825.275	3265
825.371	3267
825.468	2503
825.564	1241
825.660	4379
825.757	3496
825.853	3051
825.949	1381
826.045	2555
826.142	2107
826.238	2682
826.334	2543
826.430	2182
826.526	1998
826.622	1535
826.718	2515
826.814	2640
826.910	2582
827.006	1154
827.102	1476
827.198	3211
827.294	2798
827.390	3216
827.486	1714
827.582	915
827.678	1224
827.774	3282
827.869	1259
827.965	2836
828.061	576
828.157	2991
828.252	2840
828.348	1201
828.444	2560
828.539	1595
828.635	2140
828.731	2590
828.826	681
828.922	1622
829.017	2441
829.113	2519
829.208	1338
829.304	2503
829.399	3602
829.495	1268
829.590	2065
829.685	1141
829.781	3848
829.876	2220
829.971	360
830.066	390
830.162	1814
830.257	2756
830.352	1678
830.447	1943
830.543	1417
830.638	1893
830.733	3115
830.828	1934
830.923	2168
831.018	1930
831.113	3047
831.208	70
831.303	1408
831.398	1928
831.493	973
831.588	4536
831.683	1550
831.778	991
831.873	1266
831.967	3463
832.062	1337
832.157	-74
832.252	2006
832.346	1696
832.441	1472
832.536	1991
832.631	2127
832.725	1901
832.820	734
832.914	1523
833.009	783
833.104	1053
833.198	1077
833.293	1626
833.387	1910
833.482	2169
833.576	581
833.670	1074
833.765	1472
833.859	1968
833.954	1794
834.048	1065
834.142	1454
834.237	152
834.331	1189
834.425	2101
834.519	716
834.613	1419
834.708	1495
834.802	1505
834.896	1231
834.990	1490
835.084	694
835.178	929
835.272	908
835.366	1219
835.460	2257
835.554	958
835.648	1003
835.742	538
835.836	419
835.930	-57
836.024	1516
836.117	2069
836.211	1114
836.305	1486
836.399	1078
836.493	69
836.586	1814
836.680	1730
836.774	522
836.867	1469
836.961	-826
837.055	367
837.148	-45
837.242	1074
837.335	798
837.429	1169
837.522	442
837.616	528
837.709	1426
837.803	1445
837.896	1565
837.989	738
838.083	316
838.176	696
838.269	-535
838.363	1586
838.456	381
838.549	1133
838.642	432
838.735	1558
838.829	1299
838.922	833
839.015	454
839.108	-303
839.201	648
839.294	1954
839.387	341
839.480	284
839.573	298
839.666	874
839.759	121
839.852	-149
839.945	1501
840.038	538
840.131	537
840.223	615
840.316	441
840.409	1572
840.502	679
840.594	1772
840.687	-26
840.780	531
840.873	-578
840.965	495
841.058	1034
841.150	1760
841.243	-689
841.336	728
841.428	666
841.521	738
841.613	564
841.706	1127
841.798	151
841.890	767
841.983	-405
842.075	1073
842.167	170
842.260	1354
842.352	975
842.444	1491
842.537	372
842.629	899
842.721	-352
842.813	956
842.905	66
842.997	1231
843.090	527
843.182	530
843.274	-410
843.366	1306
843.458	-30
843.550	1517
843.642	-410
843.734	1049
843.826	-679
843.918	427
844.009	-186
844.101	782
844.193	405
844.285	851
844.377	1236
844.469	2035
844.560	1276
844.652	1038
844.744	-31
844.835	-68
844.927	-147
845.019	973
845.110	-709
845.202	664
845.293	73
845.385	-1167
845.476	1184
845.568	1761
845.659	38
845.751	13
845.842	-922
845.934	355
846.025	199
846.116	537
846.208	-258
846.299	49
846.390	-4
846.482	332
846.573	627
846.664	428
846.755	34
846.846	1134
846.937	-359
847.029	796
847.120	271
847.211	835
847.302	1340
847.393	-650
847.484	44
847.575	240
847.666	15
847.757	-237
847.847	1017
847.938	1525
848.029	182
848.120	589
848.211	-83
848.302	-308
848.392	-445
848.483	1148
848.574	-1398
848.664	868
848.755	492
848.846	763
848.936	-1171
849.027	856
849.118	473
849.208	1232
849.299	2668
849.389	5211
849.480	10529
849.570	22766
849.661	45647
849.751	66749
849.841	19717
849.932	3672
850.022	75
850.112	1744
850.203	164
850.293	512
850.383	346
850.474	175
850.564	-68
850.654	175
850.744	-112
850.834	101
850.924	333
851.014	1528
851.104	122
851.194	-315
851.284	452
851.374	188
851.464	341
851.554	834
851.644	174
851.734	1112
851.824	-239
851.914	651
852.004	780
852.094	249
852.183	-506
852.273	827
852.363	182
852.452	957
852.542	62
852.632	-229
852.721	623
852.811	621
852.901	1322
852.990	422
853.080	947
853.169	1604
853.259	762
853.348	1490
853.438	2690
853.527	4458
853.617	6238
853.706	12349
853.795	22311
853.885	46243
853.974	82950
854.063	149850
854.152	179355
854.242	71917
854.331	18581
854.420	8095
854.509	5681
854.598	4007
854.687	2906
854.777	3451
854.866	1275
854.955	1767
855.044	828
855.133	990
855.222	688
855.311	389
855.400	302
855.488	242
855.577	20
855.666	513
855.755	555
855.844	743
855.933	135
856.021	779
856.110	44
856.199	385
856.288	-305
856.376	118
856.465	-374
856.554	772
856.642	-317
856.731	1066
856.819	56
856.908	-327
856.996	95
857.085	-183
857.173	223
857.262	-833
857.350	-272
857.438	610
857.527	-265
857.615	-773
857.703	-113
857.792	-57
857.880	-312
857.968	-762
858.056	111
858.145	368
858.233	-642
858.321	-960
858.409	125
858.497	461
858.585	-93
858.673	600
858.761	-1230
858.849	0
858.937	-209
859.025	959
859.113	-106
859.201	332
859.289	777
859.377	-15
859.465	64
859.552	261
859.640	-895
859.728	-312
859.816	-505
859.903	-113
859.991	-1198
860.079	238
860.166	216
860.254	211
860.342	-101
860.429	-385
860.517	-235
860.604	181
860.692	-823
860.779	237
860.867	-199
860.954	153
861.042	392
861.129	13
861.216	92
861.304	291
861.391	410
861.478	648
861.565	690
861.653	1050
861.740	-590
861.827	-26
861.914	372
862.001	-465
862.089	131
862.176	847
862.263	-369
862.350	-57
862.437	-102
862.524	494
862.611	-412
862.698	1138
862.785	904
862.871	326
862.958	-191
863.045	1110
863.132	191
863.219	843
863.306	-983
863.392	502
863.479	565
863.566	200
863.652	1612
863.739	838
863.826	710
863.912	1551
863.999	-787
864.086	675
864.172	-486
864.259	904
864.345	1319
864.432	1141
864.518	1075
864.604	970
864.691	692
864.777	1218
864.863	2079
864.950	4032
865.036	5221
865.122	8248
865.209	8157
865.295	7289
865.381	7324
865.467	7591
865.553	8720
865.639	11047
865.726	17016
865.812	29663
865.898	49121
865.984	73891
866.070	125013
866.156	111949
866.242	34862
866.328	13917
866.414	8439
866.499	7987
866.585	6979
866.671	7251
866.757	6381
866.843	5858
866.928	5529
867.014	5045
867.100	5121
867.186	4470
867.271	4986
867.357	6074
867.442	4365
867.528	5745
867.614	4751
867.699	5847
867.785	5758
867.870	6221
867.956	5190
868.041	4376
868.127	4969
868.212	6066
868.297	5246
868.383	5301
868.468	5654
868.553	4650
868.639	3860
868.724	5021
868.809	4140
868.894	4508
868.979	3647
869.065	3419
869.150	3459
869.235	4745
869.320	3963
869.405	3737
869.490	4053
869.575	4020
869.660	3575
869.745	4690
869.830	4241
869.915	4092
870.000	2738
870.085	3406
870.169	4906
870.254	4846
870.339	1676
870.424	3456
870.509	3433
870.593	5131
870.678	4302
870.763	2698
870.847	3346
870.932	4509
871.016	4049
871.101	3436
871.186	4068
871.270	5368
871.355	2246
871.439	4033
871.523	4270
871.608	2953
871.692	3095
871.777	4063
871.861	3248
871.945	2591
872.030	3314
872.114	3792
872.198	2216
872.282	2778
872.367	2815
872.451	3013
872.535	2310
872.619	3343
872.703	2919
872.787	3755
872.871	2753
872.955	1876
873.039	1891
873.123	4001
873.207	3774
873.291	2509
873.375	2508
873.459	3437
873.543	2102
873.627	3013
873.711	2345
873.794	2798
873.878	2185
873.962	1612
874.045	1677
874.129	1550
874.137	1617
874.213	2285
874.245	2583
874.296	3072
874.352	2473
874.380	2180
874.460	3412
874.464	3461
874.547	2368
874.568	2547
874.631	3104
874.676	2900
874.714	2703
874.784	2979
874.798	3043
874.881	3536
874.892	3300
874.965	1654
874.999	2098
875.048	2687
875.107	2532
875.131	2475
875.215	1232
875.215	1233
875.298	2231
875.323	2293
875.381	2473
875.430	3158
875.465	3591
875.538	2727
875.548	2603
875.631	1287
875.646	1186
875.714	839
875.753	1580
875.798	2469
875.861	3104
875.881	3238
875.964	2197
875.968	2179
876.047	2056
876.076	2244
876.130	2542
876.183	2433
876.213	2410
876.291	2938
876.296	2962
876.379	2059
876.398	2008
876.462	1863
876.506	1443
876.545	1146
876.613	2210
876.628	2420
876.711	2357
876.721	2418
876.794	3068
876.828	2866
876.877	2364
876.935	2063
876.960	1996
877.043	2191
877.043	2189
877.125	1941
877.150	2256
877.208	2819
877.258	1992
877.291	1463
877.365	1295
877.374	1295
877.456	1906
877.472	1953
877.539	2094
877.579	2231
877.622	2396
877.687	2331
877.704	2294
877.787	2537
877.794	2536
877.869	2587
877.901	2574
877.952	2445
878.008	1537
878.034	1189
878.115	1925
878.117	1942
878.199	2123
878.222	2210
878.282	2573
878.329	2935
878.364	2981
878.437	2674
878.447	2648
878.529	2090
878.544	1941
878.611	1254
878.651	1485
878.694	2033
878.758	2911
878.776	3065
878.858	2866
878.865	2829
878.941	2104
878.972	1949
879.023	1831
879.078	1795
879.105	1997
879.185	2815
879.187	2822
879.269	2575
879.292	2524
879.351	2455
879.399	2173
879.433	1913
879.506	2447
879.516	2561
879.598	2582
879.613	2544
879.680	2192
879.720	2411
879.762	2860
879.827	2653
879.844	2415
879.926	2523
879.933	2460
880.007	2500
880.040	2466
880.089	2294
880.147	3578
880.171	4388
880.253	7010
880.254	7021
880.335	7919
880.360	8493
880.417	11022
880.467	15693
880.499	18441
880.574	18237
880.580	17863
880.662	7352
880.680	6081
880.744	3246
880.787	2788
880.825	2720
880.893	2655
880.907	2656
880.989	1774
881.000	1833
881.070	2912
881.106	2974
881.152	2360
881.213	2296
881.233	2445
881.315	2099
881.319	2116
881.396	2462
881.426	2270
881.478	2176
881.532	2926
881.559	3202
881.639	2525
881.641	2505
881.722	2899
881.745	2787
881.803	2876
881.852	2943
881.885	2792
881.958	2131
881.966	2087
882.047	2471
882.064	2410
882.129	2353
882.171	2476
882.210	2299
882.277	1410
882.291	1448
882.372	2853
882.383	2894
882.454	2937
882.489	3286
882.535	3323
882.596	3188
882.616	3207
882.697	2957
882.702	2939
882.778	2227
882.808	1972
882.859	1956
882.914	2239
882.940	2497
883.020	2552
883.021	2554
883.102	2568
883.127	2559
883.183	3335
883.233	3612
883.264	2774
883.339	1422
883.345	1486
883.426	1521
883.445	1839
883.507	2728
883.551	2941
883.587	3069
883.657	3178
883.668	3209
883.749	3447
883.763	3476
883.830	2655
883.869	2138
883.910	2038
883.975	2075
883.991	2197
884.072	2832
884.081	2891
884.152	3377
884.187	3504
884.233	3846
884.292	4098
884.314	3644
884.394	1985
884.398	1911
884.475	1391
884.504	1148
884.555	1289
884.610	1548
884.636	1824
884.716	2354
884.716	2370
884.797	4293
884.821	4695
884.877	4058
884.927	3349
884.958	3055
885.033	2428
885.038	2398
885.118	2260
885.139	2084
885.199	1925
885.244	2121
885.279	2620
885.350	3308
885.359	3424
885.439	4659
885.456	4729
885.520	3889
885.561	3560
885.600	2871
885.667	1762
885.680	1936
885.760	2983
885.773	3128
885.840	2311
885.878	1841
885.920	2120
885.984	2599
886.000	2699
886.080	3004
886.089	3027
886.160	3333
886.195	3603
886.240	3377
886.300	2768
886.320	2902
886.400	3570
886.406	3596
886.480	2419
886.511	1953
886.560	2392
886.616	2963
886.640	2867
886.720	2356
886.722	2338
886.800	2603
886.827	2766
886.879	3030
886.932	3040
886.959	3335
887.038	4371
887.039	4373
887.119	3386
887.143	3144
887.198	3307
887.248	3391
887.278	3249
887.354	2819
887.358	2856
887.437	3388
887.459	3548
887.517	3591
887.564	3577
887.596	3291
887.669	2591
887.676	2566
887.755	2363
887.774	2245
887.835	1846
887.880	1631
887.914	2165
887.985	3241
887.994	3324
888.073	3918
888.090	4032
888.153	4872
888.195	5332
888.232	4365
888.300	2746
888.311	2706
888.391	2233
888.405	2166
888.470	2378
888.510	2414
888.549	2741
888.615	3438
888.628	3462
888.708	3423
888.720	3411
888.787	3549
888.825	3590
888.866	2891
888.930	1847
888.945	2023
889.024	2950
889.035	3060
889.103	3566
889.140	3814
889.182	3449
889.245	2941
889.261	3096
889.340	3783
889.349	3851
889.419	3469
889.454	3272
889.498	3076
889.559	2803
889.577	2990
889.656	3776
889.664	3848
889.735	3793
889.768	3752
889.814	3647
889.873	3485
889.978	3056
890.083	2475
890.187	3200
890.292	3627
890.397	3561
890.501	3084
890.606	2606
890.710	3263
890.815	4227
890.919	2968
891.024	3053
891.128	2489
891.233	2387
891.337	3290
891.442	4004
891.546	3328
891.650	2354
891.755	2348
891.859	3655
891.963	4253
892.068	3329
892.172	2420
892.276	2019
892.380	1875
892.484	4177
892.589	3473
892.693	3418
892.797	1980
892.901	1729
893.005	2510
893.109	4249
893.213	4056
893.317	3642
893.421	2004
893.525	2253
893.629	2213
893.733	4197
893.837	2391
893.941	2620
894.045	2510
894.148	1503
894.252	2485
894.356	3945
894.460	4763
894.564	2610
894.667	2404
894.771	1301
894.875	1810
894.978	2799
895.082	2691
895.186	3592
895.289	2466
895.393	2629
895.496	3577
895.600	2246
895.703	1131
895.807	2593
895.910	2791
896.014	2507
896.117	2232
896.221	3255
896.324	1991
896.427	2084
896.531	2347
896.634	3139
896.737	1764
896.840	2807
896.944	3447
897.047	3628
897.150	2322
897.253	2099
897.356	1636
897.460	1928
897.563	1799
897.666	2788
897.769	2449
897.872	1742
897.975	1524
898.078	2388
898.181	1407
898.284	1998
898.387	3337
898.490	3110
898.593	1808
898.695	1792
898.798	1306
898.901	2688
899.004	2008
899.107	1876
899.209	2604
899.312	4010
899.415	1569
899.518	2080
899.620	2072
899.723	2060
899.826	1750
899.928	2632
900.031	2091
900.133	3521
900.236	1982
900.338	2041
900.441	2107
900.543	2272
900.646	1921
900.748	2355
900.851	3136
900.953	2133
901.055	1744
901.158	2238
901.260	1444
901.362	1908
901.465	1772
901.567	2666
901.669	2981
901.771	1686
901.873	2032
901.976	2799
902.078	2536
902.180	1168
902.282	2131
902.384	2179
902.486	3480
902.588	3014
902.690	1700
902.792	1684
902.894	2460
902.996	3268
903.098	2706
903.200	2324
903.302	1517
903.404	1830
903.505	1803
903.607	2212
903.709	3638
903.811	2604
903.913	1589
904.014	1210
904.116	1828
904.218	2276
904.319	1740
904.421	4206
904.523	3498
904.624	1581
904.726	1572
904.827	1761
904.929	2223
905.030	2392
905.132	3202
905.233	2976
905.335	1788
905.436	2266
905.537	1571
905.639	2052
905.740	1587
905.841	3139
905.943	2858
906.044	2517
906.145	1717
906.247	1360
906.348	1620
906.449	1877
906.550	2418
906.651	2472
906.752	2178
906.854	2189
906.955	1790
907.056	1799
907.157	2638
907.258	3134
907.359	1729
907.460	1445
907.561	1388
907.662	1996
907.762	1733
907.863	1972
907.964	2569
908.065	2998
908.166	996
908.267	2196
908.367	1220
908.468	1218
908.569	2365
908.670	2194
908.770	2214
908.871	2706
908.971	2121
909.072	2095
909.173	1292
909.273	1235
909.374	1873
909.474	2402
909.575	2092
909.675	1661
909.776	1730
909.876	1993
909.977	940
910.077	2296
910.177	2633
910.278	1755
910.378	1830
910.478	1835
910.579	2246
910.679	1760
910.779	1423
910.879	2158
910.980	1898
911.080	1975
911.180	1995
911.280	1185
911.380	1062
911.480	1206
911.580	1820
911.680	2358
911.780	2785
911.880	3416
911.980	1602
912.080	1987
912.180	1515
912.280	1624
912.380	1242
912.480	1775
912.580	698
912.679	1534
912.779	2603
912.879	2698
912.979	1824
913.078	1596
913.178	1202
913.278	1902
913.377	1271
913.477	1443
913.577	1839
913.676	2535
913.776	2567
913.875	1886
913.975	1119
914.074	1860
914.174	2120
914.273	1182
914.373	2215
914.472	1502
914.572	1221
914.671	1744
914.770	1408
914.870	2094
914.969	1190
915.068	1944
915.167	2304
915.267	1887
915.366	1200
915.465	1130
915.564	2005
915.663	2195
915.763	1141
915.862	3168
915.961	2188
916.060	1667
916.159	1526
916.258	1575
916.357	1984
916.456	2105
916.555	2163
916.654	2110
916.752	3507
916.851	2825
916.950	922
917.049	1499
917.148	1788
917.247	1588
917.345	2220
917.444	1385
917.543	2222
917.642	2638
917.740	2082
917.839	3415
917.937	3003
918.036	3021
918.135	2393
918.233	2128
918.332	1674
918.430	1607
918.529	1217
918.627	2895
918.726	3016
918.824	2198
918.923	1814
919.021	2222
919.119	1760
919.218	1802
919.316	2405
919.414	1614
919.512	2617
919.611	3377
919.709	3194
919.807	2726
919.905	3251
920.003	3535
920.102	2619
920.200	3479
920.298	3388
920.396	2579
920.494	3329
920.592	3100
920.690	3791
920.788	3177
920.886	3283
920.984	3979
921.082	3959
921.180	4196
921.277	3558
921.375	6046
921.473	6305
921.571	5896
921.669	5203
921.766	5290
921.864	5430
921.962	5433
922.060	4820
922.157	4681
922.255	5317
922.352	6400
922.450	6203
922.548	5984
922.645	7590
922.743	9274
922.840	13792
922.938	16054
923.035	14767
923.133	14362
923.230	15210
923.327	19857
923.425	16163
923.522	17671
923.619	16489
923.717	14280
923.814	13743
923.911	13839
924.008	14272
924.106	12912
924.203	12874
924.300	14321
924.397	13150
924.494	14558
924.591	13462
924.688	12695
924.786	13516
924.883	14247
924.979	13742
925.077	13450
925.173	12819
925.270	12592
925.367	12542
925.464	14740
925.561	13793
925.658	15485
925.755	11512
925.852	15025
925.948	13190
926.045	13118
926.142	15184
926.239	15045
926.335	11565
926.432	14425
926.529	14188
926.625	15676
926.722	11299
926.818	11939
926.915	13152
927.011	12689
927.108	11449
927.204	13414
927.301	10542
927.397	13270
927.494	13728
927.590	10535
927.687	9789
927.783	14339
927.879	12948
927.976	10776
928.072	11185
928.168	12276
928.264	12461
928.361	10827
928.457	12619
928.553	9947
928.649	10397
928.745	12227
928.841	9936
928.937	10987
929.033	11652
929.129	12068
929.225	11794
929.321	10028
929.417	8637
929.513	13295
929.609	9426
929.705	10371
929.801	11973
929.897	10057
929.993	9475
930.089	11735
930.184	9234
930.280	10870
930.376	14061
930.471	9944
930.567	8733
930.663	9816
930.758	9136
930.854	10984
930.950	10013
931.045	9390
931.141	9007
931.236	12456
931.332	10873
931.427	7902
931.523	12079
931.618	11107
931.714	7308
931.809	8870
931.905	10352
932.000	7545
932.095	6972
932.191	11112
932.286	12313
932.381	9843
932.476	6808
932.572	9226
932.667	7239
932.762	8237
932.857	9378
932.952	10919
933.047	9807
933.142	7060
933.237	8873
933.332	10087
933.427	11239
933.522	9095
933.617	6737
933.712	8596
933.807	10524
933.902	11965
933.997	11181
934.092	7173
934.187	8174
934.282	9564
934.376	8794
934.471	9919
934.566	7998
934.661	7447
934.755	8922
934.850	10393
934.945	8624
935.039	6770
935.134	4762
935.228	7898
935.323	12386
935.417	7780
935.512	4857
935.606	6006
935.701	9448
935.795	9633
935.890	8719
935.984	7896
936.079	5631
936.173	8487
936.267	6653
936.362	6025
936.456	7525
936.550	10533
936.644	7626
936.738	5967
936.833	6557
936.927	5025
937.021	6547
937.115	8002
937.209	8349
937.303	7328
937.397	5466
937.491	7464
937.585	7591
937.679	7582
937.773	5734
937.867	5852
937.961	5431
938.055	10022
938.149	8192
938.243	4546
938.337	5213
938.430	6482
938.524	9722
938.618	8750
938.712	5649
938.805	6838
938.899	6644
938.993	9813
939.086	6598
939.180	6395
939.274	7266
939.367	8373
939.461	7990
939.554	5451
939.648	5791
939.741	5234
939.835	6682
939.928	9019
940.022	7251
940.115	5984
940.208	7632
940.302	8523
940.395	9371
940.488	5474
940.582	6108
940.675	5103
940.768	4969
940.861	7884
940.954	8022
941.048	5082
941.141	4630
941.234	4859
941.327	5991
941.420	7757
941.513	6353
941.606	4797
941.699	5420
941.792	6752
941.885	6481
941.978	6086
942.071	5935
942.164	3994
942.257	4569
942.349	5294
942.442	6301
942.535	4010
942.628	4679
942.721	5006
942.813	4867
942.906	7050
942.999	5347
943.091	3821
943.184	5176
943.277	5601
943.369	4271
943.462	3237
943.554	4844
943.647	4840
943.739	6189
943.832	8245
943.924	2940
944.017	4054
944.109	4079
944.201	4753
944.294	4653
944.386	5679
944.478	4797
944.571	4497
944.663	3393
944.755	4805
944.847	5781
944.940	5291
945.032	3219
945.124	3074
945.216	4732
945.308	5410
945.400	5166
945.492	3633
945.584	5873
945.676	6529
945.768	5344
945.860	5659
945.952	6974
946.044	5811
946.136	4732
946.228	5077
946.320	3905
946.412	5438
946.503	5694
946.595	6254
946.687	3612
946.779	3242
946.870	3338
946.962	3728
947.054	4156
947.145	5029
947.237	4249
947.329	3895
947.420	4758
947.512	4095
947.603	2529
947.695	3859
947.786	3303
947.878	3370
947.969	4849
948.061	4005
948.152	4117
948.243	3377
948.335	2944
948.426	3608
948.517	3571
948.609	5285
948.700	4466
948.791	3936
948.882	3256
948.973	2730
949.065	3960
949.156	3869
949.247	1923
949.338	4301
949.429	2537
949.520	2502
949.611	3214
949.702	5073
949.793	3682
949.884	3847
949.975	3532
950.066	2560
950.157	2733
950.247	3590
950.338	2879
950.429	2725
950.520	3632
950.611	2837
950.701	3646
950.792	5319
950.883	4117
950.973	3554
951.064	3830
951.155	3701
951.245	4083
951.336	4445
951.427	4738
951.517	6765
951.608	4303
951.698	4582
951.788	3202
951.879	2285
951.969	2485
952.060	3178
952.150	4094
952.240	4522
952.331	2415
952.421	5904
952.511	3122
952.602	2196
952.692	1691
952.782	2685
952.872	2670
952.962	4060
953.052	2383
953.143	3032
953.233	2525
953.323	3931
953.413	4123
953.503	5554
953.593	3356
953.683	3184
953.773	2357
953.863	2244
953.953	2153
954.042	3254
954.132	3547
954.222	3797
954.312	2425
954.402	2120
954.492	3324
954.581	3299
954.671	3397
954.761	1685
954.850	3960
954.940	1977
955.030	1450
955.119	2284
955.209	2927
955.298	2426
955.388	3753
955.477	4733
955.567	1631
955.656	2817
955.746	2647
955.835	2464
955.925	1359
956.014	3849
956.103	4329
956.193	4770
956.282	4139
956.371	2997
956.461	2425
956.550	2826
956.639	2331
956.728	2777
956.817	3455
956.906	1588
956.995	3551
957.085	3110
957.174	2520
957.263	2548
957.352	2901
957.441	2880
957.530	2153
957.619	2042
957.708	2630
957.796	3157
957.885	2952
957.974	2550
958.063	2585
958.152	1647
958.241	2450
958.329	1422
958.418	2299
958.507	2725
958.596	3628
958.684	2398
958.773	2489
958.861	2031
958.950	1522
959.039	1787
959.127	1932
959.216	3199
959.304	1851
959.393	2714
959.481	2643
959.570	2011
959.658	2102
959.746	1822
959.835	2806
959.923	1366
960.011	2016
960.100	3107
960.188	3564
960.276	2143
960.365	1532
960.453	1815
960.541	954
960.629	2793
960.717	1622
960.805	1155
960.893	1580
960.981	2424
961.069	4183
961.158	3819
961.245	5282
961.333	3490
961.421	2040
961.509	2190
961.597	2182
961.685	1725
961.773	2189
961.861	2404
961.949	3336
962.036	2273
962.124	2046
962.212	1883
962.299	1067
962.387	1547
962.475	1795
962.562	1937
962.650	2667
962.738	1877
962.825	1165
962.913	2034
963.000	2564
963.088	2603
963.175	2862
963.263	2149
963.350	1655
963.438	1404
963.525	1526
963.612	2993
963.700	1285
963.787	2830
963.874	1527
963.962	2872
964.049	1150
964.136	1443
964.223	742
964.310	1461
964.398	2644
964.485	1714
964.572	2618
964.659	2212
964.746	1590
964.833	1969
964.920	1621
965.007	1946
965.094	1224
965.181	1747
965.268	2556
965.355	1730
965.441	1357
965.528	1406
965.615	2849
965.702	1844
965.789	62
965.875	1923
965.962	2530
966.049	1832
966.136	1818
966.222	2111
966.309	3235
966.395	2284
966.482	2611
966.569	2564
966.655	2404
966.742	2193
966.828	2175
966.915	1812
967.001	1561
967.087	1170
967.174	1386
967.260	2524
967.347	1590
967.433	2178
967.519	2045
967.605	2471
967.692	1886
967.778	2274
967.864	1534
967.950	1026
968.036	1295
968.123	1583
968.209	2087
968.295	816
968.381	2652
968.467	1243
968.553	-60
968.639	1778
968.725	771
968.811	1950
968.897	2062
968.983	1607
969.069	950
969.154	1467
969.240	2208
969.326	276
969.412	1417
969.497	1091
969.583	1304
969.669	3027
969.755	2545
969.840	2440
969.926	3093
970.012	4739
970.097	4771
970.183	3589
970.268	1925
970.354	1902
970.439	536
970.525	2428
970.610	1196
970.696	2942
970.781	1786
970.866	938
970.952	1742
971.037	1939
971.122	1833
971.208	2176
971.293	1472
971.378	213
971.463	1774
971.549	1848
971.634	610
971.719	1716
971.804	1216
971.889	2072
971.974	2123
972.059	1814
972.144	2192
972.229	1531
972.314	1857
972.399	2463
972.484	684
972.569	1772
972.654	524
972.739	1586
972.824	1032
972.908	1021
972.993	639
973.078	660
973.163	1395
973.247	2246
973.332	180
973.417	2582
973.501	847
973.586	2038
973.671	1116
973.755	1562
973.840	2269
973.924	3184
974.009	3180
974.093	3486
974.178	2921
974.262	2733
974.346	1203
974.431	2627
974.515	1177
974.600	2514
974.684	2560
974.768	1905
974.852	2897
974.937	494
975.021	1602
975.105	1341
975.189	1234
975.273	2279
975.358	1177
975.442	770
975.526	2182
975.610	329
975.694	1219
975.778	3124
975.862	1524
975.946	275
976.030	2939
976.114	2305
976.198	1099
976.281	1290
976.365	2026
976.449	997
976.533	2691
976.617	1444
976.700	1353
976.784	1570
976.868	891
976.951	1572
977.035	870
977.119	2071
977.202	2062
977.286	2578
977.369	1969
977.453	4488
977.536	3589
977.620	3062
977.703	2825
977.787	2436
977.870	2665
977.953	3659
978.037	486
978.120	2939
978.203	1387
978.287	2190
978.370	2317
978.453	1392
978.536	1754
978.620	2533
978.703	2679
978.786	905
978.869	862
978.952	1046
979.035	3774
979.118	2226
979.201	872
979.284	2684
979.367	1095
979.450	2453
979.533	633
979.616	1451
979.699	1259
979.782	2778
979.865	1602
979.948	1392
980.030	940
980.113	1684
980.196	1026
980.279	3071
980.361	2084
980.444	2372
980.526	2597
980.609	4405
980.692	4769
980.774	4291
980.857	1929
980.939	3232
981.022	2750
981.104	2652
981.187	1553
981.269	3173
981.352	1469
981.434	2304
981.516	1984
981.599	3387
981.681	1809
981.763	2221
981.846	1790
981.928	2234
982.010	1712
982.092	1321
982.174	1626
982.256	2476
982.339	2088
982.421	1903
982.503	1773
982.585	796
982.667	1826
982.749	1603
982.831	1671
982.913	2063
982.995	2807
983.077	1221
983.158	2717
983.240	1739
983.322	4071
983.404	5074
983.486	4313
983.568	5243
983.649	3629
983.731	4117
983.813	3035
983.894	3073
983.976	3422
984.058	3596
984.139	3079
984.221	1801
984.302	2765
984.384	2446
984.465	2241
984.547	3922
984.628	1867
984.710	3421
984.791	2616
984.872	3128
984.954	2244
985.035	3280
985.116	2016
985.198	2589
985.279	4580
985.360	2870
985.441	2209
985.522	2852
985.604	2878
985.685	1208
985.766	4089
985.847	3849
985.928	2132
986.009	2989
986.090	3341
986.171	3541
986.252	2302
986.333	3767
986.414	2405
986.495	3806
986.576	3012
986.656	3753
986.737	3687
986.818	3452
986.899	3178
986.980	3595
987.060	3532
987.141	4268
987.222	3792
987.302	4548
987.383	5312
987.464	4739
987.544	5387
987.625	4323
987.705	4878
987.786	5672
987.866	4748
987.947	4437
988.027	4029
988.108	3492
988.188	4630
988.268	3382
988.349	3931
988.429	4072
988.509	4203
988.589	3172
988.670	2531
988.750	5514
988.830	2668
988.910	4056
988.990	3673
989.070	4264
989.151	3186
989.231	2573
989.311	4457
989.391	3093
989.471	3297
989.551	4003
989.631	3997
989.711	4865
989.791	4035
989.870	3112
989.950	3659
990.030	3483
990.110	3789
990.190	2808
990.269	2129
990.349	3475
990.429	3485
990.509	3011
990.588	1394
990.668	2621
990.747	3463
990.827	2776
990.907	3110
990.986	3996
991.066	2891
991.145	1903
991.225	4192
991.304	3594
991.383	2512
991.463	3102
991.542	2914
991.622	3197
991.701	2646
991.780	2466
991.859	2607
991.939	2483
992.018	3060
992.097	3222
992.176	2471
992.256	2328
992.335	2749
992.414	4162
992.493	1194
992.572	1156
992.651	3113
992.730	3161
992.809	2139
992.888	1533
992.967	2600
993.046	2355
993.125	1521
993.203	1590
993.282	2220
993.361	2215
993.440	1628
993.519	1958
993.597	2330
993.676	1925
993.755	2576
993.834	1991
993.912	742
993.991	2546
994.069	385
994.148	2189
994.226	1810
994.305	1861
994.384	1121
994.462	2977
994.540	371
994.619	1242
994.697	1651
994.776	1702
994.854	2430
994.932	1338
995.011	1325
995.089	638
995.167	1488
995.245	2766
995.324	1239
995.402	2577
995.480	1198
995.558	1997
995.636	413
995.714	1480
995.792	2732
995.870	1235
995.948	932
996.026	2248
996.104	90
996.182	1605
996.260	936
996.338	1453
996.416	62
996.494	761
996.572	2152
996.649	459
996.727	-241
996.805	2480
996.883	348
996.960	1329
997.038	879
997.116	1525
997.193	516
997.271	1946
997.348	-312
997.426	1118
997.504	1293
997.581	1262
997.658	1854
997.736	-844
997.813	-199
997.891	2067
997.968	-266
998.046	265
998.123	869
998.200	1435
998.277	669
998.355	1977
998.432	-804
998.509	264
998.586	589
998.663	1028
998.741	1011
998.818	435
998.895	499
998.972	733
999.049	1169
999.126	954
999.203	491
999.280	104
999.357	-534
999.434	297
999.511	903
999.587	1865
999.664	-506
999.741	68
999.818	1306
999.895	-85
999.971	60
1000.048	368
1000.125	1031
1000.202	-241
1000.278	1066
1000.355	852
1000.431	-445
1000.508	-322
1000.584	615
1000.661	692
1000.738	-512
1000.814	495
1000.890	-136
1000.967	-425
1001.043	236
1001.120	-810
1001.196	983
1001.272	-455
1001.349	-483
1001.425	707
1001.501	-443
1001.577	-775
1001.654	846
1001.730	-508
1001.806	-286
1001.882	-269
1001.958	734
1002.034	603
1002.110	84
1002.186	-608
1002.262	-1551
1002.338	-1253
1002.414	-274
1002.490	412
1002.566	-840
1002.642	-67
1002.718	-279
1002.794	-380
1002.870	-406
1002.945	87
1003.021	-65
1003.097	-228
1003.173	-274
1003.248	-532
1003.324	429
1003.400	-81
1003.475	-153
1003.551	125
1003.626	-742
1003.702	-571
1003.777	-327
1003.853	-542
1003.928	-1192
1004.004	-69
1004.079	-518
1004.155	-77
1004.230	-1095
1004.305	847
1004.381	-1039
1004.456	-592
1004.531	-1063
1004.607	-414
1004.682	-577
1004.757	-378
1004.832	-127
1004.907	-517
1004.982	-915
1005.057	-775
1005.133	-1103
1005.208	-786
1005.283	-989
1005.358	626
1005.433	-1528
1005.508	-832
1005.583	-2011
1005.657	-964
1005.732	-514
1005.807	-1027
1005.882	-656
1005.957	-207
1006.032	-506
1006.106	-927
1006.181	-256
1006.256	-137
1006.331	-2031
1006.405	-933
1006.480	-463
1006.554	-914
1006.629	-517
1006.704	-568
1006.778	-706
1006.853	575
1006.927	-284
1007.002	-1027
1007.076	-996
1007.150	-1577
1007.225	-707
1007.299	-272
1007.373	-702
1007.448	-990
1007.522	-1060
1007.596	-523
1007.671	-1477
1007.745	-841
1007.819	-681
1007.893	-527
1007.967	-760
1008.041	-1393
1008.115	-1018
1008.190	-1109
1008.264	-324
1008.338	-1019
1008.412	-1014
1008.486	238
1008.560	-1578
1008.633	-73
1008.707	-1169
1008.781	-283
1008.855	-1024
1008.929	-1434
1009.003	-533
1009.076	-863
1009.150	-1558
1009.224	-855
1009.298	-131
1009.371	-1335
1009.445	-896
1009.519	-828
1009.592	-2293
1009.666	-262
1009.739	-1095
1009.813	-2085
1009.886	609
1009.960	-2027
1010.033	-591
1010.107	-214
1010.180	-1883
1010.253	-897
1010.327	-1183
1010.400	-873
1010.473	-1349
1010.547	189
1010.620	-1370
1010.693	-1159
1010.766	-906
1010.840	-788
1010.913	-1198
1010.986	-1775
1011.059	-1093
1011.132	-991
1011.205	-200
1011.278	-924
1011.351	-981
1011.424	-708
1011.497	-1465
1011.570	-670
1011.643	-1054
1011.716	-1049
1011.789	-1336
1011.862	-788
1011.934	-731
1012.007	-1606
1012.080	-1268
1012.153	-878
1012.225	183
1012.298	-1442
1012.371	-917
1012.443	-930
1012.516	-1435
1012.588	-1099
1012.661	-1017
1012.733	-1265
1012.806	-483
1012.879	-1399
1012.951	-1408
1013.023	-1458
1013.096	-1539
1013.168	-1623
1013.241	-922
1013.313	-1212
1013.385	-1886
1013.458	-956
1013.530	-974
1013.602	-1378
1013.674	-1200
1013.746	-1633
1013.819	-833
1013.891	-894
1013.963	-1833
1014.035	-359
1014.107	-1605
1014.179	-1790
1014.251	-1689
1014.323	-770
1014.395	-1412
1014.467	-1586
1014.539	-879
1014.611	-1511
1014.683	-1390
1014.754	-1169
1014.826	-1972
1014.898	-1431
1014.970	-1901
1015.042	-834
1015.113	-924
1015.185	-984
1015.257	-1680
1015.328	-949
1015.400	-1445
1015.471	-964
1015.543	-1770
1015.615	-1480
1015.686	-1093
1015.757	-1299
1015.829	-754
1015.901	-1145
1015.972	-1572
1016.043	-1043
1016.115	-1685
1016.186	-543
1016.257	-2208
1016.328	-1110
1016.400	-1479
1016.471	-1777
1016.542	-2616
1016.613	-1140
1016.685	-1859
1016.756	-489
1016.827	-976
1016.898	-1953
1016.969	-969
1017.040	-1920
1017.111	-1817
1017.182	-1641
1017.253	-1351
1017.324	-1835
1017.395	-1512
1017.466	-1298
1017.537	-1685
1017.608	-1389
1017.678	-1188
1017.749	-1779
1017.820	-1459
1017.891	-2075
1017.961	-2486
1018.032	-897
1018.103	-1296
1018.173	-1347
1018.244	-928
1018.315	-1075
1018.385	-454
1018.456	-946
1018.526	-2034
1018.597	-706
1018.667	-1604
1018.738	-2116
1018.808	-2153
1018.878	-1584
1018.949	-1151
1019.019	-1235
1019.089	-1256
1019.160	-1057
1019.230	-1394
1019.300	-832
1019.371	-1696
1019.441	-1405
1019.511	-887
1019.581	-1412
1019.651	-1543
1019.721	-1479
1019.791	-1603
1019.861	-1539
1019.931	-971
1020.001	-1328
1020.071	-1305
1020.141	-1526
1020.211	-1462
1020.281	-1954
1020.351	-1527
1020.421	-1430
1020.491	-679
1020.560	-2006
1020.630	-1484
1020.700	-1438
1020.770	-1865
1020.839	-730
1020.909	-1623
1020.979	-1463
1021.048	-2039
1021.118	-1736
1021.187	-1262
1021.257	-950
1021.326	-1053
1021.396	-1990
1021.465	-1684
1021.535	-2025
1021.604	-1680
1021.674	-1089
1021.743	-1918
1021.812	-1825
1021.882	-1371
1021.951	-98
1022.020	-1473
1022.089	-1057
1022.159	-1886
1022.228	-1247
1022.297	-2691
1022.366	-1072
1022.435	-859
1022.504	-1242
1022.573	-1565
1022.642	-1889
1022.711	-1851
1022.781	-607
1022.849	-1617
1022.918	-1688
1022.987	-1068
1023.056	-1466
1023.125	-1080
1023.194	-801
1023.263	-1651
1023.331	-759
1023.400	-2120
1023.469	-1092
1023.538	-1422
1023.606	-1460
1023.675	-1352
1023.744	-2104
1023.812	-2376
1023.881	-848
1023.949	-1688
1024.018	-1481
1024.086	-1853
1024.155	-1496
1024.223	-1235
1024.292	-1680
1024.360	-1372
1024.429	-1739
1024.497	-2219
1024.565	-1419
1024.634	-2338
1024.702	-1337
1024.770	-2029
1024.838	-1527
1024.907	-1187
1024.975	-1303
1025.043	-1277
1025.111	-1560
1025.179	-1666
1025.247	-1612
1025.315	-1118
1025.383	-1912
1025.451	-422
1025.519	-1783
1025.587	-2469
1025.655	-1308
1025.723	-1546
1025.791	-999
1025.859	-1660
1025.927	-910
1025.995	-1693
1026.062	-1735
1026.130	-1423
1026.198	-1594
1026.266	-1656
1026.333	-835
1026.401	-1108
1026.469	-1234
1026.536	-1548
1026.604	-1771
1026.671	-1887
1026.739	-1449
1026.806	-2286
1026.874	-938
1026.941	-2550
1027.009	-1763
1027.076	-2303
1027.144	-634
1027.211	-1987
1027.278	-2102
1027.345	-1748
1027.413	-1676
1027.480	-1380
1027.547	-915
1027.614	-1379
1027.682	-649
1027.749	-1805
1027.816	-1516
1027.883	-1008
1027.950	-1252
1028.017	-2499
1028.084	-975
1028.151	-2273
1028.218	-2169
1028.285	-1667
1028.352	-1365
1028.419	-1797
1028.486	-1745
1028.553	-1833
1028.619	-1964
1028.686	-1380
1028.753	-1195
1028.820	-2044
1028.886	-983
1028.953	-2088
1029.020	-1213
1029.086	-1933
1029.153	-2261
1029.220	-2036
1029.286	-2459
1029.353	-2023
1029.419	-1683
1029.486	-2671
1029.552	-1221
1029.619	-1849
1029.685	-1708
1029.751	-2762
1029.818	-1626
1029.884	-2900
1029.951	-1022
1030.017	-2006
1030.083	-1467
1030.149	-2147
1030.216	-830
1030.282	-1352
1030.348	-1443
1030.414	-1453
1030.480	-1415
1030.546	-1894
1030.612	-1511
1030.678	-1917
1030.744	-1656
1030.810	-1964
1030.876	-1709
1030.942	-2092
1031.008	-1126
1031.074	-1894
1031.140	-1657
1031.206	-1437
1031.272	-2283
1031.337	-1684
1031.403	-2128
1031.469	-2132
1031.534	-2125
1031.600	-1211
1031.666	-1496
1031.731	-2123
1031.797	-2078
1031.863	-1841
1031.928	-1703
1031.994	-2925
1032.059	-1718
1032.125	-1848
1032.190	-1610
1032.256	-2377
1032.321	-2398
1032.386	-2132
1032.452	-680
1032.517	-1509
1032.582	-1307
1032.647	-1581
1032.713	-2071
1032.778	-1597
1032.843	-1005
1032.908	-2547
1032.974	-1567
1033.039	-2345
1033.104	-1560
1033.169	-1724
1033.234	-1591
1033.299	-1039
1033.364	-1976
1033.429	-2323
1033.494	-1259
1033.559	-2867
1033.624	-2195
1033.688	-1815
1033.753	-1314
1033.818	-1012
1033.883	-1239
1033.948	-1605
1034.013	-917
1034.077	-639
1034.142	-556
1034.207	-1048
1034.271	1362
1034.336	764
1034.400	424
1034.465	-438
1034.530	-1203
1034.594	-1017
1034.658	-1444
1034.723	-1973
1034.787	-1336
1034.852	-2196
1034.916	-1768
1034.981	-1405
1035.045	-964
1035.109	-1720
1035.173	-841
1035.238	-2519
1035.302	-1348
1035.366	-3189
1035.430	-2211
1035.495	-2544
1035.559	-1371
1035.623	-2841
1035.687	-1865
1035.751	-3006
1035.815	-1338
1035.879	-1708
1035.943	-2031
1036.007	-1917
1036.071	-1268
1036.135	-1584
1036.198	-2569
1036.262	-2188
1036.326	-2309
1036.390	-1921
1036.454	-1424
1036.517	-1816
1036.581	-1796
1036.645	-1723
1036.709	-1124
1036.772	-2822
1036.836	-1258
1036.900	-1840
1036.963	-2520
1037.026	-2812
1037.090	-1947
1037.154	-2085
1037.217	-2237
1037.280	-2675
1037.344	-1493
1037.407	-1639
1037.471	-1636
1037.534	-2237
1037.597	-1274
1037.661	-1780
1037.724	-1015
1037.787	-2524
1037.850	-2242
1037.913	-2569
1037.977	-1529
1038.040	-1885
1038.103	-1634
1038.166	-2368
1038.229	-1873
1038.292	-2198
1038.355	-2432
1038.418	-2354
1038.481	-1483
1038.544	-2873
1038.607	-1677
1038.670	-2874
1038.732	-1962
1038.795	-2194
1038.858	-1343
1038.921	-1688
1038.984	-1219
1039.046	-2038
1039.109	-2260
1039.172	-2034
1039.234	-1178
1039.297	-1974
1039.360	-1561
1039.422	-2063
1039.485	-2651
1039.547	-1587
1039.610	-2006
1039.672	-2180
1039.734	-1724
1039.797	-2537
1039.859	-2181
1039.922	-2187
1039.984	-1765
1040.046	-1719
1040.109	-2007
1040.171	-1843
1040.233	-2153
1040.295	-1744
1040.358	-2379
1040.420	-1815
1040.482	-2768
1040.544	-2223
1040.606	-2212
1040.668	-2774
1040.730	-2031
1040.792	-1779
1040.854	-1731
1040.916	-1564
1040.978	-1591
1041.040	-1443
1041.102	-1513
1041.164	-1693
1041.225	-2081
1041.287	-1831
1041.349	-2470
1041.411	-1574
1041.472	-1540
1041.534	-1912
1041.596	-2308
1041.657	-1505
1041.719	-1350
1041.781	-1764
1041.842	-1722
1041.904	-2310
1041.965	-1765
1042.027	-1926
1042.088	-2048
1042.150	-2309
1042.211	-1917
1042.272	-1635
1042.334	-1752
1042.395	-2306
1042.456	-1327
1042.518	-1668
1042.579	-1094
1042.640	-1994
1042.701	-1579
1042.763	-1847
1042.824	-1577
1042.885	-2468
1042.946	-1724
1043.007	-2301
1043.068	-1702
1043.129	-1858
1043.190	-2285
1043.251	-1824
1043.312	-1553
1043.373	-1178
1043.434	-2114
1043.495	-2788
1043.556	-1005
1043.616	-1577
1043.677	-2015
1043.738	-1981
1043.799	-1926
1043.859	-2576
1043.920	-1624
1043.981	-2085
1044.041	-1691
1044.102	-2175
1044.162	-2233
1044.223	-1915
1044.284	-1463
1044.344	-1374
1044.405	-1932
1044.465	-2534
1044.525	-2088
1044.586	-1704
1044.646	-1757
1044.707	-1599
1044.767	-1674
1044.827	-1347
1044.887	-543
1044.948	-1995
1045.008	-1377
1045.068	-2424
1045.128	-839
1045.188	-1821
1045.249	-799
1045.309	-1523
1045.369	-1855
1045.429	-2139
1045.489	-1280
1045.549	-1302
1045.609	-1832
1045.669	-2163
1045.729	-1793
1045.789	-1623
1045.848	-1574
1045.908	-1504
1045.968	-1415
1046.028	-1443
1046.088	-392
1046.147	-1048
1046.207	-1668
1046.267	-1059
1046.326	-1086
1046.386	-1357
1046.446	-444
1046.505	-596
1046.565	-809
1046.624	-466
1046.684	-1080
1046.743	-158
1046.803	-567
1046.862	111
1046.922	0
