'Start Wavelength	183.907
'End Wavelength	1046.922
'Gate Delay	5.000
'Gate Width (ms)	1.050
'Laser Output Level	0.000
'X Position	0.000
'Y Position	0.000
'Z Position	0.000
'Grid Point Number	1.000
'Shot Number	100.000
183.907	525.000
183.977	320.000
184.047	750
184.116	109
184.186	-321
184.256	-363
184.325	-81
184.395	-778
184.465	900
184.534	-688
184.604	-122
184.674	-78
184.743	-343
184.813	218
184.883	988
184.952	-724
185.022	470
185.092	-160
185.161	-236
185.231	-950
185.301	-189
185.370	-43
185.440	-324
185.509	245
185.579	172
185.649	-169
185.718	259
185.788	-216
185.857	310
185.927	-664
185.996	-295
186.066	-266
186.136	-660
186.205	-409
186.275	-221
186.344	-571
186.414	186
186.483	-1642
186.553	438
186.622	-411
186.692	664
186.761	-263
186.831	827
186.900	-692
186.970	168
187.039	-633
187.109	193
187.178	-610
187.248	792
187.317	-191
187.387	-449
187.456	110
187.526	-643
187.595	-209
187.664	-142
187.734	-37
187.803	255
187.873	-202
187.942	645
188.012	138
188.081	-461
188.150	-852
188.220	194
188.289	18
188.358	-512
188.428	-111
188.497	-201
188.567	-219
188.636	-209
188.705	-19
188.775	-29
188.844	-189
188.913	691
188.983	-435
189.052	0
189.121	-691
189.191	170
189.260	381
189.329	264
189.399	285
189.468	88
189.537	-56
189.606	-239
189.676	14
189.745	174
189.814	-348
189.883	420
189.953	-52
190.022	991
190.091	-360
190.161	98
190.230	-253
190.299	222
190.368	413
190.437	-52
190.507	-937
190.576	-517
190.645	-663
190.714	299
190.783	-328
190.853	377
190.922	-10
190.991	-45
191.060	93
191.129	-866
191.198	-237
191.268	264
191.337	-1178
191.406	-244
191.475	-889
191.544	-173
191.613	-237
191.682	32
191.752	-243
191.821	150
191.890	-146
191.959	233
192.028	-88
192.097	514
192.166	8
192.235	-668
192.304	-472
192.373	-546
192.442	392
192.511	-159
192.580	-299
192.650	512
192.719	-615
192.788	593
192.857	-359
192.926	-511
192.995	-398
193.064	-147
193.133	-314
193.202	163
193.271	191
193.340	425
193.409	-221
193.478	72
193.547	-533
193.615	-714
193.684	-954
193.753	-310
193.822	-111
193.891	242
193.960	-43
194.029	-515
194.098	-612
194.167	-474
194.236	461
194.305	-582
194.374	372
194.443	-492
194.512	90
194.580	284
194.649	-170
194.718	449
194.787	-423
194.856	-279
194.925	-13
194.994	281
195.062	309
195.131	-411
195.200	-507
195.269	-21
195.338	-644
195.407	1034
195.475	-1016
195.544	394
195.613	-929
195.682	281
195.751	-733
195.819	-344
195.888	-309
195.957	381
196.026	-355
196.094	214
196.163	-591
196.232	-387
196.301	-894
196.369	-445
196.438	-253
196.507	-224
196.576	-651
196.644	-740
196.713	-867
196.782	-382
196.850	-158
196.919	741
196.988	-114
197.056	-312
197.125	-580
197.194	-29
197.262	-964
197.331	99
197.400	161
197.468	-512
197.537	-358
197.606	-163
197.674	-237
197.743	-32
197.812	-1127
197.880	84
197.949	-303
198.017	-176
198.086	-301
198.155	207
198.223	-998
198.292	-955
198.360	-481
198.429	-106
198.497	-259
198.566	-286
198.635	134
198.703	201
198.772	-769
198.840	567
198.909	-799
198.977	264
199.046	-338
199.114	72
199.183	-136
199.251	428
199.320	-1343
199.388	-75
199.457	-268
199.525	-503
199.594	-1124
199.662	148
199.731	-707
199.799	-398
199.867	-505
199.936	-416
200.004	-1039
200.073	-171
200.141	151
200.210	-102
200.278	-494
200.346	-163
200.415	-429
200.483	259
200.552	-508
200.620	-625
200.688	-639
200.757	-376
200.825	-840
200.893	-43
200.962	-775
201.030	-446
201.098	-1340
201.167	408
201.235	-365
201.303	-350
201.372	-456
201.440	-263
201.508	-688
201.577	304
201.645	-740
201.713	-471
201.781	-426
201.850	332
201.918	-764
201.986	187
202.055	-358
202.123	-356
202.191	-407
202.259	-254
202.327	-780
202.396	-86
202.464	-84
202.532	-206
202.600	-206
202.669	-183
202.737	-264
202.805	-8
202.873	-67
202.941	-830
203.009	-283
203.078	788
203.146	-50
203.214	-251
203.282	-1281
203.350	-256
203.418	-986
203.487	-255
203.555	-609
203.623	-192
203.691	-1205
203.759	-654
203.827	-975
203.895	149
203.963	-513
204.031	26
204.099	-281
204.168	-1487
204.236	219
204.304	-150
204.372	-797
204.440	204
204.508	-538
204.576	-565
204.644	-263
204.712	126
204.780	-846
204.848	-466
204.916	-858
204.984	-142
205.052	-434
205.120	-538
205.188	-967
205.256	-621
205.324	124
205.392	-594
205.460	-398
205.528	-53
205.596	-729
205.664	-192
205.732	-144
205.799	-379
205.867	-301
205.935	-95
206.003	221
206.071	-458
206.139	-832
206.207	-578
206.275	-588
206.343	-323
206.411	-611
206.478	-234
206.546	73
206.614	-148
206.682	-646
206.750	-377
206.818	-99
206.885	331
206.953	-1178
207.021	425
207.089	-392
207.157	-690
207.225	-394
207.292	-980
207.360	-1126
207.428	-1035
207.496	-457
207.563	-693
207.631	-264
207.699	-829
207.767	-823
207.834	-347
207.902	-938
207.970	-384
208.038	-973
208.105	-417
208.173	-1035
208.241	148
208.309	494
208.376	-535
208.444	-520
208.512	-970
208.579	-1512
208.647	-286
208.715	-230
208.782	-424
208.850	-423
208.918	-247
208.985	-694
209.053	-163
209.120	-1054
209.188	-764
209.256	-915
209.323	-927
209.391	-652
209.459	1093
209.526	-237
209.594	259
209.661	-584
209.729	-845
209.796	-584
209.864	-888
209.932	-1879
209.999	354
210.067	-752
210.134	-308
210.202	-465
210.269	-384
210.337	288
210.404	-861
210.472	-737
210.539	12
210.607	-318
210.674	-702
210.742	-829
210.809	-409
210.877	-1017
210.944	-468
211.012	-2669
211.079	145
211.146	-392
211.214	-962
211.281	-530
211.349	-528
211.416	-853
211.484	-304
211.551	-831
211.618	-667
211.686	-1210
211.753	-926
211.821	-391
211.888	-1004
211.955	-28
212.023	-354
212.090	-752
212.157	-471
212.225	-1484
212.292	115
212.359	-336
212.427	-391
212.494	-909
212.561	-620
212.629	-1287
212.696	-899
212.763	-1024
212.831	-910
212.898	66
212.965	-716
213.032	-1178
213.100	-910
213.167	-693
213.234	47
213.301	-377
213.369	-748
213.436	-1175
213.503	-407
213.570	-353
213.638	-351
213.705	-1837
213.772	-979
213.839	-1056
213.906	351
213.973	-231
214.041	-1034
214.108	307
214.175	18
214.242	-681
214.309	-363
214.376	-308
214.444	-976
214.511	-731
214.578	-1368
214.645	-476
214.712	-311
214.779	-250
214.846	-1879
214.913	143
214.980	-4
215.048	-986
215.115	262
215.182	-931
215.249	-326
215.316	-1364
215.383	550
215.450	-1979
215.517	-970
215.584	-851
215.651	-951
215.718	-684
215.785	-50
215.852	-1385
215.919	347
215.986	-295
216.053	-822
216.120	-1371
216.187	-512
216.254	-467
216.321	-1175
216.388	-1315
216.455	-746
216.522	-888
216.589	-429
216.656	-434
216.722	-438
216.789	-1347
216.856	-455
216.923	-710
216.990	-716
217.057	-1214
217.124	-488
217.191	-1315
217.258	-307
217.324	-785
217.391	-599
217.458	-1434
217.525	-529
217.592	-919
217.659	-1455
217.725	-184
217.792	-1200
217.859	-50
217.926	-839
217.993	-838
218.059	-434
218.126	-663
218.193	-1268
218.260	-1161
218.327	-379
218.393	-1179
218.460	-463
218.527	-1292
218.594	-422
218.660	-780
218.727	-1075
218.794	-1180
218.860	-288
218.927	-1554
218.994	-74
219.061	-1467
219.127	133
219.194	-1124
219.261	-923
219.327	-1164
219.394	-221
219.461	-1241
219.527	-256
219.594	-1065
219.661	-402
219.727	-1356
219.794	432
219.860	-1468
219.927	-144
219.994	-276
220.060	235
220.127	78
220.193	-303
220.260	-1141
220.326	-358
220.393	-1482
220.460	-1090
220.526	-1094
220.593	-661
220.659	-195
220.726	-694
220.792	-750
220.859	-967
220.925	-1377
220.992	-88
221.058	-1207
221.125	-573
221.191	-1483
221.258	-1471
221.324	-731
221.391	-970
221.457	-753
221.524	-149
221.590	-1049
221.657	-603
221.723	-1211
221.789	-634
221.856	-100
221.922	-1593
221.989	-447
222.055	-735
222.121	-2286
222.188	768
222.254	-916
222.321	-604
222.387	-1376
222.453	-206
222.520	-1185
222.586	-1410
222.652	-1152
222.719	-1844
222.785	-1265
222.851	-587
222.918	-247
222.984	-844
223.050	-1252
223.116	-1848
223.183	-781
223.249	-1589
223.315	-1272
223.382	-502
223.448	-1000
223.514	-753
223.580	-1632
223.647	-921
223.713	-1688
223.779	-806
223.845	-1997
223.911	-644
223.978	-1398
224.044	-434
224.110	-1845
224.176	-721
224.242	-500
224.309	-2043
224.375	-382
224.441	-457
224.507	-968
224.573	-1715
224.639	-582
224.705	-401
224.772	-799
224.838	-1379
224.904	-442
224.970	-505
225.036	-987
225.102	-1781
225.168	-520
225.234	-572
225.300	-939
225.366	-598
225.432	-853
225.499	-879
225.565	-1344
225.631	-585
225.697	-851
225.763	-1406
225.829	-1090
225.895	-619
225.961	-1320
226.027	-523
226.093	-1382
226.159	-471
226.225	-537
226.291	-587
226.357	-1142
226.423	-1190
226.489	-961
226.554	-1219
226.620	-932
226.686	-769
226.752	-349
226.818	-720
226.884	-1182
226.950	-780
227.016	-1211
227.082	-708
227.148	-1295
227.214	-594
227.279	-1098
227.345	-898
227.411	-859
227.477	-967
227.543	-112
227.609	-27
227.674	149
227.740	-555
227.806	-716
227.872	-897
227.938	-683
228.003	-41
228.069	-471
228.135	-1486
228.201	-869
228.267	-972
228.332	-1044
228.398	-2101
228.464	-550
228.530	-1526
228.595	-1014
228.661	-963
228.727	-2337
228.792	9
228.858	-1468
228.924	-2769
228.990	-119
229.055	-1658
229.121	-1033
229.187	-801
229.252	-1316
229.318	-822
229.384	-1035
229.449	-1123
229.515	-2453
229.581	-2049
229.646	525
229.712	-671
229.777	-1427
229.843	-1436
229.909	-853
229.974	-712
230.040	-896
230.105	-777
230.171	-2144
230.236	-401
230.302	-1538
230.368	-1240
230.433	-2327
230.499	-340
230.564	-381
230.630	-1110
230.695	-985
230.761	-315
230.826	-2063
230.892	39
230.957	-2240
231.023	-1158
231.088	-1033
231.154	-1030
231.219	-457
231.284	-1729
231.350	-657
231.415	-1527
231.481	-571
231.546	-824
231.612	-841
231.677	-1211
231.742	-2520
231.808	808
231.873	-1803
231.939	-2276
232.004	-712
232.069	301
232.135	-1566
232.200	-1404
232.265	-642
232.331	-1174
232.396	-1384
232.461	-1455
232.527	-1779
232.592	-1670
232.657	-1412
232.723	-528
232.788	-1732
232.853	-276
232.918	-667
232.984	-813
233.049	-1949
233.114	-1826
233.179	-1369
233.245	-629
233.310	-1177
233.375	-2206
233.440	-1067
233.506	-866
233.571	-1287
233.636	-376
233.701	-1326
233.766	-1054
233.832	-487
233.897	-361
233.962	-1712
234.027	-528
234.092	-820
234.157	-1183
234.222	-2269
234.288	-910
234.353	-1266
234.418	-865
234.483	-848
234.548	-737
234.613	-1389
234.678	-644
234.743	-2112
234.808	-259
234.873	-1891
234.938	599
235.004	-574
235.069	-271
235.134	-1329
235.199	-597
235.264	-1178
235.329	-2263
235.394	-685
235.459	-179
235.524	-1484
235.589	-1167
235.654	-1198
235.719	-2964
235.784	-510
235.849	-604
235.913	-1707
235.978	-1815
236.043	-723
236.108	-846
236.173	-2074
236.238	-878
236.303	-1940
236.368	-1983
236.433	-1290
236.498	-974
236.563	-1263
236.627	-1127
236.692	-540
236.757	-478
236.822	-1319
236.887	-1625
236.952	-770
237.017	-2148
237.081	-316
237.146	-1310
237.211	-1266
237.276	-688
237.341	-66
237.405	-765
237.470	-1174
237.535	-835
237.600	-810
237.664	-605
237.729	-2275
237.794	-2119
237.859	-171
237.923	-1042
237.988	-947
238.053	-389
238.118	-1895
238.182	-853
238.247	201
238.312	-2587
238.376	-1457
238.441	-2319
238.506	330
238.570	-1798
238.635	-449
238.700	-1248
238.764	-1941
238.829	-873
238.893	-1979
238.958	-433
239.023	-1500
239.087	-1351
239.152	-1619
239.216	-1415
239.281	-295
239.346	-577
239.410	-1309
239.475	-1174
239.539	-488
239.604	-1876
239.668	-825
239.733	-884
239.797	113
239.862	506
239.926	-544
239.991	-523
240.055	-105
240.120	-868
240.184	-720
240.249	-1540
240.313	-1594
240.378	-640
240.442	-700
240.507	-1128
240.571	-1877
240.635	-1337
240.700	-1309
240.764	-342
240.829	-1859
240.893	-1659
240.957	-1242
241.022	-211
241.086	-44
241.151	-1476
241.215	-1330
241.279	89
241.344	-2089
241.408	-606
241.472	-2052
241.537	10
241.601	-868
241.665	-941
241.730	-2071
241.794	12
241.858	-1879
241.922	-1412
241.987	-842
242.051	-1633
242.115	-1588
242.179	-1153
242.244	-1413
242.308	-22
242.372	-1417
242.436	-1830
242.501	-658
242.565	-1584
242.629	-1838
242.693	-795
242.757	-2282
242.822	-746
242.886	-840
242.950	-79
243.014	-1325
243.078	-1289
243.142	-1606
243.206	-1490
243.271	-1191
243.335	-1147
243.399	-1059
243.463	-1366
243.527	-103
243.591	-769
243.655	-873
243.719	-898
243.783	-377
243.847	-965
243.911	-1009
243.975	-2317
244.040	-2563
244.104	-7
244.168	-1865
244.232	-1044
244.296	-1074
244.360	-1225
244.424	-2440
244.488	-721
244.552	-1062
244.615	-2365
244.679	-769
244.743	-1195
244.807	-1920
244.871	-1223
244.935	-603
244.999	-2974
245.063	-1414
245.127	-57
245.191	-747
245.255	-1406
245.319	-686
245.383	-2812
245.446	365
245.510	-1892
245.574	-1245
245.638	-689
245.702	-3694
245.766	-10
245.829	-1243
245.893	-2329
245.957	-2262
246.021	-65
246.085	-1751
246.149	-899
246.212	18
246.276	-886
246.340	-2477
246.404	-844
246.467	-712
246.531	-2724
246.595	-186
246.659	-230
246.722	-2696
246.786	-453
246.850	-1616
246.913	-784
246.977	-2720
247.041	-758
247.104	-1315
247.168	-683
247.232	-1277
247.295	-765
247.359	-1089
247.423	-608
247.486	-1633
247.550	-553
247.614	-922
247.677	-1249
247.741	-991
247.804	-900
247.868	-1035
247.932	-1771
247.995	137
248.059	-1478
248.122	-2399
248.186	-411
248.249	-1615
248.313	-1014
248.376	-1280
248.440	-1318
248.503	-2956
248.567	-29
248.630	-2048
248.694	-1690
248.757	-121
248.821	-389
248.884	511
248.948	-1364
249.011	-943
249.075	-618
249.138	-945
249.202	-1390
249.265	-1459
249.328	-496
249.392	-2384
249.455	261
249.519	-1185
249.582	-950
249.645	-1428
249.709	-715
249.772	-2696
249.835	-1519
249.899	-1479
249.962	-671
250.025	-1797
250.089	-1784
250.152	-457
250.215	-1555
250.279	-2584
250.342	-665
250.405	-1279
250.468	-1453
250.532	-1174
250.595	-145
250.658	-1864
250.721	657
250.785	-1327
250.848	-74
250.911	-2098
250.974	-596
251.038	-1270
251.101	244
251.164	-1453
251.227	-27
251.290	-1689
251.354	-1079
251.417	-409
251.480	-361
251.543	197
251.606	1148
251.669	331
251.732	-568
251.795	-1181
251.859	-377
251.922	-194
251.985	-176
252.048	-166
252.111	-147
252.174	-2235
252.237	-166
252.300	-1266
252.363	-353
252.426	947
252.489	-1858
252.552	-1108
252.615	-1417
252.678	-582
252.741	-788
252.804	-1361
252.867	1286
252.930	-153
252.993	-1041
253.056	-629
253.119	-957
253.182	-1846
253.245	-1552
253.308	-757
253.371	-1467
253.434	-842
253.497	-651
253.559	-372
253.622	-838
253.685	-1544
253.748	-1482
253.811	-1778
253.874	-554
253.937	-1544
254.000	-596
254.062	-1319
254.125	-1214
254.188	-877
254.251	-896
254.314	-2064
254.376	-1290
254.439	-852
254.502	-370
254.565	-1786
254.628	-87
254.690	-1785
254.753	-1099
254.816	-1803
254.878	-570
254.941	-418
255.004	-732
255.067	-980
255.129	-1684
255.192	-1241
255.255	-1470
255.317	-771
255.380	-1020
255.443	-1580
255.505	-1826
255.568	-1756
255.631	-215
255.693	-1145
255.756	-1203
255.819	-311
255.881	-1494
255.944	-577
256.006	-1667
256.069	-2046
256.132	-1475
256.194	-1453
256.257	-575
256.319	-1448
256.382	-1549
256.444	279
256.507	-696
256.569	-1192
256.632	-1110
256.694	-1674
256.757	-805
256.819	-847
256.882	-1841
256.944	-853
257.007	-17
257.069	-1602
257.132	-1467
257.194	-667
257.257	-1349
257.319	-2143
257.381	-2112
257.444	-155
257.506	240
257.569	-545
257.631	-1351
257.693	-1426
257.756	-582
257.818	-1887
257.880	-1288
257.943	-570
258.005	-1177
258.067	-2045
258.130	-975
258.192	-1472
258.254	-1241
258.317	-1735
258.379	-338
258.441	-1908
258.503	-144
258.566	-1971
258.628	-1561
258.690	-2793
258.753	-683
258.815	-1649
258.877	-1383
258.939	-740
259.001	-632
259.064	-1161
259.126	-1725
259.188	-1703
259.250	-516
259.312	-1607
259.375	-1256
259.437	-1642
259.499	-731
259.561	-822
259.623	-946
259.685	-1571
259.747	-834
259.809	-1116
259.872	-277
259.934	-510
259.996	-655
260.058	-350
260.120	-1092
260.182	-1189
260.244	-682
260.306	-1928
260.368	-231
260.430	-1331
260.492	-865
260.554	-1166
260.616	-2149
260.678	-1189
260.740	-1079
260.802	-1367
260.864	-328
260.926	-1795
260.988	268
261.050	-1879
261.112	-1076
261.174	-1455
261.236	-584
261.298	-2091
261.359	-673
261.421	-560
261.483	-812
261.545	-577
261.607	-1030
261.669	-893
261.731	-1022
261.793	-832
261.854	-1353
261.916	-710
261.978	-928
262.040	-985
262.102	-549
262.164	-1175
262.225	-71
262.287	-875
262.349	-1421
262.411	-1760
262.472	-117
262.534	-1902
262.596	-723
262.658	-406
262.719	-1822
262.781	-355
262.843	-927
262.904	-513
262.966	-856
263.028	-1200
263.090	-963
263.151	-1465
263.213	-1186
263.275	-1449
263.336	-736
263.398	-519
263.459	-1169
263.521	-848
263.583	-596
263.644	-1261
263.706	-928
263.767	-1972
263.829	26
263.891	-1100
263.952	-1237
264.014	-1920
264.075	-1214
264.137	-1795
264.198	-805
264.260	-1258
264.321	-577
264.383	-1594
264.444	-116
264.506	-848
264.567	-1096
264.629	-971
264.690	-2843
264.752	-1224
264.813	-1094
264.875	-1923
264.936	173
264.998	-847
265.059	-740
265.120	-1461
265.182	-1161
265.243	-1503
265.305	-949
265.366	-1073
265.427	-1292
265.489	-501
265.550	-2309
265.611	-1613
265.673	-1716
265.734	-966
265.795	-1102
265.857	-1914
265.918	-1780
265.979	-874
266.040	-539
266.102	-1021
266.163	-501
266.224	-899
266.286	-893
266.347	-2254
266.408	-1051
266.469	-1401
266.530	-930
266.592	-2092
266.653	-890
266.714	-781
266.775	-1545
266.836	-511
266.898	-1798
266.959	-1438
267.020	-441
267.081	-286
267.142	-501
267.203	-1695
267.264	-1718
267.326	-481
267.387	-893
267.448	-2032
267.509	-501
267.570	-1059
267.631	-1094
267.692	-1898
267.753	-896
267.814	-2273
267.875	-1274
267.936	-2292
267.997	-895
268.058	-1736
268.119	-701
268.180	-784
268.241	-1747
268.302	-1762
268.363	-1000
268.424	-1857
268.485	-449
268.546	-1837
268.607	-810
268.668	-1903
268.729	-1562
268.790	-1095
268.851	-946
268.912	-1777
268.972	-1378
269.033	-1742
269.094	-1313
269.155	-826
269.216	-666
269.277	-1231
269.338	-900
269.398	-1265
269.459	-1267
269.520	-716
269.581	-1589
269.642	-1486
269.702	-1436
269.763	-1843
269.824	-1781
269.885	-1792
269.945	-731
270.006	-1233
270.067	-1575
270.128	-1470
270.188	-1455
270.249	-1904
270.310	-733
270.370	-625
270.431	-1560
270.492	-1571
270.553	-570
270.613	-1219
270.674	-348
270.734	-2050
270.795	-758
270.856	-1367
270.916	-1506
270.977	-1818
271.038	-1182
271.098	-1695
271.159	-1153
271.219	-1285
271.280	-1312
271.340	-1085
271.401	-1079
271.462	-1300
271.522	-830
271.583	-890
271.643	-1451
271.704	-2489
271.764	-1344
271.825	-999
271.885	-159
271.946	-786
272.006	-507
272.066	-489
272.127	-153
272.187	168
272.248	-92
272.308	-1139
272.369	-771
272.429	-998
272.489	-1179
272.550	-1416
272.610	-735
272.671	-1447
272.731	-592
272.791	-1135
272.852	-1321
272.912	-1162
272.972	-769
273.033	-996
273.093	-1158
273.153	-807
273.214	-344
273.274	-1157
273.334	-1764
273.394	-267
273.455	-855
273.515	-238
273.575	-809
273.635	-507
273.696	-251
273.756	-225
273.816	248
273.876	-1392
273.936	-355
273.997	-439
274.057	-652
274.117	-895
274.177	-1022
274.237	-1149
274.297	-456
274.358	-924
274.418	-608
274.478	-903
274.538	-950
274.598	-1844
274.658	-961
274.718	-1128
274.778	-642
274.838	-1275
274.898	-990
274.958	-867
275.018	-875
275.078	-687
275.138	-727
275.198	-1402
275.258	-680
275.318	-1696
275.378	-1052
275.438	-1597
275.498	-525
275.558	-756
275.618	-965
275.678	-667
275.738	-801
275.798	-1224
275.858	-964
275.918	-1225
275.978	-368
276.038	-651
276.098	-534
276.157	-1191
276.217	-1274
276.277	-1082
276.337	-602
276.397	-658
276.457	-1138
276.517	-704
276.576	-663
276.636	-1388
276.696	-1226
276.756	-1052
276.815	-1411
276.875	-947
276.935	-498
276.995	-1043
277.055	-909
277.114	-876
277.174	-809
277.234	-1479
277.293	-776
277.353	-1190
277.413	441
277.472	-664
277.532	-709
277.592	-685
277.651	471
277.711	2985
277.771	580
277.830	2643
277.890	3533
277.950	1397
278.009	7228
278.069	2676
278.128	2627
278.188	4506
278.248	1838
278.307	3895
278.367	2936
278.426	-471
278.486	88
278.545	-1039
278.605	-376
278.664	-954
278.724	-994
278.783	-701
278.843	-235
278.902	-1465
278.962	-485
279.021	-261
279.081	673
279.140	229
279.199	-308
279.259	-442
279.318	1251
279.378	540
279.437	914
279.496	4505
279.556	23474
279.615	19111
279.675	3688
279.734	2034
279.793	1205
279.853	1772
279.912	921
279.971	41
280.031	109
280.090	754
280.149	2241
280.208	1928
280.268	14320
280.327	17119
280.386	2294
280.445	1079
280.505	527
280.564	-448
280.623	-666
280.682	-77
280.742	-312
280.801	-333
280.860	-504
280.919	-1070
280.978	-153
281.037	-1303
281.097	-1248
281.156	-81
281.215	91
281.274	-1281
281.333	541
281.392	-1034
281.451	-786
281.510	-968
281.569	-236
281.628	-563
281.688	-1208
281.747	-1016
281.806	-660
281.865	-393
281.924	-1181
281.983	-869
282.042	-530
282.101	-720
282.160	-521
282.219	-373
282.278	-636
282.337	-1166
282.396	-92
282.454	-1325
282.513	-316
282.572	-98
282.631	-692
282.690	-1334
282.749	-1217
282.808	-910
282.867	-236
282.926	-1216
282.985	12
283.043	-1391
283.102	-1197
283.161	-922
283.220	629
283.279	-554
283.338	-769
283.396	-358
283.455	-138
283.514	-1164
283.573	-162
283.631	-338
283.690	-109
283.749	-446
283.808	-112
283.866	-123
283.925	-361
283.984	645
284.043	-157
284.101	-113
284.160	300
284.219	514
284.277	540
284.336	-648
284.395	1183
284.453	501
284.512	1466
284.570	1448
284.629	1611
284.688	2462
284.746	3098
284.805	3500
284.863	5576
284.922	7225
284.981	9567
285.039	12195
285.098	15564
285.156	16581
285.215	18047
285.273	15734
285.332	17130
285.390	17631
285.449	14349
285.507	10834
285.566	7465
285.624	6555
285.683	4655
285.741	3718
285.799	2908
285.858	2140
285.916	1924
285.975	1353
286.033	1366
286.091	996
286.150	982
286.208	-176
286.267	1535
286.325	792
286.383	309
286.442	-189
286.500	116
286.558	-679
286.616	583
286.675	-515
286.733	625
286.791	-355
286.850	728
286.908	-1101
286.966	633
287.024	-558
287.083	15
287.141	-930
287.199	-134
287.257	-788
287.315	-348
287.374	-479
287.432	-209
287.490	-725
287.548	-637
287.606	-1293
287.664	-273
287.723	235
287.781	468
287.839	-417
287.897	-840
287.955	-878
288.013	-166
288.071	-621
288.129	883
288.187	3997
288.245	2152
288.303	-309
288.361	-2
288.419	-1178
288.477	-172
288.535	-318
288.593	-712
288.651	-838
288.709	-1341
288.767	-794
288.825	-480
288.883	-1107
288.941	-862
288.999	-891
289.057	-607
289.115	-1363
289.173	-557
289.231	-745
289.289	-435
289.346	-1478
289.404	-917
289.462	-784
289.520	3
289.578	-1415
289.636	-329
289.694	-1279
289.751	-921
289.809	-795
289.867	-878
289.925	61
289.983	-839
290.040	-697
290.098	-332
290.156	-1449
290.214	-478
290.271	-1286
290.329	182
290.387	-798
290.444	-996
290.502	-1375
290.560	-1072
290.617	-1294
290.675	-530
290.733	-616
290.790	-1099
290.848	-1291
290.906	-1029
290.963	-1391
291.021	-382
291.078	-907
291.136	-23
291.194	-1057
291.251	-1132
291.309	-854
291.366	-825
291.424	-955
291.481	-1091
291.539	-541
291.596	-129
291.654	-929
291.711	-286
291.769	-454
291.826	-106
291.884	19
291.941	-623
291.999	-637
292.056	-783
292.114	-1168
292.171	-805
292.228	-895
292.286	-525
292.343	-1167
292.401	-1058
292.458	-690
292.515	-1329
292.573	-556
292.630	-692
292.687	-392
292.745	-723
292.802	-1711
292.859	-380
292.917	29
292.974	-291
293.031	-12
293.089	-897
293.146	-1036
293.203	-775
293.260	-868
293.318	-676
293.375	-822
293.432	-900
293.489	-631
293.546	-1235
293.604	-389
293.661	-145
293.718	-76
293.775	-50
293.832	-993
293.889	-20
293.947	184
294.004	-1349
294.061	-1606
294.118	-328
294.175	-535
294.232	1048
294.289	-267
294.346	392
294.403	-496
294.460	-495
294.517	-772
294.574	-1240
294.631	-1302
294.688	-798
294.745	-1118
294.802	-467
294.859	-638
294.916	-702
294.973	-1250
295.030	-519
295.087	-647
295.144	-184
295.201	-587
295.258	-690
295.315	-1563
295.372	-248
295.429	-897
295.486	-806
295.542	-686
295.599	-389
295.656	-505
295.713	-802
295.770	-647
295.827	-536
295.883	-1170
295.940	-1198
295.997	-291
296.054	-909
296.111	-1567
296.167	-726
296.224	-830
296.281	-761
296.338	-754
296.394	-344
296.451	-1259
296.508	-523
296.564	-746
296.621	-475
296.678	532
296.734	1005
296.791	-587
296.848	-502
296.904	-834
296.961	-732
297.018	91
297.074	-547
297.131	-855
297.187	-505
297.244	-1528
297.301	-277
297.357	296
297.414	-505
297.470	28
297.527	-702
297.583	-87
297.640	-264
297.696	-1741
297.753	-347
297.809	-1365
297.866	-886
297.922	-996
297.979	-1267
298.035	-963
298.092	-686
298.148	-2116
298.204	113
298.261	-2036
298.317	-75
298.374	-462
298.430	528
298.486	-1108
298.543	-450
298.599	-1418
298.656	-1073
298.712	-1418
298.768	-708
298.824	-1467
298.881	-1652
298.937	-1096
298.993	-618
299.050	-1026
299.106	-427
299.162	-1152
299.218	-192
299.275	-1120
299.331	-370
299.387	-116
299.443	46
299.500	3163
299.556	2545
299.612	360
299.668	382
299.724	1498
299.780	3348
299.837	241
299.893	-77
299.949	1381
300.005	4084
300.061	1745
300.117	4042
300.173	1339
300.229	57
300.285	127
300.341	89
300.397	-999
300.453	-782
300.510	-968
300.566	58
300.622	615
300.678	3400
300.734	6786
300.790	1563
300.845	303
300.901	1719
300.957	2888
301.013	1410
301.069	504
301.125	-9
301.181	-944
301.237	-1033
301.293	-545
301.349	-317
301.405	-982
301.461	-858
301.516	-592
301.572	-1038
301.628	-1653
301.684	-867
301.740	-1242
301.796	-1061
301.851	-1006
301.907	-240
301.963	-537
302.019	-634
302.074	1820
302.130	2305
302.186	266
302.242	-417
302.297	-664
302.353	-1093
302.409	-995
302.464	-873
302.520	-451
302.576	-1293
302.631	52
302.687	-609
302.743	-1786
302.798	-1486
302.854	-1186
302.910	-229
302.965	-1221
303.021	-780
303.076	-624
303.132	-426
303.187	-1729
303.243	-760
303.299	-841
303.354	-1436
303.410	-909
303.465	-1135
303.521	-598
303.576	-593
303.632	-1145
303.687	-191
303.743	-303
303.798	-246
303.853	-1150
303.909	-1148
303.964	-662
304.020	-1476
304.075	-1014
304.130	-1125
304.186	-690
304.241	494
304.297	-638
304.352	-1101
304.358	-1070
304.407	-817
304.449	-642
304.463	-579
304.518	-1628
304.539	-1451
304.573	-1192
304.629	-1367
304.630	-1354
304.684	-826
304.720	-695
304.739	-626
304.794	-228
304.811	-330
304.850	-589
304.902	-327
304.905	-309
304.960	-1188
304.992	-943
305.015	-782
305.071	-610
305.083	-495
305.126	-16
305.173	-1090
305.181	-1277
305.236	-916
305.264	-1001
305.292	-1050
305.347	-156
305.354	-205
305.402	-592
305.445	-869
305.457	-947
305.512	-761
305.535	-407
305.567	68
305.622	-861
305.626	-848
305.678	-491
305.716	-559
305.733	-637
305.788	-112
305.807	-252
305.843	-438
305.897	-383
305.898	-384
305.953	205
305.988	-40
306.008	-165
306.063	-909
306.078	-908
306.118	-868
306.168	-1220
306.173	-1257
306.228	-385
306.259	-329
306.283	-240
306.338	-583
306.349	-566
306.393	-597
306.440	-515
306.448	-496
306.503	-1157
306.530	-701
306.558	-99
306.613	-274
306.620	-249
306.668	-197
306.711	-58
306.723	-59
306.778	-642
306.801	-443
306.833	-206
306.888	-341
306.892	-412
306.943	-997
306.982	-814
306.997	-839
307.052	-1202
307.072	-1000
307.107	-411
307.162	-643
307.163	-644
307.217	-602
307.253	-679
307.272	-733
307.327	-217
307.343	-207
307.381	-300
307.434	-468
307.436	-454
307.491	-380
307.524	4
307.546	85
307.600	-102
307.614	-200
307.655	-235
307.704	-243
307.710	-278
307.765	-404
307.795	-573
307.819	-535
307.874	231
307.885	220
307.929	73
307.975	239
307.984	269
308.038	-94
308.065	170
308.093	883
308.148	2479
308.156	2746
308.202	3998
308.246	6133
308.257	6243
308.312	2529
308.336	1341
308.366	812
308.421	676
308.426	657
308.475	220
308.517	89
308.530	118
308.585	60
308.607	105
308.639	170
308.694	-116
308.697	-85
308.748	485
308.787	332
308.803	177
308.857	-85
308.877	-214
308.912	-43
308.967	502
308.967	507
309.021	1171
309.058	2205
309.076	2704
309.130	3620
309.148	4065
309.185	6835
309.238	10981
309.239	11020
309.293	14714
309.328	14589
309.348	13006
309.402	7177
309.418	5583
309.457	4293
309.508	3588
309.511	3572
309.566	3699
309.598	4386
309.620	5709
309.674	9415
309.688	10606
309.729	10816
309.778	8283
309.783	7999
309.837	4837
309.868	3178
309.892	2642
309.946	2048
309.959	1889
310.001	1443
310.049	1225
310.055	1136
310.109	222
310.139	-136
310.163	-171
310.218	-124
310.229	-139
310.272	106
310.319	317
310.326	288
310.381	82
310.409	-15
310.435	-16
310.489	130
310.499	102
310.543	-34
310.589	47
310.598	111
310.652	476
310.679	688
310.706	767
310.760	673
310.769	661
310.814	498
310.859	412
310.868	440
310.923	535
310.948	506
310.977	254
311.031	-37
311.038	-95
311.085	-454
311.128	-759
311.139	-668
311.193	-173
311.218	23
311.247	278
311.301	817
311.308	881
311.356	644
311.398	333
311.410	343
311.464	447
311.488	451
311.518	152
311.572	-302
311.578	-358
311.626	325
311.668	965
311.680	842
311.734	201
311.758	-73
311.788	-130
311.842	-262
311.847	-273
311.896	33
311.937	306
311.950	288
312.004	199
312.027	158
312.058	376
312.112	770
312.117	809
312.165	666
312.207	543
312.297	-160
312.386	55
312.476	-459
312.566	-88
312.656	946
312.745	-248
312.835	360
312.925	-37
313.015	-326
313.104	343
313.194	939
313.284	274
313.374	-528
313.463	283
313.553	312
313.643	163
313.732	376
313.822	-597
313.912	219
314.001	289
314.091	719
314.180	552
314.270	1244
314.360	-85
314.449	48
314.539	330
314.628	627
314.718	321
314.808	360
314.897	525
314.987	1084
315.076	1527
315.166	40
315.255	808
315.345	435
315.434	298
315.524	852
315.613	291
315.703	1121
315.792	1807
315.881	4726
315.971	999
316.060	1112
316.150	991
316.239	535
316.328	28
316.418	544
316.507	508
316.597	1192
316.686	1075
316.775	-90
316.865	516
316.954	677
317.043	953
317.133	-97
317.222	-114
317.311	390
317.400	-230
317.490	1534
317.579	230
317.668	141
317.757	1485
317.847	3467
317.936	8588
318.025	2705
318.114	2561
318.203	496
318.293	868
318.382	465
318.471	697
318.560	828
318.649	743
318.738	542
318.828	814
318.917	-88
319.006	455
319.095	401
319.184	685
319.273	431
319.362	169
319.451	404
319.540	382
319.629	-101
319.718	969
319.807	171
319.896	-83
319.985	816
320.074	910
320.163	44
320.252	401
320.341	534
320.430	23
320.519	440
320.608	124
320.697	521
320.786	882
320.875	1363
320.964	521
321.053	955
321.142	1425
321.230	1336
321.319	1434
321.408	1515
321.497	1545
321.586	1574
321.675	349
321.764	755
321.852	1420
321.941	1303
322.030	593
322.119	707
322.207	1893
322.296	2230
322.385	2339
322.474	2797
322.562	3038
322.651	2356
322.740	1082
322.829	1581
322.917	1290
323.006	63
323.095	1020
323.183	1091
323.272	517
323.361	592
323.449	917
323.538	-294
323.626	-104
323.715	428
323.804	232
323.892	296
323.981	334
324.069	747
324.158	152
324.246	7
324.335	860
324.424	780
324.512	532
324.601	895
324.689	225
324.778	375
324.866	528
324.954	403
325.043	-33
325.131	-959
325.220	922
325.308	456
325.397	498
325.485	11
325.574	332
325.662	137
325.750	-136
325.839	706
325.927	-524
326.015	407
326.104	-428
326.192	191
326.280	-237
326.369	-492
326.457	833
326.545	255
326.634	221
326.722	491
326.810	487
326.898	514
326.987	494
327.075	287
327.163	585
327.251	-33
327.340	1397
327.428	343
327.516	1506
327.604	515
327.692	1039
327.781	712
327.869	-373
327.957	-93
328.045	-14
328.133	425
328.221	304
328.309	-186
328.397	372
328.485	412
328.574	813
328.662	1166
328.750	240
328.838	139
328.926	461
329.014	566
329.102	297
329.190	-329
329.278	806
329.366	416
329.454	243
329.542	-420
329.630	258
329.718	152
329.806	10
329.893	1366
329.981	-310
330.069	502
330.157	711
330.245	344
330.333	-507
330.421	640
330.509	197
330.597	510
330.684	-274
330.772	998
330.860	71
330.948	330
331.036	444
331.123	248
331.211	534
331.299	-131
331.387	-358
331.475	588
331.562	-626
331.650	459
331.738	512
331.825	678
331.913	8
332.001	-468
332.089	-279
332.176	190
332.264	169
332.352	-33
332.439	-323
332.527	25
332.614	-140
332.702	483
332.790	389
332.877	608
332.965	1620
333.052	133
333.140	900
333.228	2615
333.315	1166
333.403	656
333.490	57
333.578	1003
333.665	4188
333.753	2068
333.840	355
333.928	486
334.015	721
334.103	882
334.190	703
334.278	2198
334.365	2821
334.452	3224
334.540	1661
334.627	308
334.715	1828
334.802	3200
334.889	4533
334.977	8966
335.064	6442
335.151	1889
335.239	937
335.326	252
335.413	1816
335.501	195
335.588	1030
335.675	1007
335.762	1980
335.850	1762
335.937	2943
336.024	5907
336.111	12351
336.199	12625
336.286	4257
336.373	2507
336.460	1253
336.547	1397
336.635	1528
336.722	715
336.809	667
336.896	538
336.983	-106
337.070	1360
337.157	749
337.245	190
337.332	95
337.419	588
337.506	1006
337.593	43
337.680	153
337.767	1042
337.854	642
337.941	903
338.028	185
338.115	12
338.202	1104
338.289	186
338.376	-262
338.463	684
338.550	-161
338.637	-38
338.724	-202
338.811	698
338.898	269
338.984	451
339.071	715
339.158	250
339.245	-51
339.332	111
339.419	292
339.506	-154
339.593	-103
339.679	152
339.766	279
339.853	-52
339.940	323
340.027	444
340.113	-445
340.200	403
340.287	-110
340.374	-96
340.460	247
340.547	-400
340.634	850
340.720	803
340.807	219
340.894	761
340.980	231
341.067	569
341.154	1390
341.240	212
341.327	92
341.414	1037
341.500	174
341.587	270
341.674	321
341.760	1023
341.847	685
341.933	-205
342.020	-445
342.106	206
342.193	684
342.279	87
342.366	-322
342.452	660
342.539	132
342.625	-556
342.712	199
342.798	445
342.885	-208
342.971	-584
343.058	305
343.144	-173
343.230	229
343.317	119
343.403	-134
343.490	-242
343.576	-448
343.662	343
343.749	559
343.835	164
343.921	706
344.008	1521
344.094	2055
344.180	994
344.267	-492
344.353	414
344.439	741
344.525	-36
344.612	445
344.698	-263
344.784	-580
344.870	959
344.957	-232
345.043	911
345.129	-1253
345.215	-50
345.301	-355
345.387	-931
345.474	-425
345.560	-797
345.646	-815
345.732	38
345.818	-435
345.904	100
345.990	-417
346.076	-166
346.162	-463
346.249	569
346.335	75
346.421	0
346.507	-347
346.593	-82
346.679	-544
346.765	662
346.851	211
346.937	-655
347.023	1112
347.108	210
347.194	-280
347.280	390
347.366	389
347.452	1542
347.538	1904
347.624	2899
347.710	822
347.796	297
347.882	379
347.967	109
348.053	-315
348.139	486
348.225	161
348.311	-915
348.397	-562
348.482	205
348.568	-10
348.654	289
348.740	2977
348.825	1427
348.911	1198
348.997	193
349.083	1699
349.168	290
349.254	-375
349.340	-124
349.425	-246
349.511	-472
349.597	-106
349.682	169
349.768	498
349.854	-617
349.939	1052
350.025	-127
350.110	150
350.196	320
350.282	-434
350.367	556
350.453	-213
350.538	-201
350.624	124
350.709	443
350.795	-519
350.880	-468
350.966	992
351.051	198
351.137	294
351.222	173
351.308	-190
351.393	-275
351.479	-890
351.564	-389
351.649	52
351.735	279
351.820	9
351.906	-561
351.991	-103
352.076	-498
352.162	505
352.247	166
352.332	-501
352.418	-297
352.503	-240
352.588	380
352.673	-332
352.759	-540
352.844	161
352.929	-149
353.014	-1170
353.100	467
353.185	-202
353.270	-1305
353.355	471
353.441	101
353.526	-805
353.611	215
353.696	-524
353.781	673
353.866	-800
353.952	203
354.037	-448
354.122	-543
354.207	-423
354.292	610
354.377	-546
354.462	-85
354.547	-25
354.632	-150
354.717	-539
354.802	-739
354.887	-996
354.972	6
355.057	23
355.142	-541
355.227	680
355.312	-227
355.397	-306
355.482	-502
355.567	-1181
355.652	548
355.737	171
355.822	857
355.907	-841
355.991	1713
356.076	-280
356.161	-74
356.246	-635
356.331	-282
356.416	-799
356.501	1720
356.585	-308
356.670	-874
356.755	2254
356.840	9
356.924	378
357.009	1949
357.094	436
357.179	40
357.263	-31
357.348	738
357.433	-272
357.517	-190
357.602	-287
357.687	-562
357.771	531
357.856	-158
357.941	193
358.025	647
358.110	3436
358.195	852
358.279	-363
358.364	-675
358.448	220
358.533	725
358.617	-152
358.702	777
358.787	370
358.871	-411
358.956	-285
359.040	232
359.125	-368
359.209	-358
359.294	-372
359.378	-429
359.462	113
359.547	-224
359.631	-809
359.716	-961
359.800	-127
359.885	14
359.969	-704
360.053	755
360.138	288
360.222	-773
360.306	-60
360.391	756
360.475	-111
360.559	-527
360.644	-381
360.728	-261
360.812	1228
360.896	1128
360.981	19
361.065	-499
361.149	1358
361.233	349
361.318	-835
361.402	-556
361.486	1294
361.570	-392
361.654	93
361.739	-281
361.823	231
361.907	2196
361.991	418
362.075	105
362.159	291
362.243	2874
362.327	7140
362.411	15121
362.495	4375
362.580	1216
362.664	1733
362.748	253
362.832	2002
362.916	4465
363.000	21580
363.084	34584
363.168	10858
363.252	2426
363.336	1857
363.420	1761
363.503	881
363.587	-127
363.671	435
363.755	59
363.839	1905
363.923	-278
364.007	729
364.091	1788
364.175	2505
364.258	8656
364.342	21343
364.426	49872
364.510	24684
364.594	6708
364.677	2978
364.761	1036
364.845	1953
364.929	208
365.013	505
365.096	-294
365.180	-355
365.264	1063
365.347	2033
365.431	654
365.515	42
365.598	-96
365.682	732
365.766	-941
365.849	-78
365.933	-5
366.017	1565
366.100	-205
366.184	-149
366.267	1025
366.351	434
366.435	-155
366.518	-464
366.602	-156
366.685	581
366.769	296
366.852	331
366.936	-45
367.019	517
367.103	-1738
367.186	1273
367.270	-461
367.353	-363
367.436	231
367.520	632
367.603	415
367.687	-506
367.770	-389
367.853	1546
367.937	1447
368.020	638
368.104	-326
368.187	935
368.270	264
368.353	273
368.437	-560
368.520	58
368.603	28
368.687	-673
368.770	220
368.853	-351
368.936	1105
369.020	-38
369.103	890
369.186	-133
369.269	96
369.352	579
369.436	-248
369.519	-295
369.602	-1057
369.685	2271
369.768	-979
369.851	411
369.934	-14
370.018	174
370.101	-836
370.184	2225
370.267	1277
370.350	-88
370.433	271
370.516	1173
370.599	3532
370.682	-645
370.765	1494
370.848	1078
370.931	53
371.014	1952
371.097	-702
371.180	2237
371.263	317
371.346	-119
371.429	592
371.511	537
371.594	-94
371.677	974
371.760	1721
371.843	1055
371.926	4259
372.009	4883
372.091	5373
372.174	1392
372.257	2224
372.340	1412
372.423	2186
372.505	3012
372.588	795
372.671	1904
372.754	434
372.836	1482
372.919	846
373.002	1740
373.085	-419
373.167	1669
373.250	639
373.332	1220
373.415	3487
373.498	3508
373.580	2684
373.663	6113
373.746	5127
373.828	846
373.911	1970
373.993	-403
374.076	111
374.159	389
374.241	548
374.324	620
374.406	1507
374.489	1416
374.571	3094
374.654	747
374.736	862
374.819	1662
374.901	4535
374.983	2425
375.066	1529
375.148	397
375.231	924
375.313	1585
375.395	458
375.478	804
375.560	1441
375.643	334
375.725	1063
375.807	1456
375.890	2091
375.972	-755
376.054	767
376.136	509
376.219	600
376.301	880
376.383	1078
376.465	0
376.548	-306
376.630	830
376.712	1782
376.794	307
376.877	13
376.959	-640
377.041	361
377.123	554
377.205	175
377.287	-598
377.369	746
377.452	-58
377.534	109
377.616	425
377.698	-207
377.780	-38
377.862	339
377.944	816
378.026	-1547
378.108	689
378.190	-185
378.272	1554
378.354	212
378.436	402
378.518	-1224
378.600	-291
378.682	601
378.764	-260
378.846	1110
378.928	-235
379.010	-919
379.091	-41
379.173	978
379.255	-89
379.337	-357
379.419	-499
379.501	785
379.583	-233
379.664	-510
379.746	-433
379.828	1257
379.910	-564
379.991	1011
380.073	-699
380.155	73
380.237	455
380.318	-60
380.400	-39
380.482	853
380.564	546
380.645	53
380.727	298
380.809	903
380.890	-545
380.972	-913
381.053	252
381.135	718
381.217	41
381.298	810
381.380	502
381.461	223
381.543	914
381.624	1306
381.706	708
381.787	60
381.869	908
381.951	993
382.032	1622
382.113	3859
382.195	52
382.276	2578
382.358	654
382.439	792
382.521	2373
382.602	4541
382.684	3060
382.765	5025
382.846	14285
382.928	37037
383.009	18884
383.090	14648
383.172	46116
383.253	60958
383.334	18110
383.416	5852
383.497	5243
383.578	5342
383.659	11706
383.741	38215
383.822	82950
383.903	40715
383.984	9459
384.066	6340
384.147	2325
384.228	2084
384.309	1935
384.390	1101
384.471	1116
384.553	1474
384.634	1216
384.715	1803
384.796	493
384.877	-367
384.958	1695
385.039	112
385.120	-338
385.201	2074
385.282	-385
385.363	1528
385.444	766
385.525	848
385.606	2016
385.687	1471
385.768	994
385.849	480
385.930	3428
386.011	3417
386.092	37
386.173	620
386.254	250
386.335	1449
386.416	101
386.496	821
386.577	1503
386.658	579
386.739	-594
386.820	875
386.901	-51
386.981	813
387.062	747
387.143	470
387.224	2060
387.304	2219
387.385	2852
387.466	-95
387.547	2220
387.627	1212
387.708	2329
387.789	3051
387.869	1715
387.950	1936
388.031	633
388.111	-1284
388.192	1591
388.273	1051
388.353	226
388.434	-368
388.514	533
388.595	1508
388.676	842
388.756	987
388.837	734
388.917	33
388.998	-691
389.078	1442
389.159	400
389.239	-1845
389.320	1697
389.400	-1444
389.480	650
389.561	231
389.641	59
389.722	1265
389.802	-174
389.883	727
389.963	1327
390.043	-202
390.124	-738
390.204	567
390.284	536
390.365	-1258
390.445	520
390.525	-106
390.605	358
390.686	-807
390.766	484
390.846	986
390.927	-589
391.007	-592
391.087	965
391.167	-740
391.247	-1631
391.328	594
391.408	1129
391.488	1417
391.568	-1189
391.648	-408
391.728	1688
391.808	1264
391.888	219
391.969	494
392.049	-152
392.129	110
392.209	419
392.289	1870
392.369	782
392.449	57
392.529	462
392.609	2934
392.689	1960
392.769	1722
392.849	3065
392.929	5489
393.009	5201
393.089	6703
393.169	16527
393.248	45254
393.328	118911
393.408	115591
393.488	42881
393.568	15065
393.648	7987
393.728	4490
393.807	2200
393.887	3659
393.967	2505
394.047	1240
394.127	124
394.206	1398
394.286	2358
394.366	12864
394.446	13701
394.525	1412
394.605	231
394.685	953
394.764	1483
394.844	2036
394.924	2906
395.003	1197
395.083	-8
395.163	508
395.242	-117
395.322	258
395.402	-1992
395.481	1743
395.561	301
395.640	5162
395.720	11445
395.799	4334
395.879	493
395.958	567
396.038	3418
396.117	17130
396.197	17585
396.276	4130
396.356	1187
396.435	2132
396.515	2783
396.594	3699
396.673	13673
396.753	45542
396.832	107212
396.912	71984
396.991	18250
397.070	8074
397.150	3042
397.229	5474
397.308	9807
397.388	16844
397.467	6714
397.546	2077
397.625	-1201
397.705	2332
397.784	632
397.863	139
397.942	154
398.022	704
398.101	-769
398.180	345
398.259	171
398.338	1092
398.417	-75
398.497	-1395
398.576	1155
398.655	-681
398.734	1100
398.813	-438
398.892	-286
398.971	924
399.050	-953
399.129	-2
399.208	672
399.287	528
399.366	-175
399.445	-166
399.524	517
399.603	-1492
399.682	-374
399.761	-444
399.840	50
399.919	21
399.998	-97
400.077	-961
400.156	-1374
400.235	1792
400.313	-775
400.392	-886
400.471	353
400.550	-187
400.629	-1047
400.708	-242
400.786	-945
400.865	192
400.944	-1780
401.023	1479
401.102	-359
401.180	-102
401.259	23
401.338	-465
401.416	-782
401.495	-1041
401.574	-186
401.652	-819
401.731	647
401.810	-1429
401.888	-545
401.967	-657
402.046	-328
402.124	-78
402.203	-2195
402.281	282
402.360	-673
402.438	-633
402.517	-1724
402.596	-729
402.674	-516
402.753	-540
402.831	-77
402.910	506
402.988	-1520
403.066	-854
403.145	714
403.223	150
403.302	143
403.380	463
403.459	408
403.537	-335
403.615	-176
403.694	-978
403.772	535
403.850	461
403.929	-508
404.007	-1158
404.085	723
404.164	-494
404.242	-212
404.320	486
404.398	627
404.477	332
404.555	1230
404.633	522
404.711	1528
404.789	57
404.868	-1586
404.946	-354
405.024	-197
405.102	-357
405.180	-1118
405.258	-2558
405.336	115
405.415	-822
405.493	468
405.571	159
405.649	-1060
405.727	-1729
405.805	144
405.883	96
405.961	462
406.039	-879
406.117	-2009
406.195	-456
406.273	-1284
406.351	-213
406.429	692
406.507	-1827
406.585	-2068
406.663	-1284
406.740	-884
406.818	-1621
406.896	-432
406.974	261
407.052	-2038
407.130	178
407.208	-344
407.285	-294
407.363	-1188
407.441	-781
407.519	-1377
407.596	256
407.674	-881
407.752	261
407.830	-373
407.907	-672
407.985	-1571
408.063	-780
408.141	-484
408.218	799
408.296	-1641
408.373	-1208
408.451	-835
408.529	-675
408.606	-1044
408.684	-873
408.762	-253
408.839	-820
408.917	-545
408.994	290
409.072	-980
409.149	199
409.227	1353
409.304	1996
409.382	2304
409.459	2506
409.537	4991
409.614	3315
409.692	1798
409.769	1351
409.846	4712
409.924	5944
410.001	1385
410.079	1082
410.156	2286
410.233	780
410.311	-782
410.388	-646
410.465	-422
410.543	-1164
410.620	800
410.697	-105
410.775	270
410.852	-1670
410.929	1013
411.006	1408
411.083	-973
411.161	235
411.238	-523
411.315	-1003
411.392	-1054
411.469	-250
411.547	-357
411.624	-1644
411.701	-1022
411.778	-950
411.855	-492
411.932	-1033
412.009	-396
412.086	-358
412.163	-434
412.240	-754
412.317	-154
412.394	-1179
412.471	-170
412.548	-590
412.625	-1138
412.702	-788
412.779	-205
412.856	-1194
412.933	-645
413.010	-872
413.087	-531
413.164	-1381
413.241	-774
413.318	-1680
413.395	306
413.471	-1199
413.548	-322
413.625	-731
413.702	-1960
413.779	-270
413.855	-807
413.932	-946
414.009	-2194
414.086	-901
414.162	-1282
414.239	-752
414.316	-877
414.393	108
414.469	-1903
414.546	-470
414.623	-973
414.699	-419
414.776	-1277
414.853	-1028
414.929	-544
415.006	-1529
415.082	-317
415.159	-1373
415.236	-406
415.312	-823
415.389	-915
415.465	-1734
415.542	-840
415.618	-1522
415.695	-1086
415.771	-2008
415.848	-854
415.924	-1338
416.000	-1142
416.077	-850
416.153	-1871
416.230	-1253
416.306	-749
416.383	-1368
416.459	-567
416.535	-825
416.612	-1043
416.688	-1276
416.764	-1017
416.841	-1543
416.917	-1129
416.993	-466
417.069	-442
417.146	-1642
417.222	-1631
417.298	-1217
417.374	-1356
417.451	-764
417.527	-1708
417.603	-1720
417.679	-1042
417.755	-950
417.831	-1161
417.908	-1119
417.984	-975
418.060	-2119
418.136	-736
418.212	-1348
418.288	-837
418.364	-589
418.440	-1162
418.516	-824
418.592	-1481
418.668	-1299
418.744	-1159
418.820	-1263
418.896	-741
418.972	-2131
419.048	-1598
419.124	-513
419.200	-1927
419.276	-74
419.352	-1532
419.428	-1368
419.504	-897
419.579	-1513
419.655	-1681
419.731	-660
419.807	-611
419.883	-1549
419.959	-1200
420.034	-1085
420.110	-1006
420.186	-551
420.262	-924
420.337	-723
420.413	-843
420.489	-392
420.565	834
420.640	-598
420.716	19
420.792	-830
420.867	-112
420.943	-1084
421.019	-241
421.094	-149
421.170	541
421.245	219
421.321	1051
421.397	657
421.472	900
421.548	1372
421.623	2216
421.699	2534
421.774	2203
421.850	2327
421.925	3459
422.001	3559
422.076	5648
422.152	6742
422.227	10407
422.302	15811
422.378	22611
422.453	36952
422.529	62346
422.604	80381
422.679	73627
422.755	78423
422.830	63313
422.905	39262
422.981	24392
423.056	16428
423.131	13153
423.207	8877
423.282	5973
423.357	5754
423.432	3957
423.508	3729
423.583	2127
423.658	2082
423.733	1899
423.808	2097
423.883	1972
423.959	1157
424.034	1633
424.109	1589
424.184	-73
424.259	646
424.334	723
424.409	-365
424.484	52
424.559	43
424.634	-231
424.709	-1027
424.784	415
424.859	-703
424.934	-1241
425.009	-57
425.084	-66
425.159	-458
425.234	-3
425.309	-705
425.384	-428
425.459	-1348
425.534	-686
425.609	-1318
425.683	-716
425.758	-935
425.833	-34
425.908	-1093
425.983	-1066
426.058	-648
426.132	-8
426.207	-1342
426.282	1238
426.357	-849
426.431	-928
426.506	-482
426.581	-904
426.655	-888
426.730	-789
426.805	-2091
426.879	-788
426.954	-1249
427.029	-376
427.103	-615
427.178	-683
427.253	-760
427.327	-1490
427.402	-1349
427.476	-1038
427.551	-941
427.625	-711
427.700	-1152
427.774	-1247
427.849	-758
427.923	-1344
427.998	-491
428.072	-1164
428.147	584
428.221	7947
428.296	25038
428.370	11533
428.444	449
428.519	-1056
428.593	-980
428.667	-557
428.742	-397
428.816	1556
428.890	13744
428.965	21695
429.039	3560
429.113	-168
429.188	-1117
429.262	-670
429.336	-410
429.410	-490
429.485	-137
429.559	-746
429.633	-1072
429.707	-1214
429.781	1152
429.855	12588
429.930	18598
430.004	3513
430.078	1042
430.152	7908
430.226	31709
430.300	30376
430.374	5065
430.448	416
430.522	-483
430.596	-100
430.670	4286
430.744	17926
430.818	18262
430.892	1676
430.966	-284
431.040	-419
431.114	-1171
431.188	-1808
431.262	-1684
431.336	-1909
431.410	-1438
431.484	-1568
431.557	-262
431.631	-1479
431.705	-30
431.779	5340
431.853	24530
431.927	14674
432.000	419
432.074	-93
432.148	-1337
432.222	-1695
432.295	-766
432.369	-875
432.443	-1226
432.516	-1084
432.590	-436
432.664	-1115
432.737	-1465
432.811	-1606
432.885	-1745
432.958	-800
433.032	-1362
433.106	-1410
433.179	-1187
433.253	-1137
433.326	-1530
433.400	-1288
433.473	-1333
433.547	-952
433.620	-1825
433.694	-1741
433.767	-861
433.841	-1568
433.914	-1235
433.988	-1118
434.061	-1833
434.134	-1156
434.208	-1517
434.281	-1565
434.355	-1511
434.428	-454
434.501	-1678
434.575	-1835
434.648	-1050
434.721	-1171
434.795	-1695
434.868	-1997
434.941	-1532
435.014	-2603
435.088	-594
435.161	-1022
435.234	-939
435.307	-1074
435.381	-475
435.454	261
435.527	1978
435.600	1825
435.673	767
435.746	-99
435.819	97
435.892	-90
435.966	-643
436.039	-1487
436.112	-573
436.185	-1010
436.258	-1400
436.331	-1099
436.404	-1346
436.477	-717
436.550	-1221
436.623	-704
436.696	-1401
436.769	-1716
436.842	-824
436.915	-1260
436.987	-1953
437.060	-1356
437.133	-1728
437.206	-2140
437.279	-322
437.352	-1819
437.425	-826
437.498	-873
437.570	-602
437.643	-1958
437.716	-1573
437.789	-1125
437.861	-2049
437.934	-1178
438.007	-1340
438.080	-1917
438.152	-1034
438.225	-1292
438.298	-848
438.370	317
438.443	-240
438.516	-1221
438.588	-1173
438.661	-1246
438.734	-2018
438.806	-1177
438.879	-1952
438.951	-1251
439.024	-876
439.096	-1183
439.169	-1039
439.241	-1912
439.314	-1658
439.386	-1819
439.459	-1195
439.531	-1107
439.604	-1393
439.676	-956
439.749	-1546
439.821	-1688
439.893	-1003
439.966	-1305
440.038	-1072
440.110	-551
440.183	-1388
440.255	-2264
440.327	-1291
440.400	-930
440.472	-382
440.544	-1203
440.617	-889
440.689	-321
440.761	-1182
440.833	-710
440.905	-1483
440.978	-2160
441.050	-1147
441.122	-1191
441.194	-1918
441.266	-163
441.338	-1821
441.411	-1105
441.483	-1193
441.555	-967
441.627	-1376
441.699	-1824
441.771	-1363
441.843	-842
441.915	-1936
441.987	-976
442.059	-970
442.131	-1384
442.203	-1071
442.275	-309
442.347	327
442.419	2361
442.491	18964
442.563	40394
442.635	15221
442.706	1750
442.778	-118
442.850	-318
442.922	-1222
442.994	-829
443.066	-854
443.137	74
443.209	-125
443.281	1437
443.353	4826
443.425	21078
443.496	62502
443.568	63529
443.640	24748
443.711	4238
443.783	731
443.855	-363
443.926	-953
443.998	-596
444.070	-441
444.141	-329
444.213	-332
444.285	-804
444.356	-934
444.428	-1525
444.499	-1490
444.571	-925
444.642	-152
444.714	-1082
444.785	-796
444.857	-551
444.928	-926
445.000	-69
445.071	227
445.143	177
445.214	616
445.285	2312
445.357	10330
445.428	40719
445.500	76541
445.571	57637
445.642	38194
445.714	11460
445.785	2986
445.856	143
445.928	-117
445.999	-799
446.070	-880
446.141	-803
446.213	-517
446.284	-814
446.355	-861
446.426	-515
446.497	-712
446.569	-1549
446.640	-1242
446.711	-797
446.782	-1185
446.853	-1071
446.924	-881
446.995	-1305
447.066	-1069
447.138	-981
447.209	-773
447.280	-1675
447.351	-843
447.422	-1685
447.493	-1417
447.564	-1249
447.635	-1909
447.706	-2108
447.777	-2042
447.847	-1792
447.918	-2176
447.989	-790
448.060	-712
448.131	-1076
448.202	-2451
448.273	-1973
448.344	-1056
448.414	-1383
448.485	-914
448.556	-1330
448.627	-1748
448.698	-404
448.768	-1692
448.839	-2022
448.910	-1748
448.981	-1474
449.051	-1752
449.122	-2094
449.193	-998
449.263	-1939
449.334	-1839
449.405	-875
449.475	-1622
449.546	-1234
449.616	-732
449.687	-928
449.758	-1251
449.828	-2129
449.899	-2156
449.969	-1858
450.040	-2167
450.110	-1250
450.181	-1331
450.251	-1856
450.322	-1094
450.392	-740
450.463	-1588
450.533	-938
450.604	-1470
450.674	-2230
450.744	-1566
450.815	-1913
450.885	-497
450.955	-1337
451.026	-1395
451.096	-1479
451.166	-1653
451.237	-614
451.307	-909
451.377	-355
451.447	-2330
451.518	-1609
451.588	-1672
451.658	-1132
451.728	-1195
451.799	-2295
451.869	-1350
451.939	-2023
452.009	-1698
452.079	-2200
452.149	-1356
452.219	-1628
452.289	-1550
452.360	-1445
452.430	-1271
452.500	-1459
452.570	-482
452.640	1562
452.710	5806
452.780	5443
452.850	2564
452.920	-504
452.990	-378
453.060	-822
453.129	-1609
453.199	-1574
453.269	-920
453.339	-1116
453.409	-1324
453.479	-1680
453.549	-1227
453.619	-1718
453.688	-1597
453.758	-1094
453.828	-1862
453.898	-1483
453.968	-1363
454.037	-1777
454.087	-1946
454.107	-2032
454.168	-1677
454.177	-1645
454.247	-1498
454.249	-1495
454.316	-1865
454.330	-1941
454.386	-2281
454.411	-2057
454.456	-1777
454.492	-1688
454.525	-1602
454.574	-1197
454.595	-1034
454.655	-907
454.665	-907
454.734	-818
454.736	-820
454.804	-1712
454.817	-1550
454.873	-967
454.898	-1088
454.943	-1369
454.979	-1282
455.013	-1178
455.060	-810
455.082	-694
455.141	-776
455.152	-801
455.221	-524
455.222	-511
455.291	-1016
455.303	-1025
455.360	-1002
455.384	-983
455.430	-1105
455.465	-830
455.499	-608
455.546	-842
455.569	-998
455.627	-1069
455.638	-1064
455.707	-658
455.708	-640
455.777	-946
455.789	-920
455.846	-833
455.869	-848
455.916	-859
455.950	-620
455.985	-493
456.031	-794
456.054	-929
456.112	-887
456.124	-867
456.193	-362
456.193	-380
456.262	-684
456.274	-706
456.332	-771
456.355	-610
456.401	-263
456.436	75
456.470	256
456.516	-566
456.540	-935
456.597	-689
456.609	-670
456.678	-352
456.678	-367
456.747	-658
456.759	-660
456.817	-422
456.840	-162
456.886	25
456.920	22
456.955	182
457.001	350
457.024	294
457.082	339
457.093	350
457.162	243
457.163	262
457.232	263
457.243	312
457.301	464
457.324	313
457.370	66
457.405	523
457.439	1111
457.485	961
457.508	746
457.566	1355
457.577	1568
457.646	2719
457.647	2748
457.715	7638
457.727	8816
457.784	16919
457.808	21796
457.853	25024
457.889	27356
457.922	25031
457.969	16256
457.991	18079
458.050	24975
458.060	26323
458.129	44516
458.130	45092
458.198	35326
458.211	30829
458.267	15863
458.292	10191
458.336	7656
458.372	7919
458.405	13086
458.453	20730
458.474	26594
458.533	48252
458.543	49277
458.611	64675
458.614	65001
458.680	32088
458.694	23390
458.749	10739
458.775	7414
458.818	4738
458.855	3786
458.887	3250
458.936	2278
458.955	2070
459.016	2206
459.024	2176
459.093	2300
459.097	2302
459.162	2070
459.177	1935
459.230	1896
459.257	2006
459.299	1828
459.338	1546
459.368	1410
459.418	1785
459.437	1876
459.499	1283
459.505	1267
459.574	1608
459.579	1678
459.643	1775
459.659	1459
459.711	850
459.740	1293
459.780	1712
459.820	1648
459.849	1712
459.900	1769
459.917	1718
459.981	1437
459.986	1414
460.054	1639
460.061	1656
460.123	1672
460.141	1786
460.191	2346
460.222	2304
460.260	1978
460.302	2068
460.328	2205
460.382	2222
460.397	2233
460.462	2217
460.465	2231
460.534	3088
460.543	3144
460.602	6243
460.623	7626
460.671	11527
460.703	14450
460.739	12181
460.783	8486
460.808	6889
460.864	2358
460.876	2132
460.944	1994
460.945	1991
461.013	1960
461.024	1999
461.081	1938
461.104	1943
461.150	2537
461.184	2859
461.218	2509
461.264	2051
461.286	2046
461.345	2255
461.355	2233
461.423	1690
461.425	1681
461.491	1995
461.505	2137
461.559	2113
461.585	1913
461.628	1933
461.665	2254
461.696	2419
461.745	2637
461.764	2713
461.825	2333
461.832	2313
461.901	2570
461.905	2603
461.969	2274
461.985	2137
462.037	2932
462.065	3393
462.105	2825
462.145	2247
462.173	2453
462.225	2862
462.241	2803
462.305	2456
462.310	2482
462.378	2886
462.385	2911
462.446	2887
462.465	3043
462.514	3105
462.545	2930
462.582	2596
462.625	2275
462.650	2317
462.705	2145
462.718	2159
462.785	2798
462.786	2799
462.854	2286
462.865	2223
462.922	2448
462.945	2661
462.990	3077
463.025	3174
463.058	3079
463.104	2850
463.126	2712
463.184	2616
463.194	2668
463.262	2828
463.264	2838
463.330	2870
463.344	2803
463.398	3234
463.424	3484
463.466	2385
463.504	1580
463.533	2380
463.583	3385
463.601	3161
463.663	2396
463.669	2412
463.737	2639
463.743	2644
463.805	2809
463.823	2929
463.873	3385
463.903	3616
463.940	3166
463.982	2498
464.008	2767
464.062	3531
464.076	3466
464.142	3102
464.144	3109
464.211	2992
464.221	3001
464.279	2839
464.301	2635
464.347	2493
464.381	2546
464.414	2670
464.461	2892
464.482	3114
464.540	3429
464.550	3359
464.617	3053
464.620	3028
464.685	3328
464.699	3427
464.753	3106
464.779	2879
464.820	3242
464.859	3695
464.888	3231
464.938	2232
464.956	2633
465.018	4080
465.023	4059
465.091	3768
465.098	3730
465.158	3855
465.177	3882
465.226	4037
465.257	4097
465.293	3882
465.336	3607
465.361	3585
465.416	3551
465.428	3530
465.495	3305
465.496	3314
465.563	3401
465.575	3420
465.631	3816
465.654	4012
465.698	3662
465.734	3268
465.765	3359
465.813	3460
465.833	3539
465.893	3764
465.900	3739
465.968	3494
465.972	3464
466.035	3464
466.052	3457
466.102	3528
466.131	3596
466.170	3344
466.210	2972
466.237	3392
466.290	4220
466.304	4145
466.369	3782
466.372	3788
466.439	3702
466.449	3673
466.506	4087
466.528	4229
466.573	4399
466.607	4497
466.641	4653
466.687	4914
466.708	4910
466.766	4800
466.775	4730
466.842	4109
466.845	4070
466.909	4785
466.925	4940
466.977	4377
467.004	4070
467.044	4536
467.083	4971
467.111	4874
467.163	4652
467.178	4716
467.242	4928
467.245	4938
467.312	4913
467.321	4898
467.379	4638
467.400	4530
467.446	5023
467.480	5363
467.559	4624
467.638	4550
467.717	3716
467.796	5909
467.875	4990
467.955	4765
468.034	5121
468.113	6384
468.192	8915
468.271	8480
468.350	11714
468.429	17345
468.508	18416
468.588	10843
468.667	6890
468.746	5869
468.825	5129
468.904	5121
468.983	4842
469.062	5281
469.141	5099
469.220	3800
469.299	5334
469.378	3632
469.456	5554
469.535	4725
469.614	5013
469.693	4063
469.772	5351
469.851	5386
469.930	5153
470.009	5165
470.088	6349
470.166	7132
470.245	10195
470.324	11681
470.403	7920
470.482	5967
470.560	4887
470.639	4853
470.718	4808
470.797	4496
470.875	5059
470.954	4504
471.033	4526
471.111	4719
471.190	5347
471.269	4437
471.347	4898
471.426	3959
471.505	5465
471.583	4521
471.662	5735
471.740	5112
471.819	4126
471.898	4589
471.976	5551
472.055	4000
472.133	4547
472.212	4298
472.290	5075
472.369	4677
472.447	4718
472.526	4111
472.604	5869
472.683	4174
472.761	4243
472.839	4788
472.918	5254
472.996	5289
473.075	5430
473.153	5154
473.231	4687
473.310	4721
473.388	4789
473.466	5125
473.545	5300
473.623	4752
473.701	4668
473.780	5066
473.858	3089
473.936	6497
474.014	4762
474.093	5218
474.171	4725
474.249	5986
474.327	4913
474.405	4358
474.484	4845
474.562	4893
474.640	4913
474.718	4008
474.796	4665
474.874	4916
474.952	4817
475.030	4063
475.108	4894
475.187	4974
475.265	4728
475.343	4917
475.421	5346
475.499	4100
475.577	5314
475.655	4715
475.733	4999
475.811	5123
475.889	4961
475.966	4158
476.044	4482
476.122	4301
476.200	5076
476.278	3778
476.356	4350
476.434	4127
476.512	5185
476.590	5535
476.667	5600
476.745	3960
476.823	5049
476.901	5047
476.979	4544
477.056	5393
477.134	4449
477.212	4806
477.290	4384
477.367	4779
477.445	4296
477.523	4413
477.601	4319
477.678	4801
477.756	4548
477.834	3946
477.911	4293
477.989	4970
478.066	5086
478.144	4475
478.222	3910
478.299	3665
478.377	5608
478.454	4605
478.532	4373
478.609	3551
478.687	4743
478.764	4390
478.842	5353
478.919	4066
478.997	4310
479.074	4462
479.152	4741
479.229	4529
479.307	3855
479.384	4219
479.461	4750
479.539	4229
479.616	4105
479.694	4618
479.771	4863
479.848	3978
479.926	2997
480.003	5241
480.080	5022
480.157	3525
480.235	4431
480.312	4197
480.389	4827
480.467	4221
480.544	3461
480.621	4487
480.698	4563
480.775	4619
480.853	5080
480.930	4425
481.007	4070
481.084	4576
481.161	5598
481.238	4254
481.315	4467
481.392	3640
481.470	5727
481.547	4329
481.624	4926
481.701	3250
481.778	4031
481.855	4406
481.932	4927
482.009	5369
482.086	5049
482.163	5704
482.240	6869
482.317	7064
482.393	5467
482.470	4894
482.547	5392
482.624	4912
482.701	5448
482.778	4858
482.855	5112
482.932	3204
483.009	3978
483.085	4862
483.162	5920
483.239	6658
483.316	6327
483.393	6275
483.469	5503
483.546	3902
483.623	5166
483.699	4058
483.776	3512
483.853	4325
483.930	3907
484.006	5243
484.083	6636
484.160	4411
484.236	6463
484.313	5071
484.389	5005
484.466	6672
484.543	6087
484.619	9420
484.696	11131
484.772	7750
484.849	6833
484.925	5622
485.002	4732
485.078	4777
485.155	3620
485.231	4631
485.308	4450
485.384	3891
485.461	4473
485.537	3587
485.614	6406
485.690	3875
485.766	4262
485.843	3834
485.919	4283
485.995	3739
486.072	4135
486.148	4447
486.224	4875
486.301	3757
486.377	4716
486.453	2677
486.530	4666
486.606	5951
486.682	5019
486.758	5086
486.835	5071
486.911	4233
486.987	6362
487.063	6437
487.139	6017
487.215	6745
487.292	8604
487.368	8836
487.444	10994
487.520	14626
487.596	21007
487.672	54453
487.748	173596
487.824	243518
487.900	62785
487.976	18694
488.052	10652
488.128	8510
488.204	6070
488.280	7317
488.356	6417
488.432	5972
488.508	7017
488.584	4248
488.660	4823
488.736	5612
488.812	3835
488.888	5045
488.964	4422
489.039	4875
489.115	5528
489.191	5016
489.267	4464
489.343	4055
489.418	4525
489.494	3901
489.570	3123
489.646	5288
489.722	3585
489.797	4723
489.873	5443
489.949	5073
490.024	5046
490.100	4034
490.176	4677
490.251	3963
490.327	5642
490.403	3771
490.478	4678
490.554	4064
490.629	4309
490.705	4514
490.781	5090
490.856	3686
490.932	4426
491.007	4307
491.083	4526
491.158	4099
491.234	4989
491.309	5035
491.385	4549
491.460	3886
491.536	5290
491.611	3544
491.686	4844
491.762	4187
491.837	4395
491.913	5189
491.988	4759
492.063	4380
492.139	4766
492.214	4222
492.289	5097
492.365	3776
492.440	4799
492.515	3509
492.590	4471
492.666	4789
492.741	4347
492.816	4297
492.891	4253
492.967	5223
493.042	4815
493.117	3627
493.192	4848
493.267	4523
493.342	5339
493.418	6757
493.493	4570
493.568	5183
493.643	4815
493.718	4911
493.793	4340
493.868	3813
493.943	4834
494.018	4640
494.093	4386
494.168	4490
494.243	3998
494.318	4410
494.393	5507
494.468	5076
494.543	5229
494.618	5130
494.693	4953
494.768	4956
494.842	5156
494.917	5274
494.992	5431
495.067	5163
495.142	5064
495.217	5424
495.292	4871
495.366	5013
495.441	4418
495.516	5216
495.591	5486
495.665	6098
495.740	7130
495.815	4980
495.890	4971
495.964	4154
496.039	7746
496.114	5384
496.188	7010
496.263	6403
496.338	4764
496.412	3871
496.487	5907
496.561	5363
496.636	5718
496.710	4977
496.785	5473
496.860	5199
496.934	4823
497.009	5555
497.083	5199
497.158	6721
497.232	5716
497.307	6602
497.381	8327
497.455	7564
497.530	5816
497.604	4416
497.679	4455
497.753	4681
497.827	4965
497.902	4461
497.976	6361
498.050	6663
498.125	12533
498.199	10239
498.273	6246
498.348	6434
498.422	7127
498.496	8353
498.570	9449
498.645	5510
498.719	3359
498.793	4738
498.867	4586
498.941	5833
499.016	6713
499.090	8984
499.164	6451
499.238	6285
499.312	5784
499.386	5893
499.460	7470
499.534	8786
499.609	10733
499.683	5964
499.757	4895
499.831	3250
499.905	7256
499.979	6119
500.053	4639
500.127	4209
500.201	4040
500.275	5559
500.349	5887
500.422	5995
500.496	7637
500.570	8960
500.644	12418
500.718	12628
500.792	5139
500.866	3522
500.940	3429
501.013	3500
501.087	3410
501.161	3306
501.235	1737
501.309	5798
501.382	5172
501.456	6141
501.530	2813
501.603	2922
501.677	3546
501.751	1611
501.825	4336
501.898	3662
501.972	3405
502.046	2371
502.119	2119
502.193	3631
502.266	3158
502.340	3325
502.413	3854
502.487	3834
502.561	2246
502.634	3471
502.708	3229
502.781	2039
502.855	3926
502.928	2204
503.002	3579
503.075	1836
503.149	3244
503.222	2778
503.295	1996
503.369	3550
503.442	3085
503.516	3830
503.589	5813
503.662	5859
503.736	6468
503.809	8460
503.882	9312
503.956	15414
504.029	31302
504.102	96294
504.175	130902
504.249	38497
504.322	13452
504.395	7893
504.468	6536
504.542	3665
504.615	3189
504.688	4020
504.761	1751
504.834	4033
504.907	3247
504.980	3194
505.053	2692
505.127	346
505.200	5428
505.273	2344
505.346	2341
505.419	1133
505.492	3214
505.565	2502
505.638	3427
505.711	2072
505.784	2335
505.857	1367
505.930	4497
506.003	489
506.076	4004
506.149	2197
506.221	391
506.294	2934
506.367	1093
506.440	2618
506.513	3296
506.586	2529
506.659	1608
506.731	2523
506.804	2165
506.877	1186
506.950	2690
507.022	3305
507.095	1523
507.168	2263
507.241	3143
507.313	1114
507.386	1134
507.459	3266
507.531	1954
507.604	92
507.677	2814
507.749	838
507.822	4025
507.894	1994
507.967	3141
508.040	1663
508.112	3353
508.185	1928
508.257	1331
508.330	3711
508.402	955
508.475	1822
508.547	2968
508.620	2496
508.692	2164
508.765	1579
508.837	1071
508.909	1941
508.982	1888
509.054	2549
509.127	2315
509.199	632
509.271	1733
509.344	1450
509.416	2416
509.488	1172
509.560	4000
509.633	2312
509.705	1486
509.777	1811
509.849	3479
509.922	1426
509.994	1828
510.066	2821
510.138	214
510.210	4567
510.283	2527
510.355	2055
510.427	2894
510.499	2249
510.571	2872
510.643	1380
510.715	4535
510.787	374
510.859	4203
510.931	1135
511.003	2055
511.076	3447
511.148	1489
511.219	972
511.291	2669
511.363	2881
511.435	2538
511.507	496
511.579	2710
511.651	3848
511.723	2129
511.795	2193
511.867	1565
511.939	2961
512.010	1314
512.082	2310
512.154	1010
512.226	1476
512.298	3137
512.369	2132
512.441	3358
512.513	3444
512.585	438
512.656	2926
512.728	1335
512.800	1673
512.871	3879
512.943	3174
513.015	605
513.086	2431
513.158	2124
513.230	1462
513.301	1414
513.373	2625
513.444	2590
513.516	1502
513.588	2676
513.659	2113
513.731	2326
513.802	476
513.874	3372
513.945	2282
514.016	643
514.088	1963
514.159	849
514.231	3152
514.302	1942
514.374	3143
514.445	742
514.516	4265
514.588	2469
514.659	2366
514.730	1345
514.802	3523
514.873	138
514.944	4679
515.016	2903
515.087	1868
515.158	1842
515.229	3157
515.301	785
515.372	2842
515.443	1648
515.514	2366
515.585	1274
515.656	3385
515.728	3188
515.799	1325
515.870	3354
515.941	3050
516.012	2591
516.083	4533
516.154	3365
516.225	4674
516.296	6973
516.367	5142
516.438	6289
516.509	7200
516.580	14811
516.651	53002
516.722	162092
516.793	44714
516.864	11142
516.935	11100
517.006	14646
517.077	18151
517.148	44707
517.219	209823
517.289	247919
517.360	30267
517.431	10804
517.502	6446
517.573	6531
517.643	6035
517.714	5708
517.785	6883
517.856	7171
517.926	10517
517.997	12280
518.068	13527
518.138	21600
518.209	34979
518.280	137369
518.350	409269
518.421	120329
518.492	24426
518.562	16781
518.633	18191
518.703	24980
518.774	61343
518.845	165917
518.915	131846
518.986	30872
519.056	13945
519.127	9173
519.197	6501
519.268	5959
519.338	5660
519.408	3955
519.479	3339
519.549	2198
519.620	4008
519.690	2814
519.760	2565
519.831	3039
519.901	2249
519.971	3063
520.042	1917
520.112	1749
520.182	3092
520.253	2801
520.323	1696
520.393	1337
520.463	4020
520.534	-1056
520.604	4700
520.674	3116
520.744	2887
520.814	1631
520.885	2737
520.955	2251
521.025	3298
521.095	2263
521.165	3425
521.235	1746
521.305	1307
521.375	2820
521.445	2635
521.515	1853
521.585	2768
521.655	167
521.725	2903
521.795	3063
521.865	-777
521.935	4456
522.005	1183
522.075	2185
522.145	3099
522.215	1079
522.285	1899
522.355	2128
522.424	3649
522.494	2075
522.564	2437
522.634	1961
522.704	4300
522.774	1113
522.843	2336
522.913	2148
522.983	1903
523.053	795
523.122	2762
523.192	1329
523.262	1928
523.331	1740
523.401	2340
523.471	2750
523.540	2102
523.610	2283
523.680	2715
523.749	2373
523.819	3694
523.888	1874
523.958	2522
524.027	2881
524.097	2533
524.166	2845
524.236	459
524.305	4129
524.375	1567
524.444	1735
524.514	5160
524.583	1320
524.653	1828
524.722	2901
524.791	1075
524.861	4535
524.930	1481
524.999	2109
525.069	2972
525.138	2970
525.207	2017
525.277	3628
525.346	3839
525.415	4520
525.484	4047
525.554	5620
525.623	6301
525.692	7740
525.761	8670
525.830	12195
525.900	16414
525.969	26627
526.038	48953
526.107	108606
526.176	290691
526.245	187488
526.314	58531
526.383	150494
526.452	172170
526.522	276647
526.591	201829
526.660	31862
526.729	20730
526.797	24917
526.867	36037
526.935	111888
527.004	396953
527.073	192634
527.142	25983
527.211	11776
527.280	9608
527.349	6645
527.418	4976
527.487	6454
527.555	3152
527.624	3781
527.693	2212
527.762	4962
527.831	1937
527.899	4700
527.968	3182
528.037	1381
528.106	3685
528.174	3421
528.243	3583
528.312	3139
528.380	2715
528.449	2083
528.518	4352
528.586	2270
528.655	3365
528.723	3320
528.792	2514
528.861	2409
528.929	1466
528.998	3969
529.066	1927
529.135	2664
529.203	2066
529.272	2329
529.340	3136
529.409	4817
529.477	2236
529.545	1919
529.614	5355
529.682	1866
529.751	2606
529.819	5907
529.887	3560
529.956	2649
530.024	4495
530.092	3186
530.161	4562
530.229	3425
530.297	3298
530.365	4855
530.434	3918
530.502	3378
530.570	3678
530.638	3383
530.707	4007
530.775	5169
530.843	3410
530.911	3604
530.979	3549
531.047	3390
531.115	4366
531.183	3527
531.252	3819
531.320	3549
531.388	3258
531.456	5016
531.524	2704
531.592	4901
531.660	4925
531.728	3159
531.796	3376
531.864	4670
531.932	3463
532.000	3777
532.067	3959
532.135	4562
532.203	5535
532.271	5430
532.339	5957
532.407	5324
532.475	6350
532.542	5667
532.610	4808
532.678	4145
532.746	7431
532.814	6504
532.881	5971
532.949	5858
533.017	5757
533.084	6620
533.152	4923
533.220	5218
533.287	3651
533.355	5432
533.423	5396
533.490	5686
533.558	5139
533.625	5658
533.693	5496
533.761	6270
533.828	6101
533.896	5262
533.963	6058
534.031	7181
534.098	7658
534.166	9672
534.233	8760
534.300	11725
534.368	9208
534.435	9600
534.503	10501
534.570	11420
534.637	11809
534.705	13484
534.772	15439
534.840	30138
534.907	133596
534.974	125390
535.041	17465
535.109	10853
535.176	9420
535.243	9940
535.310	8939
535.378	8513
535.445	10076
535.512	10175
535.579	9102
535.646	8863
535.714	8189
535.781	9918
535.848	9962
535.915	10869
535.982	8644
536.049	9065
536.116	10809
536.183	9588
536.250	8203
536.317	8856
536.384	10784
536.451	10248
536.518	10937
536.585	8118
536.652	11286
536.719	10848
536.786	8510
536.853	9186
536.920	10910
536.987	10073
537.053	9513
537.120	12118
537.187	11124
537.254	10877
537.321	10679
537.388	12075
537.454	9530
537.521	10716
537.588	10768
537.654	11481
537.721	11620
537.788	12234
537.855	10920
537.921	9818
537.988	9941
538.055	10809
538.121	8600
538.188	9244
538.254	8720
538.321	9371
538.388	10586
538.454	12378
538.521	12651
538.587	10859
538.654	10667
538.720	11407
538.787	11965
538.853	11918
538.920	10855
538.986	9172
539.053	9187
539.119	9972
539.185	9496
539.252	11437
539.318	11059
539.385	13029
539.451	10143
539.517	12018
539.583	11482
539.650	11304
539.716	11493
539.782	10720
539.849	9656
539.915	11233
539.981	9860
540.047	9936
540.114	10601
540.180	11881
540.246	11358
540.312	12374
540.378	11506
540.444	12416
540.510	12809
540.576	12528
540.643	11022
540.709	10077
540.775	10515
540.841	10178
540.907	10158
540.973	12304
541.039	10085
541.105	11946
541.171	11487
541.237	12409
541.303	12518
541.369	13777
541.435	11736
541.500	10571
541.566	9094
541.632	9938
541.698	11478
541.764	11860
541.830	10797
541.896	10787
541.961	11637
542.027	10379
542.093	12138
542.159	12749
542.224	10327
542.290	12637
542.356	10177
542.421	10934
542.487	10825
542.553	9227
542.618	10713
542.684	10195
542.750	10062
542.815	12297
542.881	10671
542.947	12152
543.012	12849
543.078	10633
543.143	9289
543.209	10691
543.274	9465
543.340	11118
543.405	11025
543.471	10141
543.536	11561
543.602	11395
543.667	9858
543.732	12284
543.798	10652
543.863	11854
543.928	11780
543.994	11237
544.059	12385
544.124	12241
544.190	11277
544.255	13021
544.320	12578
544.386	12199
544.451	12268
544.516	12495
544.581	12619
544.646	13049
544.712	14054
544.777	13508
544.842	13380
544.907	13053
544.972	13105
545.037	14267
545.102	14039
545.168	14462
545.233	14815
545.298	14765
545.363	13892
545.428	15034
545.493	15899
545.558	15578
545.623	14802
545.688	15011
545.753	16709
545.818	16601
545.883	17781
545.947	18964
546.012	20206
546.077	19310
546.142	21679
546.207	21980
546.272	23145
546.337	23086
546.401	24237
546.466	24894
546.531	24646
546.596	28204
546.661	28950
546.725	32425
546.790	32778
546.855	37546
546.919	38692
546.984	44413
547.049	47160
547.113	54877
547.178	60999
547.243	68888
547.307	79804
547.372	88124
547.436	86187
547.501	94366
547.565	99431
547.630	90245
547.695	87141
547.759	87956
547.823	89601
547.888	90284
547.952	92832
548.017	96360
548.081	98320
548.146	98124
548.210	101096
548.274	111099
548.339	106535
548.403	96912
548.468	89912
548.532	90524
548.596	92514
548.660	93447
548.725	103199
548.789	110388
548.853	106207
548.917	102839
548.982	98167
549.046	88969
549.110	81577
549.174	85998
549.238	100020
549.303	107560
549.367	109190
549.431	103366
549.495	98446
549.559	99117
549.623	116108
549.687	123830
549.751	121917
549.815	147125
549.879	146069
549.943	143778
550.007	148190
550.071	145500
550.135	131039
550.199	127453
550.263	123804
550.327	117155
550.391	120721
550.455	133739
550.519	139322
550.582	149280
550.646	166879
550.710	167804
550.774	164904
550.838	167217
550.901	170114
550.965	179882
551.029	183056
551.093	192261
551.156	201858
551.220	207498
551.284	216423
551.347	186544
551.411	171031
551.475	171538
551.538	178517
551.602	169328
551.666	161792
551.729	154423
551.793	151508
551.856	147758
551.920	146379
551.983	145744
552.047	145024
552.110	147961
552.174	146320
552.237	150263
552.301	141218
552.364	136229
552.428	132519
552.491	134696
552.554	137954
552.618	137231
552.681	140236
552.745	134787
552.808	144781
552.871	149450
552.934	144129
552.998	137566
553.061	135984
553.124	131741
553.187	131088
553.251	135127
553.314	133982
553.377	136227
553.440	144294
553.503	145739
553.567	146012
553.630	148408
553.693	147641
553.756	148444
553.819	146290
553.882	142493
553.945	142647
554.008	142585
554.071	144130
554.134	145274
554.197	138424
554.260	137721
554.323	140674
554.386	140730
554.449	144230
554.512	142675
554.575	138016
554.638	135656
554.701	134843
554.764	135500
554.827	131071
554.889	125608
554.952	119837
555.015	117635
555.078	118722
555.141	117819
555.203	117204
555.266	118147
555.329	116351
555.391	112148
555.454	110307
555.517	104950
555.580	102185
555.642	97734
555.705	97246
555.768	96089
555.830	92733
555.893	89154
555.955	84734
556.018	85015
556.080	85110
556.143	87757
556.206	85805
556.268	83540
556.330	81483
556.393	79689
556.455	77606
556.518	74547
556.580	72581
556.643	68814
556.705	67988
556.767	67333
556.830	65956
556.892	65576
556.955	63663
557.017	62502
557.079	62338
557.142	59129
557.204	57779
557.266	55971
557.328	52969
557.391	51541
557.453	49912
557.515	49294
557.577	49968
557.639	49297
557.701	48452
557.764	47723
557.826	48098
557.888	48115
557.950	48244
558.012	50973
558.074	60165
558.136	107165
558.198	187414
558.260	70011
558.322	45684
558.384	47127
558.446	47956
558.508	48721
558.570	52517
558.632	56050
558.694	68556
558.756	106103
558.818	260851
558.880	441590
558.942	177077
559.003	198176
559.065	87968
559.127	49242
559.189	49047
559.251	52670
559.312	70425
559.374	149566
559.436	354630
559.498	151980
559.559	50201
559.621	47245
559.683	53657
559.744	79742
559.806	215205
559.868	243916
559.929	60820
559.991	49513
560.052	79435
560.114	181459
560.176	101119
560.237	117269
560.299	148052
560.360	36188
560.422	23270
560.483	22366
560.545	21137
560.606	20957
560.667	20769
560.729	19924
560.790	18316
560.852	17952
560.913	17575
560.974	17420
561.036	17259
561.097	17504
561.158	17176
561.220	16618
561.281	16772
561.342	16027
561.403	16367
561.465	14650
561.526	16426
561.587	16231
561.648	14785
561.709	15280
561.771	15129
561.832	13465
561.893	13557
561.954	13576
562.015	13117
562.076	14230
562.137	12879
562.198	12634
562.259	13221
562.320	12849
562.381	13127
562.442	13900
562.503	12040
562.564	13276
562.625	12744
562.686	12856
562.747	11493
562.808	11313
562.869	11271
562.930	12147
562.991	10971
563.051	11331
563.112	11260
563.173	10931
563.234	10059
563.294	11208
563.355	11382
563.416	11698
563.477	10733
563.537	10820
563.598	10501
563.659	10775
563.720	9827
563.780	10324
563.841	10525
563.901	10114
563.962	10826
564.023	10573
564.083	11273
564.144	10278
564.204	9377
564.265	10697
564.325	10072
564.386	10857
564.446	10155
564.507	10035
564.567	9480
564.628	9171
564.688	9951
564.749	8712
564.809	10225
564.869	9831
564.930	8729
564.990	9537
565.050	9465
565.111	10346
565.171	8490
565.231	9342
565.292	10286
565.352	9909
565.412	9127
565.472	9053
565.532	9832
565.593	8641
565.653	8746
565.713	9415
565.773	9766
565.833	9540
565.893	10509
565.953	9079
566.013	8692
566.074	9093
566.134	8610
566.194	8771
566.254	8327
566.314	8495
566.374	7922
566.434	8940
566.494	8987
566.554	8996
566.614	8614
566.673	8842
566.733	9793
566.793	9060
566.853	9907
566.913	8761
566.973	8579
567.033	9600
567.092	8677
567.152	9101
567.212	9412
567.272	8986
567.331	8902
567.391	10077
567.451	9943
567.511	10588
567.570	9658
567.630	9436
567.690	9449
567.749	8704
567.809	8848
567.868	9769
567.928	8816
567.988	9030
568.047	8595
568.107	9743
568.166	10307
568.226	9989
568.285	9507
568.345	10072
568.404	9772
568.464	9791
568.523	9582
568.582	9416
568.642	9215
568.701	9098
568.761	8669
568.820	9709
568.879	9287
568.939	9686
568.998	8945
569.057	9395
569.116	8956
569.176	9129
569.235	9238
569.294	9609
569.353	8822
569.413	9502
569.472	7831
569.531	8135
569.590	8468
569.649	8062
569.708	7933
569.767	8875
569.827	9108
569.886	8787
569.945	7920
570.004	7983
570.063	8887
570.122	9061
570.181	9135
570.240	9062
570.299	9594
570.358	9241
570.417	9154
570.475	9289
570.534	9417
570.593	9510
570.652	9611
570.711	9935
570.770	9556
570.829	9726
570.887	9112
570.946	9016
571.005	10048
571.064	9028
571.122	9718
571.181	9173
571.240	8151
571.299	8788
571.357	8716
571.416	8002
571.475	8534
571.533	8182
571.592	9753
571.650	9873
571.709	9478
571.768	11014
571.826	9082
571.885	10045
571.943	8518
572.002	9167
572.060	8854
572.119	8558
572.177	9463
572.236	8841
572.294	9294
572.352	10267
572.411	9324
572.469	10124
572.528	8863
572.586	8531
572.644	8869
572.703	9344
572.761	8036
572.819	7997
572.877	8451
572.936	7454
572.994	6986
573.052	8072
573.110	8355
573.169	8766
573.227	8246
573.285	8584
573.343	7431
573.401	8599
573.459	8266
573.517	7524
573.576	7886
573.634	8121
573.692	7535
573.750	7767
573.808	7590
573.866	7794
573.924	7495
573.982	7444
574.040	7091
574.098	7367
574.155	7093
574.213	7219
574.271	7291
574.329	7730
574.387	6061
574.445	7995
574.503	6882
574.560	6004
574.618	6315
574.676	7368
574.734	7038
574.792	7352
574.849	6847
574.907	6486
574.965	5017
575.022	5952
575.080	5659
575.138	7384
575.195	5980
575.253	5267
575.311	5193
575.368	6397
575.426	5385
575.483	6235
575.541	6120
575.598	6556
575.656	5154
575.713	6177
575.771	6350
575.828	5900
575.886	5320
575.943	5809
576.001	4756
576.058	5046
576.115	5105
576.173	5147
576.230	4927
576.287	4918
576.345	5295
576.402	5904
576.459	5584
576.517	5465
576.574	5783
576.631	5858
576.688	5044
576.746	5611
576.803	4419
576.860	4978
576.917	5155
576.974	5326
577.031	5848
577.089	5685
577.146	4599
577.203	5840
577.260	4306
577.317	3835
577.374	4822
577.431	4966
577.488	4619
577.545	3936
577.602	4916
577.659	5214
577.716	4504
577.773	4973
577.830	5407
577.886	5163
577.943	4401
578.000	4673
578.057	4667
578.114	4783
578.171	5514
578.227	5224
578.284	4316
578.341	5639
578.398	4467
578.454	4737
578.511	5177
578.568	5363
578.625	4724
578.681	5209
578.738	4616
578.794	4663
578.851	4850
578.908	4682
578.964	3786
579.021	5190
579.077	5349
579.134	5384
579.190	5026
579.247	5229
579.303	4252
579.360	4419
579.416	4655
579.473	5184
579.529	4829
579.586	5294
579.642	5281
579.698	5050
579.755	4702
579.811	5737
579.867	5191
579.924	5549
579.980	4707
580.036	5400
580.093	5615
580.149	5737
580.205	5945
580.261	5331
580.317	4807
580.374	5735
580.430	5150
580.486	6171
580.542	4796
580.598	6038
580.619	5556
580.654	4723
580.692	5018
580.710	5177
580.765	5466
580.767	5479
580.823	5842
580.838	5694
580.879	5351
580.911	5358
580.935	5356
580.984	4634
580.991	4549
581.047	5792
581.057	5753
581.103	5551
581.130	5897
581.159	6294
581.203	5226
581.215	4937
581.270	4770
581.276	4842
581.326	5628
581.349	5591
581.382	5533
581.422	5132
581.438	4967
581.494	5456
581.494	5446
581.550	4776
581.567	5055
581.606	5640
581.640	4938
581.661	4514
581.713	5740
581.717	5846
581.773	5452
581.786	5424
581.829	5275
581.859	5186
581.885	5161
581.932	5153
581.940	5152
581.996	5158
582.004	5237
582.052	5624
582.077	5335
582.107	5002
582.150	5310
582.163	5434
582.219	4843
582.223	4884
582.274	5322
582.296	4694
582.330	3744
582.368	4877
582.386	5400
582.441	4648
582.441	4647
582.497	4525
582.514	4685
582.552	5138
582.587	5492
582.608	5644
582.659	4621
582.663	4545
582.719	5923
582.732	5504
582.774	4203
582.805	4412
582.830	4655
582.877	5897
582.885	6067
582.941	5549
582.950	5457
582.996	4934
583.023	4932
583.052	5208
583.095	5266
583.107	5191
583.162	5609
583.168	5546
583.218	5021
583.240	4879
583.273	4565
583.313	4646
583.328	4821
583.384	4948
583.385	4930
583.439	4027
583.458	4101
583.494	4234
583.531	4261
583.549	4425
583.603	4657
583.605	4655
583.660	4933
583.676	4980
583.715	5059
583.748	5263
583.770	5459
583.820	5655
583.825	5664
583.881	5454
583.893	5222
583.936	4521
583.965	4861
583.991	4976
584.038	4938
584.046	5014
584.101	5137
584.110	5159
584.156	4836
584.183	4633
584.211	4613
584.255	4681
584.266	4686
584.321	5585
584.328	5572
584.376	5330
584.400	5313
584.431	5446
584.472	5503
584.486	5353
584.541	5277
584.545	5258
584.596	5421
584.617	5522
584.651	5999
584.689	6754
584.706	6710
584.761	6243
584.762	6238
584.816	6148
584.834	6218
584.871	6234
584.906	6369
584.926	6584
584.978	7095
584.980	7095
585.035	7270
585.051	7735
585.090	9434
585.123	9913
585.145	9878
585.195	9564
585.200	9633
585.254	11945
585.267	12392
585.309	13278
585.340	14267
585.364	15203
585.412	17275
585.419	17604
585.473	22084
585.484	23196
585.528	29728
585.556	37304
585.583	49662
585.628	79979
585.637	89769
585.692	182087
585.700	194813
585.747	233468
585.772	189577
585.801	112923
585.845	41453
585.856	32147
585.910	17716
585.917	16375
585.965	12900
585.989	11917
586.019	11025
586.061	10235
586.074	10006
586.128	10095
586.133	9981
586.183	9397
586.205	9525
586.237	9552
586.277	9284
586.292	9215
586.346	9307
586.349	9336
586.401	9457
586.421	9276
586.455	9115
586.493	9382
586.509	9528
586.564	9408
586.565	9429
586.618	10375
586.637	10784
586.672	12210
586.709	13430
586.727	13430
586.781	13478
586.781	13471
586.835	11135
586.853	10787
586.889	10111
586.925	9788
586.944	9756
586.996	9711
586.998	9706
587.052	9530
587.068	9524
587.106	9548
587.140	9790
587.161	10080
587.212	9897
587.215	9843
587.269	9965
587.284	9845
587.323	10271
587.356	10634
587.377	10669
587.427	11399
587.431	11447
587.485	11312
587.499	11414
587.539	11581
587.571	11648
587.593	11880
587.643	13065
587.648	13139
587.702	12936
587.715	13016
587.755	12688
587.786	12189
587.810	12291
587.858	13312
587.864	13365
587.917	13084
587.930	13098
587.971	13245
588.001	13458
588.025	13403
588.073	13107
588.079	13114
588.133	13452
588.145	13478
588.187	13552
588.217	13684
588.241	13856
588.288	14298
588.295	14241
588.348	13868
588.360	13770
588.402	14423
588.431	14954
588.456	15059
588.503	15545
588.510	15692
588.564	16686
588.575	16952
588.617	17605
588.646	18152
588.671	18538
588.718	19549
588.725	19884
588.778	23427
588.789	24461
588.832	34307
588.861	43165
588.886	60964
588.932	102044
588.939	105892
588.993	131352
589.004	128634
589.047	66742
589.075	34936
589.100	27048
589.147	18808
589.154	18528
589.207	17231
589.218	17035
589.261	17604
589.290	18212
589.314	18465
589.361	19484
589.368	20111
589.421	26149
589.433	27912
589.475	45417
589.504	60138
589.528	78189
589.576	116752
589.582	113476
589.635	55397
589.647	44773
589.689	26278
589.718	17080
589.742	16678
589.790	15888
589.795	15734
589.849	14496
589.861	14306
589.902	13746
589.932	13287
589.955	13452
590.004	13714
590.009	13691
590.062	13687
590.075	13682
590.115	13797
590.146	13921
590.168	13965
590.218	14308
590.222	14298
590.275	13960
590.289	13933
590.328	14549
590.360	14954
590.381	14807
590.431	14744
590.435	14730
590.488	14497
590.503	14446
590.541	14431
590.574	14432
590.594	14806
590.645	16148
590.647	16145
590.700	15987
590.716	16053
590.753	16464
590.787	16753
590.806	17046
590.859	18154
590.859	18134
590.912	17366
590.930	17287
590.965	17789
591.001	18175
591.018	18195
591.071	18260
591.072	18269
591.124	17431
591.143	17094
591.177	16967
591.214	17123
591.230	17430
591.283	18254
591.285	18295
591.336	17883
591.356	17786
591.389	18006
591.427	18338
591.442	18233
591.495	17703
591.498	17688
591.547	17824
591.569	17897
591.600	18221
591.640	18664
591.653	18644
591.706	18562
591.711	18583
591.759	18856
591.782	18994
591.811	19633
591.853	20582
591.864	20430
591.917	19788
591.924	19691
591.969	19686
591.995	19775
592.022	19891
592.066	20120
592.075	20214
592.127	20965
592.137	21109
592.180	21097
592.208	21138
592.233	21245
592.279	21505
592.285	21579
592.338	22431
592.350	22651
592.390	22683
592.421	22733
592.443	22809
592.491	23070
592.495	23140
592.548	24428
592.562	24806
592.600	24063
592.633	23458
592.653	23399
592.704	23195
592.705	23327
592.775	23385
592.846	25179
592.916	24830
592.987	25266
593.058	24844
593.128	26116
593.199	25966
593.270	25661
593.341	27124
593.411	27915
593.482	28224
593.553	30250
593.623	29184
593.694	30582
593.764	30951
593.835	30940
593.906	31043
593.976	31632
594.047	31815
594.117	35085
594.188	35390
594.258	35786
594.329	34539
594.399	37432
594.470	37677
594.540	39626
594.611	39596
594.681	39401
594.751	38695
594.822	40674
594.892	42435
594.963	43004
595.033	44814
595.103	45205
595.174	45900
595.244	47301
595.314	48378
595.384	49763
595.455	51964
595.525	53070
595.595	54356
595.665	54815
595.736	52565
595.806	56482
595.876	55403
595.946	55027
596.016	58466
596.087	60934
596.157	60577
596.227	61571
596.297	64178
596.367	68303
596.437	72449
596.507	71036
596.577	70915
596.647	74559
596.717	78767
596.787	79330
596.857	78876
596.927	80134
596.997	80244
597.067	82439
597.137	81426
597.207	82192
597.277	81228
597.347	80455
597.417	76815
597.487	77941
597.557	79825
597.626	80756
597.696	81209
597.766	81332
597.836	75653
597.906	72081
597.975	71627
598.045	72633
598.115	75613
598.185	82893
598.254	92046
598.324	100010
598.394	100598
598.464	97058
598.533	95177
598.603	88748
598.672	86985
598.742	88375
598.812	88404
598.881	92424
598.951	90146
599.020	93194
599.090	96883
599.159	98090
599.229	91449
599.299	90612
599.368	93886
599.437	92305
599.507	85274
599.576	83429
599.646	80727
599.715	79587
599.785	77896
599.854	77794
599.924	75354
599.993	75025
600.062	76336
600.132	79057
600.201	83720
600.270	98719
600.340	102751
600.409	100008
600.478	98400
600.547	101703
600.617	90892
600.686	72591
600.755	65866
600.824	62000
600.894	60619
600.963	62903
601.032	60893
601.101	58704
601.170	54761
601.239	53488
601.308	53180
601.378	53246
601.447	53186
601.516	54796
601.585	56687
601.654	56890
601.723	56354
601.792	56452
601.861	59529
601.930	61829
601.999	61556
602.068	61947
602.137	62945
602.206	64502
602.275	64272
602.343	65015
602.412	65659
602.481	65880
602.550	66290
602.619	69116
602.688	69907
602.756	70274
602.825	69971
602.894	72936
602.963	72885
603.032	75055
603.100	75752
603.169	75817
603.238	75121
603.307	76544
603.375	77892
603.444	79648
603.513	78595
603.581	80471
603.650	81347
603.719	80595
603.787	83190
603.856	85851
603.924	87262
603.993	92139
604.061	92924
604.130	99320
604.198	100284
604.267	102651
604.335	102350
604.404	105674
604.472	105714
604.541	108121
604.609	108293
604.678	108869
604.746	108811
604.815	113985
604.883	113746
604.951	115178
605.020	117242
605.088	119936
605.156	121408
605.225	122767
605.293	124016
605.361	123331
605.429	125230
605.498	129532
605.566	130862
605.634	138633
605.702	141772
605.771	146174
605.839	147127
605.907	145035
605.975	137128
606.043	137680
606.111	136374
606.180	137178
606.248	133849
606.316	135143
606.384	133318
606.452	135414
606.520	137274
606.588	144377
606.656	144441
606.724	140502
606.792	133841
606.860	120960
606.928	110326
606.996	106711
607.064	104596
607.132	108254
607.200	114831
607.267	118701
607.335	119909
607.403	123014
607.471	117879
607.539	117164
607.607	115658
607.674	101043
607.742	100426
607.810	100098
607.878	100811
607.946	103968
608.013	108200
608.081	111638
608.149	110924
608.216	115463
608.284	119589
608.352	119812
608.419	117197
608.487	116157
608.555	112817
608.622	118629
608.690	124725
608.757	135930
608.825	139368
608.893	133782
608.960	127435
609.028	122940
609.095	122723
609.163	121627
609.230	107513
609.298	101003
609.365	106847
609.432	114965
609.500	124935
609.567	143824
609.635	161457
609.702	169702
609.769	159572
609.837	123135
609.904	106817
609.971	109195
610.039	117450
610.106	136327
610.173	211107
610.241	382944
610.308	225538
610.375	125552
610.442	114982
610.509	112535
610.577	112784
610.644	114641
610.711	117198
610.778	121425
610.845	125501
610.912	133567
610.980	138709
611.047	139802
611.114	135497
611.181	132112
611.248	131423
611.315	140379
611.382	142010
611.449	149090
611.516	149558
611.583	148607
611.650	148509
611.717	151073
611.784	151796
611.851	155712
611.918	160341
611.984	175882
612.051	212869
612.118	326756
612.185	578908
612.252	387406
612.319	200463
612.386	184968
612.452	172619
612.519	166670
612.586	165417
612.653	170572
612.719	176156
612.786	167873
612.853	157809
612.919	155490
612.986	157038
613.053	147984
613.120	140024
613.186	135696
613.253	139154
613.319	137030
613.386	137181
613.453	141333
613.519	140758
613.586	136072
613.652	139621
613.719	137586
613.785	140906
613.852	142169
613.918	139836
613.985	144206
614.051	147270
614.118	145908
614.184	139503
614.250	141921
614.317	144232
614.383	141141
614.449	145250
614.516	143396
614.582	144819
614.648	142605
614.715	140103
614.781	137079
614.847	137468
614.914	135556
614.980	133279
615.046	136378
615.112	138501
615.179	138977
615.245	140653
615.311	138659
615.377	140633
615.443	142819
615.509	143280
615.575	146669
615.642	144696
615.708	147922
615.774	150707
615.840	158479
615.906	160628
615.972	177671
616.038	224005
616.104	369370
616.170	630894
616.236	506813
616.302	242804
616.368	211252
616.434	168615
616.500	162635
616.565	175012
616.631	203967
616.697	174150
616.763	180079
616.829	238929
616.895	364121
616.961	322424
617.026	177119
617.092	148642
617.158	146791
617.224	144207
617.289	134694
617.355	128671
617.421	127825
617.487	128693
617.552	123939
617.618	120834
617.684	121927
617.749	124925
617.815	119991
617.880	116079
617.946	117566
618.012	118013
618.077	121087
618.143	116102
618.208	119858
618.274	125867
618.339	125726
618.405	104602
618.470	106779
618.536	106556
618.601	105370
618.667	96279
618.732	93851
618.798	93133
618.863	92065
618.928	90794
618.994	92139
619.059	92838
619.124	93017
619.190	90547
619.255	90816
619.320	91075
619.386	92798
619.451	89951
619.516	88069
619.581	89669
619.647	93944
619.712	93229
619.777	89601
619.842	89749
619.907	90701
619.972	92933
620.038	92655
620.103	91121
620.168	89706
620.233	92334
620.298	91139
620.363	94484
620.428	96483
620.493	97860
620.558	98776
620.623	100117
620.688	99399
620.753	98431
620.818	100852
620.883	101040
620.948	100727
621.013	99520
621.078	98138
621.143	98567
621.207	102823
621.272	95996
621.337	96201
621.402	95149
621.467	93381
621.532	94857
621.596	94504
621.661	92740
621.726	90899
621.791	92247
621.855	92656
621.920	92316
621.985	92187
622.049	96999
622.114	94418
622.179	96006
622.243	97908
622.308	100540
622.373	105139
622.437	102511
622.502	95875
622.566	95967
622.631	94618
622.695	98475
622.760	98117
622.824	96683
622.889	97360
622.953	97319
623.018	103086
623.082	103738
623.147	101421
623.211	99748
623.276	99533
623.340	95928
623.404	95231
623.469	94164
623.533	95513
623.597	92452
623.662	93180
623.726	85897
623.790	82740
623.854	79084
623.919	81132
623.983	82803
624.047	84128
624.111	84983
624.176	86007
624.240	85380
624.304	90620
624.368	85541
624.432	85552
624.496	87963
624.560	91953
624.625	90209
624.689	91386
624.753	94664
624.817	91458
624.881	88528
624.945	81520
625.009	78774
625.073	81093
625.137	82471
625.201	86839
625.265	85623
625.329	82632
625.393	83832
625.456	84735
625.520	85484
625.584	86635
625.648	88873
625.712	91152
625.776	88953
625.839	85035
625.903	72818
625.967	68249
626.031	74988
626.095	85672
626.158	78154
626.222	62252
626.286	60075
626.349	57205
626.413	52403
626.477	53030
626.540	54490
626.604	52692
626.668	53981
626.731	52454
626.795	50880
626.858	51737
626.922	49811
626.986	51996
627.049	49075
627.113	53215
627.176	49561
627.240	49573
627.303	49819
627.366	46613
627.430	49910
627.493	49217
627.557	46074
627.620	49845
627.684	49316
627.747	50330
627.810	43882
627.874	41996
627.937	40042
628.000	43052
628.064	39430
628.127	35421
628.190	36007
628.253	34877
628.317	32954
628.380	30937
628.443	30787
628.506	30097
628.569	29242
628.632	27137
628.696	29155
628.759	28171
628.822	26088
628.885	26095
628.948	24876
629.011	26054
629.074	24598
629.137	23841
629.200	22856
629.263	24207
629.326	22095
629.389	22207
629.452	21811
629.515	21792
629.578	20880
629.641	22798
629.704	21220
629.767	21529
629.830	21285
629.892	20274
629.955	19456
630.018	22633
630.081	18721
630.144	20340
630.207	17862
630.269	21625
630.332	18242
630.395	19351
630.458	19026
630.520	17994
630.583	18215
630.646	18934
630.708	17591
630.771	17998
630.834	19765
630.896	18924
630.959	20628
631.021	17088
631.084	17377
631.146	19056
631.209	19172
631.272	18757
631.334	19046
631.397	18717
631.459	17740
631.522	20275
631.584	19206
631.646	21655
631.709	20315
631.771	19754
631.834	20072
631.896	19163
631.958	17607
632.021	19121
632.083	17612
632.145	17374
632.208	16976
632.270	18162
632.332	16839
632.395	17342
632.457	17668
632.519	17405
632.581	18667
632.643	16157
632.706	16927
632.768	16030
632.830	17706
632.892	17496
632.954	17154
633.016	18766
633.078	17005
633.141	17229
633.203	16102
633.265	17363
633.327	16918
633.389	17632
633.451	18424
633.513	16198
633.575	17388
633.637	17005
633.698	16252
633.760	19279
633.822	19551
633.884	18781
633.946	19918
634.008	19190
634.070	19323
634.132	20504
634.193	20312
634.255	23646
634.317	22147
634.379	24037
634.441	20258
634.502	18470
634.564	18543
634.626	16601
634.687	16562
634.749	16481
634.811	16510
634.873	15699
634.934	15525
634.996	17200
635.057	15505
635.119	15576
635.181	16695
635.242	18106
635.304	15134
635.365	19132
635.427	15429
635.488	16317
635.550	14951
635.611	16908
635.673	13820
635.734	17860
635.796	16701
635.857	20012
635.918	18933
635.980	22416
636.041	20763
636.102	22603
636.164	22790
636.225	23630
636.286	17829
636.348	18797
636.409	16703
636.470	16238
636.531	16122
636.593	15562
636.654	16703
636.715	15216
636.776	14708
636.838	14456
636.899	14402
636.960	14848
637.021	14398
637.082	13458
637.143	14504
637.204	12991
637.265	13440
637.326	14532
637.387	14340
637.448	13261
637.509	13995
637.570	14184
637.631	14853
637.692	13104
637.753	11994
637.814	13680
637.875	12882
637.936	13932
637.997	13094
638.058	12825
638.119	13489
638.179	13634
638.240	12679
638.301	14119
638.362	11345
638.423	12537
638.483	14129
638.544	11058
638.605	12947
638.666	11563
638.726	12452
638.787	13956
638.848	12220
638.908	12277
638.969	12507
639.030	11320
639.090	11369
639.151	11734
639.211	12789
639.272	12473
639.332	11707
639.393	12426
639.453	11268
639.514	13267
639.574	12005
639.635	11237
639.695	12314
639.756	10605
639.816	11163
639.877	11718
639.937	11281
639.997	11113
640.058	10263
640.118	11070
640.178	12326
640.239	10980
640.299	10622
640.359	10577
640.420	11557
640.480	12564
640.540	13420
640.600	13741
640.661	11592
640.721	11086
640.781	12110
640.841	9369
640.901	11326
640.961	12074
641.021	11712
641.082	11037
641.142	10813
641.202	11999
641.262	9391
641.322	11583
641.382	9850
641.442	11734
641.502	10936
641.562	11124
641.622	10233
641.682	11350
641.742	11540
641.802	11225
641.861	10524
641.921	10307
641.981	11397
642.041	10021
642.101	8960
642.161	8456
642.221	8871
642.280	9869
642.340	8658
642.400	10046
642.460	10398
642.519	10034
642.579	9563
642.639	10973
642.698	6676
642.758	12550
642.818	10322
642.877	9709
642.937	9340
642.997	11161
643.056	10695
643.116	8611
643.175	12067
643.235	10348
643.294	10231
643.354	11140
643.414	11204
643.473	13236
643.532	13993
643.592	16978
643.651	25241
643.711	42908
643.770	78568
643.830	181845
643.889	309148
643.948	80302
644.008	22869
644.067	15914
644.126	12816
644.186	11368
644.245	11545
644.304	8458
644.363	11437
644.423	7838
644.482	10065
644.541	11196
644.600	8629
644.659	13836
644.719	14205
644.778	20346
644.837	33122
644.896	68805
644.955	137802
645.014	41138
645.073	13487
645.132	11375
645.191	11209
645.250	9877
645.309	12223
645.368	11923
645.427	15481
645.486	24386
645.545	38932
645.604	11655
645.663	9982
645.722	9624
645.781	10482
645.840	11260
645.898	12076
645.957	17424
646.016	22610
646.075	40686
646.134	76903
646.192	193493
646.251	230227
646.310	42409
646.369	17533
646.427	15290
646.486	11370
646.545	11237
646.603	8891
646.662	9021
646.721	9433
646.779	7816
646.838	7754
646.896	11161
646.955	13735
647.014	21241
647.072	40096
647.131	98543
647.189	39379
647.248	9713
647.306	8481
647.365	8527
647.423	6024
647.481	8732
647.540	6262
647.598	7121
647.657	6891
647.715	7702
647.773	5960
647.832	7059
647.890	4512
647.948	5844
648.007	6189
648.065	5340
648.123	4850
648.181	6711
648.240	5794
648.298	5512
648.356	5032
648.414	5999
648.472	5379
648.531	5402
648.589	3867
648.647	4947
648.705	5404
648.763	4992
648.821	5750
648.879	4740
648.937	5792
648.995	7249
649.053	7352
649.111	11245
649.169	17937
649.227	34079
649.285	70843
649.343	181761
649.401	71751
649.459	13039
649.516	8785
649.574	5505
649.632	7460
649.690	8804
649.748	9660
649.806	12857
649.863	26393
649.921	74229
649.979	40025
650.037	7734
650.094	2644
650.152	5269
650.210	3229
650.268	4252
650.325	4251
650.383	4630
650.440	2685
650.498	4388
650.556	4219
650.613	3009
650.671	3697
650.728	3211
650.786	3543
650.843	5797
650.901	2160
650.958	3892
651.016	2890
651.073	3142
651.131	2274
651.188	2370
651.246	2445
651.303	1854
651.360	2136
651.418	2363
651.475	2776
651.532	2187
651.590	2277
651.647	1706
651.704	2340
651.762	2348
651.819	2320
651.876	2015
651.933	1608
651.990	3273
652.048	919
652.105	2655
652.162	2756
652.219	2136
652.276	2156
652.333	2207
652.390	1187
652.448	2279
652.505	2826
652.562	2115
652.619	2479
652.676	2555
652.733	2657
652.790	1938
652.847	1323
652.904	2359
652.961	328
653.017	904
653.074	2009
653.131	1394
653.188	895
653.245	1712
653.302	1375
653.359	2346
653.415	1628
653.472	1322
653.529	2128
653.586	1178
653.642	1908
653.699	2374
653.756	840
653.813	2129
653.869	1999
653.926	942
653.983	967
654.039	2168
654.096	1433
654.152	2783
654.209	511
654.266	1492
654.322	229
654.379	1631
654.435	1888
654.492	1370
654.548	1446
654.605	1096
654.661	1933
654.717	1740
654.774	1967
654.830	1915
654.887	1875
654.943	1599
655.000	1657
655.056	1972
655.112	1146
655.168	519
655.225	881
655.281	2026
655.337	1528
655.394	1333
655.450	1342
655.506	1600
655.562	773
655.618	2939
655.675	725
655.731	1370
655.787	1006
655.843	1887
655.899	682
655.955	1979
656.011	1272
656.067	-25
656.123	1588
656.179	1109
656.235	2821
656.291	878
656.347	1716
656.403	1321
656.459	170
656.515	1425
656.571	824
656.627	1265
656.683	777
656.739	961
656.795	1825
656.850	986
656.906	1224
656.962	2110
657.018	538
657.074	2371
657.129	3149
657.185	5914
657.241	14130
657.297	6138
657.352	1496
657.408	1098
657.464	1283
657.519	425
657.575	90
657.630	1397
657.686	79
657.742	612
657.797	976
657.853	1408
657.908	1167
657.964	436
658.019	1057
658.075	982
658.130	858
658.186	258
658.241	1311
658.297	276
658.352	874
658.407	1279
658.463	-412
658.518	738
658.573	369
658.629	-59
658.684	166
658.739	1488
658.795	683
658.850	989
658.905	-221
658.960	987
659.016	-334
659.071	1156
659.126	834
659.181	409
659.236	1698
659.291	1130
659.346	263
659.401	1082
659.457	1426
659.512	179
659.567	1169
659.622	325
659.677	-145
659.732	57
659.787	469
659.842	830
659.897	191
659.952	1094
660.007	749
660.061	930
660.116	-442
660.171	275
660.226	834
660.281	1208
660.336	-42
660.391	1058
660.445	-291
660.500	1141
660.555	217
660.610	133
660.664	1205
660.719	653
660.774	2
660.828	1444
660.883	477
660.938	1187
660.992	-1085
661.047	312
661.101	793
661.156	186
661.211	424
661.265	832
661.320	367
661.374	1395
661.429	-567
661.483	231
661.538	-440
661.592	643
661.647	106
661.701	736
661.755	244
661.810	-221
661.864	91
661.919	873
661.973	618
662.027	-308
662.081	-217
662.136	-524
662.190	1092
662.244	768
662.299	207
662.353	1140
662.407	-173
662.461	556
662.515	-8
662.569	228
662.624	646
662.678	183
662.732	-108
662.786	1015
662.840	762
662.894	1261
662.948	514
663.002	490
663.056	588
663.110	356
663.164	-288
663.218	-52
663.272	-101
663.326	295
663.380	43
663.434	1078
663.488	-640
663.542	-103
663.595	-72
663.649	438
663.703	309
663.757	424
663.811	-71
663.864	242
663.918	-59
663.972	588
664.026	202
664.079	314
664.133	182
664.187	143
664.240	-434
664.294	369
664.348	189
664.401	1107
664.455	284
664.508	1234
664.562	54
664.615	214
664.669	-374
664.722	293
664.776	685
664.829	771
664.883	-393
664.936	325
664.990	178
665.043	886
665.097	114
665.150	904
665.203	-29
665.257	-278
665.310	-165
665.363	160
665.417	99
665.470	584
665.523	1235
665.576	482
665.630	-250
665.683	964
665.736	666
665.789	981
665.842	-779
665.895	672
665.949	-88
666.002	1182
666.055	155
666.108	1257
666.161	888
666.214	1336
666.267	184
666.320	689
666.373	-38
666.426	597
666.479	-130
666.532	-268
666.585	848
666.638	1548
666.691	-192
666.744	1144
666.796	-293
666.849	810
666.902	909
666.955	1340
667.008	-56
667.060	559
667.113	448
667.166	490
667.219	-52
667.271	780
667.324	1077
667.377	1156
667.430	28
667.482	548
667.535	767
667.587	60
667.640	510
667.693	725
667.745	308
667.798	441
667.850	289
667.903	1261
667.955	-92
668.008	649
668.060	-486
668.113	96
668.165	135
668.218	923
668.270	-103
668.322	823
668.375	540
668.427	459
668.479	-312
668.532	1363
668.584	-313
668.636	370
668.689	490
668.741	-19
668.793	19
668.845	683
668.898	489
668.950	758
669.002	377
669.054	786
669.106	-318
669.158	71
669.211	270
669.263	489
669.315	293
669.367	-64
669.419	18
669.471	821
669.523	222
669.575	505
669.627	138
669.679	1056
669.731	-125
669.783	567
669.835	292
669.886	-107
669.938	242
669.990	550
670.042	-449
670.094	906
670.146	75
670.197	394
670.249	-7
670.301	709
670.353	255
670.404	532
670.456	-199
670.508	407
670.560	390
670.611	1503
670.663	2381
670.715	5676
670.766	7414
670.818	2001
670.869	241
670.921	1018
670.972	99
671.024	27
671.075	208
671.127	485
671.178	-313
671.230	317
671.281	812
671.333	1380
671.384	-222
671.436	1551
671.487	2830
671.538	4636
671.590	8545
671.641	16401
671.692	31101
671.744	57897
671.795	30309
671.846	8837
671.897	4372
671.949	1889
672.000	1018
672.051	1845
672.102	981
672.153	389
672.204	731
672.256	75
672.307	-289
672.358	-94
672.409	26
672.460	150
672.511	-626
672.562	-196
672.613	-719
672.664	-141
672.715	187
672.766	122
672.817	-1104
672.868	317
672.919	199
672.970	-1061
673.021	-1438
673.071	-115
673.122	14
673.173	164
673.224	-467
673.275	-718
673.326	-39
673.376	-139
673.427	-745
673.478	14
673.528	-26
673.579	444
673.630	-299
673.680	1331
673.731	-262
673.782	-66
673.832	-354
673.883	624
673.934	-330
673.984	-277
674.035	-118
674.085	-680
674.136	-290
674.186	47
674.237	-834
674.287	-201
674.338	-835
674.388	-149
674.438	-1086
674.489	353
674.539	-346
674.589	276
674.640	-146
674.690	608
674.740	-1484
674.791	-42
674.841	-265
674.891	-618
674.942	-594
674.992	-581
675.042	-657
675.092	-312
675.142	-857
675.193	-489
675.243	-1514
675.293	-246
675.343	-1121
675.393	-596
675.443	-201
675.493	390
675.543	-886
675.593	-1079
675.643	-564
675.693	-69
675.743	-1050
675.793	-691
675.843	-1659
675.893	-679
675.943	252
675.993	-517
676.043	-255
676.093	-819
676.142	-308
676.192	-403
676.242	-589
676.292	119
676.341	-1435
676.391	14
676.441	-999
676.491	-311
676.540	-792
676.590	-200
676.640	-559
676.689	-229
676.739	-859
676.789	-826
676.838	-454
676.888	-684
676.937	-1713
676.987	-818
677.037	-884
677.086	-321
677.136	-677
677.185	-2014
677.235	-964
677.284	-715
677.333	-1165
677.383	-476
677.432	-1303
677.482	-344
677.531	-767
677.580	-1215
677.630	-1227
677.679	-1318
677.728	-1219
677.778	524
677.827	-1124
677.876	-964
677.925	-954
677.975	-338
678.024	-1154
678.073	-327
678.122	-507
678.171	-117
678.220	-582
678.269	183
678.319	-1168
678.368	-363
678.417	-1028
678.466	-773
678.515	-891
678.564	80
678.613	-998
678.662	-1021
678.711	-1140
678.760	-362
678.809	-1327
678.857	-1560
678.906	-1135
678.955	-544
679.004	-1129
679.053	-1521
679.102	-1359
679.151	-1070
679.199	-1310
679.248	-1400
679.297	-1120
679.346	-795
679.394	-1224
679.443	-334
679.492	-960
679.540	-118
679.589	-1593
679.638	-1089
679.686	-540
679.735	-251
679.784	-313
679.832	-255
679.881	-1385
679.929	-687
679.978	-1708
680.026	-1086
680.075	-954
680.123	-1621
680.172	-996
680.220	-172
680.268	-1022
680.317	-682
680.365	-1029
680.414	-1574
680.462	-1583
680.510	57
680.559	-1512
680.607	-753
680.655	-1728
680.703	-432
680.752	-939
680.800	-627
680.848	-1959
680.896	-872
680.945	-1357
680.993	-1953
681.041	-1586
681.089	-856
681.137	-1024
681.185	-636
681.233	-1615
681.258	-1296
681.281	-1011
681.329	-1140
681.377	-1172
681.380	-1143
681.425	-905
681.473	-846
681.502	-902
681.521	-973
681.569	-771
681.617	-1406
681.624	-1259
681.665	-450
681.713	-566
681.745	-1021
681.761	-1258
681.809	-1115
681.857	374
681.867	149
681.904	-710
681.952	-204
681.989	-503
682.000	-613
682.048	-373
682.096	-820
682.111	-555
682.143	-51
682.191	-737
682.233	382
682.239	537
682.286	-897
682.334	-1019
682.354	-959
682.382	-919
682.430	-469
682.476	-594
682.477	-612
682.525	-161
682.572	-329
682.598	-346
682.620	-364
682.667	-173
682.715	399
682.720	379
682.763	-10
682.810	-47
682.841	-173
682.857	-251
682.905	-158
682.952	-278
682.963	-98
683.000	463
683.047	-51
683.085	804
683.095	1027
683.142	190
683.190	834
683.206	630
683.237	215
683.284	463
683.328	388
683.332	368
683.379	676
683.426	576
683.449	622
683.473	642
683.521	460
683.568	822
683.571	810
683.615	473
683.662	1117
683.693	742
683.709	535
683.757	836
683.804	422
683.814	453
683.851	453
683.898	679
683.936	868
683.945	922
683.992	424
684.039	781
684.057	594
684.086	195
684.133	674
684.179	390
684.180	376
684.227	1597
684.274	975
684.300	1066
684.321	1077
684.368	859
684.415	1236
684.422	1160
684.462	694
684.509	1173
684.543	1160
684.556	1115
684.603	1637
684.649	610
684.665	881
684.696	1521
684.743	1243
684.786	1445
684.790	1433
684.837	435
684.883	1648
684.908	1545
684.930	1567
684.977	1410
685.023	1229
685.029	1228
685.070	1038
685.117	1693
685.150	1240
685.164	1074
685.210	1783
685.257	2569
685.272	2318
685.303	1656
685.350	1832
685.393	2031
685.396	2052
685.443	1914
685.490	1444
685.514	1826
685.536	2111
685.583	1435
685.629	1260
685.636	1271
685.675	1437
685.722	2494
685.757	2215
685.768	2071
685.815	1605
685.861	1585
685.878	1891
685.908	2496
685.954	1432
686.000	2568
686.000	2580
686.047	1875
686.093	2323
686.121	1903
686.139	1725
686.185	2387
686.232	2249
686.242	2535
686.278	3254
686.324	2167
686.363	2720
686.370	2838
686.416	1808
686.463	2769
686.484	2532
686.509	2276
686.555	1807
686.601	2896
686.606	2874
686.647	2667
686.693	2109
686.727	2397
686.739	2479
686.785	2696
686.831	2639
686.848	2693
686.877	2810
686.923	2365
686.969	2578
686.969	2579
687.015	2368
687.061	3460
687.090	3355
687.107	3203
687.153	2942
687.199	3163
687.211	3038
687.245	2753
687.291	3171
687.332	2973
687.336	2961
687.382	3398
687.428	2937
687.453	3374
687.474	3660
687.520	3510
687.565	2816
687.574	2848
687.611	3172
687.657	3290
687.695	3082
687.702	3036
687.748	3822
687.794	3217
687.816	3427
687.839	3583
687.885	3137
687.931	2961
687.937	3000
687.976	3402
688.022	3857
688.058	3911
688.067	3872
688.113	4473
688.158	3358
688.179	3419
688.204	3536
688.249	3381
688.295	3498
688.300	3504
688.340	3636
688.386	3789
688.421	3515
688.431	3449
688.477	3597
688.522	3496
688.542	3627
688.567	3979
688.613	4141
688.658	4877
688.663	4851
688.703	4076
688.749	3976
688.784	3926
688.794	4011
688.839	4043
688.884	4028
688.905	4132
688.930	4319
688.975	4616
689.020	4761
689.026	4701
689.065	3924
689.110	4063
689.146	4123
689.155	4231
689.201	4253
689.246	3973
689.267	4127
689.291	4190
689.336	4491
689.381	4226
689.388	4191
689.426	4114
689.471	4471
689.509	4128
689.516	4095
689.561	4555
689.606	4645
689.630	4641
689.651	4496
689.696	4211
689.741	4294
689.750	4231
689.785	4368
689.830	4998
689.871	4811
689.875	4761
689.920	4875
689.965	4295
689.992	4241
690.010	4360
690.054	4540
690.099	5102
690.112	5034
690.144	4566
690.189	4330
690.233	3827
690.233	3836
690.278	4362
690.323	4787
690.354	4961
690.367	4935
690.412	4775
690.457	4916
690.474	4863
690.501	4772
690.546	4801
690.590	4634
690.595	4619
690.635	4648
690.680	4055
690.716	4107
690.724	4177
690.769	4832
690.813	5374
690.836	5062
690.857	4804
690.902	5344
690.946	5489
690.957	5586
690.991	6419
691.035	7304
691.077	7926
691.080	7898
691.124	7531
691.168	6780
691.198	6204
691.213	6033
691.257	5796
691.301	5191
691.318	5195
691.346	5554
691.390	5207
691.434	5374
691.439	5389
691.478	5424
691.522	5418
691.559	5362
691.567	5412
691.611	5975
691.655	5894
691.680	5736
691.699	5461
691.743	5733
691.787	5488
691.800	5271
691.831	4949
691.875	5244
691.919	5287
691.921	5269
691.964	5103
692.008	5193
692.041	5089
692.052	5074
692.096	4911
692.139	5151
692.162	5026
692.183	5020
692.227	5184
692.271	5503
692.282	5583
692.315	5775
692.359	5782
692.402	5762
692.403	5775
692.447	5321
692.490	5582
692.523	5433
692.534	5384
692.578	5087
692.622	4788
692.643	4965
692.666	5387
692.709	5392
692.753	5913
692.763	5985
692.797	5796
692.840	5590
692.884	4839
692.884	4852
692.928	5430
692.971	5512
693.004	5492
693.015	5433
693.059	5294
693.102	5694
693.124	5476
693.146	5392
693.189	5753
693.233	5344
693.245	5402
693.276	5691
693.320	5850
693.363	6181
693.365	6166
693.407	5976
693.450	6163
693.485	6094
693.493	6134
693.537	6196
693.580	6297
693.605	6447
693.624	6761
693.667	7361
693.710	8047
693.725	8169
693.753	9171
693.797	10913
693.840	12490
693.845	12682
693.883	11363
693.926	9595
693.966	7913
693.970	7876
694.013	7481
694.056	7213
694.086	6823
694.099	6776
694.142	6738
694.185	6453
694.206	6501
694.229	6671
694.272	6503
694.315	6467
694.326	6471
694.358	6518
694.401	6616
694.444	6572
694.446	6546
694.487	6502
694.530	6685
694.566	6619
694.573	6591
694.616	6316
694.659	6376
694.686	6225
694.702	6382
694.745	6932
694.787	7306
694.806	7393
694.830	7196
694.873	6972
694.916	6843
694.926	6732
694.959	6786
695.002	7241
695.044	7218
695.046	7212
695.087	7475
695.130	7382
695.166	7602
695.172	7659
695.215	7630
695.258	7880
695.286	7748
695.301	7818
695.343	7994
695.386	8440
695.406	8628
695.428	8921
695.471	9245
695.514	9699
695.526	9810
695.556	10430
695.599	11266
695.641	11868
695.646	11929
695.684	11292
695.726	10560
695.766	9623
695.769	9627
695.811	9475
695.854	9483
695.886	9257
695.896	9348
695.938	9643
695.981	9911
696.005	10125
696.023	10457
696.065	11020
696.108	11875
696.125	12093
696.150	12093
696.192	12162
696.235	12060
696.245	12031
696.277	12069
696.319	12041
696.361	11992
696.365	11956
696.404	11907
696.446	11860
696.485	11762
696.488	11804
696.530	12005
696.572	11973
696.604	12119
696.614	12179
696.656	12143
696.698	12186
696.724	12111
696.740	12160
696.783	12263
696.825	12449
696.844	12481
696.867	12505
696.909	12413
696.951	12310
696.964	12271
696.992	12584
697.034	12884
697.076	13254
697.083	13286
697.118	13510
697.160	13655
697.202	13905
697.203	13870
697.244	13689
697.286	13570
697.323	13286
697.327	13330
697.369	13512
697.411	13655
697.442	13739
697.453	13729
697.494	13448
697.536	13289
697.562	13166
697.578	13314
697.620	13512
697.661	13657
697.682	13727
697.703	14085
697.744	14746
697.786	15453
697.801	15592
697.828	15475
697.869	15414
697.911	15192
697.921	15140
697.952	14881
697.994	14343
698.035	13834
698.040	13734
698.077	14109
698.118	14513
698.160	14898
698.160	14859
698.201	15311
698.243	15611
698.279	15939
698.284	16014
698.325	16230
698.367	16480
698.399	16621
698.408	16714
698.449	16930
698.491	17144
698.518	17235
698.532	17294
698.573	17306
698.614	17367
698.638	17318
698.656	17406
698.697	17565
698.738	17656
698.757	17666
698.779	17659
698.820	17545
698.862	17434
698.877	17338
698.903	17633
698.944	18039
698.985	18447
698.996	18510
699.026	18280
699.067	17890
699.116	17379
699.235	18570
699.354	18256
699.474	16302
699.593	15162
699.713	16381
699.832	16396
699.951	17609
700.070	17051
700.190	14545
700.309	15180
700.428	14681
700.547	14243
700.667	13987
700.786	14953
700.905	14160
701.024	13551
701.143	14120
701.262	14731
701.381	14738
701.500	14684
701.619	14720
701.738	15159
701.857	15617
701.976	14072
702.095	13708
702.214	15326
702.333	14886
702.452	14808
702.571	16204
702.690	14708
702.809	14552
702.928	13693
703.047	12479
703.165	14146
703.284	13748
703.403	12164
703.522	12422
703.640	12748
703.759	11964
703.878	11751
703.997	12084
704.115	12934
704.234	12164
704.353	13095
704.471	10544
704.590	11506
704.708	11554
704.827	12061
704.946	11301
705.064	10482
705.183	10741
705.301	11306
705.420	11123
705.538	10925
705.656	10088
705.775	9700
705.893	10204
706.012	10413
706.130	9651
706.249	11024
706.367	10591
706.485	10081
706.604	9503
706.722	8952
706.840	10286
706.958	9859
707.077	10399
707.195	8908
707.313	9018
707.431	8319
707.549	9274
707.668	8398
707.786	10061
707.904	8633
708.022	8994
708.140	9940
708.258	8895
708.376	9985
708.494	8718
708.612	9085
708.730	9016
708.848	7700
708.966	9017
709.084	9494
709.202	8774
709.320	8425
709.438	7422
709.556	8560
709.674	7678
709.791	7816
709.909	7934
710.027	7174
710.145	8173
710.263	8206
710.380	7507
710.498	7123
710.616	7861
710.733	7167
710.851	6915
710.969	7479
711.086	6871
711.204	7802
711.322	7388
711.439	7036
711.557	6021
711.674	6330
711.792	6835
711.909	6544
712.027	6719
712.144	7294
712.262	7244
712.379	7398
712.497	7395
712.614	7192
712.732	6986
712.849	6448
712.966	7324
713.084	7338
713.201	5892
713.318	6616
713.436	7493
713.553	5898
713.670	7517
713.787	7399
713.905	6544
714.022	7381
714.139	7398
714.256	8980
714.373	12276
714.490	23121
714.608	60946
714.725	240855
714.842	200123
714.959	20001
715.076	10722
715.193	8400
715.310	7157
715.427	5509
715.544	6473
715.661	6200
715.778	6163
715.895	5604
716.011	5904
716.128	5538
716.245	5820
716.362	6020
716.479	5181
716.596	5722
716.713	6084
716.829	5714
716.946	5400
717.063	5355
717.180	4489
717.296	5789
717.413	5403
717.530	4577
717.646	5106
717.763	4575
717.880	5179
717.996	5571
718.113	5118
718.229	4507
718.346	4511
718.462	4143
718.579	5477
718.695	3873
718.812	5421
718.928	4026
719.045	4270
719.161	4552
719.277	4807
719.394	5163
719.510	4993
719.626	5169
719.743	6936
719.859	10297
719.975	21525
720.092	87072
720.208	170278
720.324	17296
720.440	6627
720.557	4877
720.673	5308
720.789	4398
720.905	4675
721.021	4751
721.137	4413
721.253	3926
721.369	3849
721.486	3995
721.602	4562
721.718	4251
721.834	3754
721.950	3397
722.066	3812
722.181	3352
722.297	4094
722.413	3392
722.529	3831
722.645	3914
722.761	3256
722.877	3903
722.993	4406
723.108	5591
723.224	4407
723.340	3967
723.456	4093
723.571	3335
723.687	3582
723.803	3023
723.918	3025
724.034	3870
724.150	2911
724.265	4034
724.381	2878
724.497	3115
724.612	3476
724.728	2686
724.843	3318
724.959	3546
725.074	3644
725.190	3562
725.305	3035
725.421	3156
725.536	3397
725.651	3937
725.767	3989
725.882	2595
725.997	3185
726.113	3392
726.228	4048
726.343	2736
726.459	2831
726.574	3496
726.689	3579
726.804	3485
726.920	2727
727.035	2746
727.150	3555
727.265	3324
727.380	3430
727.495	3564
727.610	2933
727.725	2768
727.841	3494
727.956	2850
728.071	2940
728.186	2968
728.301	2604
728.416	3286
728.531	3179
728.645	3461
728.760	3056
728.875	2607
728.990	2628
729.105	3638
729.220	2878
729.335	2628
729.449	2944
729.564	2463
729.679	2983
729.794	2981
729.908	3477
730.023	3529
730.138	2876
730.253	3592
730.367	2893
730.482	3651
730.596	3439
730.711	3286
730.826	5329
730.940	4098
731.055	3982
731.169	4101
731.284	3813
731.398	3978
731.513	4308
731.627	4884
731.742	6378
731.856	7500
731.970	7207
732.085	8945
732.199	11548
732.313	20011
732.428	53341
732.542	161588
732.656	80384
732.771	16535
732.885	10475
732.999	10561
733.113	11218
733.227	11311
733.342	10989
733.456	10063
733.570	10349
733.684	9862
733.798	8922
733.912	9282
734.026	9728
734.140	9237
734.254	9381
734.368	8644
734.482	8424
734.596	9021
734.710	8617
734.824	7722
734.938	7959
735.052	7856
735.166	9394
735.280	8568
735.393	7926
735.507	7815
735.621	7274
735.735	7322
735.849	8269
735.962	7331
736.076	8993
736.190	7265
736.303	7230
736.417	7653
736.531	6673
736.644	7367
736.758	6704
736.872	6684
736.985	7108
737.099	7632
737.212	7090
737.326	6750
737.439	7293
737.553	6589
737.666	7209
737.780	6383
737.893	6881
738.007	6317
738.120	7085
738.233	6730
738.347	7239
738.460	6129
738.573	6906
738.687	4808
738.800	6026
738.913	6750
739.026	5953
739.140	6289
739.253	5810
739.366	6903
739.479	6716
739.592	5336
739.705	6045
739.818	6676
739.932	5598
740.045	5817
740.158	4898
740.271	6128
740.384	6249
740.497	6242
740.610	5891
740.723	5057
740.836	5677
740.949	5446
741.062	6305
741.174	5083
741.287	5756
741.400	6186
741.513	4338
741.626	4843
741.739	5587
741.851	4772
741.964	5814
742.077	4984
742.189	4077
742.302	4978
742.415	5037
742.527	5254
742.640	4979
742.753	4430
742.865	5355
742.978	4642
743.090	5256
743.203	5004
743.316	4130
743.428	4383
743.541	4489
743.653	4316
743.766	3829
743.878	5525
743.990	4212
744.103	4973
744.215	5028
744.327	3876
744.440	5834
744.552	3539
744.664	4080
744.777	4376
744.889	3248
745.001	4419
745.113	4622
745.226	3831
745.338	3588
745.450	5323
745.562	3899
745.674	3665
745.786	4927
745.898	4491
746.010	4042
746.122	4348
746.234	3847
746.347	4354
746.459	4009
746.570	3426
746.682	5494
746.794	5626
746.906	3056
747.018	2803
747.130	4555
747.242	3280
747.354	4046
747.466	3839
747.577	3365
747.689	4733
747.801	3864
747.913	3289
748.024	3203
748.136	2945
748.248	4437
748.359	3314
748.471	4024
748.583	2957
748.694	2791
748.806	4176
748.918	3330
749.029	3417
749.141	2963
749.252	4007
749.364	2893
749.475	2533
749.587	2710
749.698	2994
749.809	3458
749.921	3338
750.032	3024
750.144	2395
750.255	2840
750.366	2964
750.478	3345
750.589	2845
750.700	2777
750.811	2523
750.923	2624
751.034	3056
751.145	3406
751.256	2708
751.367	2316
751.479	2450
751.590	2690
751.701	1953
751.812	2479
751.923	2130
752.034	3490
752.145	2405
752.256	2734
752.367	2722
752.478	1887
752.589	2515
752.700	2267
752.811	2350
752.922	2109
753.032	2447
753.143	2826
753.254	2298
753.365	3076
753.476	3451
753.586	2820
753.697	2166
753.808	2487
753.919	2536
754.029	2787
754.140	2161
754.251	2712
754.361	2706
754.472	3098
754.582	2658
754.693	2267
754.804	2864
754.914	2177
755.025	2367
755.135	2026
755.246	3355
755.356	1883
755.466	2650
755.577	2497
755.687	2705
755.798	2480
755.908	1899
756.018	2239
756.129	2540
756.239	2009
756.349	2988
756.460	1492
756.570	3058
756.680	2433
756.790	2229
756.900	2828
757.011	2456
757.121	2230
757.231	1884
757.341	2214
757.451	1612
757.561	2021
757.671	2408
757.781	1747
757.891	2616
758.001	2579
758.111	2462
758.221	3521
758.331	2726
758.441	2307
758.551	1972
758.661	2419
758.771	2273
758.880	1853
758.990	1025
759.100	1874
759.210	2479
759.320	2351
759.429	2335
759.539	2442
759.649	2472
759.758	3117
759.868	3670
759.978	3402
760.087	2766
760.197	3192
760.307	2887
760.416	2758
760.526	2127
760.635	3246
760.745	3217
760.854	2766
760.964	3247
761.073	3938
761.182	3312
761.292	3146
761.401	2722
761.511	1676
761.620	1720
761.729	2141
761.839	1679
761.948	2148
762.057	1623
762.166	2289
762.276	1580
762.385	2783
762.494	1361
762.603	2295
762.712	2591
762.822	2321
762.931	2063
763.040	1772
763.149	1117
763.258	2008
763.367	2355
763.476	1854
763.585	3124
763.694	1574
763.803	2680
763.912	2051
764.021	2778
764.130	2524
764.238	2583
764.347	2143
764.456	2214
764.565	2599
764.674	1510
764.783	2399
764.891	2102
765.000	3776
765.109	2610
765.217	2745
765.326	4492
765.435	4358
765.543	4466
765.652	6454
765.761	6583
765.869	10394
765.978	15930
766.086	27234
766.195	50966
766.303	111898
766.412	198890
766.520	162929
766.629	78850
766.737	35486
766.846	19558
766.954	12737
767.062	10185
767.171	7610
767.279	6053
767.387	4629
767.496	5247
767.604	4340
767.712	3942
767.820	3031
767.928	3381
768.037	3299
768.145	3039
768.253	3285
768.361	2646
768.469	3420
768.577	3010
768.685	3727
768.793	3896
768.901	2678
769.009	4130
769.117	4035
769.225	5031
769.333	7704
769.441	12009
769.549	19599
769.657	43822
769.765	115519
769.873	162765
769.981	83322
770.088	27381
770.196	13993
770.304	9695
770.412	7756
770.519	5874
770.627	6125
770.735	4251
770.842	4252
770.950	4099
771.058	3520
771.165	4512
771.273	4575
771.380	5419
771.488	6562
771.595	6471
771.703	5905
771.810	6306
771.918	5635
772.025	6990
772.133	8165
772.240	8104
772.348	9527
772.455	7530
772.562	7165
772.670	6805
772.777	7370
772.884	7953
772.991	7245
773.099	6461
773.206	6463
773.313	5980
773.420	6504
773.528	6110
773.635	7245
773.742	6921
773.849	6477
773.956	6636
774.063	5931
774.170	5968
774.277	6435
774.384	5385
774.491	5388
774.598	5781
774.705	5990
774.812	5289
774.919	5722
775.026	5304
775.133	6109
775.239	5730
775.346	5201
775.453	5049
775.560	4891
775.667	5897
775.773	4516
775.880	6217
775.987	5088
776.093	6229
776.200	5608
776.307	4463
776.413	4509
776.520	6213
776.627	4788
776.733	3722
776.840	3043
776.946	7186
777.053	5950
777.159	5323
777.266	3884
777.372	6400
777.478	5991
777.585	5034
777.691	4442
777.798	4652
777.904	5002
778.010	4074
778.117	4922
778.223	4594
778.329	3902
778.435	3643
778.542	5650
778.648	4205
778.754	4065
778.860	4305
778.966	3458
779.072	3643
779.178	3199
779.284	3540
779.391	3715
779.497	4046
779.603	4855
779.708	3088
779.815	4373
779.920	6216
780.026	5793
780.132	4615
780.238	2835
780.344	3034
780.450	4913
780.556	3482
780.661	2863
780.767	3567
780.873	2227
780.979	3257
781.085	3859
781.190	3985
781.296	2898
781.402	3302
781.507	3125
781.613	2682
781.719	2855
781.824	3963
781.930	3094
782.035	2845
782.141	4222
782.246	2115
782.352	2504
782.457	2854
782.563	3228
782.668	2777
782.773	2831
782.879	1415
782.984	3818
783.090	3698
783.195	3324
783.300	2964
783.405	3277
783.511	2554
783.616	3180
783.721	3497
783.826	3057
783.932	2960
784.037	2760
784.142	1926
784.247	2113
784.352	2660
784.457	1796
784.562	3171
784.667	2380
784.772	2142
784.877	1550
784.982	3649
785.087	3190
785.192	3131
785.297	2730
785.402	2867
785.507	2504
785.611	2690
785.716	2140
785.821	2660
785.926	2591
786.031	2950
786.135	1624
786.240	2412
786.345	600
786.450	2587
786.554	2060
786.659	1960
786.763	1851
786.868	2640
786.973	2907
787.077	2264
787.182	2562
787.286	2809
787.391	2053
787.495	1089
787.600	1800
787.704	1305
787.809	2954
787.913	1796
788.017	2214
788.122	2680
788.226	1810
788.330	378
788.435	1607
788.539	2845
788.643	1011
788.747	1097
788.852	2187
788.956	1438
789.060	2987
789.164	1774
789.268	1362
789.372	2873
789.476	2125
789.580	762
789.684	550
789.788	2187
789.892	1612
789.996	1628
790.100	1034
790.204	1270
790.308	2318
790.412	366
790.516	493
790.620	1518
790.724	1714
790.828	1735
790.931	506
791.035	2034
791.139	1273
791.242	1175
791.346	1837
791.450	697
791.554	1069
791.657	690
791.761	2766
791.864	2006
791.968	2102
792.072	2458
792.175	2015
792.279	752
792.382	1306
792.486	1062
792.589	761
792.693	1432
792.796	692
792.899	2198
793.003	2745
793.106	-796
793.209	601
793.313	1246
793.416	-61
793.519	2007
793.623	2496
793.726	1584
793.829	1097
793.932	795
794.035	-164
794.138	2311
794.242	2633
794.345	138
794.448	764
794.551	-320
794.654	3229
794.757	3495
794.860	1566
794.963	1368
795.066	933
795.169	1205
795.272	658
795.375	1182
795.477	470
795.580	815
795.683	584
795.786	1012
795.889	29
795.991	1655
796.094	1411
796.197	-651
796.300	2093
796.402	1202
796.505	565
796.608	10
796.710	1802
796.813	1723
796.915	524
797.018	1133
797.120	1117
797.223	31
797.326	1923
797.428	475
797.530	511
797.633	665
797.735	2472
797.838	-149
797.940	1805
798.042	-40
798.145	949
798.247	1857
798.349	-886
798.452	1320
798.554	535
798.656	511
798.758	2017
798.860	913
798.962	349
799.065	-230
799.167	-749
799.269	1277
799.371	1035
799.473	1283
799.575	219
799.677	660
799.779	1791
799.881	-1316
799.983	674
800.085	-94
800.187	977
800.289	-414
800.390	-163
800.492	2008
800.594	1671
800.696	637
800.798	601
800.899	337
801.001	2
801.103	872
801.205	699
801.306	1093
801.408	79
801.509	216
801.611	544
801.713	642
801.814	465
801.916	483
802.017	905
802.119	59
802.220	195
802.322	-1039
802.423	2038
802.525	-1038
802.626	444
802.727	685
802.829	968
802.930	-1808
803.031	1486
803.133	500
803.234	914
803.335	1607
803.436	557
803.538	-307
803.639	-536
803.740	1343
803.841	-120
803.942	549
804.043	834
804.144	21
804.245	74
804.346	170
804.447	99
804.548	-52
804.649	1044
804.750	159
804.851	-44
804.952	5
805.053	489
805.154	-746
805.255	1148
805.355	256
805.456	531
805.557	83
805.658	-648
805.758	1567
805.859	262
805.960	562
806.061	-2
806.161	-37
806.262	-14
806.362	-3
806.463	90
806.564	968
806.664	447
806.765	810
806.865	-417
806.966	322
807.066	-267
807.166	1717
807.267	947
807.367	-20
807.468	622
807.568	-493
807.668	804
807.769	1797
807.869	-543
807.969	-16
808.069	-88
808.170	824
808.270	372
808.370	387
808.470	915
808.570	45
808.670	176
808.770	338
808.870	-571
808.970	974
809.070	246
809.170	-509
809.271	1196
809.370	556
809.470	672
809.570	-911
809.670	-358
809.770	792
809.870	727
809.970	809
810.070	643
810.169	852
810.269	-498
810.369	1491
810.469	-41
810.568	113
810.668	116
810.768	-207
810.867	58
810.967	-333
811.066	139
811.166	388
811.265	1491
811.365	4
811.464	-877
811.564	150
811.663	-50
811.763	-1035
811.862	305
811.962	1030
812.061	-3
812.160	-501
812.260	326
812.359	799
812.458	-286
812.557	-280
812.657	-468
812.756	831
812.855	0
812.954	276
813.053	1142
813.153	495
813.252	-429
813.351	518
813.450	517
813.549	-583
813.648	884
813.747	-465
813.846	-35
813.945	506
814.044	550
814.143	140
814.242	587
814.341	146
814.439	1145
814.538	1226
814.637	1098
814.736	-204
814.835	1290
814.933	441
815.032	2001
815.131	2552
815.229	4472
815.328	6579
815.427	3774
815.525	3812
815.624	3167
815.722	2482
815.821	3645
815.919	3846
816.018	3635
816.116	4184
816.215	3414
816.313	4067
816.412	5632
816.510	5482
816.609	6926
816.707	6101
816.805	4915
816.904	4755
817.002	5741
817.100	5565
817.198	6100
817.296	4410
817.395	4450
817.493	5338
817.591	3935
817.689	3986
817.787	3947
817.885	4086
817.983	3924
818.081	4001
818.179	5470
818.277	6865
818.375	4771
818.473	4350
818.571	4067
818.669	3626
818.767	4200
818.865	2919
818.963	2968
819.061	4241
819.158	3601
819.256	6166
819.354	4282
819.452	7027
819.549	4990
819.647	5008
819.745	3714
819.842	3894
819.940	3212
820.038	3521
820.135	3815
820.233	4974
820.330	3425
820.428	3067
820.525	4769
820.623	3434
820.720	2493
820.818	3197
820.915	4227
821.012	3350
821.110	2973
821.207	4525
821.304	3109
821.402	3278
821.499	4250
821.596	3450
821.693	3219
821.791	3618
821.888	2690
821.985	4152
822.082	1863
822.179	3527
822.276	3468
822.373	2600
822.470	2771
822.567	3768
822.664	1396
822.761	3813
822.858	3331
822.955	2058
823.052	2696
823.149	3023
823.246	2649
823.343	2256
823.440	3104
823.536	2845
823.633	2622
823.730	2837
823.827	3396
823.923	3192
824.020	3083
824.117	2655
824.213	2384
824.310	2113
824.407	1949
824.503	2481
824.600	2987
824.696	2402
824.793	2809
824.889	2520
824.986	2124
825.082	1456
825.179	2142
825.275	2916
825.371	2756
825.468	1298
825.564	706
825.660	2658
825.757	3165
825.853	3197
825.949	1444
826.045	1856
826.142	1945
826.238	2271
826.334	2811
826.430	2324
826.526	1145
826.622	951
826.718	3239
826.814	2201
826.910	2471
827.006	-123
827.102	529
827.198	3721
827.294	2397
827.390	2652
827.486	2115
827.582	20
827.678	1151
827.774	3344
827.869	1444
827.965	2979
828.061	907
828.157	2813
828.252	2893
828.348	1669
828.444	2298
828.539	905
828.635	1519
828.731	2086
828.826	1486
828.922	2512
829.017	2041
829.113	2604
829.208	1869
829.304	1422
829.399	3577
829.495	2083
829.590	1475
829.685	1107
829.781	1592
829.876	1253
829.971	481
830.066	714
830.162	1040
830.257	2275
830.352	1391
830.447	1850
830.543	2034
830.638	-466
830.733	2791
830.828	638
830.923	1920
831.018	1933
831.113	1938
831.208	-318
831.303	698
831.398	1167
831.493	1056
831.588	2986
831.683	908
831.778	1116
831.873	464
831.967	2520
832.062	1771
832.157	202
832.252	1632
832.346	772
832.441	2070
832.536	1574
832.631	1556
832.725	535
832.820	810
832.914	1250
833.009	547
833.104	254
833.198	771
833.293	822
833.387	2030
833.482	1369
833.576	661
833.670	1170
833.765	674
833.859	416
833.954	1703
834.048	1384
834.142	18
834.237	508
834.331	1279
834.425	1311
834.519	439
834.613	864
834.708	1561
834.802	603
834.896	803
834.990	996
835.084	693
835.178	642
835.272	436
835.366	1177
835.460	1927
835.554	144
835.648	180
835.742	294
835.836	490
835.930	53
836.024	1682
836.117	1362
836.211	313
836.305	621
836.399	670
836.493	-635
836.586	1262
836.680	581
836.774	835
836.867	1092
836.961	582
837.055	399
837.148	555
837.242	931
837.335	685
837.429	850
837.522	232
837.616	76
837.709	1066
837.803	-209
837.896	1069
837.989	381
838.083	579
838.176	-416
838.269	-257
838.363	1269
838.456	-621
838.549	696
838.642	550
838.735	157
838.829	1517
838.922	-194
839.015	666
839.108	352
839.201	1314
839.294	101
839.387	705
839.480	-973
839.573	-236
839.666	-111
839.759	851
839.852	-279
839.945	1504
840.038	551
840.131	377
840.223	-789
840.316	1023
840.409	418
840.502	506
840.594	2273
840.687	-488
840.780	-176
840.873	-854
840.965	182
841.058	-22
841.150	871
841.243	-229
841.336	49
841.428	276
841.521	-517
841.613	24
841.706	618
841.798	-211
841.890	301
841.983	4
842.075	762
842.167	167
842.260	109
842.352	793
842.444	369
842.537	430
842.629	-408
842.721	-549
842.813	990
842.905	-234
842.997	740
843.090	339
843.182	319
843.274	-790
843.366	463
843.458	-156
843.550	586
843.642	-408
843.734	456
843.826	-1003
843.918	-881
844.009	669
844.101	65
844.193	207
844.285	275
844.377	430
844.469	-122
844.560	-312
844.652	-645
844.744	125
844.835	-24
844.927	99
845.019	267
845.110	-180
845.202	321
845.293	679
845.385	-116
845.476	846
845.568	534
845.659	260
845.751	322
845.842	246
845.934	-457
846.025	-572
846.116	52
846.208	-51
846.299	-176
846.390	-214
846.482	93
846.573	-516
846.664	-143
846.755	2
846.846	132
846.937	-1129
847.029	-922
847.120	207
847.211	152
847.302	433
847.393	-542
847.484	362
847.575	-905
847.666	-235
847.757	-760
847.847	51
847.938	1493
848.029	-57
848.120	-296
848.211	-167
848.302	-942
848.392	-297
848.483	504
848.574	-1047
848.664	-39
848.755	-326
848.846	-290
848.936	-757
849.027	172
849.118	-540
849.208	-1031
849.299	86
849.389	1427
849.480	2359
849.570	5422
849.661	11318
849.751	17968
849.841	4909
849.932	668
850.022	-14
850.112	231
850.203	107
850.293	-353
850.383	-10
850.474	-1079
850.564	-152
850.654	352
850.744	-131
850.834	-235
850.924	279
851.014	30
851.104	211
851.194	-692
851.284	-79
851.374	-25
851.464	-419
851.554	-294
851.644	-570
851.734	579
851.824	-1074
851.914	160
852.004	347
852.094	-1084
852.183	-114
852.273	-847
852.363	476
852.452	-496
852.542	-238
852.632	-632
852.721	173
852.811	-1147
852.901	146
852.990	-341
853.080	175
853.169	-489
853.259	-28
853.348	-510
853.438	-228
853.527	1463
853.617	926
853.706	3284
853.795	5999
853.885	12928
853.974	23877
854.063	47218
854.152	62563
854.242	22396
854.331	4567
854.420	798
854.509	778
854.598	1334
854.687	986
854.777	35
854.866	-827
854.955	356
855.044	-517
855.133	-457
855.222	-428
855.311	-693
855.400	-114
855.488	-531
855.577	-1573
855.666	-1094
855.755	-847
855.844	-854
855.933	-1146
856.021	-891
856.110	-298
856.199	-627
856.288	-172
856.376	-81
856.465	-1433
856.554	439
856.642	-419
856.731	-313
856.819	-200
856.908	-268
856.996	-1101
857.085	-606
857.173	-1035
857.262	-230
857.350	-1144
857.438	-741
857.527	-579
857.615	-406
857.703	223
857.792	-679
857.880	-851
857.968	-594
858.056	-819
858.145	-1551
858.233	-702
858.321	-673
858.409	217
858.497	-517
858.585	-1265
858.673	-94
858.761	-1206
858.849	-1609
858.937	-1275
859.025	-88
859.113	126
859.201	-1067
859.289	129
859.377	378
859.465	122
859.552	-500
859.640	-1007
859.728	-224
859.816	-226
859.903	-1167
859.991	-553
860.079	-1020
860.166	-795
860.254	-736
860.342	-529
860.429	-75
860.517	-643
860.604	-1135
860.692	26
860.779	-286
860.867	-816
860.954	-320
861.042	202
861.129	452
861.216	428
861.304	-66
861.391	-914
861.478	-1141
861.565	-568
861.653	824
861.740	-993
861.827	-1490
861.914	-110
862.001	-706
862.089	-805
862.176	-407
862.263	-618
862.350	-526
862.437	84
862.524	-606
862.611	-594
862.698	-225
862.785	70
862.871	456
862.958	-1163
863.045	260
863.132	-203
863.219	228
863.306	-531
863.392	-7
863.479	293
863.566	176
863.652	81
863.739	-1318
863.826	471
863.912	-731
863.999	-582
864.086	-45
864.172	821
864.259	193
864.345	478
864.432	186
864.518	255
864.604	-125
864.691	-773
864.777	482
864.863	933
864.950	2532
865.036	3598
865.122	6527
865.209	7126
865.295	5020
865.381	4802
865.467	5149
865.553	5271
865.639	4999
865.726	6436
865.812	10388
865.898	17193
865.984	23448
866.070	41005
866.156	39503
866.242	13018
866.328	6021
866.414	4745
866.499	4571
866.585	3992
866.671	4793
866.757	4857
866.843	3477
866.928	4417
867.014	4058
867.100	4587
867.186	4002
867.271	3394
867.357	3749
867.442	3984
867.528	3589
867.614	4058
867.699	4027
867.785	3977
867.870	3680
867.956	2562
868.041	4348
868.127	3231
868.212	2778
868.297	3149
868.383	3803
868.468	4220
868.553	4706
868.639	2315
868.724	3935
868.809	3119
868.894	2603
868.979	3749
869.065	3725
869.150	2453
869.235	3256
869.320	3325
869.405	2677
869.490	2752
869.575	2589
869.660	1637
869.745	3340
869.830	3602
869.915	2325
870.000	2956
870.085	2760
870.169	3918
870.254	3690
870.339	1575
870.424	2689
870.509	3509
870.593	4071
870.678	3570
870.763	2700
870.847	2303
870.932	2954
871.016	3347
871.101	1925
871.186	3391
871.270	3882
871.355	2491
871.439	3008
871.523	3099
871.608	2394
871.692	2900
871.777	3246
871.861	3163
871.945	1506
872.030	3148
872.114	1950
872.198	2554
872.282	2147
872.367	1926
872.451	2518
872.535	2212
872.619	2291
872.703	1727
872.787	3032
872.871	2656
872.955	1676
873.039	1800
873.123	2789
873.207	3449
873.291	1451
873.375	1652
873.459	2405
873.543	2087
873.627	2247
873.711	1240
873.794	2660
873.878	2223
873.962	1781
874.045	1979
874.129	2149
874.137	2109
874.213	1712
874.245	1862
874.296	2109
874.352	1246
874.380	817
874.460	1883
874.464	1926
874.547	1845
874.568	1878
874.631	1979
874.676	2159
874.714	2289
874.784	2647
874.798	2724
874.881	2281
874.892	2079
874.965	718
874.999	1112
875.048	1615
875.107	1547
875.131	1512
875.215	1330
875.215	1330
875.298	1166
875.323	1320
875.381	1692
875.430	2309
875.465	2684
875.538	1909
875.548	1808
875.631	1734
875.646	1540
875.714	721
875.753	910
875.798	1087
875.861	1699
875.881	1876
875.964	1419
875.968	1434
876.047	1886
876.076	1966
876.130	1973
876.183	1930
876.213	1953
876.291	2034
876.296	2037
876.379	1909
876.398	1729
876.462	1013
876.506	1088
876.545	1261
876.613	1151
876.628	1136
876.711	1802
876.721	1884
876.794	2442
876.828	2298
876.877	2014
876.935	1662
876.960	1571
877.043	1284
877.043	1284
877.125	1520
877.150	1927
877.208	2684
877.258	2014
877.291	1559
877.365	1155
877.374	1120
877.456	770
877.472	801
877.539	1242
877.579	1930
877.622	2250
877.687	1364
877.704	1295
877.787	1645
877.794	1672
877.869	1564
877.901	1723
877.952	1932
878.008	1152
878.034	769
878.115	735
878.117	744
878.199	1144
878.222	1423
878.282	2054
878.329	2187
878.364	2198
878.437	1438
878.447	1304
878.529	915
878.544	890
878.611	1150
878.651	1298
878.694	1531
878.758	2127
878.776	2264
878.858	2357
878.865	2320
878.941	1624
878.972	1382
879.023	949
879.078	932
879.105	1138
879.185	2147
879.187	2165
879.269	2267
879.292	2160
879.351	1666
879.399	1248
879.433	1049
879.506	2213
879.516	2369
879.598	1371
879.613	1451
879.680	1649
879.720	1575
879.762	1634
879.827	1686
879.844	1613
879.926	1557
879.933	1522
880.007	1711
880.040	1720
880.089	1558
880.147	1938
880.171	2190
880.253	3499
880.254	3498
880.335	3167
880.360	3390
880.417	4497
880.467	5918
880.499	6602
880.574	5979
880.580	5809
880.662	2941
880.680	2366
880.744	1086
880.787	1113
880.825	1351
880.893	1632
880.907	1624
880.989	1579
881.000	1506
881.070	1622
881.106	2094
881.152	2407
881.213	1851
881.233	1589
881.315	1140
881.319	1143
881.396	1936
881.426	1903
881.478	1908
881.532	2353
881.559	2377
881.639	1793
881.641	1778
881.722	1340
881.745	1142
881.803	1533
881.852	2069
881.885	2009
881.958	1318
881.966	1283
882.047	1698
882.064	1663
882.129	1357
882.171	1267
882.210	1128
882.277	641
882.291	774
882.372	2322
882.383	2462
882.454	2492
882.489	2368
882.535	2388
882.596	2734
882.616	2854
882.697	2769
882.702	2782
882.778	2294
882.808	1700
882.859	1016
882.914	1104
882.940	1274
883.020	1881
883.021	1889
883.102	2040
883.127	2141
883.183	3008
883.233	3108
883.264	2343
883.339	1309
883.345	1313
883.426	1227
883.445	1186
883.507	1158
883.551	1328
883.587	1762
883.657	2395
883.668	2447
883.749	2771
883.763	2741
883.830	1886
883.869	1363
883.910	1227
883.975	1650
883.991	1778
884.072	1925
884.081	1938
884.152	2737
884.187	3187
884.233	3330
884.292	3245
884.314	2748
884.394	598
884.398	504
884.475	717
884.504	780
884.555	890
884.610	1377
884.636	1562
884.716	1715
884.716	1731
884.797	3690
884.821	4188
884.877	3322
884.927	2447
884.958	2160
885.033	1552
885.038	1510
885.118	1061
885.139	860
885.199	1053
885.244	1253
885.279	1714
885.350	2886
885.359	2918
885.439	2742
885.456	2657
885.520	2022
885.561	1881
885.600	1912
885.667	1693
885.680	1753
885.760	2226
885.773	2260
885.840	1692
885.878	1380
885.920	1222
885.984	1183
886.000	1388
886.080	2217
886.089	2299
886.160	2772
886.195	2925
886.240	2560
886.300	2172
886.320	2302
886.400	2729
886.406	2754
886.480	1513
886.511	979
886.560	1455
886.616	1930
886.640	1834
886.720	1502
886.722	1490
886.800	1735
886.827	1767
886.879	1889
886.932	2112
886.959	2554
887.038	3802
887.039	3800
887.119	2747
887.143	2357
887.198	2369
887.248	2510
887.278	2390
887.354	1999
887.358	2025
887.437	2436
887.459	2538
887.517	2619
887.564	2646
887.596	2394
887.669	1788
887.676	1724
887.755	1006
887.774	779
887.835	1231
887.880	1655
887.914	1775
887.985	1924
887.994	2036
888.073	3072
888.090	3267
888.153	3876
888.195	4186
888.232	3548
888.300	2451
888.311	2435
888.391	2228
888.405	2189
888.470	1891
888.510	1675
888.549	1929
888.615	2408
888.628	2481
888.708	2850
888.720	2878
888.787	2638
888.825	2513
888.866	2076
888.930	1465
888.945	1508
889.024	1653
889.035	1668
889.103	2191
889.140	2441
889.182	2465
889.245	2521
889.261	2517
889.340	2437
889.349	2418
889.419	2219
889.454	2136
889.498	1834
889.559	1359
889.577	1724
889.656	3340
889.664	3493
889.735	2843
889.768	2519
889.814	2598
889.873	2688
889.978	2014
890.083	2419
890.187	3571
890.292	2838
890.397	2716
890.501	2783
890.606	1593
890.710	2528
890.815	3103
890.919	2014
891.024	1871
891.128	1488
891.233	2478
891.337	3538
891.442	2778
891.546	2186
891.650	986
891.755	1433
891.859	3135
891.963	3632
892.068	2240
892.172	2159
892.276	1195
892.380	2215
892.484	2966
892.589	2417
892.693	1884
892.797	657
892.901	1024
893.005	1075
893.109	4045
893.213	2526
893.317	2126
893.421	1342
893.525	1847
893.629	1726
893.733	2739
893.837	1601
893.941	2235
894.045	2358
894.148	852
894.252	1893
894.356	2934
894.460	3763
894.564	1910
894.667	2230
894.771	818
894.875	429
894.978	1452
895.082	2138
895.186	2974
895.289	2118
895.393	2377
895.496	2163
895.600	1424
895.703	1032
895.807	2588
895.910	2285
896.014	2154
896.117	2179
896.221	2754
896.324	1662
896.427	1030
896.531	843
896.634	1573
896.737	1232
896.840	2512
896.944	2985
897.047	2712
897.150	1414
897.253	837
897.356	921
897.460	744
897.563	1861
897.666	2762
897.769	2644
897.872	421
897.975	784
898.078	2302
898.181	1458
898.284	1519
898.387	2608
898.490	2716
898.593	2161
898.695	196
898.798	1600
898.901	1454
899.004	1799
899.107	2018
899.209	2319
899.312	3155
899.415	2309
899.518	1423
899.620	1114
899.723	1151
899.826	1767
899.928	1244
900.031	1417
900.133	1559
900.236	1405
900.338	683
900.441	1656
900.543	2200
900.646	1407
900.748	1525
900.851	2387
900.953	1219
901.055	933
901.158	1658
901.260	842
901.362	951
901.465	1556
901.567	1441
901.669	2134
901.771	1643
901.873	1420
901.976	1247
902.078	1313
902.180	733
902.282	1353
902.384	1495
902.486	2944
902.588	1577
902.690	1036
902.792	1536
902.894	1441
902.996	2182
903.098	2172
903.200	337
903.302	873
903.404	1012
903.505	1416
903.607	1417
903.709	2747
903.811	2914
903.913	1874
904.014	1074
904.116	350
904.218	1262
904.319	1605
904.421	2898
904.523	1899
904.624	1447
904.726	1646
904.827	1269
904.929	844
905.030	697
905.132	3011
905.233	1603
905.335	595
905.436	699
905.537	1220
905.639	961
905.740	800
905.841	1745
905.943	1384
906.044	1397
906.145	1190
906.247	322
906.348	1751
906.449	1879
906.550	722
906.651	709
906.752	1852
906.854	929
906.955	175
907.056	523
907.157	2092
907.258	2036
907.359	593
907.460	910
907.561	5
907.662	893
907.762	1024
907.863	1985
907.964	1704
908.065	1928
908.166	966
908.267	1028
908.367	550
908.468	1019
908.569	1113
908.670	1078
908.770	1787
908.871	1507
908.971	1524
909.072	1252
909.173	955
909.273	1120
909.374	1316
909.474	1324
909.575	1241
909.675	1679
909.776	1412
909.876	1673
909.977	1673
910.077	1643
910.177	1212
910.278	493
910.378	708
910.478	435
910.579	1827
910.679	750
910.779	1980
910.879	1571
910.980	657
911.080	1375
911.180	-33
911.280	306
911.380	915
911.480	669
911.580	309
911.680	1980
911.780	1666
911.880	1588
911.980	165
912.080	1751
912.180	1541
912.280	1448
912.380	598
912.480	-139
912.580	384
912.679	1200
912.779	2149
912.879	965
912.979	1616
913.078	1657
913.178	988
913.278	332
913.377	277
913.477	828
913.577	1
913.676	2187
913.776	990
913.875	2022
913.975	852
914.074	744
914.174	1272
914.273	834
914.373	902
914.472	402
914.572	-200
914.671	883
914.770	743
914.870	721
914.969	1483
915.068	2338
915.167	1465
915.267	555
915.366	608
915.465	1227
915.564	829
915.663	795
915.763	1654
915.862	877
915.961	1555
916.060	286
916.159	668
916.258	339
916.357	1385
916.456	1895
916.555	1275
916.654	455
916.752	1273
916.851	2064
916.950	548
917.049	1554
917.148	977
917.247	1290
917.345	1157
917.444	961
917.543	1339
917.642	1731
917.740	1167
917.839	2470
917.937	3114
918.036	2017
918.135	1211
918.233	1763
918.332	890
918.430	1895
918.529	1132
918.627	1396
918.726	2071
918.824	361
918.923	1413
919.021	1178
919.119	1560
919.218	988
919.316	1580
919.414	1509
919.512	1528
919.611	2311
919.709	1192
919.807	1629
919.905	2151
920.003	2216
920.102	2106
920.200	1625
920.298	2502
920.396	2166
920.494	2548
920.592	1561
920.690	2470
920.788	1963
920.886	1297
920.984	2560
921.082	3090
921.180	2552
921.277	2694
921.375	3508
921.473	5031
921.571	4434
921.669	5225
921.766	4068
921.864	3972
921.962	4008
922.060	4289
922.157	3979
922.255	4470
922.352	4693
922.450	4921
922.548	5365
922.645	5408
922.743	7628
922.840	12609
922.938	15074
923.035	12797
923.133	12367
923.230	13760
923.327	16764
923.425	14485
923.522	15215
923.619	13882
923.717	12817
923.814	12044
923.911	12038
924.008	13347
924.106	11296
924.203	11072
924.300	12248
924.397	12083
924.494	11291
924.591	12063
924.688	10194
924.786	11366
924.883	12156
924.979	12697
925.077	11925
925.173	10544
925.270	11789
925.367	10981
925.464	11688
925.561	12269
925.658	12010
925.755	9039
925.852	12087
925.948	11274
926.045	10533
926.142	11225
926.239	12555
926.335	8841
926.432	11362
926.529	12522
926.625	12788
926.722	9746
926.818	10128
926.915	11042
927.011	10032
927.108	10074
927.204	10904
927.301	9587
927.397	10777
927.494	12657
927.590	8491
927.687	8365
927.783	12092
927.879	12138
927.976	10611
928.072	8557
928.168	11049
928.264	10583
928.361	9200
928.457	11347
928.553	9304
928.649	9360
928.745	10874
928.841	8921
928.937	9339
929.033	10619
929.129	9277
929.225	12185
929.321	8995
929.417	7180
929.513	10966
929.609	7992
929.705	8445
929.801	10709
929.897	8458
929.993	8396
930.089	9263
930.184	8236
930.280	10144
930.376	12141
930.471	7658
930.567	7319
930.663	8610
930.758	6731
930.854	7798
930.950	7744
931.045	7632
931.141	8092
931.236	10683
931.332	8991
931.427	6373
931.523	10522
931.618	9192
931.714	5752
931.809	8076
931.905	9480
932.000	6017
932.095	6432
932.191	9783
932.286	11169
932.381	7905
932.476	6179
932.572	7263
932.667	6808
932.762	6482
932.857	8170
932.952	9328
933.047	6829
933.142	5568
933.237	8415
933.332	8740
933.427	9442
933.522	7486
933.617	6722
933.712	6618
933.807	9012
933.902	9473
933.997	9653
934.092	6210
934.187	6551
934.282	7620
934.376	7985
934.471	7946
934.566	6917
934.661	6339
934.755	7836
934.850	8112
934.945	6774
935.039	5573
935.134	5528
935.228	6935
935.323	10482
935.417	5584
935.512	4233
935.606	5132
935.701	6815
935.795	7027
935.890	6257
935.984	5416
936.079	4428
936.173	6935
936.267	5725
936.362	4796
936.456	6666
936.550	8816
936.644	7254
936.738	4553
936.833	5253
936.927	4514
937.021	5754
937.115	6642
937.209	6471
937.303	5110
937.397	4338
937.491	4755
937.585	7151
937.679	7057
937.773	4856
937.867	3435
937.961	4060
938.055	7708
938.149	6278
938.243	3657
938.337	4092
938.430	4253
938.524	6962
938.618	4936
938.712	4211
938.805	5598
938.899	6644
938.993	7789
939.086	4796
939.180	2576
939.274	3856
939.367	6287
939.461	6429
939.554	4169
939.648	4126
939.741	4366
939.835	5860
939.928	8121
940.022	5660
940.115	4817
940.208	6004
940.302	7300
940.395	7507
940.488	4350
940.582	5280
940.675	3713
940.768	4165
940.861	7657
940.954	7071
941.048	3619
941.141	3207
941.234	3881
941.327	4686
941.420	5798
941.513	5566
941.606	5236
941.699	4276
941.792	5986
941.885	4802
941.978	5256
942.071	5011
942.164	2468
942.257	3158
942.349	4775
942.442	5361
942.535	3183
942.628	3315
942.721	4169
942.813	3264
942.906	5656
942.999	3711
943.091	3189
943.184	3953
943.277	4315
943.369	4244
943.462	1972
943.554	4606
943.647	4063
943.739	5367
943.832	5519
943.924	2653
944.017	3361
944.109	2750
944.201	4273
944.294	4193
944.386	4059
944.478	4468
944.571	2846
944.663	3031
944.755	3973
944.847	5062
944.940	4102
945.032	2209
945.124	2836
945.216	4616
945.308	4467
945.400	3826
945.492	3474
945.584	5438
945.676	5210
945.768	4292
945.860	5656
945.952	5629
946.044	4443
946.136	3078
946.228	3979
946.320	3815
946.412	3128
946.503	5140
946.595	4778
946.687	2651
946.779	2866
946.870	2257
946.962	3174
947.054	2819
947.145	4741
947.237	3683
947.329	3471
947.420	3781
947.512	2781
947.603	2436
947.695	2455
947.786	2537
947.878	3259
947.969	4108
948.061	4120
948.152	3675
948.243	2223
948.335	2501
948.426	2051
948.517	3452
948.609	3480
948.700	3416
948.791	3813
948.882	2556
948.973	2310
949.065	2990
949.156	2979
949.247	1814
949.338	3135
949.429	1761
949.520	2679
949.611	2064
949.702	4339
949.793	2217
949.884	3044
949.975	2702
950.066	1004
950.157	1769
950.247	2612
950.338	1994
950.429	2981
950.520	2042
950.611	2086
950.701	2612
950.792	4254
950.883	3453
950.973	2399
951.064	3626
951.155	3340
951.245	3983
951.336	2820
951.427	3571
951.517	4818
951.608	3152
951.698	1961
951.788	2353
951.879	1671
951.969	2064
952.060	2872
952.150	2992
952.240	4085
952.331	1721
952.421	3501
952.511	2025
952.602	2211
952.692	1424
952.782	1953
952.872	2586
952.962	3032
953.052	1533
953.143	1820
953.233	2387
953.323	2587
953.413	2832
953.503	3860
953.593	2719
953.683	2423
953.773	918
953.863	1752
953.953	1454
954.042	1814
954.132	3738
954.222	2956
954.312	2228
954.402	2398
954.492	2133
954.581	2719
954.671	2870
954.761	2537
954.850	3348
954.940	723
955.030	1367
955.119	1831
955.209	1320
955.298	2499
955.388	3453
955.477	4168
955.567	1797
955.656	2108
955.746	3021
955.835	1394
955.925	2378
956.014	2243
956.103	2837
956.193	3951
956.282	3097
956.371	2757
956.461	2988
956.550	1982
956.639	2289
956.728	1339
956.817	2678
956.906	2162
956.995	2403
957.085	1284
957.174	2722
957.263	1339
957.352	1763
957.441	2323
957.530	1743
957.619	2170
957.708	1982
957.796	1766
957.885	1685
957.974	1597
958.063	2642
958.152	528
958.241	1607
958.329	1185
958.418	1612
958.507	1480
958.596	2689
958.684	1588
958.773	2527
958.861	1066
958.950	1225
959.039	1851
959.127	1813
959.216	1509
959.304	1924
959.393	1660
959.481	2179
959.570	1346
959.658	990
959.746	992
959.835	1408
959.923	822
960.011	937
960.100	1606
960.188	2429
960.276	986
960.365	869
960.453	1076
960.541	533
960.629	1349
960.717	880
960.805	440
960.893	1688
960.981	1207
961.069	3020
961.158	2833
961.245	3858
961.333	2380
961.421	2209
961.509	2329
961.597	2765
961.685	1960
961.773	1417
961.861	1997
961.949	2640
962.036	353
962.124	1916
962.212	1400
962.299	1006
962.387	782
962.475	1384
962.562	993
962.650	2377
962.738	1250
962.825	906
962.913	820
963.000	589
963.088	2170
963.175	1642
963.263	1125
963.350	619
963.438	1048
963.525	1514
963.612	1684
963.700	1335
963.787	1551
963.874	489
963.962	1631
964.049	586
964.136	657
964.223	584
964.310	123
964.398	1367
964.485	984
964.572	1352
964.659	1815
964.746	428
964.833	1444
964.920	718
965.007	1181
965.094	347
965.181	625
965.268	1654
965.355	1121
965.441	2022
965.528	918
965.615	1982
965.702	1824
965.789	362
965.875	1849
965.962	2188
966.049	739
966.136	2354
966.222	1638
966.309	1373
966.395	1243
966.482	2694
966.569	2161
966.655	1799
966.742	1323
966.828	1680
966.915	1094
967.001	980
967.087	-50
967.174	560
967.260	1947
967.347	818
967.433	1319
967.519	904
967.605	1569
967.692	1405
967.778	1046
967.864	1289
967.950	1670
968.036	398
968.123	1707
968.209	1165
968.295	192
968.381	2327
968.467	1823
968.553	25
968.639	2182
968.725	254
968.811	1142
968.897	1970
968.983	1867
969.069	413
969.154	508
969.240	1371
969.326	-252
969.412	856
969.497	562
969.583	735
969.669	2161
969.755	1851
969.840	1894
969.926	2593
970.012	3301
970.097	4024
970.183	1653
970.268	1573
970.354	1061
970.439	780
970.525	2182
970.610	130
970.696	2450
970.781	729
970.866	256
970.952	1384
971.037	895
971.122	1685
971.208	1406
971.293	547
971.378	782
971.463	1696
971.549	510
971.634	1158
971.719	1382
971.804	1287
971.889	1159
971.974	645
972.059	1589
972.144	1075
972.229	1180
972.314	412
972.399	1848
972.484	-226
972.569	861
972.654	368
972.739	2453
972.824	537
972.908	807
972.993	456
973.078	625
973.163	559
973.247	982
973.332	-17
973.417	2260
973.501	513
973.586	1501
973.671	784
973.755	478
973.840	1094
973.924	2569
974.009	2529
974.093	2110
974.178	2722
974.262	1752
974.346	957
974.431	1602
974.515	1505
974.600	1490
974.684	1815
974.768	108
974.852	1312
974.937	1127
975.021	1633
975.105	995
975.189	1049
975.273	1344
975.358	282
975.442	591
975.526	1831
975.610	396
975.694	84
975.778	974
975.862	958
975.946	-689
976.030	2564
976.114	1080
976.198	834
976.281	1011
976.365	1238
976.449	1068
976.533	1134
976.617	260
976.700	473
976.784	803
976.868	440
976.951	876
977.035	427
977.119	988
977.202	1040
977.286	1955
977.369	1380
977.453	3585
977.536	2458
977.620	1868
977.703	2175
977.787	1216
977.870	2593
977.953	2549
978.037	312
978.120	1570
978.203	1085
978.287	1393
978.370	1090
978.453	433
978.536	1874
978.620	1714
978.703	1633
978.786	590
978.869	253
978.952	-55
979.035	2301
979.118	2079
979.201	579
979.284	1508
979.367	504
979.450	2037
979.533	813
979.616	1073
979.699	552
979.782	1705
979.865	1069
979.948	462
980.030	1469
980.113	1290
980.196	589
980.279	2173
980.361	580
980.444	971
980.526	2169
980.609	2981
980.692	3384
980.774	3561
980.857	2158
980.939	2879
981.022	2059
981.104	1232
981.187	1120
981.269	1569
981.352	1960
981.434	1494
981.516	1678
981.599	2663
981.681	1767
981.763	1671
981.846	1185
981.928	1578
982.010	1508
982.092	167
982.174	2599
982.256	1673
982.339	1789
982.421	1576
982.503	2104
982.585	613
982.667	1544
982.749	1730
982.831	1547
982.913	403
982.995	2982
983.077	1429
983.158	2689
983.240	775
983.322	3388
983.404	4512
983.486	3448
983.568	3098
983.649	1829
983.731	3344
983.813	1828
983.894	3119
983.976	2160
984.058	1628
984.139	3173
984.221	1404
984.302	3246
984.384	1737
984.465	1659
984.547	2179
984.628	1217
984.710	3246
984.791	2285
984.872	2069
984.954	1895
985.035	2662
985.116	1714
985.198	1678
985.279	3526
985.360	2269
985.441	1780
985.522	2463
985.604	3213
985.685	1233
985.766	3353
985.847	2785
985.928	2017
986.009	1543
986.090	2323
986.171	3011
986.252	2008
986.333	2590
986.414	2259
986.495	2794
986.576	3645
986.656	3691
986.737	2750
986.818	2436
986.899	2442
986.980	2622
987.060	3435
987.141	2108
987.222	3067
987.302	4676
987.383	4829
987.464	3310
987.544	4221
987.625	3371
987.705	3825
987.786	4349
987.866	3443
987.947	3113
988.027	3914
988.108	3492
988.188	3571
988.268	2389
988.349	4010
988.429	2793
988.509	3917
988.589	3852
988.670	2188
988.750	3661
988.830	2764
988.910	3953
988.990	2706
989.070	3444
989.151	3458
989.231	2442
989.311	3444
989.391	2693
989.471	3440
989.551	3097
989.631	2991
989.711	3061
989.791	2438
989.870	1798
989.950	3351
990.030	2794
990.110	2931
990.190	2383
990.269	1981
990.349	2527
990.429	3734
990.509	2539
990.588	1485
990.668	2660
990.747	2358
990.827	2159
990.907	3646
990.986	3359
991.066	3031
991.145	1608
991.225	2743
991.304	2598
991.383	3963
991.463	2218
991.542	2840
991.622	2054
991.701	2107
991.780	2069
991.859	1836
991.939	2129
992.018	2530
992.097	2089
992.176	2456
992.256	1371
992.335	2205
992.414	2599
992.493	1688
992.572	1883
992.651	2917
992.730	2378
992.809	2141
992.888	1407
992.967	1887
993.046	2266
993.125	982
993.203	2080
993.282	2673
993.361	1852
993.440	1934
993.519	1080
993.597	1697
993.676	1825
993.755	2954
993.834	1934
993.912	580
993.991	1606
994.069	1043
994.148	2318
994.226	1962
994.305	799
994.384	1639
994.462	3937
994.540	1161
994.619	1025
994.697	1334
994.776	1450
994.854	1842
994.932	1132
995.011	1606
995.089	1133
995.167	1169
995.245	2078
995.324	902
995.402	952
995.480	1027
995.558	1384
995.636	-2
995.714	1281
995.792	2598
995.870	71
995.948	235
996.026	659
996.104	514
996.182	1960
996.260	1111
996.338	1645
996.416	470
996.494	1182
996.572	2194
996.649	1289
996.727	9
996.805	1082
996.883	770
996.960	995
997.038	982
997.116	1820
997.193	332
997.271	1343
997.348	-275
997.426	1819
997.504	769
997.581	1942
997.658	1463
997.736	344
997.813	-544
997.891	1696
997.968	1005
998.046	860
998.123	1337
998.200	954
998.277	502
998.355	1352
998.432	-242
998.509	233
998.586	580
998.663	1209
998.741	795
998.818	393
998.895	-72
998.972	834
999.049	2134
999.126	-88
999.203	945
999.280	1268
999.357	79
999.434	488
999.511	1225
999.587	400
999.664	-1162
999.741	439
999.818	956
999.895	-14
999.971	623
1000.048	832
1000.125	1495
1000.202	-316
1000.278	561
1000.355	1266
1000.431	323
1000.508	-30
1000.584	700
1000.661	1112
1000.738	-688
1000.814	845
1000.890	1026
1000.967	563
1001.043	986
1001.120	-916
1001.196	564
1001.272	-424
1001.349	-137
1001.425	207
1001.501	75
1001.577	-193
1001.654	1039
1001.730	97
1001.806	400
1001.882	-304
1001.958	1084
1002.034	772
1002.110	216
1002.186	-500
1002.262	99
1002.338	-528
1002.414	633
1002.490	842
1002.566	-509
1002.642	-66
1002.718	792
1002.794	303
1002.870	120
1002.945	171
1003.021	806
1003.097	488
1003.173	356
1003.248	239
1003.324	657
1003.400	-21
1003.475	-896
1003.551	-308
1003.626	-104
1003.702	-785
1003.777	527
1003.853	-175
1003.928	-76
1004.004	-757
1004.079	690
1004.155	486
1004.230	-496
1004.305	1354
1004.381	-643
1004.456	-565
1004.531	-207
1004.607	-4
1004.682	326
1004.757	-463
1004.832	-782
1004.907	-650
1004.982	12
1005.057	584
1005.133	-848
1005.208	548
1005.283	-816
1005.358	-106
1005.433	-374
1005.508	474
1005.583	-842
1005.657	-101
1005.732	996
1005.807	89
1005.882	-8
1005.957	-449
1006.032	-16
1006.106	-462
1006.181	-282
1006.256	578
1006.331	150
1006.405	-547
1006.480	561
1006.554	-101
1006.629	-980
1006.704	-309
1006.778	231
1006.853	-265
1006.927	231
1007.002	-625
1007.076	-765
1007.150	-363
1007.225	25
1007.299	112
1007.373	-845
1007.448	-198
1007.522	52
1007.596	-790
1007.671	-906
1007.745	177
1007.819	-966
1007.893	-663
1007.967	109
1008.041	-940
1008.115	-448
1008.190	-1252
1008.264	94
1008.338	-709
1008.412	-333
1008.486	-1368
1008.560	-1101
1008.633	99
1008.707	-1209
1008.781	-389
1008.855	-499
1008.929	-472
1009.003	-833
1009.076	-662
1009.150	-1039
1009.224	-26
1009.298	-149
1009.371	-1000
1009.445	-809
1009.519	-530
1009.592	-1481
1009.666	-847
1009.739	-594
1009.813	-1126
1009.886	87
1009.960	-1342
1010.033	554
1010.107	-133
1010.180	-1533
1010.253	-1327
1010.327	-1622
1010.400	-373
1010.473	-1317
1010.547	566
1010.620	-1085
1010.693	-478
1010.766	-1028
1010.840	-1188
1010.913	-576
1010.986	-1736
1011.059	-418
1011.132	-434
1011.205	60
1011.278	-1263
1011.351	-815
1011.424	-266
1011.497	-441
1011.570	-917
1011.643	-1497
1011.716	-1575
1011.789	-282
1011.862	-274
1011.934	82
1012.007	-1629
1012.080	117
1012.153	-387
1012.225	-89
1012.298	-1832
1012.371	-1209
1012.443	-192
1012.516	-1165
1012.588	-829
1012.661	-513
1012.733	-1567
1012.806	-465
1012.879	-1494
1012.951	-690
1013.023	-761
1013.096	59
1013.168	-175
1013.241	388
1013.313	-793
1013.385	-1004
1013.458	-912
1013.530	-132
1013.602	-1602
1013.674	-1002
1013.746	-1254
1013.819	-1795
1013.891	-788
1013.963	-1783
1014.035	-502
1014.107	-862
1014.179	-297
1014.251	-2024
1014.323	-797
1014.395	-1269
1014.467	-308
1014.539	-658
1014.611	-1611
1014.683	-930
1014.754	-524
1014.826	-878
1014.898	-1195
1014.970	-1346
1015.042	-113
1015.113	-712
1015.185	-923
1015.257	-1375
1015.328	-663
1015.400	-1806
1015.471	-849
1015.543	-1210
1015.615	-1300
1015.686	-1799
1015.757	-413
1015.829	-309
1015.901	-1368
1015.972	-613
1016.043	-1351
1016.115	-1924
1016.186	-431
1016.257	-1223
1016.328	-557
1016.400	-84
1016.471	-1760
1016.542	-1795
1016.613	-1688
1016.685	-1424
1016.756	-1242
1016.827	-1159
1016.898	-1386
1016.969	-442
1017.040	-1609
1017.111	-1996
1017.182	-1833
1017.253	-1575
1017.324	-1774
1017.395	-1596
1017.466	-510
1017.537	-1813
1017.608	-697
1017.678	-1241
1017.749	-1175
1017.820	-1279
1017.891	-1466
1017.961	-1382
1018.032	-2116
1018.103	-1647
1018.173	-1409
1018.244	-877
1018.315	-1552
1018.385	-922
1018.456	-1587
1018.526	-2195
1018.597	-1979
1018.667	-673
1018.738	-1484
1018.808	-1351
1018.878	-1213
1018.949	-508
1019.019	-2148
1019.089	-1326
1019.160	-764
1019.230	-1268
1019.300	-1289
1019.371	-1597
1019.441	-996
1019.511	-1192
1019.581	-1460
1019.651	-1410
1019.721	-1082
1019.791	-1348
1019.861	-1304
1019.931	-2074
1020.001	-1333
1020.071	-1074
1020.141	-1210
1020.211	-1533
1020.281	-1690
1020.351	-1541
1020.421	-641
1020.491	-867
1020.560	-1922
1020.630	-800
1020.700	-1127
1020.770	-827
1020.839	-994
1020.909	-1384
1020.979	-1861
1021.048	-1444
1021.118	-1448
1021.187	-1211
1021.257	-1113
1021.326	-699
1021.396	-1761
1021.465	-1841
1021.535	-1432
1021.604	-2073
1021.674	-1903
1021.743	-1095
1021.812	-1291
1021.882	-1078
1021.951	-1013
1022.020	-1536
1022.089	-716
1022.159	-980
1022.228	-1335
1022.297	-1924
1022.366	-2185
1022.435	-1940
1022.504	-2079
1022.573	-1709
1022.642	-1295
1022.711	-1265
1022.781	-542
1022.849	-1324
1022.918	-2011
1022.987	-1189
1023.056	-1352
1023.125	-1839
1023.194	-1295
1023.263	-686
1023.331	-1495
1023.400	-1520
1023.469	-1945
1023.538	-642
1023.606	-1623
1023.675	-1468
1023.744	-1390
1023.812	-1481
1023.881	-1794
1023.949	-1476
1024.018	-1794
1024.086	-1393
1024.155	-1062
1024.223	-1765
1024.292	-898
1024.360	-1038
1024.429	-1375
1024.497	-2398
1024.565	-1183
1024.634	-1067
1024.702	-1697
1024.770	-1175
1024.838	-1483
1024.907	-1920
1024.975	-1196
1025.043	-1188
1025.111	-1234
1025.179	-974
1025.247	-2063
1025.315	-1217
1025.383	-1609
1025.451	-1449
1025.519	-1752
1025.587	-1760
1025.655	-855
1025.723	-2010
1025.791	-1844
1025.859	-1289
1025.927	-265
1025.995	-2177
1026.062	-1618
1026.130	-1373
1026.198	-1892
1026.266	-1199
1026.333	-979
1026.401	-1550
1026.469	-1284
1026.536	-1452
1026.604	-2341
1026.671	-1561
1026.739	-1444
1026.806	-1418
1026.874	-1868
1026.941	-1799
1027.009	-1712
1027.076	-1990
1027.144	-1143
1027.211	-2125
1027.278	-1439
1027.345	-1595
1027.413	-1378
1027.480	-1424
1027.547	-1358
1027.614	-1719
1027.682	-1444
1027.749	-2144
1027.816	-1501
1027.883	-1397
1027.950	-1262
1028.017	-2088
1028.084	-1044
1028.151	-1768
1028.218	-1663
1028.285	-1838
1028.352	-1534
1028.419	-2122
1028.486	-1491
1028.553	-951
1028.619	-1513
1028.686	-1552
1028.753	-2042
1028.820	-1659
1028.886	-2150
1028.953	-1182
1029.020	-2646
1029.086	-1812
1029.153	-2973
1029.220	-2207
1029.286	-1737
1029.353	-1656
1029.419	-2249
1029.486	-1688
1029.552	-1798
1029.619	-2711
1029.685	-2082
1029.751	-1367
1029.818	-471
1029.884	-2242
1029.951	-540
1030.017	-1742
1030.083	-1398
1030.149	-1206
1030.216	-1494
1030.282	-1865
1030.348	-1683
1030.414	-2223
1030.480	-1830
1030.546	-1749
1030.612	-940
1030.678	-2214
1030.744	-1852
1030.810	-1860
1030.876	-759
1030.942	-2032
1031.008	-1987
1031.074	-1977
1031.140	-1955
1031.206	-1124
1031.272	-1685
1031.337	-1741
1031.403	-1498
1031.469	-1456
1031.534	-2295
1031.600	-1437
1031.666	-2629
1031.731	-2198
1031.797	-1532
1031.863	-1342
1031.928	-1924
1031.994	-1533
1032.059	-2342
1032.125	-2015
1032.190	-1964
1032.256	-1529
1032.321	-2334
1032.386	-1887
1032.452	-1570
1032.517	-1079
1032.582	-1846
1032.647	-2138
1032.713	-1309
1032.778	-979
1032.843	-1597
1032.908	-1706
1032.974	-2071
1033.039	-2158
1033.104	-1030
1033.169	-2128
1033.234	-1120
1033.299	-1394
1033.364	-1819
1033.429	-1864
1033.494	-2041
1033.559	-1206
1033.624	-1652
1033.688	-1044
1033.753	-1914
1033.818	-1176
1033.883	-1088
1033.948	-1578
1034.013	-1590
1034.077	-1019
1034.142	-1495
1034.207	-648
1034.271	702
1034.336	1290
1034.400	209
1034.465	-808
1034.530	-2071
1034.594	-2174
1034.658	-2089
1034.723	-2509
1034.787	-916
1034.852	-703
1034.916	-2058
1034.981	-1648
1035.045	-1277
1035.109	-2152
1035.173	-1753
1035.238	-1845
1035.302	-1245
1035.366	-2159
1035.430	-1529
1035.495	-2284
1035.559	-1704
1035.623	-1903
1035.687	-1896
1035.751	-2158
1035.815	-1558
1035.879	-2033
1035.943	-1442
1036.007	-2378
1036.071	-1520
1036.135	-1461
1036.198	-1369
1036.262	-1629
1036.326	-1776
1036.390	-1329
1036.454	-1233
1036.517	-1195
1036.581	-2262
1036.645	-1721
1036.709	-1776
1036.772	-1707
1036.836	-1875
1036.900	-1852
1036.963	-1276
1037.026	-2221
1037.090	-2437
1037.154	-1577
1037.217	-1126
1037.280	-2078
1037.344	-2239
1037.407	-1049
1037.471	-2192
1037.534	-1758
1037.597	-1684
1037.661	-1980
1037.724	-1876
1037.787	-2655
1037.850	-1195
1037.913	-1110
1037.977	-2188
1038.040	-2195
1038.103	-2218
1038.166	-1814
1038.229	-1911
1038.292	-2407
1038.355	-2534
1038.418	-2561
1038.481	-1704
1038.544	-2356
1038.607	-2270
1038.670	-1256
1038.732	-2079
1038.795	-2332
1038.858	-1943
1038.921	-1884
1038.984	-1584
1039.046	-2303
1039.109	-1143
1039.172	-1680
1039.234	-1152
1039.297	-2039
1039.360	-2044
1039.422	-1883
1039.485	-1887
1039.547	-2217
1039.610	-1851
1039.672	-1678
1039.734	-1593
1039.797	-2163
1039.859	-2012
1039.922	-1831
1039.984	-1794
1040.046	-2533
1040.109	-2250
1040.171	-1569
1040.233	-1996
1040.295	-2478
1040.358	-1279
1040.420	-2523
1040.482	-2164
1040.544	-1713
1040.606	-1876
1040.668	-2067
1040.730	-1773
1040.792	-1452
1040.854	-2111
1040.916	-2932
1040.978	-2195
1041.040	-1028
1041.102	-1823
1041.164	-1647
1041.225	-2477
1041.287	-1807
1041.349	-1066
1041.411	-1730
1041.472	-2442
1041.534	-1368
1041.596	-2594
1041.657	-1529
1041.719	-1323
1041.781	-1596
1041.842	-2349
1041.904	-2535
1041.965	-2250
1042.027	-2498
1042.088	-2413
1042.150	-1829
1042.211	-2421
1042.272	-1494
1042.334	-1894
1042.395	-1046
1042.456	-1954
1042.518	-2025
1042.579	-1594
1042.640	-1889
1042.701	-1414
1042.763	-1892
1042.824	-2648
1042.885	-1769
1042.946	-1817
1043.007	-1764
1043.068	-1684
1043.129	-2087
1043.190	-1683
1043.251	-2333
1043.312	-2039
1043.373	-1736
1043.434	-1701
1043.495	-1990
1043.556	-2024
1043.616	-2104
1043.677	-2450
1043.738	-1222
1043.799	-1425
1043.859	-1826
1043.920	-1465
1043.981	-1540
1044.041	-2116
1044.102	-1767
1044.162	-1584
1044.223	-2592
1044.284	-1852
1044.344	-1503
1044.405	-2460
1044.465	-1869
1044.525	-1814
1044.586	-1958
1044.646	-2357
1044.707	-1466
1044.767	-2479
1044.827	-1646
1044.887	-1873
1044.948	-1544
1045.008	-761
1045.068	-1223
1045.128	-1034
1045.188	-2255
1045.249	-1198
1045.309	-2124
1045.369	-1827
1045.429	-2487
1045.489	-2247
1045.549	-1523
1045.609	-1442
1045.669	-1926
1045.729	-1801
1045.789	-1168
1045.848	-1830
1045.908	-1405
1045.968	-1979
1046.028	-961
1046.088	-1498
1046.147	-1546
1046.207	-1400
1046.267	-1466
1046.326	-1844
1046.386	-1773
1046.446	-1125
1046.505	-827
1046.565	-1274
1046.624	-749
1046.684	-1147
1046.743	-96
1046.803	-512
1046.862	629
1046.922	0
