'Start Wavelength	183.907
'End Wavelength	1046.922
'Gate Delay	5.000
'Gate Width (ms)	1.050
'Laser Output Level	0.000
'X Position	0.000
'Y Position	0.000
'Z Position	0.000
'Grid Point Number	1.000
'Shot Number	100.000
183.907	258.000
183.977	326.000
184.047	291
184.116	425
184.186	336
184.256	259
184.325	503
184.395	-963
184.465	892
184.534	-1
184.604	42
184.674	298
184.743	617
184.813	-410
184.883	485
184.952	-73
185.022	79
185.092	12
185.161	119
185.231	-95
185.301	-21
185.370	294
185.440	3
185.509	-716
185.579	874
185.649	138
185.718	448
185.788	81
185.857	418
185.927	-678
185.996	915
186.066	205
186.136	321
186.205	-107
186.275	-6
186.344	209
186.414	459
186.483	-967
186.553	1261
186.622	806
186.692	504
186.761	77
186.831	557
186.900	-464
186.970	228
187.039	-440
187.109	366
187.178	520
187.248	408
187.317	-874
187.387	-140
187.456	369
187.526	-34
187.595	644
187.664	285
187.734	91
187.803	917
187.873	-259
187.942	218
188.012	-400
188.081	308
188.150	654
188.220	-109
188.289	-367
188.358	279
188.428	173
188.497	-143
188.567	254
188.636	476
188.705	259
188.775	254
188.844	-1265
188.913	1478
188.983	-350
189.052	374
189.121	-587
189.191	530
189.260	-444
189.329	169
189.399	-629
189.468	-27
189.537	250
189.606	645
189.676	511
189.745	1309
189.814	676
189.883	253
189.953	-367
190.022	-200
190.091	-678
190.161	123
190.230	455
190.299	614
190.368	70
190.437	165
190.507	419
190.576	559
190.645	-192
190.714	-112
190.783	-265
190.853	868
190.922	136
190.991	179
191.060	-666
191.129	-358
191.198	343
191.268	-327
191.337	-102
191.406	1612
191.475	177
191.544	140
191.613	452
191.682	306
191.752	500
191.821	630
191.890	488
191.959	-106
192.028	14
192.097	259
192.166	124
192.235	307
192.304	553
192.373	448
192.442	-639
192.511	626
192.580	-349
192.650	584
192.719	205
192.788	749
192.857	-885
192.926	517
192.995	-233
193.064	626
193.133	-123
193.202	373
193.271	351
193.340	858
193.409	-95
193.478	228
193.547	-13
193.615	-135
193.684	-453
193.753	-279
193.822	507
193.891	74
193.960	-13
194.029	-215
194.098	206
194.167	-113
194.236	-136
194.305	118
194.374	340
194.443	172
194.512	25
194.580	627
194.649	-25
194.718	190
194.787	-310
194.856	287
194.925	457
194.994	897
195.062	-282
195.131	-258
195.200	-232
195.269	-126
195.338	243
195.407	117
195.475	227
195.544	1430
195.613	-719
195.682	832
195.751	-78
195.819	288
195.888	-318
195.957	968
196.026	12
196.094	807
196.163	-394
196.232	-133
196.301	-484
196.369	-10
196.438	92
196.507	215
196.576	-750
196.644	-17
196.713	-86
196.782	662
196.850	146
196.919	371
196.988	-628
197.056	-437
197.125	-53
197.194	177
197.262	-253
197.331	253
197.400	-217
197.468	346
197.537	-599
197.606	919
197.674	121
197.743	475
197.812	88
197.880	468
197.949	-642
198.017	425
198.086	267
198.155	61
198.223	-708
198.292	216
198.360	-54
198.429	-483
198.497	-107
198.566	-231
198.635	147
198.703	589
198.772	275
198.840	-210
198.909	-497
198.977	265
199.046	3
199.114	606
199.183	-586
199.251	104
199.320	-124
199.388	-97
199.457	-40
199.525	311
199.594	-136
199.662	257
199.731	116
199.799	407
199.867	-154
199.936	-205
200.004	268
200.073	1075
200.141	-1003
200.210	136
200.278	-1371
200.346	347
200.415	309
200.483	206
200.552	202
200.620	581
200.688	204
200.757	815
200.825	-859
200.893	475
200.962	-373
201.030	-277
201.098	-484
201.167	855
201.235	-538
201.303	773
201.372	258
201.440	85
201.508	534
201.577	277
201.645	343
201.713	142
201.781	-629
201.850	1296
201.918	106
201.986	147
202.055	-304
202.123	346
202.191	57
202.259	481
202.327	-589
202.396	-273
202.464	-101
202.532	1518
202.600	792
202.669	862
202.737	16
202.805	-687
202.873	810
202.941	241
203.009	-190
203.078	449
203.146	207
203.214	70
203.282	-569
203.350	-763
203.418	-77
203.487	438
203.555	-49
203.623	372
203.691	417
203.759	305
203.827	-140
203.895	-686
203.963	45
204.031	351
204.099	-340
204.168	115
204.236	111
204.304	133
204.372	85
204.440	211
204.508	-566
204.576	119
204.644	-95
204.712	-502
204.780	91
204.848	-44
204.916	-52
204.984	-71
205.052	135
205.120	949
205.188	-544
205.256	70
205.324	-743
205.392	291
205.460	-215
205.528	-575
205.596	173
205.664	486
205.732	-457
205.799	317
205.867	129
205.935	-12
206.003	658
206.071	-212
206.139	-673
206.207	-32
206.275	-171
206.343	-601
206.411	69
206.478	378
206.546	-266
206.614	-309
206.682	-612
206.750	-519
206.818	265
206.885	1257
206.953	-764
207.021	778
207.089	-283
207.157	-793
207.225	-615
207.292	116
207.360	-106
207.428	625
207.496	-772
207.563	-109
207.631	-398
207.699	-1082
207.767	-800
207.834	424
207.902	-772
207.970	-371
208.038	-282
208.105	-270
208.173	-389
208.241	333
208.309	123
208.376	9
208.444	844
208.512	85
208.579	-841
208.647	725
208.715	1252
208.782	-495
208.850	-110
208.918	-448
208.985	-249
209.053	-307
209.120	440
209.188	-260
209.256	-480
209.323	-886
209.391	-1107
209.459	849
209.526	-615
209.594	-166
209.661	-1213
209.729	627
209.796	-422
209.864	-218
209.932	-1090
209.999	2104
210.067	405
210.134	227
210.202	-96
210.269	790
210.337	10
210.404	-272
210.472	-399
210.539	265
210.607	-845
210.674	-617
210.742	-360
210.809	-322
210.877	-430
210.944	97
211.012	-1750
211.079	1601
211.146	-137
211.214	72
211.281	11
211.349	-5
211.416	-122
211.484	-44
211.551	-4
211.618	205
211.686	-67
211.753	-407
211.821	-110
211.888	-482
211.955	156
212.023	405
212.090	-90
212.157	106
212.225	-1254
212.292	179
212.359	-454
212.427	691
212.494	-7
212.561	197
212.629	-707
212.696	-76
212.763	99
212.831	-834
212.898	249
212.965	183
213.032	-268
213.100	599
213.167	-1044
213.234	969
213.301	148
213.369	893
213.436	126
213.503	-627
213.570	-707
213.638	-400
213.705	-1438
213.772	-1155
213.839	-1331
213.906	721
213.973	-359
214.041	-223
214.108	-79
214.175	-195
214.242	-915
214.309	-29
214.376	364
214.444	-832
214.511	-849
214.578	-436
214.645	-466
214.712	-201
214.779	-466
214.846	-599
214.913	190
214.980	995
215.048	259
215.115	778
215.182	-164
215.249	342
215.316	-1170
215.383	1239
215.450	-375
215.517	478
215.584	-159
215.651	-178
215.718	103
215.785	136
215.852	-936
215.919	365
215.986	-695
216.053	22
216.120	-1171
216.187	-236
216.254	-583
216.321	113
216.388	-1206
216.455	-175
216.522	-639
216.589	-220
216.656	-544
216.722	-287
216.789	-345
216.856	43
216.923	-514
216.990	104
217.057	-1165
217.124	-79
217.191	-808
217.258	729
217.324	-1141
217.391	166
217.458	-168
217.525	-20
217.592	-731
217.659	-1557
217.725	80
217.792	-1050
217.859	401
217.926	-114
217.993	-717
218.059	434
218.126	-664
218.193	-328
218.260	-522
218.327	-291
218.393	-1018
218.460	49
218.527	-541
218.594	-17
218.660	-903
218.727	276
218.794	-1017
218.860	-134
218.927	-606
218.994	265
219.061	-538
219.127	-165
219.194	101
219.261	47
219.327	-741
219.394	100
219.461	-1534
219.527	29
219.594	-623
219.661	-119
219.727	-1371
219.794	497
219.860	-843
219.927	563
219.994	1429
220.060	951
220.127	1999
220.193	705
220.260	49
220.326	373
220.393	-69
220.460	-2
220.526	-183
220.593	-883
220.659	1071
220.726	-61
220.792	-209
220.859	-861
220.925	-692
220.992	382
221.058	-374
221.125	561
221.191	-503
221.258	-262
221.324	-27
221.391	6
221.457	-249
221.524	-208
221.590	-577
221.657	404
221.723	-927
221.789	-68
221.856	195
221.922	-889
221.989	85
222.055	-100
222.121	-1146
222.188	1186
222.254	233
222.321	248
222.387	-1240
222.453	29
222.520	-76
222.586	-601
222.652	0
222.719	-440
222.785	263
222.851	-1025
222.918	-382
222.984	-125
223.050	-2008
223.116	-1005
223.183	624
223.249	-327
223.315	-596
223.382	176
223.448	-574
223.514	-1035
223.580	-170
223.647	-521
223.713	-1258
223.779	406
223.845	-1045
223.911	-46
223.978	-1875
224.044	515
224.110	-150
224.176	374
224.242	29
224.309	-321
224.375	-361
224.441	162
224.507	-756
224.573	-1455
224.639	150
224.705	-371
224.772	-488
224.838	-760
224.904	-440
224.970	-371
225.036	-599
225.102	-1025
225.168	250
225.234	374
225.300	-875
225.366	622
225.432	-132
225.499	-84
225.565	135
225.631	-397
225.697	-931
225.763	47
225.829	-906
225.895	21
225.961	-170
226.027	-86
226.093	-985
226.159	249
226.225	-318
226.291	16
226.357	-280
226.423	-247
226.489	-290
226.554	-539
226.620	-420
226.686	-263
226.752	-319
226.818	-332
226.884	655
226.950	1101
227.016	-714
227.082	503
227.148	-738
227.214	-10
227.279	-894
227.345	-656
227.411	-250
227.477	1474
227.543	3689
227.609	3027
227.674	1849
227.740	567
227.806	-662
227.872	295
227.938	355
228.003	305
228.069	-880
228.135	99
228.201	-117
228.267	-782
228.332	-45
228.398	-902
228.464	389
228.530	-316
228.595	-878
228.661	-904
228.727	-650
228.792	1234
228.858	-1141
228.924	-1864
228.990	590
229.055	-1215
229.121	138
229.187	-518
229.252	-834
229.318	-44
229.384	-147
229.449	-213
229.515	-2484
229.581	-1306
229.646	1085
229.712	182
229.777	-1269
229.843	191
229.909	-794
229.974	-87
230.040	-525
230.105	175
230.171	-1697
230.236	124
230.302	-238
230.368	-572
230.433	-991
230.499	448
230.564	233
230.630	-1118
230.695	184
230.761	64
230.826	-2058
230.892	-235
230.957	-1455
231.023	-483
231.088	-155
231.154	-68
231.219	-8
231.284	-874
231.350	-413
231.415	-902
231.481	-191
231.546	187
231.612	445
231.677	-531
231.742	-660
231.808	1097
231.873	-948
231.939	-1600
232.004	-16
232.069	421
232.135	-635
232.200	-357
232.265	295
232.331	-209
232.396	-756
232.461	75
232.527	-631
232.592	-1353
232.657	-1138
232.723	-797
232.788	-858
232.853	390
232.918	-336
232.984	-354
233.049	-948
233.114	-1214
233.179	-48
233.245	484
233.310	-290
233.375	-664
233.440	486
233.506	-685
233.571	-606
233.636	37
233.701	-739
233.766	-210
233.832	-802
233.897	222
233.962	-1761
234.027	911
234.092	100
234.157	-726
234.222	-1358
234.288	120
234.353	-522
234.418	690
234.483	233
234.548	132
234.613	-1687
234.678	-380
234.743	-1033
234.808	726
234.873	-1279
234.938	843
235.004	-1181
235.069	-467
235.134	-1655
235.199	-488
235.264	54
235.329	-1735
235.394	174
235.459	591
235.524	-1799
235.589	381
235.654	-700
235.719	-1148
235.784	301
235.849	-848
235.913	-1604
235.978	90
236.043	-664
236.108	-185
236.173	-1328
236.238	345
236.303	-1268
236.368	-542
236.433	-536
236.498	-1362
236.563	-711
236.627	-467
236.692	1132
236.757	982
236.822	-621
236.887	-959
236.952	239
237.017	-2489
237.081	-72
237.146	-1585
237.211	485
237.276	494
237.341	2855
237.405	653
237.470	-589
237.535	-7
237.600	-1023
237.664	567
237.729	-1430
237.794	-1398
237.859	384
237.923	-154
237.988	-418
238.053	545
238.118	-553
238.182	-427
238.247	367
238.312	-1191
238.376	-174
238.441	-1600
238.506	664
238.570	-970
238.635	1079
238.700	574
238.764	-411
238.829	216
238.893	-982
238.958	106
239.023	-1339
239.087	-228
239.152	502
239.216	-477
239.281	-114
239.346	-196
239.410	-419
239.475	-65
239.539	188
239.604	-1697
239.668	819
239.733	452
239.797	2420
239.862	6607
239.926	4510
239.991	1610
240.055	42
240.120	-124
240.184	590
240.249	-1267
240.313	-13
240.378	133
240.442	-944
240.507	212
240.571	-331
240.635	-964
240.700	-905
240.764	46
240.829	-901
240.893	-1103
240.957	567
241.022	-264
241.086	343
241.151	-1252
241.215	-1480
241.279	204
241.344	-1405
241.408	-8
241.472	-1628
241.537	470
241.601	-679
241.665	-1559
241.730	-606
241.794	89
241.858	-1360
241.922	-295
241.987	-481
242.051	-478
242.115	-1206
242.179	415
242.244	-1420
242.308	798
242.372	-982
242.436	-121
242.501	-825
242.565	-645
242.629	-201
242.693	-29
242.757	-1090
242.822	-710
242.886	-521
242.950	655
243.014	-1496
243.078	141
243.142	-1113
243.206	-428
243.271	108
243.335	-491
243.399	-285
243.463	236
243.527	456
243.591	-514
243.655	-141
243.719	-1182
243.783	406
243.847	207
243.911	-6
243.975	-995
244.040	-1543
244.104	1306
244.168	106
244.232	-421
244.296	-1003
244.360	-543
244.424	-1243
244.488	38
244.552	-743
244.615	-862
244.679	362
244.743	-982
244.807	-2018
244.871	372
244.935	10
244.999	-1527
245.063	-1120
245.127	598
245.191	-633
245.255	-942
245.319	-615
245.383	-767
245.446	1731
245.510	-634
245.574	66
245.638	384
245.702	-2340
245.766	-127
245.829	751
245.893	-1349
245.957	-1195
246.021	635
246.085	-881
246.149	-377
246.212	825
246.276	-206
246.340	-537
246.404	-481
246.467	765
246.531	-2072
246.595	557
246.659	1266
246.722	-1350
246.786	142
246.850	-694
246.913	-139
246.977	-1526
247.041	231
247.104	-379
247.168	301
247.232	-1354
247.295	361
247.359	279
247.423	-180
247.486	-539
247.550	454
247.614	-661
247.677	-193
247.741	-289
247.804	146
247.868	1160
247.932	-443
247.995	1259
248.059	-793
248.122	-1499
248.186	275
248.249	-449
248.313	1781
248.376	2019
248.440	169
248.503	-1291
248.567	1419
248.630	-1316
248.694	-200
248.757	235
248.821	1536
248.884	1391
248.948	-269
249.011	1254
249.075	2028
249.138	2294
249.202	-309
249.265	-708
249.328	1452
249.392	-930
249.455	449
249.519	-735
249.582	-968
249.645	-587
249.709	-314
249.772	-1197
249.835	-252
249.899	-483
249.962	-330
250.025	-912
250.089	5
250.152	1179
250.215	-420
250.279	-518
250.342	590
250.405	-553
250.468	-435
250.532	-492
250.595	711
250.658	389
250.721	4900
250.785	920
250.848	1791
250.911	-554
250.974	488
251.038	-537
251.101	1527
251.164	-1418
251.227	703
251.290	-608
251.354	1021
251.417	2387
251.480	3550
251.543	1608
251.606	6224
251.669	5000
251.732	507
251.795	318
251.859	709
251.922	3759
251.985	2102
252.048	-239
252.111	278
252.174	-1018
252.237	388
252.300	1729
252.363	1544
252.426	5453
252.489	893
252.552	-379
252.615	8
252.678	1574
252.741	1605
252.804	801
252.867	5970
252.930	2624
252.993	1181
253.056	1225
253.119	-111
253.182	-759
253.245	-327
253.308	91
253.371	-626
253.434	-919
253.497	447
253.559	671
253.622	-449
253.685	-160
253.748	-314
253.811	-302
253.874	432
253.937	-1016
254.000	51
254.062	-420
254.125	1496
254.188	496
254.251	-484
254.314	284
254.376	-30
254.439	64
254.502	309
254.565	-931
254.628	812
254.690	-367
254.753	-851
254.816	-1315
254.878	-84
254.941	748
255.004	1632
255.067	-48
255.129	-185
255.192	-264
255.255	-1648
255.317	-509
255.380	441
255.443	-597
255.505	-492
255.568	-796
255.631	-546
255.693	-193
255.756	-370
255.819	1033
255.881	-435
255.944	-258
256.006	-980
256.069	-709
256.132	70
256.194	-806
256.257	-67
256.319	70
256.382	69
256.444	267
256.507	937
256.569	-1295
256.632	-680
256.694	-669
256.757	1167
256.819	1648
256.882	45
256.944	440
257.007	777
257.069	-450
257.132	-890
257.194	1098
257.257	-160
257.319	-831
257.381	-907
257.444	533
257.506	1138
257.569	2261
257.631	466
257.693	-125
257.756	-259
257.818	-1107
257.880	397
257.943	37
258.005	-335
258.067	-639
258.130	420
258.192	-223
258.254	-220
258.317	-620
258.379	529
258.441	-446
258.503	996
258.566	-940
258.628	664
258.690	-1242
258.753	655
258.815	-270
258.877	-591
258.939	-71
259.001	221
259.064	-952
259.126	-1058
259.188	-1026
259.250	-108
259.312	-851
259.375	-1320
259.437	-267
259.499	223
259.561	-575
259.623	151
259.685	-339
259.747	-12
259.809	21
259.872	508
259.934	-308
259.996	1024
260.058	-211
260.120	-489
260.182	287
260.244	215
260.306	-347
260.368	161
260.430	-490
260.492	-9
260.554	300
260.616	-600
260.678	-568
260.740	392
260.802	190
260.864	1210
260.926	-1400
260.988	864
261.050	-351
261.112	-863
261.174	747
261.236	147
261.298	-597
261.359	-21
261.421	416
261.483	65
261.545	1526
261.607	-678
261.669	267
261.731	-42
261.793	268
261.854	-1148
261.916	-518
261.978	-330
262.040	-312
262.102	46
262.164	-555
262.225	-10
262.287	-113
262.349	-192
262.411	-820
262.472	819
262.534	-926
262.596	180
262.658	-369
262.719	-514
262.781	652
262.843	-296
262.904	58
262.966	496
263.028	-487
263.090	788
263.151	-265
263.213	195
263.275	-557
263.336	-646
263.398	1589
263.459	-102
263.521	26
263.583	462
263.644	326
263.706	-143
263.767	65
263.829	118
263.891	-1291
263.952	294
264.014	-225
264.075	308
264.137	-789
264.198	85
264.260	-547
264.321	-610
264.383	-532
264.444	432
264.506	-268
264.567	-282
264.629	682
264.690	-2157
264.752	-61
264.813	-235
264.875	-181
264.936	63
264.998	-455
265.059	-9
265.120	24
265.182	-410
265.243	-85
265.305	225
265.366	-450
265.427	161
265.489	180
265.550	-1186
265.611	-202
265.673	-703
265.734	-448
265.795	133
265.857	-1375
265.918	-788
265.979	-341
266.040	591
266.102	658
266.163	261
266.224	-649
266.286	-212
266.347	-1193
266.408	-116
266.469	178
266.530	-779
266.592	69
266.653	-9
266.714	-309
266.775	184
266.836	80
266.898	-464
266.959	-554
267.020	365
267.081	401
267.142	133
267.203	695
267.264	-246
267.326	663
267.387	496
267.448	-245
267.509	356
267.570	-329
267.631	184
267.692	-155
267.753	979
267.814	-1105
267.875	414
267.936	-602
267.997	-243
268.058	-575
268.119	-347
268.180	-570
268.241	-189
268.302	-525
268.363	-35
268.424	-1224
268.485	-343
268.546	-711
268.607	115
268.668	-1145
268.729	-261
268.790	108
268.851	307
268.912	-358
268.972	-201
269.033	-1294
269.094	-652
269.155	-56
269.216	-115
269.277	-678
269.338	-278
269.398	-674
269.459	-757
269.520	52
269.581	-288
269.642	-523
269.702	-523
269.763	-352
269.824	-188
269.885	-1055
269.945	241
270.006	-207
270.067	-202
270.128	-1246
270.188	-1016
270.249	-1128
270.310	-647
270.370	-72
270.431	-84
270.492	-978
270.553	17
270.613	-831
270.674	284
270.734	-662
270.795	131
270.856	-435
270.916	-668
270.977	-307
271.038	205
271.098	103
271.159	-815
271.219	-789
271.280	-77
271.340	-176
271.401	-689
271.462	-430
271.522	-363
271.583	-669
271.643	-45
271.704	-691
271.764	-466
271.825	-1374
271.885	1293
271.946	2526
272.006	868
272.066	1202
272.127	3842
272.187	3482
272.248	1634
272.308	91
272.369	678
272.429	200
272.489	410
272.550	-361
272.610	458
272.671	370
272.731	354
272.791	114
272.852	-219
272.912	-311
272.972	333
273.033	401
273.093	209
273.153	698
273.214	846
273.274	429
273.334	1744
273.394	2536
273.455	1810
273.515	1435
273.575	1826
273.635	1500
273.696	3336
273.756	2117
273.816	2873
273.876	1916
273.936	1270
273.997	783
274.057	633
274.117	477
274.177	523
274.237	668
274.297	1581
274.358	-147
274.418	140
274.478	514
274.538	529
274.598	-617
274.658	762
274.718	429
274.778	357
274.838	-26
274.898	196
274.958	231
275.018	873
275.078	666
275.138	835
275.198	-409
275.258	-347
275.318	-647
275.378	549
275.438	-206
275.498	-2
275.558	140
275.618	174
275.678	-15
275.738	640
275.798	828
275.858	-642
275.918	-350
275.978	-510
276.038	133
276.098	-360
276.157	5
276.217	887
276.277	205
276.337	335
276.397	-489
276.457	-28
276.517	-57
276.576	825
276.636	-169
276.696	-274
276.756	358
276.815	119
276.875	600
276.935	190
276.995	764
277.055	742
277.114	827
277.174	579
277.234	189
277.293	1414
277.353	-558
277.413	1042
277.472	766
277.532	836
277.592	1116
277.651	6122
277.711	16601
277.771	4945
277.830	13247
277.890	14540
277.950	7994
278.009	26675
278.069	12332
278.128	10826
278.188	16773
278.248	7342
278.307	16506
278.367	12410
278.426	3720
278.486	2093
278.545	968
278.605	1187
278.664	1106
278.724	959
278.783	1771
278.843	3162
278.902	1115
278.962	1602
279.021	2016
279.081	5607
279.140	5206
279.199	3403
279.259	2804
279.318	4096
279.378	6923
279.437	10930
279.496	26207
279.556	115546
279.615	99123
279.675	27425
279.734	12925
279.793	12819
279.853	13993
279.912	7729
279.971	5840
280.031	5709
280.090	6075
280.149	10122
280.208	15101
280.268	74187
280.327	83067
280.386	21146
280.445	9081
280.505	5767
280.564	4902
280.623	4336
280.682	2681
280.742	3316
280.801	1648
280.860	975
280.919	1436
280.978	2098
281.037	1826
281.097	1656
281.156	2373
281.215	2020
281.274	786
281.333	2586
281.392	843
281.451	208
281.510	977
281.569	262
281.628	1318
281.688	835
281.747	1783
281.806	686
281.865	1107
281.924	633
281.983	411
282.042	486
282.101	907
282.160	1686
282.219	933
282.278	1260
282.337	160
282.396	262
282.454	382
282.513	598
282.572	1007
282.631	881
282.690	60
282.749	514
282.808	750
282.867	1397
282.926	437
282.985	1570
283.043	164
283.102	1552
283.161	957
283.220	1926
283.279	2226
283.338	1601
283.396	1087
283.455	1571
283.514	1154
283.573	1307
283.631	1425
283.690	1447
283.749	1367
283.808	1756
283.866	1692
283.925	2131
283.984	2301
284.043	1559
284.101	2506
284.160	2279
284.219	2700
284.277	4054
284.336	3822
284.395	4591
284.453	4546
284.512	4436
284.570	5813
284.629	7590
284.688	9168
284.746	11675
284.805	13910
284.863	18166
284.922	22851
284.981	28531
285.039	37683
285.098	52867
285.156	68174
285.215	62052
285.273	49778
285.332	68625
285.390	61768
285.449	44472
285.507	31988
285.566	25408
285.624	18788
285.683	15375
285.741	12779
285.799	9938
285.858	8297
285.916	7426
285.975	5863
286.033	5394
286.091	5373
286.150	3478
286.208	3571
286.267	3257
286.325	3152
286.383	3272
286.442	2000
286.500	2243
286.558	1844
286.616	1725
286.675	2131
286.733	2408
286.791	1226
286.850	1912
286.908	1505
286.966	1611
287.024	554
287.083	2088
287.141	627
287.199	993
287.257	1570
287.315	1293
287.374	1220
287.432	1159
287.490	268
287.548	1488
287.606	97
287.664	1677
287.723	850
287.781	1273
287.839	211
287.897	1117
287.955	161
288.013	284
288.071	460
288.129	3943
288.187	17366
288.245	7651
288.303	2213
288.361	877
288.419	549
288.477	1215
288.535	499
288.593	962
288.651	318
288.709	543
288.767	236
288.825	140
288.883	-31
288.941	603
288.999	337
289.057	476
289.115	-159
289.173	-151
289.231	363
289.289	343
289.346	104
289.404	570
289.462	-63
289.520	-93
289.578	-213
289.636	531
289.694	-205
289.751	12
289.809	-25
289.867	511
289.925	576
289.983	478
290.040	435
290.098	-508
290.156	87
290.214	429
290.271	-300
290.329	479
290.387	171
290.444	398
290.502	-314
290.560	296
290.617	-142
290.675	567
290.733	-319
290.790	181
290.848	-116
290.906	388
290.963	31
291.021	129
291.078	-211
291.136	274
291.194	179
291.251	735
291.309	293
291.366	424
291.424	-276
291.481	354
291.539	181
291.596	1900
291.654	-263
291.711	488
291.769	-412
291.826	421
291.884	-461
291.941	-445
291.999	-418
292.056	763
292.114	188
292.171	-163
292.228	235
292.286	37
292.343	-400
292.401	497
292.458	265
292.515	370
292.573	670
292.630	311
292.687	-434
292.745	-25
292.802	-760
292.859	906
292.917	1550
292.974	905
293.031	485
293.089	1076
293.146	462
293.203	-133
293.260	-194
293.318	656
293.375	50
293.432	-49
293.489	353
293.546	493
293.604	408
293.661	2132
293.718	4545
293.775	2380
293.832	912
293.889	3328
293.947	2345
294.004	853
294.061	126
294.118	1104
294.175	1380
294.232	4813
294.289	2396
294.346	1608
294.403	192
294.460	628
294.517	-457
294.574	16
294.631	-208
294.688	-405
294.745	106
294.802	2341
294.859	1914
294.916	843
294.973	-323
295.030	292
295.087	-519
295.144	-143
295.201	62
295.258	-1021
295.315	293
295.372	941
295.429	1188
295.486	799
295.542	-611
295.599	-386
295.656	398
295.713	286
295.770	974
295.827	4
295.883	51
295.940	616
295.997	-563
296.054	-189
296.111	8
296.167	429
296.224	-373
296.281	-244
296.338	-307
296.394	-400
296.451	-917
296.508	-146
296.564	905
296.621	285
296.678	2070
296.734	3740
296.791	475
296.848	284
296.904	-360
296.961	309
297.018	1019
297.074	946
297.131	-272
297.187	-148
297.244	200
297.301	1746
297.357	3915
297.414	2144
297.470	287
297.527	280
297.583	-31
297.640	369
297.696	48
297.753	-687
297.809	52
297.866	26
297.922	-165
297.979	-565
298.035	-1323
298.092	140
298.148	-107
298.204	716
298.261	418
298.317	1518
298.374	2810
298.430	1991
298.486	-287
298.543	-582
298.599	-854
298.656	-480
298.712	-374
298.768	373
298.824	-460
298.881	-168
298.937	103
298.993	278
299.050	-844
299.106	-350
299.162	-269
299.218	1557
299.275	-434
299.331	839
299.387	-127
299.443	4065
299.500	9239
299.556	9027
299.612	3379
299.668	2305
299.724	7016
299.780	11796
299.837	3374
299.893	2387
299.949	5419
300.005	9365
300.061	7133
300.117	13474
300.173	5983
300.229	2720
300.285	1003
300.341	807
300.397	324
300.453	-153
300.510	421
300.566	1678
300.622	1369
300.678	10435
300.734	17703
300.790	7856
300.845	4889
300.901	6850
300.957	11198
301.013	5589
301.069	1390
301.125	577
301.181	356
301.237	767
301.293	-13
301.349	537
301.405	61
301.461	-243
301.516	12
301.572	-670
301.628	-253
301.684	286
301.740	-19
301.796	546
301.851	261
301.907	-534
301.963	384
302.019	1381
302.074	7259
302.130	9065
302.186	3605
302.242	1364
302.297	-85
302.353	-573
302.409	442
302.464	311
302.520	495
302.576	1853
302.631	1823
302.687	332
302.743	-352
302.798	1
302.854	-511
302.910	-488
302.965	-700
303.021	341
303.076	-738
303.132	-993
303.187	-531
303.243	-248
303.299	324
303.354	-899
303.410	-637
303.465	-219
303.521	-1267
303.576	-88
303.632	-1047
303.687	802
303.743	1333
303.798	2113
303.853	157
303.909	-99
303.964	-908
304.020	-792
304.075	-618
304.130	-540
304.186	-860
304.241	1896
304.297	521
304.352	-685
304.358	-667
304.407	-523
304.449	30
304.463	223
304.518	-831
304.539	-576
304.573	-213
304.629	-1
304.630	10
304.684	599
304.720	810
304.739	893
304.794	2959
304.811	2411
304.850	1136
304.902	781
304.905	757
304.960	-94
304.992	210
305.015	424
305.071	179
305.083	53
305.126	-411
305.173	-518
305.181	-520
305.236	-293
305.264	-183
305.292	-153
305.347	34
305.354	15
305.402	-0
305.445	396
305.457	499
305.512	75
305.535	304
305.567	650
305.622	-188
305.626	-163
305.678	88
305.716	443
305.733	667
305.788	1222
305.807	1170
305.843	1028
305.897	1969
305.898	1983
305.953	2440
305.988	1592
306.008	1065
306.063	734
306.078	618
306.118	396
306.168	24
306.173	-14
306.228	718
306.259	438
306.283	241
306.338	-326
306.349	-270
306.393	-63
306.440	-68
306.448	-61
306.503	131
306.530	234
306.558	340
306.613	-155
306.620	-51
306.668	763
306.711	835
306.723	764
306.778	689
306.801	441
306.833	285
306.888	498
306.892	493
306.943	388
306.982	462
306.997	543
307.052	312
307.072	400
307.107	328
307.162	420
307.163	418
307.217	659
307.253	460
307.272	274
307.327	377
307.343	425
307.381	582
307.434	579
307.436	599
307.491	768
307.524	890
307.546	776
307.600	1045
307.614	968
307.655	795
307.704	588
307.710	570
307.765	717
307.795	512
307.819	461
307.874	1749
307.885	1602
307.929	1052
307.975	1758
307.984	1831
308.038	1724
308.065	1679
308.093	3031
308.148	6907
308.156	8040
308.202	13361
308.246	16809
308.257	16682
308.312	8896
308.336	5672
308.366	3586
308.421	2662
308.426	2582
308.475	2310
308.517	2546
308.530	2557
308.585	1900
308.607	2013
308.639	2428
308.694	2421
308.697	2467
308.748	2905
308.787	2847
308.803	2943
308.857	3358
308.877	3515
308.912	4095
308.967	5480
308.967	5499
309.021	8108
309.058	10575
309.076	12042
309.130	18010
309.148	19509
309.185	26221
309.238	37537
309.239	37701
309.293	50333
309.328	52544
309.348	48463
309.402	30655
309.418	25621
309.457	19490
309.508	14276
309.511	14266
309.566	16913
309.598	19826
309.620	25230
309.674	41392
309.688	46298
309.729	47339
309.778	40321
309.783	39308
309.837	24847
309.868	17297
309.892	14315
309.946	9664
309.959	8842
310.001	7121
310.049	5742
310.055	5601
310.109	4529
310.139	3990
310.163	3543
310.218	2683
310.229	2522
310.272	2450
310.319	2453
310.326	2377
310.381	2033
310.409	1758
310.435	1708
310.489	1721
310.499	1714
310.543	1536
310.589	1409
310.598	1450
310.652	1616
310.679	1737
310.706	1656
310.760	1399
310.769	1411
310.814	1930
310.859	2075
310.868	1983
310.923	1586
310.948	1336
310.977	1267
311.031	1331
311.038	1324
311.085	1404
311.128	1368
311.139	1371
311.193	1567
311.218	1573
311.247	1656
311.301	1854
311.308	1875
311.356	1352
311.398	824
311.410	898
311.464	1258
311.488	1420
311.518	1434
311.572	1450
311.578	1448
311.626	1278
311.668	1132
311.680	1239
311.734	1645
311.758	1838
311.788	1504
311.842	899
311.847	836
311.896	1804
311.937	2609
311.950	2499
312.004	1992
312.027	1761
312.058	1711
312.112	1625
312.117	1614
312.165	1417
312.207	1247
312.297	1641
312.386	1162
312.476	1374
312.566	1280
312.656	1793
312.745	1548
312.835	1906
312.925	1769
313.015	1368
313.104	1127
313.194	1828
313.284	1165
313.374	1715
313.463	1581
313.553	1700
313.643	1683
313.732	2048
313.822	1789
313.912	1968
314.001	2312
314.091	2473
314.180	2592
314.270	3415
314.360	2030
314.449	2762
314.539	1606
314.628	3094
314.718	2257
314.808	1947
314.897	2769
314.987	3173
315.076	2778
315.166	2566
315.255	3174
315.345	3115
315.434	2252
315.524	3316
315.613	3627
315.703	5196
315.792	10988
315.881	37706
315.971	10917
316.060	4005
316.150	2443
316.239	2844
316.328	2682
316.418	3085
316.507	2112
316.597	3623
316.686	2702
316.775	2942
316.865	2604
316.954	2819
317.043	2382
317.133	2082
317.222	2340
317.311	2154
317.400	1123
317.490	3363
317.579	2507
317.668	3001
317.757	5519
317.847	18698
317.936	58478
318.025	17086
318.114	14228
318.203	6248
318.293	3844
318.382	4351
318.471	4777
318.560	3666
318.649	3040
318.738	2823
318.828	1814
318.917	1910
319.006	2249
319.095	1955
319.184	3038
319.273	2725
319.362	1636
319.451	1538
319.540	1278
319.629	1331
319.718	1655
319.807	2482
319.896	1606
319.985	4634
320.074	2469
320.163	1643
320.252	2075
320.341	1730
320.430	1778
320.519	1689
320.608	1654
320.697	2663
320.786	2737
320.875	4097
320.964	3677
321.053	3576
321.142	4037
321.230	5281
321.319	5564
321.408	5861
321.497	5710
321.586	5338
321.675	2986
321.764	3685
321.852	3418
321.941	4468
322.030	4122
322.119	4074
322.207	5832
322.296	6310
322.385	6770
322.474	8553
322.562	8869
322.651	6088
322.740	4375
322.829	4616
322.917	3575
323.006	3800
323.095	3535
323.183	3239
323.272	3079
323.361	2845
323.449	3154
323.538	2465
323.626	2514
323.715	2012
323.804	1781
323.892	2463
323.981	1610
324.069	2111
324.158	1881
324.246	1437
324.335	927
324.424	2150
324.512	2164
324.601	1705
324.689	1393
324.778	2276
324.866	1954
324.954	1554
325.043	1240
325.131	791
325.220	1626
325.308	1713
325.397	1122
325.485	1827
325.574	1506
325.662	1417
325.750	1075
325.839	2246
325.927	1447
326.015	1291
326.104	1253
326.192	1664
326.280	1559
326.369	740
326.457	1216
326.545	1493
326.634	872
326.722	1629
326.810	880
326.898	1860
326.987	2533
327.075	1256
327.163	2693
327.251	2138
327.340	1522
327.428	3364
327.516	3634
327.604	1766
327.692	1091
327.781	1351
327.869	1531
327.957	755
328.045	510
328.133	1806
328.221	1233
328.309	1658
328.397	2067
328.485	2005
328.574	2573
328.662	4936
328.750	2294
328.838	2143
328.926	1441
329.014	1581
329.102	608
329.190	1258
329.278	775
329.366	1576
329.454	1235
329.542	1927
329.630	162
329.718	1218
329.806	780
329.893	1889
329.981	82
330.069	1832
330.157	1045
330.245	1989
330.333	1688
330.421	1861
330.509	968
330.597	1488
330.684	1158
330.772	1411
330.860	1584
330.948	1552
331.036	1614
331.123	1442
331.211	1243
331.299	1017
331.387	1290
331.475	2643
331.562	625
331.650	1296
331.738	682
331.825	1510
331.913	893
332.001	1363
332.089	929
332.176	1634
332.264	831
332.352	1197
332.439	1470
332.527	1707
332.614	1276
332.702	1136
332.790	1479
332.877	2081
332.965	5844
333.052	5205
333.140	5560
333.228	14948
333.315	4269
333.403	2045
333.490	2591
333.578	5755
333.665	21708
333.753	9328
333.840	2194
333.928	2648
334.015	3074
334.103	4258
334.190	4635
334.278	5911
334.365	8927
334.452	9077
334.540	5576
334.627	4673
334.715	6665
334.802	9142
334.889	16175
334.977	23249
335.064	15066
335.151	6527
335.239	4939
335.326	3372
335.413	4276
335.501	5021
335.588	4196
335.675	4568
335.762	4502
335.850	7435
335.937	11375
336.024	19105
336.111	31204
336.199	30648
336.286	12514
336.373	6821
336.460	4730
336.547	3649
336.635	3471
336.722	3225
336.809	2537
336.896	2439
336.983	1637
337.070	3353
337.157	4295
337.245	3173
337.332	2718
337.419	1841
337.506	1409
337.593	2545
337.680	1750
337.767	2902
337.854	1028
337.941	2166
338.028	1636
338.115	1294
338.202	1780
338.289	1970
338.376	1801
338.463	2388
338.550	1019
338.637	2100
338.724	743
338.811	1809
338.898	2177
338.984	1121
339.071	1171
339.158	1881
339.245	1248
339.332	2337
339.419	1141
339.506	1638
339.593	632
339.679	1748
339.766	794
339.853	1921
339.940	621
340.027	1411
340.113	891
340.200	1115
340.287	1454
340.374	1515
340.460	638
340.547	550
340.634	1724
340.720	1387
340.807	900
340.894	1867
340.980	635
341.067	1211
341.154	1122
341.240	1503
341.327	1695
341.414	1817
341.500	350
341.587	1414
341.674	1041
341.760	2072
341.847	1102
341.933	1860
342.020	1141
342.106	1211
342.193	904
342.279	1131
342.366	784
342.452	2275
342.539	982
342.625	890
342.712	1199
342.798	1474
342.885	993
342.971	472
343.058	710
343.144	901
343.230	1373
343.317	1820
343.403	1296
343.490	1048
343.576	795
343.662	1041
343.749	829
343.835	1356
343.921	1232
344.008	4070
344.094	7321
344.180	2695
344.267	1266
344.353	1188
344.439	1128
344.525	745
344.612	1581
344.698	1209
344.784	290
344.870	1044
344.957	707
345.043	2131
345.129	540
345.215	1933
345.301	926
345.387	700
345.474	320
345.560	2014
345.646	550
345.732	1914
345.818	922
345.904	1516
345.990	880
346.076	940
346.162	211
346.249	1120
346.335	1064
346.421	752
346.507	770
346.593	2538
346.679	414
346.765	2654
346.851	2645
346.937	1398
347.023	2197
347.108	1007
347.194	922
347.280	1487
347.366	1840
347.452	5681
347.538	5945
347.624	4327
347.710	1927
347.796	2023
347.882	691
347.967	679
348.053	868
348.139	1527
348.225	871
348.311	950
348.397	933
348.482	2007
348.568	887
348.654	2433
348.740	7964
348.825	7225
348.911	3094
348.997	2599
349.083	3181
349.168	1707
349.254	1030
349.340	1680
349.425	621
349.511	1226
349.597	723
349.682	629
349.768	1949
349.854	1313
349.939	1386
350.025	1075
350.110	1153
350.196	489
350.282	809
350.367	1659
350.453	1550
350.538	1357
350.624	492
350.709	1563
350.795	354
350.880	1316
350.966	1507
351.051	1326
351.137	654
351.222	1218
351.308	1681
351.393	1409
351.479	546
351.564	887
351.649	2164
351.735	1297
351.820	314
351.906	891
351.991	785
352.076	1180
352.162	1485
352.247	1159
352.332	1304
352.418	883
352.503	806
352.588	2920
352.673	906
352.759	1027
352.844	1239
352.929	1521
353.014	303
353.100	1358
353.185	1122
353.270	444
353.355	1927
353.441	1359
353.526	478
353.611	1010
353.696	620
353.781	1594
353.866	483
353.952	2159
354.037	373
354.122	2097
354.207	1053
354.292	1569
354.377	1194
354.462	1963
354.547	218
354.632	2468
354.717	684
354.802	982
354.887	551
354.972	1502
355.057	726
355.142	1154
355.227	1264
355.312	832
355.397	51
355.482	1658
355.567	-4
355.652	2075
355.737	828
355.822	2472
355.907	1098
355.991	2619
356.076	887
356.161	1551
356.246	1176
356.331	923
356.416	68
356.501	4921
356.585	2318
356.670	1119
356.755	2696
356.840	2341
356.924	3043
357.009	7978
357.094	3579
357.179	629
357.263	770
357.348	1963
357.433	771
357.517	1317
357.602	137
357.687	749
357.771	1068
357.856	1036
357.941	1598
358.025	4098
358.110	12284
358.195	5805
358.279	1116
358.364	1972
358.448	2054
358.533	3438
358.617	2254
358.702	2326
358.787	1667
358.871	1421
358.956	1571
359.040	1187
359.125	65
359.209	1971
359.294	1759
359.378	2948
359.462	3151
359.547	1787
359.631	1332
359.716	562
359.800	548
359.885	2335
359.969	79
360.053	2188
360.138	793
360.222	1741
360.306	1154
360.391	1961
360.475	787
360.559	2179
360.644	1834
360.728	150
360.812	3336
360.896	5557
360.981	2207
361.065	597
361.149	2075
361.233	1002
361.318	423
361.402	1621
361.486	1959
361.570	1286
361.654	1324
361.739	1936
361.823	3818
361.907	6095
361.991	2907
362.075	3625
362.159	2923
362.243	9467
362.327	21637
362.411	35050
362.495	12590
362.580	6238
362.664	5092
362.748	5690
362.832	9134
362.916	19252
363.000	59329
363.084	85432
363.168	32449
363.252	9633
363.336	5860
363.420	5748
363.503	4328
363.587	4614
363.671	2973
363.755	3108
363.839	4806
363.923	3534
364.007	5547
364.091	6491
364.175	10379
364.258	27354
364.342	64486
364.426	125392
364.510	63695
364.594	19381
364.677	9061
364.761	6307
364.845	5598
364.929	2495
365.013	2320
365.096	1853
365.180	1321
365.264	2916
365.347	5150
365.431	2071
365.515	570
365.598	861
365.682	2703
365.766	430
365.849	1512
365.933	1208
366.017	2932
366.100	480
366.184	912
366.267	2962
366.351	2164
366.435	1230
366.518	426
366.602	1907
366.685	1802
366.769	2277
366.852	866
366.936	1978
367.019	1661
367.103	461
367.186	2692
367.270	1873
367.353	1115
367.436	3462
367.520	1585
367.603	1989
367.687	962
367.770	2136
367.853	2679
367.937	3037
368.020	2943
368.104	1299
368.187	1897
368.270	2493
368.353	1751
368.437	1256
368.520	2007
368.603	1732
368.687	470
368.770	2447
368.853	1365
368.936	1984
369.020	1613
369.103	2069
369.186	605
369.269	795
369.352	1307
369.436	1453
369.519	1117
369.602	-194
369.685	2491
369.768	688
369.851	2054
369.934	1113
370.018	1263
370.101	989
370.184	3771
370.267	2296
370.350	991
370.433	2194
370.516	5327
370.599	19455
370.682	6938
370.765	4391
370.848	4517
370.931	2591
371.014	2992
371.097	703
371.180	1793
371.263	3109
371.346	1115
371.429	2926
371.511	1717
371.594	1982
371.677	2891
371.760	3695
371.843	2504
371.926	7294
372.009	11355
372.091	8780
372.174	3955
372.257	5936
372.340	3874
372.423	3711
372.505	3855
372.588	2609
372.671	3089
372.754	2896
372.836	3506
372.919	3903
373.002	4515
373.085	2054
373.167	2829
373.250	2926
373.332	4117
373.415	7428
373.498	11794
373.580	10067
373.663	29243
373.746	28558
373.828	5049
373.911	4901
373.993	2126
374.076	3528
374.159	2389
374.241	3127
374.324	3114
374.406	4052
374.489	4097
374.571	8300
374.654	4052
374.736	3921
374.819	5230
374.901	9611
374.983	8647
375.066	4304
375.148	2812
375.231	3824
375.313	5245
375.395	3397
375.478	2770
375.560	2889
375.643	3071
375.725	3661
375.807	4595
375.890	6904
375.972	1985
376.054	3140
376.136	2849
376.219	1490
376.301	3127
376.383	3983
376.465	2801
376.548	2213
376.630	1943
376.712	4532
376.794	2057
376.877	2229
376.959	192
377.041	1884
377.123	972
377.205	1592
377.287	791
377.369	1955
377.452	2033
377.534	1296
377.616	1985
377.698	1298
377.780	633
377.862	1100
377.944	2888
378.026	682
378.108	1476
378.190	1237
378.272	1452
378.354	1287
378.436	1661
378.518	1270
378.600	813
378.682	2265
378.764	1453
378.846	1810
378.928	1484
379.010	1315
379.091	2018
379.173	2118
379.255	830
379.337	1674
379.419	1413
379.501	2730
379.583	2258
379.664	2424
379.746	357
379.828	3604
379.910	1643
379.991	2958
380.073	1357
380.155	2070
380.237	1355
380.318	2129
380.400	1209
380.482	2711
380.564	2032
380.645	1308
380.727	1868
380.809	3283
380.890	1575
380.972	1353
381.053	2144
381.135	2987
381.217	1634
381.298	3713
381.380	2947
381.461	2654
381.543	4438
381.624	5187
381.706	2902
381.787	3466
381.869	4174
381.951	4354
382.032	8872
382.113	10409
382.195	2758
382.276	7163
382.358	4936
382.439	7250
382.521	9226
382.602	14048
382.684	12444
382.765	21740
382.846	61952
382.928	145069
383.009	82432
383.090	63424
383.172	174373
383.253	226095
383.334	75164
383.416	30555
383.497	22881
383.578	28589
383.659	53828
383.741	153145
383.822	286463
383.903	156470
383.984	43901
384.066	23740
384.147	13688
384.228	10989
384.309	9412
384.390	7357
384.471	7433
384.553	6047
384.634	5195
384.715	6186
384.796	5171
384.877	5191
384.958	6607
385.039	4376
385.120	4297
385.201	5301
385.282	5419
385.363	6254
385.444	6226
385.525	6345
385.606	6153
385.687	6595
385.768	4863
385.849	3564
385.930	7461
386.011	10013
386.092	4959
386.173	4984
386.254	3527
386.335	4746
386.416	3301
386.496	3302
386.577	4121
386.658	3573
386.739	3258
386.820	3698
386.901	2789
386.981	5039
387.062	4674
387.143	5326
387.224	5970
387.304	7501
387.385	7138
387.466	4326
387.547	6687
387.627	6512
387.708	6515
387.789	8071
387.869	6510
387.950	5736
388.031	4175
388.111	1546
388.192	4588
388.273	6552
388.353	4060
388.434	2943
388.514	2337
388.595	5168
388.676	4539
388.756	3474
388.837	3923
388.917	2674
388.998	686
389.078	3360
389.159	2911
389.239	1453
389.320	3575
389.400	899
389.480	3010
389.561	3205
389.641	3551
389.722	2518
389.802	1555
389.883	2213
389.963	3587
390.043	2094
390.124	705
390.204	2736
390.284	3230
390.365	1847
390.445	2541
390.525	3072
390.605	3138
390.686	1424
390.766	2117
390.846	3026
390.927	1562
391.007	1816
391.087	3028
391.167	1773
391.247	2062
391.328	3823
391.408	3405
391.488	3409
391.568	1563
391.648	3411
391.728	3724
391.808	4536
391.888	3277
391.969	3818
392.049	3523
392.129	5493
392.209	4648
392.289	7879
392.369	5956
392.449	7630
392.529	6758
392.609	9449
392.689	9887
392.769	12392
392.849	14967
392.929	20538
393.009	26559
393.089	40520
393.169	75459
393.248	184402
393.328	402627
393.408	384087
393.488	174516
393.568	72032
393.648	39143
393.728	23251
393.807	16056
393.887	13687
393.967	10633
394.047	8893
394.127	6934
394.206	7399
394.286	8932
394.366	30046
394.446	30114
394.525	7933
394.605	3657
394.685	5392
394.764	6392
394.844	9212
394.924	12082
395.003	6408
395.083	4122
395.163	3231
395.242	3215
395.322	4444
395.402	1681
395.481	5316
395.561	4673
395.640	15821
395.720	29791
395.799	14432
395.879	5334
395.958	5793
396.038	10538
396.117	41855
396.197	43402
396.276	13888
396.356	9944
396.435	12587
396.515	17052
396.594	26900
396.673	56995
396.753	172081
396.832	358673
396.912	254328
396.991	80944
397.070	34295
397.150	18727
397.229	16284
397.308	26760
397.388	45615
397.467	21230
397.546	8094
397.625	3884
397.705	6651
397.784	3267
397.863	3508
397.942	2920
398.022	3231
398.101	2808
398.180	3736
398.259	1941
398.338	3357
398.417	1989
398.497	1708
398.576	2560
398.655	1500
398.734	1992
398.813	2217
398.892	2110
398.971	3313
399.050	1126
399.129	1251
399.208	1421
399.287	2515
399.366	1364
399.445	1506
399.524	642
399.603	-465
399.682	930
399.761	1243
399.840	2775
399.919	2805
399.998	385
400.077	72
400.156	-490
400.235	2950
400.313	820
400.392	320
400.471	1079
400.550	1992
400.629	-567
400.708	1460
400.786	18
400.865	254
400.944	-289
401.023	3132
401.102	376
401.180	536
401.259	490
401.338	246
401.416	1535
401.495	154
401.574	1141
401.652	64
401.731	1397
401.810	-758
401.888	10
401.967	420
402.046	759
402.124	753
402.203	-312
402.281	1079
402.360	276
402.438	1552
402.517	-695
402.596	422
402.674	258
402.753	1355
402.831	1335
402.910	1214
402.988	177
403.066	1559
403.145	2654
403.223	2495
403.302	1030
403.380	2226
403.459	1560
403.537	658
403.615	1091
403.694	-12
403.772	1626
403.850	1144
403.929	413
404.007	797
404.085	1652
404.164	721
404.242	565
404.320	1677
404.398	2039
404.477	1263
404.555	4164
404.633	3905
404.711	1327
404.789	1511
404.868	273
404.946	759
405.024	-74
405.102	539
405.180	254
405.258	-425
405.336	1048
405.415	-499
405.493	497
405.571	1144
405.649	-250
405.727	-94
405.805	1115
405.883	1579
405.961	1275
406.039	346
406.117	-633
406.195	1377
406.273	-392
406.351	2423
406.429	2195
406.507	706
406.585	-911
406.663	729
406.740	-206
406.818	333
406.896	144
406.974	1614
407.052	-674
407.130	1526
407.208	821
407.285	1027
407.363	-438
407.441	1010
407.519	-268
407.596	922
407.674	784
407.752	4388
407.830	2971
407.907	1391
407.985	-537
408.063	725
408.141	911
408.218	665
408.296	-597
408.373	611
408.451	1169
408.529	327
408.606	254
408.684	1399
408.762	1344
408.839	1039
408.917	452
408.994	1148
409.072	333
409.149	2444
409.227	4822
409.304	8087
409.382	7689
409.459	9901
409.537	12736
409.614	10804
409.692	7192
409.769	8231
409.846	13179
409.924	16079
410.001	8405
410.079	6557
410.156	5395
410.233	3403
410.311	1668
410.388	2715
410.465	2492
410.543	1594
410.620	2116
410.697	1795
410.775	1133
410.852	1457
410.929	2571
411.006	2841
411.083	1476
411.161	1452
411.238	1510
411.315	2216
411.392	1156
411.469	1996
411.547	1506
411.624	-542
411.701	827
411.778	989
411.855	-5
411.932	751
412.009	262
412.086	1495
412.163	646
412.240	745
412.317	20
412.394	940
412.471	996
412.548	360
412.625	743
412.702	-63
412.779	-18
412.856	1198
412.933	62
413.010	581
413.087	711
413.164	-279
413.241	959
413.318	547
413.395	656
413.471	266
413.548	518
413.625	867
413.702	-356
413.779	487
413.855	170
413.932	-538
414.009	-792
414.086	775
414.162	340
414.239	625
414.316	698
414.393	1816
414.469	-845
414.546	334
414.623	128
414.699	324
414.776	364
414.853	-356
414.929	369
415.006	-187
415.082	-768
415.159	1370
415.236	-184
415.312	936
415.389	-119
415.465	-334
415.542	-288
415.618	-1021
415.695	514
415.771	-180
415.848	49
415.924	22
416.000	64
416.077	323
416.153	-309
416.230	-745
416.306	-593
416.383	44
416.459	525
416.535	75
416.612	-24
416.688	870
416.764	415
416.841	540
416.917	-184
416.993	375
417.069	352
417.146	-633
417.222	-193
417.298	-455
417.374	-53
417.451	645
417.527	317
417.603	-273
417.679	509
417.755	-203
417.831	-990
417.908	744
417.984	-491
418.060	-716
418.136	-13
418.212	-593
418.288	413
418.364	822
418.440	-257
418.516	1047
418.592	573
418.668	493
418.744	-581
418.820	1134
418.896	125
418.972	316
419.048	-309
419.124	1107
419.200	-1157
419.276	893
419.352	-591
419.428	741
419.504	-624
419.579	586
419.655	-137
419.731	503
419.807	186
419.883	193
419.959	300
420.034	1334
420.110	503
420.186	609
420.262	966
420.337	867
420.413	1221
420.489	762
420.565	1943
420.640	2008
420.716	1116
420.792	1205
420.867	2066
420.943	1051
421.019	1239
421.094	1327
421.170	2366
421.245	1770
421.321	2375
421.397	2486
421.472	3579
421.548	5981
421.623	4866
421.699	4785
421.774	5247
421.850	5444
421.925	6583
422.001	8473
422.076	10841
422.152	13463
422.227	18921
422.302	27150
422.378	40169
422.453	67811
422.529	115321
422.604	155432
422.679	140347
422.755	149852
422.830	119290
422.905	71480
422.981	43637
423.056	30901
423.131	22210
423.207	16781
423.282	11781
423.357	11131
423.432	8029
423.508	8053
423.583	6299
423.658	6015
423.733	4916
423.808	3941
423.883	4601
423.959	5280
424.034	5405
424.109	6915
424.184	3028
424.259	3088
424.334	2305
424.409	2422
424.484	1211
424.559	1792
424.634	1060
424.709	1822
424.784	665
424.859	787
424.934	27
425.009	1148
425.084	1197
425.159	455
425.234	1783
425.309	333
425.384	520
425.459	-141
425.534	939
425.609	19
425.683	399
425.758	819
425.833	775
425.908	1008
425.983	-219
426.058	1303
426.132	616
426.207	-58
426.282	1093
426.357	576
426.431	334
426.506	466
426.581	652
426.655	556
426.730	23
426.805	-769
426.879	722
426.954	799
427.029	680
427.103	1157
427.178	1541
427.253	1288
427.327	139
427.402	587
427.476	415
427.551	288
427.625	-203
427.700	845
427.774	-477
427.849	206
427.923	35
427.998	475
428.072	611
428.147	3638
428.221	18129
428.296	60073
428.370	31360
428.444	4530
428.519	1109
428.593	737
428.667	544
428.742	2094
428.816	6185
428.890	36231
428.965	53867
429.039	13589
429.113	1926
429.188	580
429.262	89
429.336	909
429.410	604
429.485	1012
429.559	887
429.633	915
429.707	948
429.781	6158
429.855	34399
429.930	48819
430.004	11941
430.078	6378
430.152	21681
430.226	80430
430.300	77609
430.374	15368
430.448	4909
430.522	2318
430.596	3262
430.670	11081
430.744	46298
430.818	48228
430.892	8247
430.966	1476
431.040	1101
431.114	-90
431.188	-781
431.262	352
431.336	-215
431.410	978
431.484	-549
431.557	1280
431.631	414
431.705	2168
431.779	15137
431.853	58642
431.927	37480
432.000	5708
432.074	1082
432.148	338
432.222	-125
432.295	351
432.369	-353
432.443	513
432.516	-99
432.590	1781
432.664	-190
432.737	-104
432.811	-654
432.885	-144
432.958	-302
433.032	-156
433.106	-1402
433.179	-76
433.253	-15
433.326	-766
433.400	-1008
433.473	15
433.547	-1041
433.620	-124
433.694	-817
433.767	207
433.841	-852
433.914	-148
433.988	-876
434.061	-373
434.134	-1063
434.208	-47
434.281	-1198
434.355	-474
434.428	-966
434.501	-723
434.575	-1081
434.648	-1227
434.721	-545
434.795	-173
434.868	206
434.941	587
435.014	161
435.088	-331
435.161	698
435.234	1253
435.307	1305
435.381	1667
435.454	3261
435.527	6368
435.600	7170
435.673	5250
435.746	2520
435.819	2314
435.892	354
435.966	1044
436.039	-76
436.112	328
436.185	-566
436.258	-712
436.331	-957
436.404	-53
436.477	-286
436.550	-709
436.623	-175
436.696	-646
436.769	-824
436.842	-275
436.915	-137
436.987	-228
437.060	-139
437.133	282
437.206	-1106
437.279	-504
437.352	-935
437.425	-467
437.498	-871
437.570	-1095
437.643	-1241
437.716	-1005
437.789	-789
437.861	-137
437.934	-542
438.007	-726
438.080	-1641
438.152	-473
438.225	-393
438.298	655
438.370	2966
438.443	1501
438.516	-164
438.588	-625
438.661	-1235
438.734	124
438.806	-717
438.879	-48
438.951	-850
439.024	-830
439.096	-1238
439.169	-175
439.241	-1711
439.314	-345
439.386	-981
439.459	203
439.531	-676
439.604	220
439.676	-541
439.749	-828
439.821	-412
439.893	-1069
439.966	-496
440.038	-713
440.110	-946
440.183	-416
440.255	-1159
440.327	281
440.400	-293
440.472	792
440.544	-351
440.617	-1034
440.689	531
440.761	-128
440.833	-284
440.905	834
440.978	-1153
441.050	-491
441.122	-104
441.194	-266
441.266	-1173
441.338	-481
441.411	-81
441.483	845
441.555	-275
441.627	-362
441.699	88
441.771	-67
441.843	-865
441.915	-226
441.987	-238
442.059	36
442.131	457
442.203	1132
442.275	1234
442.347	3216
442.419	9295
442.491	48042
442.563	101398
442.635	41200
442.706	7789
442.778	3332
442.850	1867
442.922	636
442.994	1206
443.066	1873
443.137	1823
443.209	3562
443.281	5918
443.353	13731
443.425	54260
443.496	155863
443.568	160562
443.640	68516
443.711	15550
443.783	5731
443.855	3135
443.926	2748
443.998	878
444.070	1555
444.141	657
444.213	988
444.285	56
444.356	1175
444.428	-252
444.499	1144
444.571	-103
444.642	1371
444.714	306
444.785	1599
444.857	228
444.928	1717
445.000	1611
445.071	2456
445.143	3382
445.214	6597
445.285	10862
445.357	31272
445.428	105614
445.500	188217
445.571	152356
445.642	100391
445.714	33470
445.785	11141
445.856	3892
445.928	2583
445.999	1041
446.070	383
446.141	297
446.213	764
446.284	-131
446.355	277
446.426	156
446.497	342
446.569	267
446.640	-275
446.711	-816
446.782	-89
446.853	-189
446.924	597
446.995	-542
447.066	402
447.138	-817
447.209	644
447.280	-1650
447.351	-544
447.422	-1200
447.493	-770
447.564	-1233
447.635	-580
447.706	-551
447.777	-314
447.847	-757
447.918	-1555
447.989	-517
448.060	-276
448.131	-1333
448.202	-1308
448.273	-661
448.344	457
448.414	-167
448.485	-592
448.556	-678
448.627	-780
448.698	659
448.768	-527
448.839	-1095
448.910	-1002
448.981	-1303
449.051	-509
449.122	-1288
449.193	-137
449.263	-976
449.334	-388
449.405	-1144
449.475	-905
449.546	-514
449.616	-310
449.687	115
449.758	-596
449.828	-1404
449.899	-865
449.969	-1072
450.040	-346
450.110	-464
450.181	-820
450.251	-1788
450.322	-112
450.392	-1008
450.463	-596
450.533	-1809
450.604	-319
450.674	-991
450.744	-433
450.815	-374
450.885	-469
450.955	166
451.026	-92
451.096	-1575
451.166	-75
451.237	-471
451.307	1323
451.377	407
451.447	-665
451.518	-1015
451.588	-889
451.658	-694
451.728	-283
451.799	-697
451.869	539
451.939	-537
452.009	-331
452.079	-1194
452.149	-232
452.219	-952
452.289	-933
452.360	-1344
452.430	-463
452.500	168
452.570	2539
452.640	5937
452.710	16306
452.780	17968
452.850	8487
452.920	2575
452.990	2127
453.060	297
453.129	-199
453.199	-442
453.269	255
453.339	524
453.409	802
453.479	333
453.549	531
453.619	662
453.688	-484
453.758	-38
453.828	-980
453.898	-837
453.968	-594
454.037	-566
454.087	-685
454.107	-753
454.168	-1505
454.177	-1635
454.247	-551
454.249	-550
454.316	-1063
454.330	-867
454.386	-194
454.411	-709
454.456	-1682
454.492	-1130
454.525	-655
454.574	-756
454.595	-830
454.655	-684
454.665	-674
454.734	-363
454.736	-339
454.804	-202
454.817	-185
454.873	-218
454.898	-500
454.943	-1086
454.979	-954
455.013	-889
455.060	-51
455.082	338
455.141	-46
455.152	-152
455.221	89
455.222	104
455.291	-623
455.303	-495
455.360	-29
455.384	-117
455.430	-401
455.465	29
455.499	425
455.546	-199
455.569	-535
455.627	291
455.638	443
455.707	449
455.708	473
455.777	676
455.789	536
455.846	-109
455.869	91
455.916	511
455.950	518
455.985	306
456.031	102
456.054	67
456.112	137
456.124	133
456.193	225
456.193	204
456.262	1002
456.274	1007
456.332	826
456.355	786
456.401	697
456.436	916
456.470	966
456.516	690
456.540	624
456.597	1177
456.609	1240
456.678	572
456.678	551
456.747	1237
456.759	1081
456.817	403
456.840	668
456.886	902
456.920	1077
456.955	1303
457.001	1479
457.024	1503
457.082	1348
457.093	1308
457.162	2334
457.163	2353
457.232	925
457.243	1091
457.301	1844
457.324	1750
457.370	1425
457.405	1525
457.439	1731
457.485	2051
457.508	2268
457.566	3378
457.577	3622
457.646	4320
457.647	4366
457.715	11393
457.727	13124
457.784	23924
457.808	31894
457.853	40116
457.889	45436
457.922	44866
457.969	29307
457.991	29499
458.050	36213
458.060	37521
458.129	67423
458.130	68281
458.198	65524
458.211	58091
458.267	32438
458.292	22158
458.336	13323
458.372	12840
458.405	18254
458.453	28743
458.474	36536
458.533	66200
458.543	67836
458.611	102616
458.614	102990
458.680	63226
458.694	49169
458.749	21964
458.775	15700
458.818	8620
458.855	7063
458.887	5932
458.936	4825
458.955	4481
459.016	4272
459.024	4267
459.093	4105
459.097	4081
459.162	3348
459.177	3509
459.230	4030
459.257	3825
459.299	3331
459.338	3331
459.368	3367
459.418	3301
459.437	3249
459.499	3188
459.505	3217
459.574	3044
459.579	3110
459.643	3312
459.659	3319
459.711	3521
459.740	3572
459.780	3781
459.820	4156
459.849	4127
459.900	3456
459.917	3260
459.981	3040
459.986	3027
460.054	3544
460.061	3587
460.123	3911
460.141	4021
460.191	4209
460.222	4120
460.260	4125
460.302	4221
460.328	4145
460.382	3962
460.397	3964
460.462	4224
460.465	4269
460.534	5484
460.543	5620
460.602	9988
460.623	11876
460.671	17421
460.703	22071
460.739	19199
460.783	13831
460.808	11859
460.864	5988
460.876	5743
460.944	4587
460.945	4560
461.013	4433
461.024	4330
461.081	4111
461.104	4299
461.150	4380
461.184	4070
461.218	4188
461.264	4757
461.286	4698
461.345	3866
461.355	3792
461.423	3982
461.425	3972
461.491	3337
461.505	3450
461.559	4480
461.585	4466
461.628	4361
461.665	4802
461.696	5029
461.745	5131
461.764	4920
461.825	4086
461.832	4131
461.901	4918
461.905	4938
461.969	4103
461.985	3995
462.037	4576
462.065	5010
462.105	4950
462.145	4601
462.173	4538
462.225	4359
462.241	4470
462.305	5276
462.310	5306
462.378	5347
462.385	5346
462.446	4802
462.465	4755
462.514	5360
462.545	5536
462.582	5196
462.625	4967
462.650	4890
462.705	4554
462.718	4496
462.785	4464
462.786	4471
462.854	4543
462.865	4580
462.922	4861
462.945	4961
462.990	5135
463.025	5152
463.058	5264
463.104	5369
463.126	5303
463.184	5688
463.194	5650
463.262	4509
463.264	4478
463.330	5559
463.344	5729
463.398	5899
463.424	6147
463.466	5418
463.504	4664
463.533	5068
463.583	5439
463.601	5329
463.663	5505
463.669	5490
463.737	5002
463.743	4937
463.805	5220
463.823	5332
463.873	5572
463.903	5716
463.940	5872
463.982	5972
464.008	5838
464.062	5524
464.076	5456
464.142	5301
464.144	5331
464.211	5791
464.221	5889
464.279	5030
464.301	4674
464.347	5041
464.381	5378
464.414	5445
464.461	5462
464.482	5667
464.540	5960
464.550	5939
464.617	5930
464.620	5926
464.685	6122
464.699	6107
464.753	6229
464.779	6286
464.820	6030
464.859	5652
464.888	5497
464.938	5436
464.956	5710
465.018	6480
465.023	6493
465.091	6604
465.098	6599
465.158	6438
465.177	6447
465.226	6638
465.257	6542
465.293	6041
465.336	5579
465.361	6094
465.416	7182
465.428	7092
465.495	6558
465.496	6567
465.563	5941
465.575	5879
465.631	6450
465.654	6648
465.698	6668
465.734	6601
465.765	6670
465.813	6712
465.833	6651
465.893	6549
465.900	6619
465.968	7057
465.972	7073
466.035	6916
466.052	6849
466.102	6913
466.131	6969
466.170	6528
466.210	5935
466.237	6023
466.290	6318
466.304	6388
466.369	6386
466.372	6412
466.439	6917
466.449	6959
466.506	7074
466.528	7130
466.573	7202
466.607	7153
466.641	7537
466.687	8126
466.708	8115
466.766	7992
466.775	7879
466.842	6900
466.845	6838
466.909	6416
466.925	6320
466.977	6729
467.004	6906
467.044	6917
467.083	6909
467.111	7149
467.163	7557
467.178	7579
467.242	7590
467.245	7629
467.312	8129
467.321	8180
467.379	7740
467.400	7556
467.446	7778
467.480	7911
467.559	8139
467.638	8023
467.717	7594
467.796	9866
467.875	8155
467.955	7725
468.034	8330
468.113	9364
468.192	11535
468.271	12657
468.350	16667
468.429	23891
468.508	25920
468.588	15955
468.667	10425
468.746	9696
468.825	8443
468.904	8441
468.983	8759
469.062	8426
469.141	9312
469.220	7036
469.299	7967
469.378	6354
469.456	8598
469.535	8321
469.614	7391
469.693	8229
469.772	9045
469.851	8795
469.930	9161
470.009	7991
470.088	9786
470.166	13118
470.245	20498
470.324	23348
470.403	15119
470.482	10388
470.560	9503
470.639	8564
470.718	8728
470.797	8577
470.875	8280
470.954	7945
471.033	8218
471.111	7836
471.190	7593
471.269	8044
471.347	8286
471.426	7601
471.505	8027
471.583	9266
471.662	8489
471.740	8144
471.819	7950
471.898	7863
471.976	8436
472.055	8300
472.133	8030
472.212	9410
472.290	7168
472.369	7867
472.447	8657
472.526	7404
472.604	8967
472.683	8067
472.761	8362
472.839	8154
472.918	8601
472.996	8834
473.075	8249
473.153	8242
473.231	8458
473.310	7850
473.388	8505
473.466	8453
473.545	8901
473.623	8686
473.701	8963
473.780	8402
473.858	8244
473.936	9472
474.014	8707
474.093	8699
474.171	9110
474.249	8792
474.327	8263
474.405	8422
474.484	8321
474.562	8059
474.640	7697
474.718	8314
474.796	7994
474.874	8737
474.952	7689
475.030	7395
475.108	8458
475.187	8621
475.265	8786
475.343	9345
475.421	9197
475.499	7417
475.577	9075
475.655	9493
475.733	8826
475.811	8361
475.889	8859
475.966	8175
476.044	8353
476.122	8216
476.200	9208
476.278	8134
476.356	7854
476.434	8589
476.512	8212
476.590	8322
476.667	9216
476.745	8933
476.823	8016
476.901	8586
476.979	8236
477.056	8493
477.134	8401
477.212	8185
477.290	8661
477.367	8128
477.445	7808
477.523	7530
477.601	8333
477.678	7811
477.756	8309
477.834	8505
477.911	8286
477.989	8317
478.066	8227
478.144	8821
478.222	7469
478.299	8698
478.377	8960
478.454	7741
478.532	7945
478.609	8240
478.687	9490
478.764	7911
478.842	8168
478.919	8829
478.997	7921
479.074	7423
479.152	7514
479.229	8171
479.307	7608
479.384	8073
479.461	8652
479.539	8232
479.616	8694
479.694	8262
479.771	7715
479.848	7899
479.926	6395
480.003	8945
480.080	8444
480.157	8522
480.235	8034
480.312	8364
480.389	7586
480.467	8296
480.544	7913
480.621	9053
480.698	9361
480.775	8597
480.853	7972
480.930	7860
481.007	8006
481.084	8551
481.161	8936
481.238	8500
481.315	7720
481.392	7466
481.470	8522
481.547	6643
481.624	7788
481.701	8090
481.778	7258
481.855	8161
481.932	8144
482.009	8702
482.086	8935
482.163	10190
482.240	10596
482.317	11167
482.393	9834
482.470	10484
482.547	9040
482.624	9001
482.701	8298
482.778	8417
482.855	8045
482.932	8522
483.009	8912
483.085	10306
483.162	10085
483.239	11475
483.316	11257
483.393	10888
483.469	10208
483.546	8821
483.623	8031
483.699	8640
483.776	7533
483.853	7906
483.930	7507
484.006	8384
484.083	9761
484.160	9242
484.236	11586
484.313	10281
484.389	9247
484.466	11157
484.543	11053
484.619	13832
484.696	17216
484.772	12067
484.849	10212
484.925	10109
485.002	9196
485.078	9369
485.155	9426
485.231	8424
485.308	8534
485.384	8886
485.461	9609
485.537	8215
485.614	9178
485.690	8493
485.766	9436
485.843	8633
485.919	7993
485.995	8290
486.072	8078
486.148	7481
486.224	8085
486.301	8149
486.377	8282
486.453	7616
486.530	9427
486.606	9227
486.682	8574
486.758	8611
486.835	9372
486.911	8124
486.987	11190
487.063	10440
487.139	9880
487.215	11277
487.292	13365
487.368	13618
487.444	16008
487.520	20875
487.596	27657
487.672	69564
487.748	225726
487.824	314138
487.900	80524
487.976	25303
488.052	14948
488.128	13369
488.204	10501
488.280	11345
488.356	10417
488.432	10460
488.508	9632
488.584	8568
488.660	9346
488.736	8614
488.812	7777
488.888	9399
488.964	7536
489.039	7876
489.115	10070
489.191	9560
489.267	9018
489.343	9376
489.418	8824
489.494	8407
489.570	6787
489.646	9153
489.722	8473
489.797	8709
489.873	8811
489.949	9725
490.024	8873
490.100	8919
490.176	8330
490.251	9473
490.327	8535
490.403	8066
490.478	9280
490.554	9039
490.629	8297
490.705	8497
490.781	9220
490.856	8530
490.932	8567
491.007	8602
491.083	8131
491.158	8841
491.234	8350
491.309	9019
491.385	8419
491.460	8138
491.536	8827
491.611	7022
491.686	9687
491.762	8410
491.837	8644
491.913	9704
491.988	9577
492.063	8370
492.139	9078
492.214	8404
492.289	9012
492.365	9145
492.440	9342
492.515	7801
492.590	8139
492.666	8474
492.741	8472
492.816	8024
492.891	9147
492.967	9282
493.042	8993
493.117	8742
493.192	9053
493.267	9851
493.342	10192
493.418	11035
493.493	9777
493.568	8999
493.643	8586
493.718	10004
493.793	9099
493.868	8733
493.943	9083
494.018	9901
494.093	8241
494.168	10037
494.243	8935
494.318	9646
494.393	9672
494.468	8599
494.543	9520
494.618	9194
494.693	10814
494.768	10101
494.842	9810
494.917	11100
494.992	10189
495.067	9996
495.142	9785
495.217	9559
495.292	9222
495.366	9795
495.441	9597
495.516	10385
495.591	10296
495.665	11272
495.740	12581
495.815	10074
495.890	9887
495.964	8749
496.039	12804
496.114	10964
496.188	12955
496.263	11752
496.338	11008
496.412	9345
496.487	11195
496.561	10342
496.636	9707
496.710	9768
496.785	10238
496.860	10968
496.934	10413
497.009	10602
497.083	11549
497.158	10995
497.232	11200
497.307	12849
497.381	14093
497.455	13968
497.530	10670
497.604	10536
497.679	8899
497.753	10423
497.827	9587
497.902	9884
497.976	10295
498.050	12530
498.125	18702
498.199	17208
498.273	11931
498.348	11607
498.422	13329
498.496	15861
498.570	17086
498.645	9892
498.719	8258
498.793	8884
498.867	9931
498.941	9970
499.016	11667
499.090	16046
499.164	11696
499.238	11207
499.312	11382
499.386	12225
499.460	13806
499.534	15299
499.609	18773
499.683	12291
499.757	8393
499.831	8831
499.905	12602
499.979	11221
500.053	8770
500.127	8944
500.201	9176
500.275	10721
500.349	10872
500.422	12208
500.496	14248
500.570	17564
500.644	23298
500.718	21763
500.792	8119
500.866	7432
500.940	7025
501.013	6693
501.087	6866
501.161	7037
501.235	5275
501.309	8625
501.382	10225
501.456	10156
501.530	7480
501.603	6444
501.677	6444
501.751	4914
501.825	7850
501.898	7409
501.972	7793
502.046	6544
502.119	6058
502.193	6810
502.266	7185
502.340	7343
502.413	6942
502.487	7640
502.561	6047
502.634	6900
502.708	6783
502.781	5524
502.855	6979
502.928	6165
503.002	6641
503.075	5741
503.149	6212
503.222	6297
503.295	5873
503.369	7186
503.442	6547
503.516	9027
503.589	10036
503.662	9246
503.736	10110
503.809	12867
503.882	14300
503.956	20505
504.029	40795
504.102	128625
504.175	175283
504.249	52282
504.322	18536
504.395	13185
504.468	9614
504.542	6800
504.615	7014
504.688	8364
504.761	4962
504.834	8192
504.907	5975
504.980	6842
505.053	6635
505.127	3018
505.200	8699
505.273	5659
505.346	6242
505.419	5599
505.492	6869
505.565	5239
505.638	6307
505.711	5015
505.784	4787
505.857	4991
505.930	7348
506.003	4246
506.076	8229
506.149	5108
506.221	4248
506.294	6960
506.367	4781
506.440	6818
506.513	6144
506.586	4810
506.659	4464
506.731	5665
506.804	4506
506.877	4058
506.950	5259
507.022	6262
507.095	4225
507.168	5891
507.241	6025
507.313	4190
507.386	4371
507.459	6204
507.531	4962
507.604	4929
507.677	5677
507.749	3890
507.822	6481
507.894	4073
507.967	6634
508.040	5022
508.112	5731
508.185	5617
508.257	4415
508.330	7069
508.402	4577
508.475	4772
508.547	4651
508.620	5620
508.692	6108
508.765	6226
508.837	4856
508.909	4945
508.982	4521
509.054	5923
509.127	4805
509.199	5556
509.271	4908
509.344	5168
509.416	4901
509.488	5392
509.560	5591
509.633	5785
509.705	4899
509.777	5235
509.849	5814
509.922	4232
509.994	4811
510.066	6293
510.138	3753
510.210	7737
510.283	4665
510.355	5457
510.427	6089
510.499	5199
510.571	5716
510.643	4615
510.715	6277
510.787	4067
510.859	6816
510.931	5491
511.003	6116
511.076	5746
511.148	5244
511.219	4552
511.291	5352
511.363	5370
511.435	5822
511.507	4599
511.579	5769
511.651	6761
511.723	4560
511.795	5110
511.867	5067
511.939	5048
512.010	5383
512.082	6792
512.154	3730
512.226	4942
512.298	6605
512.369	5707
512.441	7158
512.513	6222
512.585	4620
512.656	5412
512.728	5388
512.800	4818
512.871	5985
512.943	6472
513.015	3823
513.086	5885
513.158	5316
513.230	3985
513.301	5128
513.373	6425
513.444	4987
513.516	5376
513.588	4706
513.659	5775
513.731	5273
513.802	4999
513.874	7222
513.945	5687
514.016	4431
514.088	6007
514.159	3592
514.231	6084
514.302	5877
514.374	5384
514.445	4618
514.516	8268
514.588	5346
514.659	5562
514.730	5805
514.802	6716
514.873	3802
514.944	7509
515.016	5289
515.087	4710
515.158	4934
515.229	6932
515.301	4156
515.372	6327
515.443	5090
515.514	5096
515.585	4889
515.656	6905
515.728	5710
515.799	5127
515.870	7033
515.941	7278
516.012	5799
516.083	9135
516.154	7277
516.225	9700
516.296	11442
516.367	11848
516.438	12719
516.509	16636
516.580	27144
516.651	99006
516.722	299742
516.793	90237
516.864	21341
516.935	20553
517.006	24833
517.077	31726
517.148	76887
517.219	355333
517.289	440695
517.360	61738
517.431	19977
517.502	12424
517.573	13167
517.643	11936
517.714	11394
517.785	13097
517.856	12630
517.926	18625
517.997	21378
518.068	25658
518.138	35103
518.209	61009
518.280	227055
518.350	665067
518.421	225836
518.492	43327
518.562	27055
518.633	27763
518.703	34541
518.774	80128
518.845	222816
518.915	186297
518.986	45553
519.056	20811
519.127	15032
519.197	11539
519.268	10771
519.338	10320
519.408	7751
519.479	7135
519.549	7318
519.620	9330
519.690	6853
519.760	6501
519.831	5598
519.901	6568
519.971	6348
520.042	5692
520.112	5375
520.182	7419
520.253	6169
520.323	5711
520.393	4464
520.463	7694
520.534	3258
520.604	8193
520.674	5298
520.744	4658
520.814	4781
520.885	6956
520.955	5531
521.025	7132
521.095	6389
521.165	6817
521.235	4975
521.305	4817
521.375	5657
521.445	6207
521.515	4068
521.585	6476
521.655	3396
521.725	6465
521.795	6104
521.865	3188
521.935	7950
522.005	5031
522.075	5986
522.145	6577
522.215	4571
522.285	5656
522.355	4901
522.424	5996
522.494	4692
522.564	4997
522.634	6328
522.704	7182
522.774	4692
522.843	6130
522.913	4995
522.983	5042
523.053	4700
523.122	6169
523.192	4958
523.262	5351
523.331	5337
523.401	5842
523.471	5232
523.540	5859
523.610	4747
523.680	5431
523.749	6093
523.819	6942
523.888	5131
523.958	5641
524.027	5339
524.097	5396
524.166	5861
524.236	5330
524.305	7022
524.375	4900
524.444	4284
524.514	7528
524.583	4965
524.653	5876
524.722	5797
524.791	4991
524.861	7645
524.930	5450
524.999	5916
525.069	7102
525.138	5752
525.207	6181
525.277	7137
525.346	6353
525.415	8853
525.484	8318
525.554	8648
525.623	11605
525.692	12725
525.761	13997
525.830	17727
525.900	21781
525.969	35957
526.038	65896
526.107	144776
526.176	390760
526.245	269074
526.314	78740
526.383	198274
526.452	237549
526.522	365108
526.591	282177
526.660	44387
526.729	30427
526.797	33920
526.867	47827
526.935	143633
527.004	524117
527.073	274840
527.142	36376
527.211	18594
527.280	13547
527.349	11163
527.418	7584
527.487	10073
527.555	6869
527.624	6640
527.693	6929
527.762	8491
527.831	5852
527.899	7315
527.968	6169
528.037	5367
528.106	7687
528.174	6909
528.243	6707
528.312	6098
528.380	6206
528.449	4719
528.518	7503
528.586	5424
528.655	7749
528.723	6380
528.792	5457
528.861	6482
528.929	5412
528.998	6499
529.066	6382
529.135	7631
529.203	6746
529.272	6985
529.340	8822
529.409	10089
529.477	7964
529.545	6558
529.614	10096
529.682	7445
529.751	8818
529.819	11476
529.887	9887
529.956	9031
530.024	9261
530.092	7315
530.161	10180
530.229	9160
530.297	8909
530.365	10374
530.434	11052
530.502	8731
530.570	10050
530.638	8572
530.707	8953
530.775	11004
530.843	8629
530.911	8912
530.979	9615
531.047	9841
531.115	10739
531.183	8656
531.252	9234
531.320	8827
531.388	7918
531.456	10166
531.524	8509
531.592	11503
531.660	12165
531.728	9342
531.796	10272
531.864	10617
531.932	9872
532.000	9541
532.067	11224
532.135	10905
532.203	13424
532.271	11689
532.339	13761
532.407	12764
532.475	12111
532.542	12367
532.610	12533
532.678	12078
532.746	14577
532.814	16741
532.881	13338
532.949	12947
533.017	12330
533.084	11556
533.152	10585
533.220	11494
533.287	9639
533.355	10747
533.423	12258
533.490	10022
533.558	11585
533.625	11576
533.693	11213
533.761	11132
533.828	12224
533.896	10419
533.963	12334
534.031	12887
534.098	14055
534.166	15954
534.233	14624
534.300	18589
534.368	17150
534.435	16217
534.503	17267
534.570	18355
534.637	19986
534.705	21269
534.772	26223
534.840	44195
534.907	178454
534.974	186196
535.041	27624
535.109	18097
535.176	15459
535.243	15706
535.310	14858
535.378	14691
535.445	15276
535.512	15206
535.579	15554
535.646	14793
535.714	15865
535.781	16175
535.848	17708
535.915	16248
535.982	14658
536.049	15022
536.116	16833
536.183	14515
536.250	13814
536.317	15042
536.384	15449
536.451	16164
536.518	16589
536.585	14566
536.652	17765
536.719	16421
536.786	14493
536.853	15387
536.920	16356
536.987	15419
537.053	13999
537.120	17878
537.187	17647
537.254	15576
537.321	16847
537.388	17622
537.454	16061
537.521	16387
537.588	16643
537.654	16732
537.721	17216
537.788	17546
537.855	16690
537.921	16807
537.988	15525
538.055	16504
538.121	13423
538.188	14323
538.254	14169
538.321	14439
538.388	16265
538.454	18247
538.521	17552
538.587	17057
538.654	16576
538.720	16172
538.787	17951
538.853	16656
538.920	16349
538.986	13803
539.053	14081
539.119	15222
539.185	15283
539.252	16500
539.318	16972
539.385	19592
539.451	15563
539.517	17093
539.583	17132
539.650	16529
539.716	15775
539.782	15269
539.849	14412
539.915	16655
539.981	14949
540.047	14939
540.114	15875
540.180	17293
540.246	16982
540.312	17931
540.378	17207
540.444	18535
540.510	17277
540.576	17816
540.643	15416
540.709	14866
540.775	16470
540.841	15304
540.907	15195
540.973	15720
541.039	15794
541.105	15551
541.171	16824
541.237	17180
541.303	18569
541.369	18133
541.435	17028
541.500	16420
541.566	13994
541.632	14993
541.698	15691
541.764	17493
541.830	16148
541.896	15930
541.961	15602
542.027	15452
542.093	17759
542.159	17274
542.224	14748
542.290	16079
542.356	15737
542.421	15987
542.487	15894
542.553	14243
542.618	15198
542.684	14303
542.750	15648
542.815	17272
542.881	16062
542.947	16958
543.012	16619
543.078	14406
543.143	14801
543.209	15524
543.274	15009
543.340	15950
543.405	16033
543.471	15899
543.536	16613
543.602	16519
543.667	15034
543.732	17371
543.798	15971
543.863	17090
543.928	16239
543.994	15809
544.059	16825
544.124	17248
544.190	17815
544.255	17341
544.320	17845
544.386	16793
544.451	19083
544.516	17409
544.581	16997
544.646	18510
544.712	19523
544.777	18112
544.842	17599
544.907	18007
544.972	17979
545.037	19135
545.102	19341
545.168	18969
545.233	19618
545.298	20983
545.363	20902
545.428	21659
545.493	23295
545.558	21828
545.623	21646
545.688	22043
545.753	23049
545.818	23305
545.883	24512
545.947	24617
546.012	26926
546.077	25970
546.142	28512
546.207	29170
546.272	30825
546.337	30867
546.401	32365
546.466	35243
546.531	35042
546.596	38967
546.661	39417
546.725	42471
546.790	43475
546.855	48342
546.919	51860
546.984	58789
547.049	63447
547.113	71543
547.178	79047
547.243	89638
547.307	104473
547.372	114969
547.436	114373
547.501	121491
547.565	129521
547.630	116223
547.695	115197
547.759	113270
547.823	116049
547.888	118761
547.952	121695
548.017	127079
548.081	127354
548.146	126162
548.210	132274
548.274	143162
548.339	137959
548.403	123649
548.468	118075
548.532	118408
548.596	119258
548.660	121304
548.725	133778
548.789	141751
548.853	136717
548.917	133193
548.982	128040
549.046	112955
549.110	102776
549.174	110206
549.238	129964
549.303	138695
549.367	142911
549.431	132423
549.495	126539
549.559	127646
549.623	150299
549.687	159023
549.751	157625
549.815	189914
549.879	187137
549.943	181134
550.007	192847
550.071	186202
550.135	166520
550.199	161434
550.263	158895
550.327	148764
550.391	154637
550.455	171879
550.519	179215
550.582	190065
550.646	212563
550.710	214024
550.774	208831
550.838	215082
550.901	219826
550.965	229608
551.029	235066
551.093	244845
551.156	257165
551.220	272280
551.284	288734
551.347	243388
551.411	222351
551.475	217756
551.538	228702
551.602	210982
551.666	202777
551.729	192261
551.793	190895
551.856	184501
551.920	182793
551.983	182545
552.047	178982
552.110	181222
552.174	184198
552.237	188238
552.301	174762
552.364	166728
552.428	163834
552.491	169382
552.554	172443
552.618	171839
552.681	175219
552.745	171248
552.808	188025
552.871	202285
552.934	182562
552.998	171836
553.061	169313
553.124	161322
553.187	161645
553.251	165309
553.314	165698
553.377	166467
553.440	176915
553.503	180488
553.567	179765
553.630	180959
553.693	181020
553.756	181247
553.819	178278
553.882	169125
553.945	171761
554.008	173146
554.071	176651
554.134	173462
554.197	166960
554.260	163757
554.323	166590
554.386	166680
554.449	174232
554.512	171611
554.575	164969
554.638	163403
554.701	164030
554.764	161123
554.827	154688
554.889	151099
554.952	141142
555.015	139207
555.078	141752
555.141	143107
555.203	140199
555.266	138878
555.329	138654
555.391	133409
555.454	131244
555.517	126496
555.580	120012
555.642	116363
555.705	114534
555.768	113731
555.830	111071
555.893	105968
555.955	102905
556.018	101100
556.080	101613
556.143	103973
556.206	102009
556.268	99928
556.330	95711
556.393	93714
556.455	91237
556.518	89118
556.580	86590
556.643	82607
556.705	80989
556.767	80411
556.830	79734
556.892	77743
556.955	76803
557.017	72940
557.079	73086
557.142	71476
557.204	69672
557.266	69633
557.328	64390
557.391	61050
557.453	60653
557.515	59365
557.577	60051
557.639	59220
557.701	59370
557.764	57420
557.826	57779
557.888	58966
557.950	60926
558.012	64503
558.074	77143
558.136	141826
558.198	272103
558.260	101301
558.322	59468
558.384	58563
558.446	61067
558.508	62910
558.570	67106
558.632	73428
558.694	90260
558.756	140697
558.818	354272
558.880	630702
558.942	263113
559.003	287448
559.065	131247
559.127	65872
559.189	63625
559.251	69807
559.312	95420
559.374	203423
559.436	499675
559.498	230383
559.559	69514
559.621	61387
559.683	72048
559.744	109107
559.806	299610
559.868	363593
559.929	90609
559.991	67864
560.052	108132
560.114	265880
560.176	154946
560.237	164925
560.299	225270
560.360	54151
560.422	31697
560.483	29094
560.545	27347
560.606	26221
560.667	25644
560.729	23807
560.790	24096
560.852	23764
560.913	23171
560.974	22469
561.036	22375
561.097	22448
561.158	21471
561.220	21486
561.281	20184
561.342	20233
561.403	21537
561.465	20174
561.526	20608
561.587	19796
561.648	18764
561.709	17980
561.771	19454
561.832	17959
561.893	18304
561.954	17683
562.015	17354
562.076	17213
562.137	17075
562.198	17585
562.259	17184
562.320	17404
562.381	17523
562.442	16992
562.503	16390
562.564	16150
562.625	16726
562.686	16507
562.747	15301
562.808	14609
562.869	15085
562.930	14970
562.991	15124
563.051	16095
563.112	15582
563.173	15560
563.234	14806
563.294	15896
563.355	13711
563.416	14672
563.477	14140
563.537	14476
563.598	14067
563.659	14504
563.720	14298
563.780	13433
563.841	13616
563.901	13702
563.962	14244
564.023	14436
564.083	14815
564.144	13382
564.204	14652
564.265	13320
564.325	13327
564.386	13609
564.446	12972
564.507	13389
564.567	13241
564.628	12029
564.688	12725
564.749	12645
564.809	12964
564.869	12584
564.930	12653
564.990	12903
565.050	12668
565.111	12729
565.171	13310
565.231	13081
565.292	13931
565.352	12681
565.412	12519
565.472	12733
565.532	13260
565.593	12368
565.653	12559
565.713	12782
565.773	14056
565.833	13189
565.893	14484
565.953	12106
566.013	12912
566.074	12253
566.134	11399
566.194	11488
566.254	12010
566.314	11412
566.374	11140
566.434	11825
566.494	12923
566.554	12152
566.614	11784
566.673	12368
566.733	12786
566.793	13279
566.853	14031
566.913	12606
566.973	12378
567.033	12611
567.092	12632
567.152	11685
567.212	12470
567.272	12795
567.331	12913
567.391	12820
567.451	14789
567.511	13731
567.570	13123
567.630	12802
567.690	12306
567.749	12954
567.809	13193
567.868	12191
567.928	11993
567.988	13210
568.047	12138
568.107	12632
568.166	12447
568.226	13005
568.285	13469
568.345	12701
568.404	12880
568.464	13468
568.523	12323
568.582	12514
568.642	11856
568.701	11981
568.761	11836
568.820	13527
568.879	12221
568.939	12794
568.998	12821
569.057	12862
569.116	12443
569.176	11956
569.235	11745
569.294	11670
569.353	12195
569.413	11950
569.472	11421
569.531	11240
569.590	11677
569.649	11089
569.708	11433
569.767	12770
569.827	11852
569.886	11547
569.945	10988
570.004	11555
570.063	10946
570.122	11850
570.181	11858
570.240	11605
570.299	12442
570.358	12080
570.417	12921
570.475	12540
570.534	13583
570.593	12390
570.652	12981
570.711	12644
570.770	12033
570.829	12772
570.887	12619
570.946	12841
571.005	11995
571.064	13560
571.122	13955
571.181	12849
571.240	11980
571.299	12264
571.357	11709
571.416	11339
571.475	12297
571.533	11890
571.592	13308
571.650	13829
571.709	11772
571.768	13865
571.826	15071
571.885	13408
571.943	12283
572.002	11516
572.060	11645
572.119	12372
572.177	12857
572.236	12479
572.294	11597
572.352	13508
572.411	13690
572.469	12211
572.528	12296
572.586	12748
572.644	12216
572.703	12642
572.761	11605
572.819	11980
572.877	11327
572.936	10263
572.994	10224
573.052	11386
573.110	10524
573.169	11977
573.227	11532
573.285	11728
573.343	10715
573.401	11358
573.459	12367
573.517	11051
573.576	11769
573.634	11726
573.692	10651
573.750	10681
573.808	10236
573.866	10303
573.924	10723
573.982	10719
574.040	10069
574.098	10835
574.155	11417
574.213	9975
574.271	10878
574.329	11938
574.387	10695
574.445	9414
574.503	9578
574.560	9551
574.618	10124
574.676	9417
574.734	10047
574.792	9671
574.849	9211
574.907	8898
574.965	8420
575.022	7475
575.080	8196
575.138	9057
575.195	8318
575.253	6934
575.311	8676
575.368	8595
575.426	7488
575.483	8693
575.541	9487
575.598	8638
575.656	8724
575.713	9023
575.771	8790
575.828	8649
575.886	7060
575.943	7764
576.001	8266
576.058	7426
576.115	8172
576.173	8438
576.230	7961
576.287	8955
576.345	7632
576.402	9198
576.459	8235
576.517	8019
576.574	8067
576.631	7984
576.688	7690
576.746	7226
576.803	7460
576.860	7449
576.917	7987
576.974	7445
577.031	8680
577.089	7736
577.146	6931
577.203	7411
577.260	7463
577.317	7169
577.374	6956
577.431	6613
577.488	7223
577.545	7766
577.602	7990
577.659	7700
577.716	7808
577.773	8088
577.830	7737
577.886	7674
577.943	6709
578.000	7770
578.057	7156
578.114	7474
578.171	8059
578.227	6744
578.284	6633
578.341	7902
578.398	7778
578.454	7754
578.511	6525
578.568	8239
578.625	6043
578.681	6691
578.738	7108
578.794	6921
578.851	7295
578.908	7126
578.964	7092
579.021	8001
579.077	6447
579.134	6957
579.190	7849
579.247	7980
579.303	6740
579.360	6498
579.416	6517
579.473	7267
579.529	7745
579.586	7790
579.642	7842
579.698	8080
579.755	8047
579.811	7694
579.867	7591
579.924	7523
579.980	8293
580.036	7773
580.093	8042
580.149	8379
580.205	8403
580.261	8191
580.317	8663
580.374	7986
580.430	8770
580.486	8290
580.542	7451
580.598	7770
580.619	8147
580.654	8809
580.692	8549
580.710	8438
580.765	8969
580.767	8997
580.823	8687
580.838	8785
580.879	9077
580.911	8837
580.935	8693
580.984	8305
580.991	8260
581.047	9166
581.057	9100
581.103	8847
581.130	8485
581.159	8134
581.203	8012
581.215	7998
581.270	7925
581.276	7916
581.326	7859
581.349	7683
581.382	7438
581.422	8025
581.438	8284
581.494	7464
581.494	7459
581.550	7710
581.567	7786
581.606	7916
581.640	8029
581.661	8121
581.713	9038
581.717	9122
581.773	7704
581.786	7710
581.829	7676
581.859	7661
581.885	7701
581.932	7835
581.940	7861
581.996	9304
582.004	9224
582.052	8788
582.077	8416
582.107	8043
582.150	7881
582.163	7814
582.219	7903
582.223	7912
582.274	8142
582.296	7675
582.330	6838
582.368	7797
582.386	8352
582.441	8646
582.441	8649
582.497	7864
582.514	7633
582.552	7376
582.587	8227
582.608	8686
582.659	7565
582.663	7485
582.719	8277
582.732	8303
582.774	8359
582.805	8078
582.830	7826
582.877	8335
582.885	8452
582.941	7961
582.950	8117
582.996	8576
583.023	8227
583.052	8113
583.095	8498
583.107	8532
583.162	8795
583.168	8712
583.218	7994
583.240	7724
583.273	7320
583.313	7438
583.328	7536
583.384	7631
583.385	7613
583.439	6856
583.458	7191
583.494	7795
583.531	7333
583.549	7224
583.603	7185
583.605	7169
583.660	7676
583.676	7515
583.715	7378
583.748	7390
583.770	7295
583.820	7318
583.825	7319
583.881	7789
583.893	7560
583.936	6972
583.965	7040
583.991	7025
584.038	7800
584.046	7909
584.101	7065
584.110	7049
584.156	7365
584.183	7372
584.211	7056
584.255	7441
584.266	7666
584.321	8295
584.328	8307
584.376	7846
584.400	7677
584.431	7799
584.472	8092
584.486	8037
584.541	7948
584.545	7960
584.596	8080
584.617	7942
584.651	8263
584.689	8985
584.706	8986
584.761	9025
584.762	9022
584.816	8669
584.834	9110
584.871	10117
584.906	10706
584.926	10973
584.978	10960
584.980	10955
585.035	11716
585.051	11974
585.090	12923
585.123	13893
585.145	14528
585.195	16224
585.200	16410
585.254	19358
585.267	20239
585.309	22773
585.340	24164
585.364	25942
585.412	31052
585.419	31853
585.473	40243
585.484	42565
585.528	55937
585.556	69873
585.583	96948
585.628	159978
585.637	181724
585.692	367956
585.700	396378
585.747	484010
585.772	413751
585.801	260371
585.845	94524
585.856	74238
585.910	36492
585.917	32949
585.965	24788
585.989	21688
586.019	19578
586.061	17314
586.074	16787
586.128	15176
586.133	15076
586.183	14434
586.205	14347
586.237	13998
586.277	13647
586.292	13670
586.346	12875
586.349	12877
586.401	12560
586.421	12758
586.455	13199
586.493	12890
586.509	12764
586.564	12743
586.565	12768
586.618	14352
586.637	15160
586.672	17173
586.709	19278
586.727	20119
586.781	22090
586.781	22077
586.835	16884
586.853	15613
586.889	13881
586.925	12840
586.944	12595
586.996	12524
586.998	12520
587.052	12582
587.068	12607
587.106	12655
587.140	12676
587.161	12728
587.212	13086
587.215	13065
587.269	12475
587.284	12492
587.323	13173
587.356	13630
587.377	13720
587.427	14542
587.431	14542
587.485	14040
587.499	13902
587.539	14067
587.571	14271
587.593	14468
587.643	15437
587.648	15477
587.702	15745
587.715	15883
587.755	16066
587.786	15994
587.810	15976
587.858	15879
587.864	15843
587.917	16149
587.930	16201
587.971	16196
588.001	16076
588.025	15825
588.073	15373
588.079	15404
588.133	16008
588.145	16208
588.187	16545
588.217	16749
588.241	16621
588.288	17094
588.295	17250
588.348	17563
588.360	17846
588.402	18272
588.431	18464
588.456	18788
588.503	19689
588.510	19791
588.564	20975
588.575	21377
588.617	23221
588.646	24450
588.671	25084
588.718	26860
588.725	27429
588.778	34291
588.789	36221
588.832	53045
588.861	68058
588.886	98731
588.932	171177
588.939	178053
588.993	220157
589.004	215888
589.047	109303
589.075	52909
589.100	39261
589.147	26171
589.154	25541
589.207	22731
589.218	22321
589.261	23196
589.290	23991
589.314	24675
589.361	27830
589.368	28742
589.421	37476
589.433	40236
589.475	69487
589.504	94872
589.528	126092
589.576	191087
589.582	185608
589.635	87688
589.647	69827
589.689	37644
589.718	21797
589.742	20194
589.790	17714
589.795	17607
589.849	17340
589.861	17329
589.902	16616
589.932	16209
589.955	16303
590.004	16519
590.009	16437
590.062	15838
590.075	15723
590.115	15524
590.146	15544
590.168	15660
590.218	15818
590.222	15741
590.275	15298
590.289	15150
590.328	15910
590.360	16808
590.381	16776
590.431	16578
590.435	16555
590.488	16818
590.503	16877
590.541	17396
590.574	17951
590.594	17976
590.645	18246
590.647	18218
590.700	18205
590.716	18251
590.753	18688
590.787	19278
590.806	19204
590.859	19001
590.859	18980
590.912	20146
590.930	20735
590.965	20629
591.001	20445
591.018	20328
591.071	19832
591.072	19866
591.124	19798
591.143	19821
591.177	19711
591.214	19883
591.230	20138
591.283	21012
591.285	21077
591.336	20458
591.356	20348
591.389	20271
591.427	20158
591.442	19894
591.495	19128
591.498	19118
591.547	19660
591.569	19982
591.600	20341
591.640	20908
591.653	20864
591.706	20701
591.711	20737
591.759	20792
591.782	20926
591.811	21377
591.853	22084
591.864	22099
591.917	22416
591.924	22500
591.969	22124
591.995	22022
592.022	22230
592.066	22718
592.075	22659
592.127	22616
592.137	22659
592.180	23030
592.208	23370
592.233	23514
592.279	24003
592.285	24057
592.338	24988
592.350	25253
592.390	25057
592.421	25028
592.443	25287
592.491	26048
592.495	25989
592.548	26029
592.562	26105
592.600	24804
592.633	23816
592.653	24070
592.704	24801
592.705	24969
592.775	26461
592.846	26091
592.916	26885
592.987	27598
593.058	27850
593.128	28161
593.199	27994
593.270	28085
593.341	29011
593.411	29736
593.482	31063
593.553	32428
593.623	32207
593.694	33561
593.764	33243
593.835	33392
593.906	33499
593.976	34713
594.047	34803
594.117	38101
594.188	38451
594.258	37720
594.329	38485
594.399	39630
594.470	40628
594.540	42269
594.611	43422
594.681	41758
594.751	42141
594.822	44605
594.892	46493
594.963	47806
595.033	49187
595.103	50197
595.174	50290
595.244	51216
595.314	54250
595.384	55261
595.455	57473
595.525	57148
595.595	60564
595.665	60118
595.736	58513
595.806	60085
595.876	62031
595.946	61743
596.016	65115
596.087	66056
596.157	66313
596.227	65530
596.297	70727
596.367	74095
596.437	79226
596.507	79145
596.577	78175
596.647	81862
596.717	84751
596.787	86195
596.857	87124
596.927	87989
596.997	88464
597.067	88976
597.137	90302
597.207	90443
597.277	91086
597.347	88287
597.417	84680
597.487	85956
597.557	87983
597.626	90389
597.696	90455
597.766	89475
597.836	83956
597.906	80590
597.975	78377
598.045	79490
598.115	83857
598.185	90604
598.254	100767
598.324	110442
598.394	110823
598.464	109160
598.533	107380
598.603	99200
598.672	95330
598.742	100065
598.812	99675
598.881	102013
598.951	100748
599.020	103046
599.090	107427
599.159	108033
599.229	104328
599.299	100956
599.368	105294
599.437	103451
599.507	94041
599.576	90676
599.646	90368
599.715	88769
599.785	85994
599.854	83285
599.924	83258
599.993	82951
600.062	84677
600.132	87111
600.201	92345
600.270	109103
600.340	114380
600.409	112485
600.478	112016
600.547	114515
600.617	102005
600.686	81001
600.755	72347
600.824	68385
600.894	67566
600.963	67633
601.032	67172
601.101	64418
601.170	59942
601.239	58698
601.308	58789
601.378	59567
601.447	59410
601.516	59669
601.585	60157
601.654	60973
601.723	61369
601.792	62434
601.861	64868
601.930	66844
601.999	68142
602.068	67267
602.137	68353
602.206	69597
602.275	71113
602.343	71026
602.412	70946
602.481	72962
602.550	73762
602.619	75504
602.688	75826
602.756	78062
602.825	78852
602.894	80311
602.963	81869
603.032	83214
603.100	83265
603.169	84111
603.238	83737
603.307	84111
603.375	86392
603.444	88367
603.513	90165
603.581	91067
603.650	91290
603.719	90289
603.787	92309
603.856	96005
603.924	98596
603.993	103197
604.061	105549
604.130	112482
604.198	111855
604.267	114918
604.335	116263
604.404	119615
604.472	120206
604.541	122068
604.609	121997
604.678	123358
604.746	123374
604.815	126384
604.883	130570
604.951	129626
605.020	131879
605.088	135363
605.156	139126
605.225	141134
605.293	140289
605.361	140391
605.429	140704
605.498	146256
605.566	148359
605.634	156296
605.702	162111
605.771	167411
605.839	167698
605.907	163986
605.975	156761
606.043	154389
606.111	155237
606.180	154638
606.248	151907
606.316	150247
606.384	150911
606.452	153190
606.520	156782
606.588	161419
606.656	164631
606.724	160185
606.792	151939
606.860	134555
606.928	123785
606.996	119117
607.064	116551
607.132	120480
607.200	128922
607.267	132880
607.335	135895
607.403	138271
607.471	131211
607.539	129833
607.607	129938
607.674	112999
607.742	114335
607.810	113820
607.878	113378
607.946	116357
608.013	121682
608.081	123988
608.149	123992
608.216	129369
608.284	134397
608.352	133556
608.419	131435
608.487	130980
608.555	126373
608.622	132017
608.690	141364
608.757	154823
608.825	157580
608.893	154775
608.960	142948
609.028	137476
609.095	138366
609.163	137278
609.230	121949
609.298	112490
609.365	118838
609.432	128252
609.500	139989
609.567	162346
609.635	183596
609.702	192133
609.769	181740
609.837	140280
609.904	122807
609.971	128873
610.039	144436
610.106	190188
610.173	360877
610.241	763000
610.308	413464
610.375	164719
610.442	135816
610.509	129550
610.577	129074
610.644	130736
610.711	133512
610.778	139480
610.845	143877
610.912	152361
610.980	159452
611.047	157122
611.114	153899
611.181	149964
611.248	149367
611.315	160246
611.382	162537
611.449	170719
611.516	171611
611.583	168157
611.650	171329
611.717	173710
611.784	175357
611.851	183382
611.918	194785
611.984	228298
612.051	313328
612.118	575748
612.185	1160023
612.252	761630
612.319	288750
612.386	232891
612.452	209747
612.519	197681
612.586	190323
612.653	195564
612.719	200032
612.786	190933
612.853	179500
612.919	175754
612.986	177466
613.053	168062
613.120	156261
613.186	152089
613.253	153547
613.319	153859
613.386	153330
613.453	156617
613.519	156343
613.586	153885
613.652	157472
613.719	151932
613.785	157549
613.852	156612
613.918	155794
613.985	159399
614.051	166209
614.118	164755
614.184	157238
614.250	158998
614.317	161459
614.383	159124
614.449	162552
614.516	159736
614.582	162064
614.648	158213
614.715	156696
614.781	151700
614.847	153518
614.914	151522
614.980	146761
615.046	150177
615.112	153986
615.179	155267
615.245	156307
615.311	154132
615.377	156163
615.443	156860
615.509	163158
615.575	168285
615.642	166530
615.708	169067
615.774	176175
615.840	188140
615.906	200943
615.972	241733
616.038	357155
616.104	685039
616.170	1281571
616.236	1049684
616.302	416204
616.368	321884
616.434	229760
616.500	207891
616.565	237261
616.631	303090
616.697	241031
616.763	251312
616.829	392257
616.895	683459
616.961	617269
617.026	271778
617.092	187461
617.158	172425
617.224	165643
617.289	150288
617.355	142381
617.421	139868
617.487	142060
617.552	133126
617.618	131723
617.684	132253
617.749	134210
617.815	128795
617.880	124633
617.946	124467
618.012	127106
618.077	130370
618.143	122849
618.208	125421
618.274	134884
618.339	133734
618.405	109638
618.470	111613
618.536	110617
618.601	109114
618.667	101152
618.732	96119
618.798	94787
618.863	95471
618.928	94111
618.994	95229
619.059	96228
619.124	95631
619.190	95009
619.255	93010
619.320	93609
619.386	94695
619.451	92850
619.516	91015
619.581	92753
619.647	94199
619.712	94691
619.777	90165
619.842	92258
619.907	92327
619.972	94110
620.038	93254
620.103	92246
620.168	90858
620.233	92136
620.298	93473
620.363	95453
620.428	97228
620.493	100228
620.558	101022
620.623	101749
620.688	101178
620.753	102061
620.818	102026
620.883	103781
620.948	103922
621.013	100519
621.078	99135
621.143	100867
621.207	103898
621.272	101166
621.337	96916
621.402	96496
621.467	94058
621.532	96044
621.596	94466
621.661	92041
621.726	92207
621.791	93000
621.855	92370
621.920	91510
621.985	93549
622.049	94814
622.114	95058
622.179	96976
622.243	98877
622.308	101854
622.373	106281
622.437	103272
622.502	98092
622.566	94976
622.631	94601
622.695	100638
622.760	97669
622.824	97617
622.889	98504
622.953	98463
623.018	105752
623.082	104918
623.147	104661
623.211	101105
623.276	101149
623.340	95278
623.404	94447
623.469	95007
623.533	96342
623.597	93246
623.662	92813
623.726	86027
623.790	82257
623.854	78162
623.919	81174
623.983	82048
624.047	84131
624.111	82731
624.176	85573
624.240	86331
624.304	88644
624.368	85365
624.432	85693
624.496	87583
624.560	92540
624.625	92304
624.689	92505
624.753	96746
624.817	92034
624.881	89151
624.945	80934
625.009	78402
625.073	80518
625.137	81780
625.201	86669
625.265	85432
625.329	82619
625.393	84694
625.456	84925
625.520	86826
625.584	87959
625.648	91453
625.712	92247
625.776	91295
625.839	86096
625.903	72842
625.967	67945
626.031	75328
626.095	88090
626.158	78513
626.222	62696
626.286	59251
626.349	56126
626.413	52101
626.477	52451
626.540	53909
626.604	51899
626.668	52955
626.731	51015
626.795	51686
626.858	51091
626.922	49036
626.986	50725
627.049	47853
627.113	52943
627.176	49843
627.240	48657
627.303	49598
627.366	47154
627.430	50605
627.493	46980
627.557	46677
627.620	49612
627.684	50334
627.747	51521
627.810	45130
627.874	42406
627.937	39500
628.000	44960
628.064	40461
628.127	35268
628.190	36456
628.253	35546
628.317	33618
628.380	32103
628.443	31091
628.506	31775
628.569	29785
628.632	27654
628.696	28894
628.759	27287
628.822	26557
628.885	25486
628.948	25468
629.011	25171
629.074	24631
629.137	22676
629.200	22337
629.263	23244
629.326	22310
629.389	22910
629.452	21970
629.515	20968
629.578	21333
629.641	21897
629.704	21173
629.767	20945
629.830	21414
629.892	20875
629.955	20313
630.018	22261
630.081	20108
630.144	20146
630.207	19744
630.269	21796
630.332	18920
630.395	20234
630.458	19400
630.520	18122
630.583	19785
630.646	19609
630.708	19037
630.771	18557
630.834	22017
630.896	20680
630.959	20356
631.021	19891
631.084	20148
631.146	21122
631.209	20750
631.272	18894
631.334	21811
631.397	20395
631.459	20556
631.522	23385
631.584	24822
631.646	27262
631.709	28823
631.771	27246
631.834	27161
631.896	25798
631.958	23068
632.021	21963
632.083	20900
632.145	20502
632.208	19535
632.270	20263
632.332	18334
632.395	18580
632.457	19633
632.519	18312
632.581	19572
632.643	17604
632.706	19216
632.768	16573
632.830	19155
632.892	19136
632.954	19114
633.016	19532
633.078	19167
633.141	19096
633.203	18984
633.265	19029
633.327	19149
633.389	19156
633.451	20149
633.513	18970
633.575	20113
633.637	19743
633.698	20137
633.760	22485
633.822	21883
633.884	22930
633.946	24591
634.008	24745
634.070	26979
634.132	28949
634.193	31472
634.255	37136
634.317	37524
634.379	35817
634.441	31652
634.502	27654
634.564	25371
634.626	21740
634.687	21404
634.749	20004
634.811	19533
634.873	19541
634.934	19008
634.996	19912
635.057	19554
635.119	19722
635.181	21429
635.242	21293
635.304	19055
635.365	22176
635.427	19304
635.488	20502
635.550	19334
635.611	21157
635.673	20422
635.734	24709
635.796	23953
635.857	28642
635.918	30415
635.980	35676
636.041	38101
636.102	41843
636.164	41898
636.225	40241
636.286	32113
636.348	28841
636.409	24800
636.470	22042
636.531	20872
636.593	19777
636.654	19402
636.715	18427
636.776	17860
636.838	16451
636.899	17405
636.960	16129
637.021	15719
637.082	14701
637.143	15911
637.204	14432
637.265	14927
637.326	15689
637.387	17110
637.448	14770
637.509	16629
637.570	15438
637.631	16549
637.692	13817
637.753	13516
637.814	14801
637.875	14576
637.936	14645
637.997	13745
638.058	14081
638.119	14570
638.179	14677
638.240	13147
638.301	13487
638.362	12475
638.423	13152
638.483	13955
638.544	11749
638.605	12431
638.666	12622
638.726	12925
638.787	13679
638.848	13075
638.908	12112
638.969	12862
639.030	13088
639.090	10335
639.151	11956
639.211	14636
639.272	13393
639.332	13365
639.393	13563
639.453	13980
639.514	16106
639.574	12993
639.635	11919
639.695	12073
639.756	9965
639.816	11263
639.877	11006
639.937	12010
639.997	12033
640.058	10879
640.118	11126
640.178	11746
640.239	10981
640.299	11566
640.359	11545
640.420	13676
640.480	15172
640.540	19011
640.600	18008
640.661	16014
640.721	14389
640.781	15340
640.841	10039
640.901	11699
640.961	12263
641.021	12980
641.082	13522
641.142	11915
641.202	11877
641.262	9372
641.322	11212
641.382	9680
641.442	10424
641.502	10394
641.562	11306
641.622	11623
641.682	13419
641.742	16136
641.802	14092
641.861	10935
641.921	10388
641.981	10303
642.041	10158
642.101	9323
642.161	8407
642.221	8955
642.280	9855
642.340	9984
642.400	8939
642.460	11657
642.519	9499
642.579	10315
642.639	11147
642.698	8612
642.758	12688
642.818	11233
642.877	10094
642.937	11338
642.997	11275
643.056	10711
643.116	8539
643.175	12581
643.235	10648
643.294	11454
643.354	12491
643.414	14688
643.473	17474
643.532	19632
643.592	29144
643.651	46748
643.711	85842
643.770	170301
643.830	406757
643.889	692369
643.948	186404
644.008	45364
644.067	26371
644.126	18923
644.186	15916
644.245	14993
644.304	11534
644.363	14392
644.423	10737
644.482	11701
644.541	14139
644.600	12146
644.659	18982
644.719	23167
644.778	37706
644.837	68882
644.896	149118
644.955	315361
645.014	88342
645.073	22456
645.132	15897
645.191	14826
645.250	13611
645.309	15218
645.368	16694
645.427	25412
645.486	47946
645.545	78931
645.604	20421
645.663	12607
645.722	12246
645.781	13660
645.840	14717
645.898	18852
645.957	28181
646.016	43139
646.075	82770
646.134	164563
646.192	429901
646.251	519706
646.310	95498
646.369	32423
646.427	25490
646.486	17605
646.545	13641
646.603	12416
646.662	11008
646.721	11112
646.779	10238
646.838	11996
646.896	16479
646.955	23242
647.014	40015
647.072	82784
647.131	224162
647.189	87065
647.248	13767
647.306	10425
647.365	10094
647.423	7161
647.481	9430
647.540	6911
647.598	6863
647.657	7349
647.715	7868
647.773	5506
647.832	7686
647.890	5237
647.948	5423
648.007	6778
648.065	5136
648.123	5637
648.181	6495
648.240	6023
648.298	4683
648.356	5938
648.414	6104
648.472	6231
648.531	6217
648.589	5650
648.647	6203
648.705	5793
648.763	5559
648.821	6146
648.879	5920
648.937	7516
648.995	9433
649.053	12356
649.111	20607
649.169	38082
649.227	72325
649.285	159263
649.343	412991
649.401	165777
649.459	24225
649.516	13798
649.574	9626
649.632	11134
649.690	11845
649.748	16881
649.806	27231
649.863	57187
649.921	167734
649.979	89959
650.037	12601
650.094	5314
650.152	6581
650.210	4664
650.268	4863
650.325	4861
650.383	3755
650.440	3202
650.498	4597
650.556	3293
650.613	3795
650.671	4221
650.728	4424
650.786	5320
650.843	8019
650.901	3644
650.958	3347
651.016	2722
651.073	3425
651.131	3199
651.188	2557
651.246	2921
651.303	2116
651.360	2613
651.418	2550
651.475	3218
651.532	2277
651.590	3977
651.647	1771
651.704	2282
651.762	2446
651.819	2621
651.876	2103
651.933	2679
651.990	2767
652.048	1910
652.105	2122
652.162	2455
652.219	2189
652.276	3190
652.333	2073
652.390	1783
652.448	2961
652.505	2703
652.562	2725
652.619	1785
652.676	1515
652.733	3025
652.790	2392
652.847	970
652.904	1995
652.961	1478
653.017	1147
653.074	2409
653.131	2571
653.188	620
653.245	1566
653.302	2668
653.359	1897
653.415	2175
653.472	1189
653.529	2505
653.586	1896
653.642	1691
653.699	2207
653.756	1527
653.813	1624
653.869	2241
653.926	2160
653.983	1427
654.039	2127
654.096	2330
654.152	2646
654.209	647
654.266	1401
654.322	425
654.379	1823
654.435	2136
654.492	1527
654.548	1730
654.605	1343
654.661	2352
654.717	1909
654.774	1829
654.830	1959
654.887	2107
654.943	914
655.000	2372
655.056	1965
655.112	2421
655.168	1713
655.225	1424
655.281	2480
655.337	1641
655.394	1445
655.450	953
655.506	1325
655.562	846
655.618	3024
655.675	1166
655.731	1628
655.787	2244
655.843	2621
655.899	1338
655.955	2415
656.011	2813
656.067	2073
656.123	3389
656.179	2725
656.235	4650
656.291	2198
656.347	3776
656.403	1753
656.459	2678
656.515	1773
656.571	2329
656.627	1933
656.683	1032
656.739	2096
656.795	2278
656.850	1441
656.906	1146
656.962	2694
657.018	1959
657.074	2707
657.129	4279
657.185	8499
657.241	21751
657.297	9257
657.352	2379
657.408	700
657.464	2128
657.519	311
657.575	794
657.630	1207
657.686	1811
657.742	393
657.797	789
657.853	1303
657.908	1682
657.964	361
658.019	1396
658.075	1749
658.130	861
658.186	-48
658.241	1423
658.297	77
658.352	326
658.407	1520
658.463	-253
658.518	932
658.573	787
658.629	-479
658.684	24
658.739	1206
658.795	683
658.850	1537
658.905	255
658.960	1687
659.016	639
659.071	518
659.126	876
659.181	574
659.236	1518
659.291	1455
659.346	321
659.401	402
659.457	1159
659.512	-368
659.567	821
659.622	1015
659.677	791
659.732	392
659.787	436
659.842	536
659.897	-45
659.952	477
660.007	587
660.061	547
660.116	214
660.171	462
660.226	95
660.281	1209
660.336	-532
660.391	515
660.445	-471
660.500	601
660.555	1340
660.610	-10
660.664	1609
660.719	467
660.774	400
660.828	998
660.883	300
660.938	1005
660.992	-366
661.047	1409
661.101	-248
661.156	11
661.211	492
661.265	120
661.320	998
661.374	129
661.429	601
661.483	287
661.538	-69
661.592	-448
661.647	-623
661.701	1127
661.755	-72
661.810	925
661.864	-97
661.919	-119
661.973	1101
662.027	411
662.081	350
662.136	865
662.190	823
662.244	319
662.299	946
662.353	875
662.407	694
662.461	-542
662.515	518
662.569	903
662.624	982
662.678	-33
662.732	-275
662.786	483
662.840	-563
662.894	718
662.948	197
663.002	-626
663.056	225
663.110	495
663.164	201
663.218	-58
663.272	382
663.326	1044
663.380	781
663.434	1169
663.488	376
663.542	-310
663.595	-96
663.649	502
663.703	1050
663.757	753
663.811	731
663.864	-53
663.918	557
663.972	309
664.026	573
664.079	361
664.133	489
664.187	1049
664.240	-388
664.294	190
664.348	2234
664.401	-1
664.455	834
664.508	441
664.562	300
664.615	757
664.669	87
664.722	803
664.776	300
664.829	218
664.883	477
664.936	493
664.990	620
665.043	385
665.097	-235
665.150	1496
665.203	547
665.257	866
665.310	397
665.363	1014
665.417	650
665.470	383
665.523	1186
665.576	955
665.630	757
665.683	1371
665.736	694
665.789	417
665.842	815
665.895	611
665.949	802
666.002	743
666.055	471
666.108	1355
666.161	1075
666.214	738
666.267	115
666.320	1062
666.373	507
666.426	541
666.479	-172
666.532	611
666.585	1493
666.638	1354
666.691	459
666.744	1441
666.796	707
666.849	717
666.902	1546
666.955	490
667.008	445
667.060	199
667.113	522
667.166	692
667.219	1381
667.271	1043
667.324	985
667.377	1367
667.430	1057
667.482	997
667.535	240
667.587	1130
667.640	511
667.693	1186
667.745	495
667.798	1230
667.850	1271
667.903	1494
667.955	1144
668.008	486
668.060	338
668.113	709
668.165	1051
668.218	589
668.270	683
668.322	1443
668.375	-47
668.427	1155
668.479	452
668.532	1212
668.584	605
668.636	1034
668.689	1212
668.741	131
668.793	789
668.845	928
668.898	914
668.950	319
669.002	1106
669.054	167
669.106	-17
669.158	145
669.211	387
669.263	243
669.315	1356
669.367	881
669.419	7
669.471	850
669.523	173
669.575	932
669.627	716
669.679	477
669.731	673
669.783	708
669.835	941
669.886	566
669.938	1306
669.990	-76
670.042	304
670.094	904
670.146	1407
670.197	947
670.249	1243
670.301	469
670.353	1095
670.404	996
670.456	1002
670.508	1380
670.560	2601
670.611	3626
670.663	8117
670.715	20143
670.766	29457
670.818	7540
670.869	1094
670.921	1544
670.972	1507
671.024	1295
671.075	2015
671.127	837
671.178	2025
671.230	1830
671.281	2028
671.333	2035
671.384	2584
671.436	3932
671.487	6765
671.538	11651
671.590	19998
671.641	34815
671.692	66912
671.744	121878
671.795	72998
671.846	23438
671.897	10422
671.949	6147
672.000	5460
672.051	3113
672.102	3086
672.153	1423
672.204	1960
672.256	1984
672.307	1421
672.358	661
672.409	1870
672.460	1296
672.511	1467
672.562	408
672.613	435
672.664	231
672.715	767
672.766	-218
672.817	422
672.868	816
672.919	346
672.970	-186
673.021	333
673.071	-637
673.122	317
673.173	689
673.224	42
673.275	475
673.326	54
673.376	-382
673.427	-109
673.478	251
673.528	501
673.579	889
673.630	1
673.680	644
673.731	86
673.782	226
673.832	-318
673.883	375
673.934	-894
673.984	-29
674.035	403
674.085	876
674.136	700
674.186	269
674.237	644
674.287	720
674.338	104
674.388	720
674.438	-136
674.489	1350
674.539	967
674.589	497
674.640	1336
674.690	148
674.740	165
674.791	257
674.841	584
674.891	-605
674.942	3
674.992	-143
675.042	-87
675.092	-207
675.142	49
675.193	56
675.243	-78
675.293	168
675.343	-1171
675.393	156
675.443	610
675.493	-82
675.543	-431
675.593	52
675.643	24
675.693	635
675.743	231
675.793	243
675.843	-625
675.893	233
675.943	673
675.993	-434
676.043	-533
676.093	317
676.142	73
676.192	558
676.242	259
676.292	-677
676.341	-148
676.391	-521
676.441	-706
676.491	-406
676.540	-393
676.590	-77
676.640	-1008
676.689	-6
676.739	-605
676.789	-358
676.838	-378
676.888	-149
676.937	-183
676.987	380
677.037	-357
677.086	53
677.136	-305
677.185	-324
677.235	254
677.284	173
677.333	-133
677.383	-394
677.432	-83
677.482	300
677.531	-206
677.580	-930
677.630	-881
677.679	-351
677.728	-37
677.778	629
677.827	-23
677.876	-854
677.925	523
677.975	-276
678.024	-368
678.073	114
678.122	221
678.171	78
678.220	-132
678.269	981
678.319	640
678.368	818
678.417	-422
678.466	176
678.515	-81
678.564	-1055
678.613	-785
678.662	-1347
678.711	-500
678.760	-511
678.809	-278
678.857	-806
678.906	149
678.955	-1169
679.004	-591
679.053	-1021
679.102	17
679.151	-513
679.199	-1152
679.248	586
679.297	-1003
679.346	-906
679.394	-779
679.443	-424
679.492	-666
679.540	-750
679.589	-38
679.638	-593
679.686	-182
679.735	-660
679.784	-86
679.832	546
679.881	-622
679.929	196
679.978	-791
680.026	-707
680.075	-294
680.123	-490
680.172	-141
680.220	-656
680.268	-98
680.317	-1411
680.365	-931
680.414	-1226
680.462	-460
680.510	-445
680.559	-639
680.607	-109
680.655	-183
680.703	-461
680.752	-719
680.800	-804
680.848	-1178
680.896	-284
680.945	-1243
680.993	90
681.041	-94
681.089	-615
681.137	-1163
681.185	-281
681.233	-317
681.258	-614
681.281	-910
681.329	-481
681.377	-353
681.380	-342
681.425	-408
681.473	-652
681.502	-407
681.521	-268
681.569	-32
681.617	-370
681.624	-345
681.665	-292
681.713	-426
681.745	-56
681.761	93
681.809	-784
681.857	119
681.867	-45
681.904	-660
681.952	-36
681.989	-441
682.000	-588
682.048	-258
682.096	-359
682.111	-427
682.143	-599
682.191	311
682.233	103
682.239	51
682.286	-511
682.334	-257
682.354	-326
682.382	-419
682.430	707
682.476	119
682.477	92
682.525	200
682.572	-131
682.598	79
682.620	254
682.667	361
682.715	153
682.720	233
682.763	747
682.810	-32
682.841	72
682.857	137
682.905	-95
682.952	646
682.963	611
683.000	385
683.047	564
683.085	1208
683.095	1382
683.142	1195
683.190	876
683.206	1004
683.237	1153
683.284	957
683.328	310
683.332	250
683.379	307
683.426	204
683.449	257
683.473	310
683.521	682
683.568	640
683.571	653
683.615	536
683.662	1027
683.693	741
683.709	589
683.757	784
683.804	218
683.814	385
683.851	995
683.898	1309
683.936	1283
683.945	1242
683.992	528
684.039	759
684.057	885
684.086	1114
684.133	1229
684.179	554
684.180	523
684.227	428
684.274	1397
684.300	1362
684.321	1322
684.368	889
684.415	1635
684.422	1575
684.462	1149
684.509	107
684.543	496
684.556	638
684.603	2053
684.649	1193
684.665	1141
684.696	997
684.743	859
684.786	1597
684.790	1652
684.837	1043
684.883	1555
684.908	1641
684.930	1696
684.977	1680
685.023	1729
685.029	1710
685.070	1473
685.117	1079
685.150	1346
685.164	1456
685.210	1613
685.257	2185
685.272	2136
685.303	2028
685.350	1801
685.393	1875
685.396	1862
685.443	1892
685.490	1852
685.514	1530
685.536	1322
685.583	1445
685.629	1639
685.636	1699
685.675	2030
685.722	1756
685.757	1918
685.768	1989
685.815	1894
685.861	2424
685.878	2375
685.908	2221
685.954	2195
686.000	2757
686.000	2761
686.047	1760
686.093	2098
686.121	2391
686.139	2582
686.185	2181
686.232	1866
686.242	1989
686.278	2436
686.324	2470
686.363	2451
686.370	2443
686.416	2235
686.463	2711
686.484	2486
686.509	2174
686.555	2858
686.601	1646
686.606	1691
686.647	2195
686.693	2522
686.727	2410
686.739	2386
686.785	2871
686.831	2195
686.848	2340
686.877	2531
686.923	2338
686.969	2631
686.969	2633
687.015	2124
687.061	3091
687.090	3054
687.107	2950
687.153	3011
687.199	2910
687.211	2764
687.245	2409
687.291	2926
687.332	2611
687.336	2594
687.382	2512
687.428	2663
687.453	2893
687.474	3037
687.520	3104
687.565	2499
687.574	2526
687.611	2748
687.657	2896
687.695	3412
687.702	3492
687.748	3496
687.794	3515
687.816	3132
687.839	2713
687.885	3379
687.931	3251
687.937	3259
687.976	3355
688.022	3137
688.058	3341
688.067	3397
688.113	3496
688.158	3058
688.179	3077
688.204	3115
688.249	3667
688.295	3492
688.300	3510
688.340	3571
688.386	3256
688.421	3224
688.431	3230
688.477	3556
688.522	3580
688.542	3435
688.567	3411
688.613	3463
688.658	4323
688.663	4317
688.703	4087
688.749	4217
688.784	4190
688.794	4139
688.839	3882
688.884	3425
688.905	3497
688.930	3834
688.975	4402
689.020	4159
689.026	4215
689.065	4204
689.110	3801
689.146	3574
689.155	3613
689.201	3511
689.246	4343
689.267	4305
689.291	4114
689.336	4096
689.381	3622
689.388	3623
689.426	3899
689.471	4081
689.509	4094
689.516	4062
689.561	3859
689.606	4019
689.630	3992
689.651	4055
689.696	3862
689.741	4098
689.750	4119
689.785	4355
689.830	4307
689.871	4865
689.875	4901
689.920	4594
689.965	4496
689.992	4437
690.010	4358
690.054	4069
690.099	3646
690.112	3736
690.144	4170
690.189	3414
690.233	3883
690.233	3893
690.278	4244
690.323	4299
690.354	3998
690.367	3932
690.412	4359
690.457	4248
690.474	4379
690.501	4329
690.546	4303
690.590	4484
690.595	4412
690.635	4176
690.680	3967
690.716	4049
690.724	4055
690.769	4114
690.813	4642
690.836	4374
690.857	4350
690.902	4463
690.946	5234
690.957	5295
690.991	5413
691.035	5874
691.077	6086
691.080	6085
691.124	5713
691.168	5190
691.198	5287
691.213	5392
691.257	5247
691.301	5011
691.318	4881
691.346	4711
691.390	4710
691.434	4758
691.439	4740
691.478	4683
691.522	4390
691.559	4688
691.567	4802
691.611	4884
691.655	4605
691.680	4938
691.699	5141
691.743	4966
691.787	5370
691.800	5225
691.831	5022
691.875	5311
691.919	5653
691.921	5643
691.964	5254
692.008	5007
692.041	4463
692.052	4428
692.096	4737
692.139	5048
692.162	5123
692.183	5001
692.227	4561
692.271	4716
692.282	4545
692.315	4322
692.359	4621
692.402	4832
692.403	4844
692.447	4229
692.490	4774
692.523	4742
692.534	4799
692.578	4370
692.622	4874
692.643	4829
692.666	4635
692.709	4770
692.753	4459
692.763	4429
692.797	4792
692.840	5061
692.884	5602
692.884	5615
692.928	5297
692.971	4919
693.004	4717
693.015	4782
693.059	5229
693.102	5226
693.124	5374
693.146	5403
693.189	4849
693.233	4942
693.245	4936
693.276	4959
693.320	4932
693.363	4665
693.365	4641
693.407	4747
693.450	5176
693.485	5285
693.493	5322
693.537	5720
693.580	5921
693.605	6158
693.624	6245
693.667	6165
693.710	6178
693.725	6151
693.753	6672
693.797	7456
693.840	8443
693.845	8518
693.883	7966
693.926	7349
693.966	6527
693.970	6500
694.013	6223
694.056	6213
694.086	6002
694.099	5953
694.142	5628
694.185	5812
694.206	5625
694.229	5571
694.272	5680
694.315	5908
694.326	5928
694.358	5925
694.401	5911
694.444	5616
694.446	5595
694.487	5624
694.530	5562
694.566	5648
694.573	5683
694.616	5646
694.659	5753
694.686	5856
694.702	5997
694.745	6012
694.787	6125
694.806	6181
694.830	6133
694.873	6109
694.916	5990
694.926	5982
694.959	6334
695.002	6544
695.044	6916
695.046	6910
695.087	6851
695.130	6655
695.166	6619
695.172	6650
695.215	6673
695.258	6664
695.286	6599
695.301	6730
695.343	7209
695.386	7669
695.406	7814
695.428	8107
695.471	8794
695.514	9408
695.526	9507
695.556	9850
695.599	10695
695.641	11216
695.646	11246
695.684	10665
695.726	10062
695.766	9545
695.769	9563
695.811	9236
695.854	9079
695.886	8977
695.896	9021
695.938	8922
695.981	8916
696.005	8843
696.023	9113
696.065	9857
696.108	10701
696.125	10927
696.150	11251
696.192	11831
696.235	12325
696.245	12432
696.277	12295
696.319	12136
696.361	11781
696.365	11723
696.404	11492
696.446	11287
696.485	11111
696.488	11147
696.530	11217
696.572	11070
696.604	11025
696.614	11021
696.656	10982
696.698	10704
696.724	10658
696.740	10881
696.783	11141
696.825	11683
696.844	11797
696.867	11926
696.909	12255
696.951	12345
696.964	12431
696.992	12401
697.034	12084
697.076	11749
697.083	11693
697.118	12300
697.160	12838
697.202	13421
697.203	13398
697.244	13087
697.286	12830
697.323	12498
697.327	12537
697.369	12652
697.411	12710
697.442	12661
697.453	12761
697.494	13066
697.536	13346
697.562	13534
697.578	13510
697.620	13351
697.661	13107
697.682	12995
697.703	13274
697.744	13665
697.786	14177
697.801	14289
697.828	14317
697.869	14263
697.911	14269
697.921	14232
697.952	14008
697.994	13663
698.035	13291
698.040	13209
698.077	13306
698.118	13371
698.160	13430
698.160	13392
698.201	14040
698.243	14573
698.279	15045
698.284	15110
698.325	15299
698.367	15538
698.399	15661
698.408	15790
698.449	16149
698.491	16552
698.518	16768
698.532	16792
698.573	16741
698.614	16654
698.638	16570
698.656	16722
698.697	16982
698.738	17210
698.757	17281
698.779	17230
698.820	17026
698.862	16842
698.877	16726
698.903	16760
698.944	16733
698.985	16709
698.996	16659
699.026	16501
699.067	16220
699.116	15845
699.235	16463
699.354	15945
699.474	15062
699.593	14990
699.713	15298
699.832	15181
699.951	15898
700.070	15753
700.190	14376
700.309	14076
700.428	13855
700.547	13810
700.667	13634
700.786	13589
700.905	13301
701.024	13454
701.143	12739
701.262	13929
701.381	13755
701.500	14498
701.619	13976
701.738	14421
701.857	13679
701.976	12351
702.095	12431
702.214	14042
702.333	13439
702.452	14094
702.571	14178
702.690	14258
702.809	13545
702.928	13529
703.047	11656
703.165	13139
703.284	12130
703.403	12227
703.522	12103
703.640	11319
703.759	11150
703.878	12949
703.997	11127
704.115	12236
704.234	11509
704.353	12053
704.471	10191
704.590	10394
704.708	10966
704.827	10150
704.946	10614
705.064	10802
705.183	10072
705.301	10900
705.420	9703
705.538	10234
705.656	9464
705.775	9821
705.893	9937
706.012	9866
706.130	9614
706.249	10308
706.367	9453
706.485	10127
706.604	8626
706.722	9117
706.840	10060
706.958	10585
707.077	7507
707.195	8304
707.313	8895
707.431	8658
707.549	8582
707.668	7551
707.786	9438
707.904	8435
708.022	7869
708.140	8291
708.258	7468
708.376	9173
708.494	7001
708.612	8845
708.730	9249
708.848	7982
708.966	7987
709.084	8396
709.202	8142
709.320	7967
709.438	7797
709.556	8382
709.674	6348
709.791	7199
709.909	7562
710.027	6774
710.145	6724
710.263	7417
710.380	7092
710.498	7180
710.616	6794
710.733	5892
710.851	6615
710.969	6555
711.086	6332
711.204	6954
711.322	6964
711.439	6508
711.557	6464
711.674	6622
711.792	6528
711.909	6545
712.027	6069
712.144	6871
712.262	6677
712.379	7049
712.497	5914
712.614	6179
712.732	5455
712.849	6416
712.966	7010
713.084	6347
713.201	4831
713.318	6969
713.436	6967
713.553	6794
713.670	7668
713.787	7282
713.905	7137
714.022	8213
714.139	7224
714.256	12311
714.373	18706
714.490	39340
714.608	122083
714.725	495576
714.842	401286
714.959	36611
715.076	14033
715.193	10257
715.310	8906
715.427	6463
715.544	7013
715.661	6699
715.778	6121
715.895	5612
716.011	6230
716.128	6344
716.245	5763
716.362	6156
716.479	4057
716.596	5828
716.713	5162
716.829	5477
716.946	5621
717.063	4917
717.180	3778
717.296	5421
717.413	5108
717.530	4849
717.646	4495
717.763	4024
717.880	3335
717.996	3959
718.113	4478
718.229	4944
718.346	3702
718.462	4438
718.579	3953
718.695	4148
718.812	3981
718.928	3279
719.045	3085
719.161	4590
719.277	4916
719.394	5671
719.510	4285
719.626	4942
719.743	8717
719.859	16037
719.975	39953
720.092	180488
720.208	349198
720.324	33745
720.440	8758
720.557	5651
720.673	5598
720.789	5138
720.905	4001
721.021	4527
721.137	4145
721.253	3377
721.369	3543
721.486	4589
721.602	3899
721.718	3632
721.834	3651
721.950	3565
722.066	2877
722.181	3669
722.297	3716
722.413	3439
722.529	3289
722.645	3068
722.761	3339
722.877	2763
722.993	4054
723.108	6792
723.224	5109
723.340	4163
723.456	3358
723.571	3086
723.687	2579
723.803	3987
723.918	2938
724.034	3523
724.150	2428
724.265	3008
724.381	1474
724.497	2869
724.612	2601
724.728	3315
724.843	2399
724.959	1985
725.074	2858
725.190	3179
725.305	2860
725.421	3077
725.536	2832
725.651	3374
725.767	2208
725.882	3038
725.997	2070
726.113	2356
726.228	2494
726.343	2558
726.459	2254
726.574	2671
726.689	2627
726.804	3917
726.920	2185
727.035	2992
727.150	3121
727.265	2334
727.380	2346
727.495	3427
727.610	2617
727.725	2177
727.841	2595
727.956	3200
728.071	2177
728.186	2633
728.301	1109
728.416	2987
728.531	2492
728.645	3057
728.760	2100
728.875	2391
728.990	2736
729.105	2820
729.220	2439
729.335	3518
729.449	2396
729.564	2738
729.679	2132
729.794	2730
729.908	2532
730.023	2361
730.138	3333
730.253	3078
730.367	1982
730.482	2936
730.596	2764
730.711	3753
730.826	4767
730.940	4153
731.055	3877
731.169	4127
731.284	3819
731.398	4486
731.513	4677
731.627	5323
731.742	6402
731.856	8751
731.970	8638
732.085	13586
732.199	19408
732.313	38665
732.428	108434
732.542	321860
732.656	155323
732.771	27793
732.885	14609
732.999	11618
733.113	13122
733.227	12440
733.342	10821
733.456	10746
733.570	9162
733.684	10043
733.798	9272
733.912	9312
734.026	9032
734.140	8933
734.254	8258
734.368	8801
734.482	9053
734.596	8689
734.710	7675
734.824	8230
734.938	8078
735.052	8295
735.166	8664
735.280	8076
735.393	7437
735.507	7888
735.621	6861
735.735	6456
735.849	7861
735.962	7619
736.076	7422
736.190	7229
736.303	6782
736.417	7305
736.531	7039
736.644	6852
736.758	6882
736.872	6886
736.985	6602
737.099	6638
737.212	6150
737.326	6306
737.439	6915
737.553	6295
737.666	7554
737.780	6267
737.893	6422
738.007	6259
738.120	6145
738.233	6090
738.347	6319
738.460	5495
738.573	6722
738.687	6313
738.800	6131
738.913	6982
739.026	5540
739.140	5539
739.253	5573
739.366	6188
739.479	5794
739.592	6137
739.705	5644
739.818	6253
739.932	4827
740.045	6340
740.158	4950
740.271	6135
740.384	5287
740.497	4482
740.610	6334
740.723	3987
740.836	4514
740.949	5773
741.062	6278
741.174	4897
741.287	4554
741.400	5365
741.513	4107
741.626	5473
741.739	4481
741.851	5569
741.964	5499
742.077	4519
742.189	4186
742.302	6502
742.415	5030
742.527	4457
742.640	4451
742.753	4591
742.865	4261
742.978	4535
743.090	3761
743.203	4895
743.316	3436
743.428	3932
743.541	4967
743.653	4542
743.766	4229
743.878	4624
743.990	4212
744.103	6330
744.215	5522
744.327	4487
744.440	5316
744.552	4507
744.664	3535
744.777	4718
744.889	3797
745.001	5086
745.113	4043
745.226	3582
745.338	3432
745.450	4533
745.562	3412
745.674	3289
745.786	4073
745.898	4108
746.010	2746
746.122	3985
746.234	3915
746.347	3458
746.459	3472
746.570	2492
746.682	6616
746.794	6644
746.906	3048
747.018	3032
747.130	4164
747.242	3291
747.354	3328
747.466	4532
747.577	3343
747.689	3574
747.801	4154
747.913	3555
748.024	3220
748.136	2962
748.248	2096
748.359	2927
748.471	2835
748.583	2801
748.694	1819
748.806	3421
748.918	2561
749.029	3652
749.141	3164
749.252	3621
749.364	2296
749.475	2463
749.587	2948
749.698	2700
749.809	3076
749.921	3357
750.032	1914
750.144	2423
750.255	2022
750.366	2669
750.478	2404
750.589	3599
750.700	1595
750.811	3182
750.923	2079
751.034	2086
751.145	3702
751.256	2195
751.367	1610
751.479	3058
751.590	1993
751.701	1615
751.812	1342
751.923	3368
752.034	3731
752.145	2435
752.256	1823
752.367	2720
752.478	1946
752.589	2842
752.700	2131
752.811	1218
752.922	2667
753.032	2854
753.143	2638
753.254	2077
753.365	2890
753.476	2578
753.586	1888
753.697	1859
753.808	2236
753.919	2477
754.029	1740
754.140	2326
754.251	2104
754.361	2292
754.472	2606
754.582	2256
754.693	1911
754.804	3550
754.914	2383
755.025	2102
755.135	2031
755.246	2419
755.356	1803
755.466	2394
755.577	2002
755.687	3029
755.798	1682
755.908	1199
756.018	1555
756.129	2152
756.239	2378
756.349	2764
756.460	1875
756.570	2607
756.680	2071
756.790	1627
756.900	1834
757.011	2773
757.121	1615
757.231	1507
757.341	1605
757.451	1766
757.561	1657
757.671	2357
757.781	1757
757.891	2898
758.001	1159
758.111	2545
758.221	1696
758.331	2976
758.441	1732
758.551	1947
758.661	1977
758.771	2870
758.880	2649
758.990	2298
759.100	1911
759.210	2579
759.320	2489
759.429	2865
759.539	3422
759.649	3232
759.758	4170
759.868	5036
759.978	3646
760.087	5171
760.197	4511
760.307	4166
760.416	2802
760.526	3023
760.635	3646
760.745	4802
760.854	4505
760.964	6240
761.073	5811
761.182	6121
761.292	3642
761.401	3586
761.511	2293
761.620	1947
761.729	2077
761.839	1575
761.948	2051
762.057	1134
762.166	1561
762.276	1141
762.385	2594
762.494	2638
762.603	1489
762.712	2161
762.822	1361
762.931	1705
763.040	822
763.149	1629
763.258	1360
763.367	2207
763.476	1511
763.585	1529
763.694	1274
763.803	1416
763.912	1442
764.021	1838
764.130	1967
764.238	1869
764.347	1246
764.456	2044
764.565	2294
764.674	767
764.783	1096
764.891	1030
765.000	2716
765.109	2730
765.217	761
765.326	2491
765.435	2701
765.543	3831
765.652	3387
765.761	3382
765.869	4180
765.978	8500
766.086	13431
766.195	27330
766.303	72335
766.412	181215
766.520	139753
766.629	40664
766.737	15588
766.846	9324
766.954	5729
767.062	5638
767.171	3606
767.279	4271
767.387	2687
767.496	2115
767.604	755
767.712	1778
767.820	1517
767.928	2303
768.037	1306
768.145	1870
768.253	1917
768.361	1142
768.469	1983
768.577	1563
768.685	1523
768.793	2571
768.901	1209
769.009	2048
769.117	1873
769.225	2924
769.333	4105
769.441	6891
769.549	10612
769.657	25871
769.765	83533
769.873	149334
769.981	50646
770.088	12158
770.196	5494
770.304	5331
770.412	3534
770.519	3508
770.627	3108
770.735	3001
770.842	2287
770.950	2297
771.058	2303
771.165	4787
771.273	3472
771.380	3676
771.488	5426
771.595	5792
771.703	5223
771.810	4019
771.918	4924
772.025	6433
772.133	7058
772.240	5881
772.348	8159
772.455	8186
772.562	5662
772.670	6694
772.777	7060
772.884	6653
772.991	5861
773.099	7836
773.206	5099
773.313	6476
773.420	6616
773.528	6337
773.635	5261
773.742	6854
773.849	5725
773.956	5197
774.063	5311
774.170	5552
774.277	5378
774.384	4951
774.491	4357
774.598	5564
774.705	5000
774.812	5593
774.919	5521
775.026	5372
775.133	5180
775.239	5252
775.346	4911
775.453	5863
775.560	4396
775.667	5854
775.773	4646
775.880	5491
775.987	4107
776.093	5055
776.200	5344
776.307	3569
776.413	3427
776.520	4730
776.627	4925
776.733	4271
776.840	2921
776.946	7497
777.053	7749
777.159	9885
777.266	6467
777.372	10175
777.478	8239
777.585	5544
777.691	3545
777.798	4954
777.904	4124
778.010	3730
778.117	4431
778.223	4866
778.329	3475
778.435	3030
778.542	4903
778.648	3953
778.754	3152
778.860	3655
778.966	3342
779.072	3931
779.178	3725
779.284	3333
779.391	2758
779.497	3291
779.603	4390
779.708	2465
779.815	3976
779.920	4580
780.026	4842
780.132	3282
780.238	2774
780.344	3572
780.450	4957
780.556	3053
780.661	2843
780.767	3838
780.873	1911
780.979	2997
781.085	3426
781.190	3153
781.296	2455
781.402	3878
781.507	3378
781.613	2326
781.719	2581
781.824	3597
781.930	2991
782.035	3050
782.141	3531
782.246	1579
782.352	2637
782.457	2281
782.563	2628
782.668	3061
782.773	1345
782.879	1548
782.984	2479
783.090	2676
783.195	3374
783.300	3245
783.405	2148
783.511	2427
783.616	2674
783.721	2527
783.826	1779
783.932	2790
784.037	3223
784.142	2652
784.247	1645
784.352	2642
784.457	1426
784.562	3087
784.667	2121
784.772	1969
784.877	981
784.982	3463
785.087	1898
785.192	2697
785.297	2070
785.402	2668
785.507	2448
785.611	1959
785.716	1424
785.821	2596
785.926	2221
786.031	2210
786.135	1824
786.240	2313
786.345	178
786.450	2134
786.554	1515
786.659	1226
786.763	1066
786.868	1981
786.973	2333
787.077	1146
787.182	1738
787.286	1837
787.391	2679
787.495	925
787.600	821
787.704	1925
787.809	2339
787.913	2358
788.017	2108
788.122	2255
788.226	1002
788.330	895
788.435	1710
788.539	2891
788.643	1236
788.747	699
788.852	1460
788.956	1823
789.060	1830
789.164	2067
789.268	795
789.372	2417
789.476	731
789.580	359
789.684	283
789.788	2242
789.892	1096
789.996	1911
790.100	1466
790.204	1888
790.308	1413
790.412	747
790.516	1074
790.620	1274
790.724	1967
790.828	1338
790.931	-319
791.035	1884
791.139	635
791.242	1444
791.346	1841
791.450	2192
791.554	470
791.657	732
791.761	2470
791.864	1391
791.968	2500
792.072	1998
792.175	735
792.279	855
792.382	1134
792.486	1399
792.589	880
792.693	1012
792.796	672
792.899	1824
793.003	1062
793.106	-343
793.209	429
793.313	2096
793.416	-817
793.519	1370
793.623	1549
793.726	1276
793.829	746
793.932	754
794.035	-404
794.138	2326
794.242	2298
794.345	615
794.448	326
794.551	-220
794.654	2886
794.757	1565
794.860	865
794.963	1599
795.066	1045
795.169	2539
795.272	964
795.375	1248
795.477	243
795.580	1857
795.683	-216
795.786	698
795.889	-145
795.991	2072
796.094	1448
796.197	-82
796.300	2192
796.402	1363
796.505	630
796.608	768
796.710	872
796.813	1565
796.915	1185
797.018	1344
797.120	1207
797.223	-132
797.326	2272
797.428	459
797.530	549
797.633	434
797.735	2360
797.838	-24
797.940	1832
798.042	528
798.145	90
798.247	1661
798.349	-1128
798.452	1876
798.554	662
798.656	1666
798.758	2566
798.860	1313
798.962	-179
799.065	1092
799.167	-73
799.269	2075
799.371	1306
799.473	2424
799.575	292
799.677	1209
799.779	1967
799.881	185
799.983	1547
800.085	1770
800.187	840
800.289	273
800.390	-146
800.492	1504
800.594	1450
800.696	-277
800.798	667
800.899	1041
801.001	1286
801.103	726
801.205	549
801.306	1489
801.408	-668
801.509	931
801.611	1336
801.713	1276
801.814	-211
801.916	176
802.017	359
802.119	-302
802.220	676
802.322	-600
802.423	1479
802.525	-883
802.626	232
802.727	471
802.829	785
802.930	-1380
803.031	1173
803.133	1144
803.234	-115
803.335	1436
803.436	160
803.538	784
803.639	-588
803.740	1371
803.841	135
803.942	1327
804.043	288
804.144	487
804.245	313
804.346	-70
804.447	-774
804.548	888
804.649	409
804.750	-130
804.851	-1062
804.952	939
805.053	964
805.154	-487
805.255	1218
805.355	338
805.456	-213
805.557	-362
805.658	-134
805.758	1288
805.859	382
805.960	882
806.061	-535
806.161	-246
806.262	283
806.362	-473
806.463	-378
806.564	1597
806.664	99
806.765	40
806.865	611
806.966	-465
807.066	-360
807.166	1169
807.267	570
807.367	-426
807.468	1355
807.568	-1113
807.668	304
807.769	2037
807.869	298
807.969	830
808.069	286
808.170	967
808.270	-407
808.370	279
808.470	539
808.570	-707
808.670	498
808.770	521
808.870	158
808.970	529
809.070	-36
809.170	-509
809.271	768
809.370	331
809.470	909
809.570	63
809.670	-270
809.770	1106
809.870	982
809.970	295
810.070	-25
810.169	1353
810.269	-2227
810.369	1838
810.469	291
810.568	538
810.668	138
810.768	-135
810.867	-299
810.967	389
811.066	259
811.166	50
811.265	1069
811.365	-488
811.464	17
811.564	440
811.663	-52
811.763	-964
811.862	191
811.962	888
812.061	-247
812.160	-688
812.260	263
812.359	790
812.458	-230
812.557	820
812.657	60
812.756	634
812.855	56
812.954	539
813.053	-27
813.153	270
813.252	-906
813.351	-26
813.450	1096
813.549	-160
813.648	625
813.747	108
813.846	664
813.945	578
814.044	207
814.143	457
814.242	1107
814.341	-156
814.439	719
814.538	990
814.637	766
814.736	392
814.835	836
814.933	105
815.032	1278
815.131	1886
815.229	3839
815.328	6773
815.427	4005
815.525	4242
815.624	3700
815.722	3751
815.821	3663
815.919	4077
816.018	3216
816.116	4410
816.215	3133
816.313	3836
816.412	5363
816.510	5346
816.609	7076
816.707	5862
816.805	4166
816.904	6002
817.002	5048
817.100	5848
817.198	5818
817.296	4279
817.395	5244
817.493	6040
817.591	4259
817.689	6082
817.787	4739
817.885	4621
817.983	3789
818.081	5602
818.179	4337
818.277	8346
818.375	6304
818.473	5427
818.571	3509
818.669	5004
818.767	5596
818.865	4324
818.963	4570
819.061	4545
819.158	3352
819.256	6381
819.354	5724
819.452	10380
819.549	5144
819.647	5905
819.745	3534
819.842	4463
819.940	4547
820.038	2899
820.135	3085
820.233	5366
820.330	2976
820.428	4080
820.525	5244
820.623	3691
820.720	2249
820.818	4039
820.915	3981
821.012	4286
821.110	2526
821.207	4662
821.304	3020
821.402	4970
821.499	4525
821.596	5469
821.693	3291
821.791	3972
821.888	3624
821.985	4472
822.082	2536
822.179	4754
822.276	3638
822.373	3148
822.470	2281
822.567	3722
822.664	1986
822.761	4266
822.858	3695
822.955	3692
823.052	2352
823.149	3270
823.246	3251
823.343	2862
823.440	2590
823.536	3649
823.633	2457
823.730	2880
823.827	3397
823.923	2770
824.020	2953
824.117	3664
824.213	2948
824.310	3331
824.407	1820
824.503	3957
824.600	2141
824.696	2763
824.793	3114
824.889	3052
824.986	2689
825.082	2055
825.179	2686
825.275	3232
825.371	3623
825.468	2597
825.564	318
825.660	3547
825.757	4183
825.853	3365
825.949	1644
826.045	2010
826.142	2393
826.238	3824
826.334	3778
826.430	2575
826.526	1762
826.622	1634
826.718	3308
826.814	2976
826.910	3541
827.006	1048
827.102	928
827.198	4072
827.294	2748
827.390	3146
827.486	1734
827.582	896
827.678	638
827.774	3119
827.869	1300
827.965	2904
828.061	339
828.157	2720
828.252	3090
828.348	1777
828.444	1952
828.539	2233
828.635	1616
828.731	2973
828.826	997
828.922	2331
829.017	2117
829.113	3293
829.208	922
829.304	1934
829.399	3074
829.495	1153
829.590	2048
829.685	955
829.781	1920
829.876	2658
829.971	340
830.066	-71
830.162	2106
830.257	3523
830.352	1976
830.447	1285
830.543	1894
830.638	1088
830.733	2417
830.828	1316
830.923	2158
831.018	1688
831.113	2474
831.208	365
831.303	793
831.398	2408
831.493	1987
831.588	3182
831.683	244
831.778	648
831.873	1127
831.967	2927
832.062	1497
832.157	1114
832.252	1494
832.346	1714
832.441	2875
832.536	1704
832.631	2639
832.725	2265
832.820	1132
832.914	1445
833.009	700
833.104	552
833.198	800
833.293	1436
833.387	1987
833.482	1989
833.576	992
833.670	2628
833.765	1546
833.859	1084
833.954	1829
834.048	1912
834.142	1301
834.237	-272
834.331	1565
834.425	1200
834.519	855
834.613	1589
834.708	89
834.802	1583
834.896	1664
834.990	1197
835.084	637
835.178	1095
835.272	307
835.366	1065
835.460	1835
835.554	1200
835.648	596
835.742	854
835.836	917
835.930	193
836.024	1835
836.117	2053
836.211	573
836.305	16
836.399	921
836.493	278
836.586	1573
836.680	921
836.774	59
836.867	2039
836.961	-721
837.055	111
837.148	852
837.242	1034
837.335	846
837.429	1151
837.522	-622
837.616	694
837.709	873
837.803	-402
837.896	2321
837.989	618
838.083	921
838.176	137
838.269	-284
838.363	2208
838.456	530
838.549	1744
838.642	31
838.735	949
838.829	1271
838.922	-273
839.015	268
839.108	85
839.201	653
839.294	1438
839.387	1189
839.480	-148
839.573	418
839.666	827
839.759	-54
839.852	333
839.945	1035
840.038	128
840.131	153
840.223	467
840.316	904
840.409	876
840.502	491
840.594	773
840.687	-783
840.780	420
840.873	-75
840.965	17
841.058	183
841.150	2027
841.243	-764
841.336	351
841.428	224
841.521	-78
841.613	-578
841.706	783
841.798	-736
841.890	276
841.983	-852
842.075	203
842.167	-140
842.260	899
842.352	1416
842.444	974
842.537	162
842.629	532
842.721	-297
842.813	466
842.905	6
842.997	573
843.090	59
843.182	-237
843.274	-467
843.366	157
843.458	-257
843.550	2383
843.642	-289
843.734	728
843.826	-326
843.918	307
844.009	969
844.101	346
844.193	-186
844.285	728
844.377	1349
844.469	2375
844.560	665
844.652	443
844.744	-57
844.835	155
844.927	992
845.019	623
845.110	17
845.202	942
845.293	-118
845.385	-479
845.476	504
845.568	1155
845.659	-896
845.751	620
845.842	-791
845.934	-695
846.025	-335
846.116	785
846.208	125
846.299	-144
846.390	343
846.482	-46
846.573	343
846.664	-343
846.755	-866
846.846	643
846.937	-985
847.029	63
847.120	-802
847.211	21
847.302	365
847.393	-667
847.484	622
847.575	-350
847.666	-577
847.757	-445
847.847	550
847.938	898
848.029	5
848.120	289
848.211	-80
848.302	-32
848.392	432
848.483	1094
848.574	-281
848.664	-407
848.755	-356
848.846	-103
848.936	-788
849.027	886
849.118	535
849.208	-21
849.299	884
849.389	4262
849.480	8149
849.570	16382
849.661	32952
849.751	53472
849.841	16532
849.932	2204
850.022	612
850.112	1278
850.203	220
850.293	-108
850.383	377
850.474	-685
850.564	-115
850.654	744
850.744	-160
850.834	225
850.924	-353
851.014	827
851.104	-228
851.194	-524
851.284	-62
851.374	-290
851.464	-534
851.554	485
851.644	-320
851.734	32
851.824	-170
851.914	-253
852.004	-198
852.094	-349
852.183	22
852.273	597
852.363	-423
852.452	352
852.542	105
852.632	-180
852.721	-91
852.811	589
852.901	463
852.990	818
853.080	1021
853.169	908
853.259	491
853.348	1279
853.438	1610
853.527	3304
853.617	4588
853.706	8551
853.795	17113
853.885	37510
853.974	66054
854.063	120518
854.152	157207
854.242	62454
854.331	15542
854.420	6993
854.509	4890
854.598	3894
854.687	1895
854.777	2399
854.866	657
854.955	1610
855.044	134
855.133	744
855.222	-205
855.311	75
855.400	116
855.488	-110
855.577	-193
855.666	482
855.755	-441
855.844	-57
855.933	-349
856.021	230
856.110	-137
856.199	177
856.288	-952
856.376	-315
856.465	-486
856.554	-31
856.642	238
856.731	660
856.819	203
856.908	-182
856.996	-535
857.085	-226
857.173	577
857.262	10
857.350	-318
857.438	70
857.527	396
857.615	585
857.703	-95
857.792	-149
857.880	-967
857.968	-714
858.056	-726
858.145	335
858.233	-550
858.321	-287
858.409	393
858.497	254
858.585	-505
858.673	-101
858.761	-1048
858.849	129
858.937	-949
859.025	350
859.113	-243
859.201	-172
859.289	340
859.377	188
859.465	156
859.552	114
859.640	-595
859.728	-88
859.816	-86
859.903	-524
859.991	-657
860.079	-83
860.166	-302
860.254	-116
860.342	-466
860.429	-757
860.517	98
860.604	891
860.692	-138
860.779	-215
860.867	-1206
860.954	-255
861.042	-632
861.129	244
861.216	494
861.304	138
861.391	-534
861.478	-971
861.565	-375
861.653	589
861.740	-574
861.827	176
861.914	-847
862.001	-186
862.089	248
862.176	336
862.263	57
862.350	22
862.437	-512
862.524	-390
862.611	73
862.698	1114
862.785	755
862.871	1312
862.958	-165
863.045	865
863.132	-135
863.219	789
863.306	-1316
863.392	-142
863.479	-47
863.566	-914
863.652	-71
863.739	538
863.826	-56
863.912	659
863.999	-248
864.086	462
864.172	619
864.259	1289
864.345	124
864.432	756
864.518	-401
864.604	771
864.691	609
864.777	1658
864.863	1665
864.950	3197
865.036	3999
865.122	8223
865.209	7821
865.295	6916
865.381	5738
865.467	6761
865.553	7445
865.639	8332
865.726	12738
865.812	23787
865.898	39560
865.984	59317
866.070	100314
866.156	96050
866.242	31292
866.328	11734
866.414	8276
866.499	7242
866.585	5613
866.671	6024
866.757	5492
866.843	5545
866.928	5007
867.014	4867
867.100	5652
867.186	4720
867.271	4369
867.357	4601
867.442	4421
867.528	5395
867.614	4709
867.699	5605
867.785	5366
867.870	5518
867.956	4895
868.041	5473
868.127	4157
868.212	5303
868.297	4440
868.383	5417
868.468	4221
868.553	5561
868.639	4326
868.724	4445
868.809	3503
868.894	3968
868.979	3615
869.065	3882
869.150	3236
869.235	4154
869.320	3489
869.405	3421
869.490	4994
869.575	4119
869.660	2061
869.745	4290
869.830	4206
869.915	2954
870.000	3521
870.085	3965
870.169	4719
870.254	5177
870.339	2440
870.424	3522
870.509	4153
870.593	4635
870.678	4614
870.763	3041
870.847	2496
870.932	3702
871.016	3398
871.101	1846
871.186	3467
871.270	4288
871.355	2700
871.439	3951
871.523	4114
871.608	3151
871.692	2615
871.777	4778
871.861	3565
871.945	3392
872.030	3311
872.114	3755
872.198	2595
872.282	3278
872.367	1938
872.451	2832
872.535	2630
872.619	2849
872.703	2087
872.787	3249
872.871	2457
872.955	1975
873.039	1173
873.123	3195
873.207	2840
873.291	1647
873.375	1860
873.459	3408
873.543	2006
873.627	1881
873.711	2318
873.794	3368
873.878	2709
873.962	1427
874.045	2045
874.129	3104
874.137	3035
874.213	2343
874.245	2079
874.296	1644
874.352	1185
874.380	968
874.460	2958
874.464	3037
874.547	1760
874.568	2094
874.631	3098
874.676	2821
874.714	2578
874.784	3277
874.798	3411
874.881	2826
874.892	2722
874.965	2118
874.999	2508
875.048	2967
875.107	2570
875.131	2425
875.215	1387
875.215	1387
875.298	1382
875.323	1614
875.381	2178
875.430	2577
875.465	2865
875.538	2165
875.548	2059
875.631	2031
875.646	1878
875.714	1162
875.753	1659
875.798	2273
875.861	2854
875.881	3008
875.964	1755
875.968	1734
876.047	1556
876.076	1914
876.130	2485
876.183	2467
876.213	2461
876.291	3508
876.296	3576
876.379	2106
876.398	1971
876.462	1584
876.506	1260
876.545	947
876.613	1890
876.628	2117
876.711	1724
876.721	1906
876.794	3296
876.828	2805
876.877	1927
876.935	1402
876.960	1278
877.043	1129
877.043	1136
877.125	2734
877.150	2814
877.208	2777
877.258	1813
877.291	1241
877.365	1497
877.374	1541
877.456	1940
877.472	1865
877.539	1549
877.579	1859
877.622	2196
877.687	2137
877.704	2094
877.787	2403
877.794	2369
877.869	2188
877.901	2421
877.952	2481
878.008	1398
878.034	983
878.115	1571
878.117	1588
878.199	1129
878.222	1574
878.282	2850
878.329	2522
878.364	2086
878.437	2256
878.447	2264
878.529	964
878.544	1033
878.611	1736
878.651	1747
878.694	1839
878.758	2597
878.776	2748
878.858	2577
878.865	2572
878.941	2207
878.972	1711
879.023	1183
879.078	1650
879.105	1948
879.185	2017
879.187	2018
879.269	2550
879.292	2500
879.351	2109
879.399	1487
879.433	1123
879.506	1681
879.516	1763
879.598	2084
879.613	2040
879.680	1917
879.720	2131
879.762	2308
879.827	1454
879.844	1263
879.926	2130
879.933	2131
880.007	2090
880.040	2155
880.089	2143
880.147	2777
880.171	3272
880.253	4680
880.254	4686
880.335	5251
880.360	5843
880.417	7883
880.467	10837
880.499	12422
880.574	12752
880.580	12671
880.662	5184
880.680	4518
880.744	2304
880.787	1749
880.825	1772
880.893	1689
880.907	1575
880.989	2125
881.000	2109
881.070	2467
881.106	2468
881.152	2249
881.213	1594
881.233	1483
881.315	1984
881.319	1991
881.396	2228
881.426	2298
881.478	2327
881.532	3053
881.559	3393
881.639	2275
881.641	2239
881.722	1537
881.745	1596
881.803	2579
881.852	2518
881.885	2165
881.958	1402
881.966	1329
882.047	1765
882.064	1668
882.129	1436
882.171	1390
882.210	1282
882.277	1138
882.291	1234
882.372	2150
882.383	2182
882.454	2312
882.489	2638
882.535	2849
882.596	2767
882.616	2718
882.697	2483
882.702	2454
882.778	1823
882.808	1749
882.859	2038
882.914	2263
882.940	2376
883.020	2409
883.021	2412
883.102	2509
883.127	2538
883.183	3177
883.233	3554
883.264	3112
883.339	1980
883.345	1947
883.426	1161
883.445	1138
883.507	1695
883.551	1929
883.587	2074
883.657	2949
883.668	3106
883.749	3202
883.763	3209
883.830	2263
883.869	1882
883.910	1596
883.975	1093
883.991	1244
884.072	1912
884.081	2048
884.152	2721
884.187	2715
884.233	3013
884.292	3532
884.314	3220
884.394	1463
884.398	1408
884.475	1506
884.504	1442
884.555	1517
884.610	1573
884.636	1642
884.716	1980
884.716	1992
884.797	2986
884.821	3148
884.877	2670
884.927	2498
884.958	2454
885.033	1881
885.038	1816
885.118	1217
885.139	1010
885.199	1538
885.244	1975
885.279	2397
885.350	3214
885.359	3296
885.439	4023
885.456	3990
885.520	2972
885.561	2789
885.600	2549
885.667	1764
885.680	1928
885.760	3210
885.773	3307
885.840	2100
885.878	1819
885.920	1882
885.984	1338
886.000	1496
886.080	2799
886.089	2909
886.160	2796
886.195	2762
886.240	2746
886.300	2581
886.320	2508
886.400	2216
886.406	2184
886.480	1411
886.511	1165
886.560	1678
886.616	2223
886.640	2270
886.720	2358
886.722	2351
886.800	2339
886.827	2408
886.879	2471
886.932	2267
886.959	2655
887.038	4104
887.039	4106
887.119	3019
887.143	2788
887.198	2866
887.248	2699
887.278	2564
887.354	2365
887.358	2372
887.437	2265
887.459	2290
887.517	2740
887.564	2904
887.596	2583
887.669	1975
887.676	1944
887.755	1515
887.774	1380
887.835	1372
887.880	1445
887.914	1864
887.985	2645
887.994	2714
888.073	3329
888.090	3420
888.153	4011
888.195	4372
888.232	4106
888.300	3698
888.311	3573
888.391	2511
888.405	2314
888.470	2044
888.510	1830
888.549	2111
888.615	2774
888.628	2891
888.708	3343
888.720	3418
888.787	3879
888.825	4058
888.866	2980
888.930	1394
888.945	1540
889.024	2232
889.035	2325
889.103	3257
889.140	3709
889.182	3399
889.245	2948
889.261	3033
889.340	3396
889.349	3428
889.419	3279
889.454	3199
889.498	3002
889.559	2702
889.577	2708
889.656	2709
889.664	2704
889.735	3003
889.768	3127
889.814	3308
889.873	3529
889.978	2227
890.083	2724
890.187	3493
890.292	3959
890.397	2924
890.501	3408
890.606	1967
890.710	2576
890.815	4346
890.919	2712
891.024	3170
891.128	1761
891.233	2551
891.337	3236
891.442	3797
891.546	2925
891.650	2031
891.755	1957
891.859	3698
891.963	4440
892.068	3305
892.172	3025
892.276	1500
892.380	2637
892.484	3855
892.589	3544
892.693	3147
892.797	1217
892.901	2365
893.005	1984
893.109	4087
893.213	4415
893.317	2767
893.421	1681
893.525	1296
893.629	1684
893.733	3477
893.837	2834
893.941	2214
894.045	1876
894.148	1826
894.252	1631
894.356	2675
894.460	4349
894.564	2335
894.667	2580
894.771	1829
894.875	1800
894.978	1169
895.082	2290
895.186	4112
895.289	2153
895.393	2865
895.496	3560
895.600	2270
895.703	1562
895.807	2086
895.910	2989
896.014	3323
896.117	1938
896.221	2365
896.324	2765
896.427	1125
896.531	2107
896.634	2086
896.737	2885
896.840	2601
896.944	3445
897.047	4181
897.150	2721
897.253	1922
897.356	763
897.460	1511
897.563	1076
897.666	2352
897.769	2608
897.872	1438
897.975	1155
898.078	3195
898.181	1729
898.284	1934
898.387	2656
898.490	3477
898.593	2638
898.695	2276
898.798	834
898.901	948
899.004	2330
899.107	1941
899.209	1981
899.312	3603
899.415	2418
899.518	1288
899.620	1360
899.723	1647
899.826	1978
899.928	1866
900.031	2175
900.133	2993
900.236	2209
900.338	960
900.441	1007
900.543	1582
900.646	3389
900.748	2355
900.851	3350
900.953	1639
901.055	2171
901.158	2247
901.260	1958
901.362	1948
901.465	1611
901.567	2406
901.669	3081
901.771	2112
901.873	2131
901.976	1606
902.078	1722
902.180	1743
902.282	1218
902.384	1800
902.486	3813
902.588	2660
902.690	1478
902.792	2092
902.894	1675
902.996	2421
903.098	2764
903.200	1787
903.302	1652
903.404	1658
903.505	803
903.607	1938
903.709	3250
903.811	2263
903.913	2291
904.014	1410
904.116	1707
904.218	2296
904.319	2438
904.421	3701
904.523	3432
904.624	2591
904.726	2348
904.827	1957
904.929	1628
905.030	1902
905.132	2641
905.233	1830
905.335	1782
905.436	1773
905.537	965
905.639	1615
905.740	1984
905.841	2903
905.943	2428
906.044	2355
906.145	1393
906.247	1365
906.348	1788
906.449	1786
906.550	2236
906.651	1529
906.752	808
906.854	1132
906.955	1231
907.056	1548
907.157	2603
907.258	3137
907.359	1270
907.460	561
907.561	1310
907.662	837
907.762	1435
907.863	1914
907.964	2383
908.065	1365
908.166	1301
908.267	1374
908.367	1290
908.468	1462
908.569	1869
908.670	1800
908.770	1265
908.871	1818
908.971	1670
909.072	737
909.173	602
909.273	1009
909.374	2083
909.474	907
909.575	1334
909.675	1235
909.776	1549
909.876	882
909.977	1696
910.077	2019
910.177	1508
910.278	1931
910.378	1321
910.478	1148
910.579	1741
910.679	1902
910.779	2259
910.879	2767
910.980	1307
911.080	2086
911.180	1262
911.280	457
911.380	718
911.480	1160
911.580	1704
911.680	1794
911.780	2099
911.880	1883
911.980	1170
912.080	1065
912.180	1717
912.280	1293
912.380	2114
912.480	1170
912.580	1134
912.679	1381
912.779	1826
912.879	2610
912.979	1329
913.078	523
913.178	1773
913.278	472
913.377	1899
913.477	899
913.577	1718
913.676	2519
913.776	2725
913.875	1465
913.975	1153
914.074	966
914.174	1150
914.273	947
914.373	2082
914.472	1546
914.572	1597
914.671	1100
914.770	1913
914.870	1814
914.969	716
915.068	1977
915.167	2246
915.267	1266
915.366	2089
915.465	2012
915.564	1374
915.663	1257
915.763	1978
915.862	2145
915.961	2508
916.060	1442
916.159	1128
916.258	834
916.357	1105
916.456	1967
916.555	2336
916.654	1321
916.752	2592
916.851	2563
916.950	1775
917.049	1280
917.148	1378
917.247	1799
917.345	1198
917.444	1595
917.543	1276
917.642	701
917.740	1478
917.839	3221
917.937	2610
918.036	1714
918.135	1481
918.233	869
918.332	1051
918.430	501
918.529	1559
918.627	1012
918.726	2058
918.824	1255
918.923	1911
919.021	1542
919.119	1100
919.218	1861
919.316	1809
919.414	2103
919.512	2394
919.611	1496
919.709	1629
919.807	2618
919.905	3147
920.003	3088
920.102	3037
920.200	2743
920.298	2694
920.396	3688
920.494	3141
920.592	1863
920.690	3102
920.788	1852
920.886	2561
920.984	2593
921.082	2975
921.180	3357
921.277	2889
921.375	3557
921.473	5281
921.571	6006
921.669	5315
921.766	3946
921.864	5372
921.962	4767
922.060	4345
922.157	4808
922.255	4833
922.352	4509
922.450	5034
922.548	5208
922.645	6056
922.743	7700
922.840	12674
922.938	15078
923.035	12748
923.133	12564
923.230	14187
923.327	18029
923.425	16584
923.522	15355
923.619	14908
923.717	13990
923.814	12762
923.911	12064
924.008	13594
924.106	13435
924.203	11791
924.300	13111
924.397	11830
924.494	12687
924.591	13086
924.688	11276
924.786	12991
924.883	11929
924.979	12536
925.077	12553
925.173	12110
925.270	11535
925.367	10755
925.464	13504
925.561	12744
925.658	13329
925.755	10089
925.852	12383
925.948	13207
926.045	12891
926.142	13332
926.239	14516
926.335	11155
926.432	12790
926.529	13227
926.625	15391
926.722	11675
926.818	9855
926.915	13024
927.011	10862
927.108	10878
927.204	12545
927.301	9255
927.397	12338
927.494	13434
927.590	9195
927.687	8741
927.783	13365
927.879	12555
927.976	10842
928.072	8814
928.168	10853
928.264	11479
928.361	8776
928.457	11908
928.553	10655
928.649	9647
928.745	11801
928.841	8835
928.937	10499
929.033	10251
929.129	9336
929.225	12273
929.321	10878
929.417	7439
929.513	11661
929.609	10133
929.705	8451
929.801	11413
929.897	9248
929.993	8150
930.089	9974
930.184	8871
930.280	9889
930.376	12561
930.471	9111
930.567	7341
930.663	9291
930.758	7977
930.854	9020
930.950	8952
931.045	8589
931.141	8442
931.236	11692
931.332	9850
931.427	6242
931.523	10335
931.618	10431
931.714	5883
931.809	6771
931.905	11162
932.000	6598
932.095	5589
932.191	9652
932.286	11443
932.381	9476
932.476	6771
932.572	8129
932.667	7540
932.762	7175
932.857	9554
932.952	10896
933.047	8665
933.142	6419
933.237	8438
933.332	8735
933.427	8353
933.522	8207
933.617	6763
933.712	8100
933.807	9117
933.902	10561
933.997	10353
934.092	6820
934.187	7028
934.282	8831
934.376	7339
934.471	10176
934.566	7327
934.661	6299
934.755	8858
934.850	8899
934.945	6005
935.039	5999
935.134	6216
935.228	6808
935.323	11546
935.417	6773
935.512	4664
935.606	5018
935.701	7562
935.795	7932
935.890	7546
935.984	6313
936.079	4199
936.173	7738
936.267	5621
936.362	5275
936.456	5845
936.550	10513
936.644	7290
936.738	4853
936.833	4472
936.927	4791
937.021	5892
937.115	7930
937.209	7237
937.303	6968
937.397	5217
937.491	5760
937.585	7744
937.679	7389
937.773	4871
937.867	4319
937.961	4544
938.055	8116
938.149	8175
938.243	4107
938.337	3822
938.430	5329
938.524	9369
938.618	8237
938.712	4787
938.805	6403
938.899	6369
938.993	9572
939.086	6225
939.180	6277
939.274	7848
939.367	6987
939.461	6963
939.554	5292
939.648	4506
939.741	6143
939.835	5641
939.928	8812
940.022	7059
940.115	4636
940.208	6050
940.302	7386
940.395	9092
940.488	4607
940.582	5488
940.675	4512
940.768	5002
940.861	6819
940.954	7890
941.048	3682
941.141	3298
941.234	4013
941.327	5360
941.420	5387
941.513	5966
941.606	4369
941.699	4795
941.792	6333
941.885	5119
941.978	5253
942.071	5714
942.164	3250
942.257	3292
942.349	4782
942.442	5838
942.535	3902
942.628	4438
942.721	4007
942.813	3783
942.906	5026
942.999	4454
943.091	4567
943.184	4695
943.277	4052
943.369	4042
943.462	2450
943.554	4089
943.647	4914
943.739	5232
943.832	7150
943.924	1486
944.017	3075
944.109	2921
944.201	4908
944.294	4489
944.386	4069
944.478	4286
944.571	2407
944.663	4062
944.755	4466
944.847	5013
944.940	3835
945.032	2639
945.124	2483
945.216	3821
945.308	4513
945.400	5303
945.492	3424
945.584	4965
945.676	6029
945.768	4710
945.860	4566
945.952	5220
946.044	4806
946.136	3261
946.228	3937
946.320	3344
946.412	4391
946.503	4776
946.595	5963
946.687	2619
946.779	2535
946.870	2956
946.962	3300
947.054	3671
947.145	5123
947.237	3662
947.329	4235
947.420	3288
947.512	3294
947.603	2030
947.695	3437
947.786	2672
947.878	3464
947.969	4429
948.061	4059
948.152	3451
948.243	2806
948.335	2562
948.426	1815
948.517	3633
948.609	4622
948.700	3868
948.791	3068
948.882	2011
948.973	2330
949.065	2338
949.156	4356
949.247	1900
949.338	3383
949.429	2519
949.520	2655
949.611	2985
949.702	4330
949.793	3042
949.884	3653
949.975	3236
950.066	1766
950.157	2395
950.247	2970
950.338	2345
950.429	2029
950.520	2979
950.611	2835
950.701	2665
950.792	4330
950.883	3563
950.973	3423
951.064	3516
951.155	3278
951.245	3342
951.336	3314
951.427	2743
951.517	5746
951.608	3628
951.698	2912
951.788	2797
951.879	2451
951.969	1918
952.060	2497
952.150	2550
952.240	4381
952.331	2851
952.421	4723
952.511	1975
952.602	2423
952.692	1778
952.782	2542
952.872	2702
952.962	2507
953.052	2666
953.143	2662
953.233	2909
953.323	3101
953.413	2889
953.503	3723
953.593	2216
953.683	2150
953.773	1227
953.863	2400
953.953	1638
954.042	1607
954.132	3331
954.222	3284
954.312	1858
954.402	1652
954.492	1754
954.581	1995
954.671	3281
954.761	1712
954.850	3847
954.940	890
955.030	1594
955.119	2219
955.209	2400
955.298	1858
955.388	3039
955.477	4001
955.567	1707
955.656	2068
955.746	2084
955.835	1901
955.925	1912
956.014	2073
956.103	3477
956.193	4383
956.282	4281
956.371	2352
956.461	2550
956.550	1930
956.639	2183
956.728	1739
956.817	2696
956.906	2480
956.995	4074
957.085	2091
957.174	2354
957.263	2321
957.352	1668
957.441	2206
957.530	2487
957.619	2282
957.708	2389
957.796	2279
957.885	1462
957.974	2508
958.063	1244
958.152	2002
958.241	1782
958.329	2424
958.418	2143
958.507	1786
958.596	4267
958.684	1718
958.773	2650
958.861	1470
958.950	1531
959.039	2390
959.127	1742
959.216	2218
959.304	1785
959.393	2437
959.481	2352
959.570	1809
959.658	93
959.746	457
959.835	1552
959.923	2238
960.011	1051
960.100	1939
960.188	2490
960.276	1769
960.365	1851
960.453	1411
960.541	211
960.629	1444
960.717	1212
960.805	816
960.893	1995
960.981	1783
961.069	3852
961.158	3190
961.245	4471
961.333	3774
961.421	1830
961.509	2157
961.597	2820
961.685	2048
961.773	2521
961.861	2378
961.949	3386
962.036	1560
962.124	1772
962.212	1569
962.299	1424
962.387	904
962.475	1208
962.562	1016
962.650	3039
962.738	1930
962.825	1135
962.913	1656
963.000	1926
963.088	2278
963.175	2098
963.263	1617
963.350	1256
963.438	2611
963.525	1850
963.612	1745
963.700	-124
963.787	2455
963.874	1722
963.962	1864
964.049	944
964.136	1222
964.223	1422
964.310	1885
964.398	2223
964.485	1793
964.572	1713
964.659	2293
964.746	1633
964.833	1234
964.920	444
965.007	1682
965.094	2090
965.181	1646
965.268	1810
965.355	2404
965.441	1461
965.528	492
965.615	2827
965.702	1866
965.789	1901
965.875	2711
965.962	2257
966.049	1297
966.136	3718
966.222	2418
966.309	2419
966.395	2222
966.482	2692
966.569	2873
966.655	2424
966.742	1494
966.828	1625
966.915	2218
967.001	1700
967.087	1213
967.174	710
967.260	1891
967.347	803
967.433	2191
967.519	2039
967.605	1464
967.692	2207
967.778	1331
967.864	2069
967.950	2057
968.036	1893
968.123	1514
968.209	1716
968.295	627
968.381	2820
968.467	1297
968.553	102
968.639	2515
968.725	580
968.811	1849
968.897	2320
968.983	1845
969.069	882
969.154	1890
969.240	2328
969.326	668
969.412	1022
969.497	1440
969.583	818
969.669	2805
969.755	2353
969.840	1321
969.926	3866
970.012	4432
970.097	4615
970.183	3061
970.268	2724
970.354	3252
970.439	765
970.525	2436
970.610	981
970.696	3474
970.781	2623
970.866	1440
970.952	2089
971.037	1015
971.122	1765
971.208	2451
971.293	1386
971.378	1163
971.463	1750
971.549	2558
971.634	1563
971.719	2150
971.804	2129
971.889	1934
971.974	1378
972.059	1982
972.144	2322
972.229	1282
972.314	1796
972.399	2561
972.484	1495
972.569	2100
972.654	523
972.739	2818
972.824	1631
972.908	1193
972.993	979
973.078	1553
973.163	2205
973.247	2477
973.332	359
973.417	2797
973.501	1080
973.586	2387
973.671	2333
973.755	1804
973.840	1784
973.924	3252
974.009	2968
974.093	3355
974.178	3852
974.262	2824
974.346	1873
974.431	3251
974.515	2300
974.600	1986
974.684	3033
974.768	2215
974.852	3431
974.937	763
975.021	2664
975.105	2007
975.189	920
975.273	2469
975.358	885
975.442	1163
975.526	1926
975.610	2031
975.694	1237
975.778	2714
975.862	1872
975.946	-584
976.030	3122
976.114	1181
976.198	1898
976.281	1624
976.365	2720
976.449	1630
976.533	2554
976.617	1772
976.700	1873
976.784	2005
976.868	1823
976.951	1535
977.035	2175
977.119	1518
977.202	1564
977.286	3124
977.369	3077
977.453	5041
977.536	3838
977.620	3029
977.703	2831
977.787	2078
977.870	2982
977.953	4562
978.037	1276
978.120	2797
978.203	1309
978.287	1947
978.370	2256
978.453	1921
978.536	1879
978.620	2254
978.703	2575
978.786	1253
978.869	2020
978.952	1604
979.035	3361
979.118	1888
979.201	1709
979.284	3030
979.367	1580
979.450	2361
979.533	2330
979.616	1445
979.699	1521
979.782	2224
979.865	2316
979.948	2266
980.030	533
980.113	1468
980.196	1255
980.279	2737
980.361	1896
980.444	1865
980.526	1860
980.609	3769
980.692	5610
980.774	4432
980.857	2938
980.939	4595
981.022	2577
981.104	2724
981.187	2622
981.269	3291
981.352	3000
981.434	1904
981.516	2272
981.599	3179
981.681	2597
981.763	2800
981.846	2909
981.928	2825
982.010	2839
982.092	2083
982.174	3286
982.256	2371
982.339	2123
982.421	2222
982.503	2653
982.585	1607
982.667	2123
982.749	2212
982.831	2249
982.913	1371
982.995	2459
983.077	1307
983.158	3598
983.240	1979
983.322	4527
983.404	5666
983.486	4583
983.568	4633
983.649	3636
983.731	4473
983.813	4163
983.894	3557
983.976	3361
984.058	3221
984.139	4416
984.221	2471
984.302	3394
984.384	2755
984.465	3359
984.547	3598
984.628	2078
984.710	3145
984.791	3163
984.872	3337
984.954	2461
985.035	3261
985.116	2848
985.198	2409
985.279	5022
985.360	2739
985.441	3286
985.522	3983
985.604	3254
985.685	1726
985.766	4028
985.847	4865
985.928	2851
986.009	3539
986.090	3229
986.171	4730
986.252	3012
986.333	4005
986.414	3091
986.495	3711
986.576	2705
986.656	3916
986.737	3278
986.818	3903
986.899	3955
986.980	3319
987.060	3913
987.141	4458
987.222	4771
987.302	5730
987.383	5285
987.464	4625
987.544	5389
987.625	4076
987.705	7213
987.786	5616
987.866	5552
987.947	4466
988.027	4931
988.108	4309
988.188	3991
988.268	3938
988.349	4584
988.429	4756
988.509	4335
988.589	4437
988.670	2273
988.750	4534
988.830	3658
988.910	4652
988.990	4858
989.070	3948
989.151	3871
989.231	3793
989.311	3421
989.391	3242
989.471	4038
989.551	3988
989.631	2928
989.711	3954
989.791	3485
989.870	3562
989.950	4889
990.030	3192
990.110	3883
990.190	2540
990.269	2829
990.349	3232
990.429	5051
990.509	3422
990.588	2403
990.668	3464
990.747	4168
990.827	1925
990.907	3397
990.986	3508
991.066	4163
991.145	1980
991.225	3603
991.304	3452
991.383	3032
991.463	3441
991.542	3879
991.622	2743
991.701	2141
991.780	2324
991.859	2751
991.939	2904
992.018	3469
992.097	2990
992.176	2595
992.256	1358
992.335	2487
992.414	3256
992.493	1868
992.572	2337
992.651	3885
992.730	2649
992.809	2928
992.888	2016
992.967	2677
993.046	2208
993.125	574
993.203	2567
993.282	2133
993.361	1690
993.440	1816
993.519	1392
993.597	2442
993.676	1486
993.755	3607
993.834	2266
993.912	1507
993.991	3472
994.069	1587
994.148	1786
994.226	1912
994.305	1689
994.384	1901
994.462	3438
994.540	1605
994.619	898
994.697	2952
994.776	2303
994.854	2256
994.932	1759
995.011	1117
995.089	1557
995.167	1741
995.245	2096
995.324	1324
995.402	2637
995.480	1615
995.558	1763
995.636	697
995.714	916
995.792	2049
995.870	1096
995.948	2140
996.026	1321
996.104	475
996.182	2333
996.260	910
996.338	1380
996.416	1426
996.494	1497
996.572	2624
996.649	1096
996.727	480
996.805	2094
996.883	1214
996.960	2044
997.038	2217
997.116	1265
997.193	1471
997.271	828
997.348	-372
997.426	1234
997.504	1416
997.581	1872
997.658	1820
997.736	-679
997.813	57
997.891	1828
997.968	359
998.046	936
998.123	1563
998.200	802
998.277	308
998.355	1497
998.432	-361
998.509	813
998.586	1424
998.663	933
998.741	843
998.818	370
998.895	625
998.972	1160
999.049	1333
999.126	1094
999.203	848
999.280	393
999.357	256
999.434	722
999.511	1187
999.587	931
999.664	150
999.741	-156
999.818	217
999.895	194
999.971	172
1000.048	233
1000.125	1043
1000.202	284
1000.278	1009
1000.355	1425
1000.431	266
1000.508	-507
1000.584	1040
1000.661	510
1000.738	-165
1000.814	806
1000.890	1158
1000.967	673
1001.043	434
1001.120	161
1001.196	874
1001.272	-534
1001.349	42
1001.425	1530
1001.501	630
1001.577	313
1001.654	458
1001.730	503
1001.806	449
1001.882	241
1001.958	748
1002.034	1095
1002.110	494
1002.186	433
1002.262	-173
1002.338	-239
1002.414	318
1002.490	451
1002.566	178
1002.642	-771
1002.718	924
1002.794	96
1002.870	69
1002.945	465
1003.021	-345
1003.097	53
1003.173	1014
1003.248	40
1003.324	138
1003.400	762
1003.475	-308
1003.551	200
1003.626	415
1003.702	195
1003.777	-341
1003.853	-550
1003.928	-914
1004.004	-498
1004.079	-111
1004.155	255
1004.230	-751
1004.305	548
1004.381	-357
1004.456	305
1004.531	76
1004.607	-374
1004.682	-225
1004.757	305
1004.832	-69
1004.907	140
1004.982	-455
1005.057	-49
1005.133	-580
1005.208	-137
1005.283	-797
1005.358	66
1005.433	-935
1005.508	-972
1005.583	-1053
1005.657	-528
1005.732	463
1005.807	-20
1005.882	-473
1005.957	-368
1006.032	446
1006.106	-161
1006.181	186
1006.256	726
1006.331	172
1006.405	-924
1006.480	591
1006.554	-6
1006.629	-312
1006.704	-431
1006.778	-716
1006.853	667
1006.927	-710
1007.002	-787
1007.076	-42
1007.150	-584
1007.225	599
1007.299	190
1007.373	-1377
1007.448	506
1007.522	107
1007.596	-816
1007.671	-648
1007.745	-153
1007.819	-1098
1007.893	-841
1007.967	109
1008.041	-853
1008.115	375
1008.190	-1193
1008.264	-114
1008.338	-2203
1008.412	-722
1008.486	-576
1008.560	-405
1008.633	-316
1008.707	-291
1008.781	-707
1008.855	410
1008.929	-157
1009.003	-1343
1009.076	98
1009.150	-143
1009.224	-606
1009.298	-86
1009.371	-1075
1009.445	-40
1009.519	-24
1009.592	-1470
1009.666	-474
1009.739	-132
1009.813	-1227
1009.886	379
1009.960	-635
1010.033	553
1010.107	233
1010.180	-1016
1010.253	-1099
1010.327	-1485
1010.400	-987
1010.473	-332
1010.547	543
1010.620	-928
1010.693	-1173
1010.766	-754
1010.840	530
1010.913	-268
1010.986	-971
1011.059	-570
1011.132	-627
1011.205	225
1011.278	-157
1011.351	-210
1011.424	-218
1011.497	-605
1011.570	-846
1011.643	-1384
1011.716	-759
1011.789	-1315
1011.862	-323
1011.934	-374
1012.007	-1400
1012.080	-985
1012.153	-645
1012.225	-65
1012.298	-1532
1012.371	-911
1012.443	-777
1012.516	-1261
1012.588	48
1012.661	162
1012.733	-1264
1012.806	-226
1012.879	-32
1012.951	-57
1013.023	-930
1013.096	-584
1013.168	-745
1013.241	-146
1013.313	-825
1013.385	-1119
1013.458	-662
1013.530	151
1013.602	-708
1013.674	738
1013.746	-590
1013.819	-319
1013.891	-830
1013.963	-1424
1014.035	-1181
1014.107	-739
1014.179	144
1014.251	-1293
1014.323	-6
1014.395	-404
1014.467	-463
1014.539	-973
1014.611	-1513
1014.683	-290
1014.754	-453
1014.826	-1166
1014.898	-1026
1014.970	-1806
1015.042	569
1015.113	-566
1015.185	-1042
1015.257	-1588
1015.328	-390
1015.400	-1259
1015.471	-913
1015.543	-1492
1015.615	-381
1015.686	61
1015.757	-1033
1015.829	-776
1015.901	-774
1015.972	-974
1016.043	-1433
1016.115	131
1016.186	-746
1016.257	-1993
1016.328	13
1016.400	-329
1016.471	-1293
1016.542	-543
1016.613	-296
1016.685	-490
1016.756	-221
1016.827	-821
1016.898	-741
1016.969	-77
1017.040	-1488
1017.111	-790
1017.182	-1161
1017.253	-402
1017.324	-992
1017.395	-843
1017.466	310
1017.537	-1201
1017.608	-1016
1017.678	-401
1017.749	-1551
1017.820	-634
1017.891	-1355
1017.961	-793
1018.032	-901
1018.103	-1184
1018.173	-2010
1018.244	-625
1018.315	-1077
1018.385	291
1018.456	-1350
1018.526	-1478
1018.597	-1138
1018.667	-463
1018.738	-1371
1018.808	-1142
1018.878	-849
1018.949	-380
1019.019	-1129
1019.089	-1235
1019.160	342
1019.230	-1163
1019.300	-427
1019.371	-988
1019.441	97
1019.511	-1068
1019.581	-940
1019.651	-725
1019.721	-874
1019.791	-1278
1019.861	-850
1019.931	-355
1020.001	-1354
1020.071	-1115
1020.141	-866
1020.211	-1395
1020.281	-1272
1020.351	-1100
1020.421	-209
1020.491	-217
1020.560	-1478
1020.630	-868
1020.700	-1027
1020.770	-1304
1020.839	-1177
1020.909	-1232
1020.979	-1661
1021.048	-609
1021.118	-1613
1021.187	-510
1021.257	-1025
1021.326	-432
1021.396	-1466
1021.465	-1531
1021.535	-987
1021.604	-1625
1021.674	-1380
1021.743	-1337
1021.812	-536
1021.882	-722
1021.951	-849
1022.020	-603
1022.089	-1341
1022.159	-693
1022.228	-589
1022.297	-274
1022.366	-1308
1022.435	-1551
1022.504	-1562
1022.573	-624
1022.642	-940
1022.711	-1521
1022.781	-1177
1022.849	-1179
1022.918	-1959
1022.987	-998
1023.056	-1174
1023.125	-491
1023.194	-1722
1023.263	-1242
1023.331	-1446
1023.400	-1424
1023.469	-1427
1023.538	-599
1023.606	-1478
1023.675	-1042
1023.744	-1419
1023.812	-1925
1023.881	-634
1023.949	-1186
1024.018	-1655
1024.086	-716
1024.155	-1808
1024.223	-2015
1024.292	-950
1024.360	-881
1024.429	-813
1024.497	-1933
1024.565	-854
1024.634	-1784
1024.702	-871
1024.770	-390
1024.838	-1176
1024.907	-1568
1024.975	-1986
1025.043	-85
1025.111	-1001
1025.179	-501
1025.247	-967
1025.315	-245
1025.383	-1293
1025.451	-1335
1025.519	-611
1025.587	-970
1025.655	-1023
1025.723	-1446
1025.791	-693
1025.859	-1001
1025.927	-995
1025.995	-1961
1026.062	-522
1026.130	-665
1026.198	-1413
1026.266	-1498
1026.333	-49
1026.401	-865
1026.469	-831
1026.536	-1821
1026.604	-1104
1026.671	-1921
1026.739	-1375
1026.806	-862
1026.874	-925
1026.941	-1832
1027.009	-1269
1027.076	-1459
1027.144	-1427
1027.211	-2181
1027.278	-2200
1027.345	-944
1027.413	-346
1027.480	-2018
1027.547	-1992
1027.614	-1570
1027.682	-397
1027.749	-1532
1027.816	-647
1027.883	-1330
1027.950	-796
1028.017	-1288
1028.084	-580
1028.151	-1100
1028.218	-951
1028.285	-1086
1028.352	-1441
1028.419	-1671
1028.486	-1634
1028.553	-1396
1028.619	-1454
1028.686	-982
1028.753	-1860
1028.820	-1461
1028.886	-1836
1028.953	-476
1029.020	-1643
1029.086	-1172
1029.153	-1004
1029.220	-1746
1029.286	-682
1029.353	-1717
1029.419	-1605
1029.486	-1747
1029.552	-1387
1029.619	-1504
1029.685	-1220
1029.751	-1432
1029.818	-1118
1029.884	-1514
1029.951	241
1030.017	-1569
1030.083	-1036
1030.149	-1098
1030.216	-1715
1030.282	-681
1030.348	-1371
1030.414	-1734
1030.480	-1741
1030.546	-1240
1030.612	-1553
1030.678	-1025
1030.744	-1947
1030.810	-1313
1030.876	-2258
1030.942	-1741
1031.008	-1455
1031.074	-1029
1031.140	-1310
1031.206	-73
1031.272	-1401
1031.337	-878
1031.403	-982
1031.469	-1085
1031.534	-1989
1031.600	-1373
1031.666	-887
1031.731	-1773
1031.797	-1376
1031.863	-1299
1031.928	-1519
1031.994	-1493
1032.059	-1920
1032.125	-1476
1032.190	-1618
1032.256	-1642
1032.321	-2234
1032.386	-688
1032.452	-1287
1032.517	-1793
1032.582	-1664
1032.647	-1996
1032.713	-1403
1032.778	-1266
1032.843	-1432
1032.908	-1524
1032.974	-1568
1033.039	-1423
1033.104	-559
1033.169	-1240
1033.234	-1364
1033.299	-1914
1033.364	-1129
1033.429	-505
1033.494	-1064
1033.559	-1419
1033.624	-756
1033.688	-996
1033.753	-1665
1033.818	-1186
1033.883	-1266
1033.948	-1295
1034.013	-1409
1034.077	-427
1034.142	-415
1034.207	-128
1034.271	-3
1034.336	1037
1034.400	-765
1034.465	-1261
1034.530	-956
1034.594	-1384
1034.658	-1570
1034.723	-1655
1034.787	-840
1034.852	-953
1034.916	-1725
1034.981	-1816
1035.045	-830
1035.109	-1616
1035.173	-1183
1035.238	-1686
1035.302	-1995
1035.366	-834
1035.430	-1054
1035.495	-1323
1035.559	-875
1035.623	-1381
1035.687	-1323
1035.751	-868
1035.815	-1868
1035.879	-1378
1035.943	-1822
1036.007	-1763
1036.071	-1384
1036.135	-1479
1036.198	-1779
1036.262	-1585
1036.326	-1487
1036.390	-1098
1036.454	-818
1036.517	-971
1036.581	-1078
1036.645	-1578
1036.709	-1230
1036.772	-1557
1036.836	-1495
1036.900	-1208
1036.963	-1998
1037.026	-991
1037.090	-2093
1037.154	-2081
1037.217	-2224
1037.280	-1767
1037.344	-821
1037.407	-889
1037.471	-545
1037.534	-1557
1037.597	-2083
1037.661	-1371
1037.724	-1247
1037.787	-2043
1037.850	-1816
1037.913	-1554
1037.977	-785
1038.040	-1384
1038.103	-1010
1038.166	-2203
1038.229	-1574
1038.292	-1556
1038.355	-1496
1038.418	-2036
1038.481	-1424
1038.544	-1749
1038.607	-2194
1038.670	-1606
1038.732	-683
1038.795	-1571
1038.858	-1321
1038.921	-1072
1038.984	-1223
1039.046	-1388
1039.109	-1085
1039.172	-1000
1039.234	-1928
1039.297	-775
1039.360	-2033
1039.422	-1664
1039.485	-1385
1039.547	-1314
1039.610	-1673
1039.672	-1820
1039.734	-1428
1039.797	-1762
1039.859	-1423
1039.922	-915
1039.984	-1021
1040.046	-2198
1040.109	-1223
1040.171	-1201
1040.233	-2016
1040.295	-2103
1040.358	-2317
1040.420	-909
1040.482	-1828
1040.544	-1895
1040.606	-1205
1040.668	-1184
1040.730	-1666
1040.792	-2036
1040.854	-2281
1040.916	-1301
1040.978	-1688
1041.040	-843
1041.102	-1377
1041.164	-1995
1041.225	-1792
1041.287	-1749
1041.349	-2282
1041.411	-1889
1041.472	-1397
1041.534	-2096
1041.596	-1737
1041.657	-1982
1041.719	-2095
1041.781	-1543
1041.842	-1096
1041.904	-1402
1041.965	-2275
1042.027	-1912
1042.088	-1340
1042.150	-1733
1042.211	-1278
1042.272	-1527
1042.334	-2203
1042.395	-1784
1042.456	-1467
1042.518	-2209
1042.579	-950
1042.640	-1686
1042.701	-1640
1042.763	-1699
1042.824	-1129
1042.885	-1858
1042.946	-1695
1043.007	-1551
1043.068	-1208
1043.129	-1812
1043.190	-1691
1043.251	-1173
1043.312	-1595
1043.373	-1350
1043.434	-1573
1043.495	-1816
1043.556	-1239
1043.616	-1499
1043.677	-2161
1043.738	-1634
1043.799	-1711
1043.859	-1504
1043.920	-1599
1043.981	-1821
1044.041	-1358
1044.102	-2261
1044.162	-1508
1044.223	-1668
1044.284	-1925
1044.344	-842
1044.405	-1571
1044.465	-1489
1044.525	-819
1044.586	-825
1044.646	-1350
1044.707	-1237
1044.767	-1341
1044.827	-1493
1044.887	-1070
1044.948	-1328
1045.008	-1994
1045.068	-1153
1045.128	-1669
1045.188	-1867
1045.249	-1944
1045.309	-2920
1045.369	-1625
1045.429	-2008
1045.489	-1166
1045.549	-1806
1045.609	-1307
1045.669	-1440
1045.729	-1868
1045.789	-1598
1045.848	-1630
1045.908	-1270
1045.968	-2000
1046.028	-1348
1046.088	-1317
1046.147	-1261
1046.207	-1382
1046.267	-773
1046.326	-1082
1046.386	-1159
1046.446	-574
1046.505	-831
1046.565	-1028
1046.624	-669
1046.684	39
1046.743	-480
1046.803	-393
1046.862	-439
1046.922	0
