'Start Wavelength	183.907
'End Wavelength	1046.922
'Gate Delay	5.000
'Gate Width (ms)	1.050
'Laser Output Level	0.000
'X Position	0.000
'Y Position	0.000
'Z Position	0.000
'Grid Point Number	1.000
'Shot Number	100.000
183.907	475.000
183.977	-21.000
184.047	-202
184.116	132
184.186	204
184.256	121
184.325	-12
184.395	-1084
184.465	886
184.534	781
184.604	-596
184.674	377
184.743	-435
184.813	715
184.883	-560
184.952	1286
185.022	-189
185.092	481
185.161	-136
185.231	120
185.301	-106
185.370	-113
185.440	-279
185.509	596
185.579	-48
185.649	615
185.718	-288
185.788	649
185.857	155
185.927	-184
185.996	-50
186.066	69
186.136	77
186.205	-201
186.275	747
186.344	-159
186.414	-40
186.483	-171
186.553	1077
186.622	1011
186.692	147
186.761	459
186.831	570
186.900	197
186.970	552
187.039	232
187.109	436
187.178	84
187.248	841
187.317	445
187.387	-637
187.456	262
187.526	646
187.595	454
187.664	188
187.734	607
187.803	-193
187.873	-66
187.942	-10
188.012	348
188.081	191
188.150	-681
188.220	195
188.289	1122
188.358	154
188.428	314
188.497	-64
188.567	340
188.636	62
188.705	-174
188.775	154
188.844	-331
188.913	536
188.983	153
189.052	824
189.121	63
189.191	-251
189.260	1031
189.329	-48
189.399	258
189.468	-88
189.537	481
189.606	538
189.676	415
189.745	284
189.814	675
189.883	-16
189.953	119
190.022	773
190.091	374
190.161	57
190.230	130
190.299	-731
190.368	79
190.437	215
190.507	305
190.576	-74
190.645	497
190.714	-61
190.783	-239
190.853	306
190.922	287
190.991	866
191.060	183
191.129	-857
191.198	331
191.268	338
191.337	49
191.406	1154
191.475	-71
191.544	149
191.613	-20
191.682	-95
191.752	683
191.821	596
191.890	184
191.959	914
192.028	190
192.097	126
192.166	12
192.235	-483
192.304	-19
192.373	-66
192.442	46
192.511	726
192.580	219
192.650	305
192.719	275
192.788	478
192.857	440
192.926	-2
192.995	-75
193.064	-363
193.133	564
193.202	227
193.271	424
193.340	297
193.409	445
193.478	348
193.547	496
193.615	-65
193.684	-706
193.753	-182
193.822	569
193.891	21
193.960	-113
194.029	-2
194.098	367
194.167	-180
194.236	693
194.305	-534
194.374	605
194.443	-92
194.512	709
194.580	156
194.649	394
194.718	313
194.787	685
194.856	-640
194.925	738
194.994	123
195.062	317
195.131	433
195.200	-148
195.269	-21
195.338	110
195.407	698
195.475	-79
195.544	-176
195.613	430
195.682	592
195.751	975
195.819	170
195.888	513
195.957	1708
196.026	669
196.094	320
196.163	54
196.232	479
196.301	649
196.369	911
196.438	261
196.507	139
196.576	549
196.644	-438
196.713	627
196.782	-753
196.850	433
196.919	-171
196.988	214
197.056	-469
197.125	42
197.194	312
197.262	321
197.331	489
197.400	-641
197.468	416
197.537	-553
197.606	-102
197.674	158
197.743	169
197.812	667
197.880	278
197.949	460
198.017	-383
198.086	-158
198.155	292
198.223	650
198.292	-47
198.360	135
198.429	-151
198.497	-467
198.566	-1025
198.635	813
198.703	597
198.772	390
198.840	-276
198.909	463
198.977	592
199.046	14
199.114	466
199.183	798
199.251	-135
199.320	-311
199.388	663
199.457	-541
199.525	-287
199.594	-330
199.662	-457
199.731	605
199.799	-270
199.867	751
199.936	-632
200.004	724
200.073	479
200.141	368
200.210	-251
200.278	-35
200.346	652
200.415	506
200.483	123
200.552	1386
200.620	6
200.688	656
200.757	298
200.825	405
200.893	-424
200.962	232
201.030	409
201.098	135
201.167	215
201.235	-78
201.303	227
201.372	1146
201.440	24
201.508	428
201.577	551
201.645	794
201.713	-10
201.781	-210
201.850	1059
201.918	1431
201.986	355
202.055	1314
202.123	-381
202.191	679
202.259	591
202.327	375
202.396	97
202.464	768
202.532	335
202.600	1169
202.669	838
202.737	783
202.805	-309
202.873	-513
202.941	909
203.009	29
203.078	110
203.146	-556
203.214	375
203.282	-279
203.350	838
203.418	-337
203.487	12
203.555	507
203.623	721
203.691	-552
203.759	-590
203.827	72
203.895	377
203.963	191
204.031	125
204.099	326
204.168	-49
204.236	1032
204.304	-33
204.372	513
204.440	-85
204.508	-282
204.576	162
204.644	343
204.712	-433
204.780	273
204.848	-225
204.916	-456
204.984	202
205.052	213
205.120	-547
205.188	-4
205.256	-594
205.324	277
205.392	112
205.460	-329
205.528	-112
205.596	855
205.664	-543
205.732	-105
205.799	508
205.867	256
205.935	-858
206.003	123
206.071	20
206.139	160
206.207	-1002
206.275	729
206.343	-153
206.411	-43
206.478	312
206.546	236
206.614	-192
206.682	362
206.750	286
206.818	80
206.885	911
206.953	-505
207.021	608
207.089	69
207.157	-611
207.225	-295
207.292	-562
207.360	-519
207.428	390
207.496	-239
207.563	277
207.631	468
207.699	-612
207.767	293
207.834	-622
207.902	493
207.970	308
208.038	1273
208.105	224
208.173	-584
208.241	-71
208.309	254
208.376	-652
208.444	1141
208.512	-397
208.579	-446
208.647	43
208.715	1455
208.782	-330
208.850	-256
208.918	-502
208.985	-481
209.053	-81
209.120	440
209.188	-448
209.256	-22
209.323	-843
209.391	-369
209.459	814
209.526	565
209.594	-1072
209.661	118
209.729	153
209.796	598
209.864	251
209.932	-1032
209.999	1228
210.067	194
210.134	195
210.202	56
210.269	877
210.337	553
210.404	-324
210.472	971
210.539	528
210.607	332
210.674	-156
210.742	819
210.809	66
210.877	17
210.944	205
211.012	-1036
211.079	1090
211.146	-100
211.214	519
211.281	88
211.349	928
211.416	597
211.484	703
211.551	-227
211.618	-52
211.686	-40
211.753	-878
211.821	338
211.888	-413
211.955	46
212.023	136
212.090	-26
212.157	74
212.225	29
212.292	-989
212.359	-53
212.427	161
212.494	-852
212.561	-32
212.629	229
212.696	120
212.763	-68
212.831	-761
212.898	26
212.965	-492
213.032	-151
213.100	230
213.167	-403
213.234	520
213.301	-96
213.369	318
213.436	624
213.503	-485
213.570	-21
213.638	647
213.705	-425
213.772	-522
213.839	13
213.906	709
213.973	-427
214.041	-494
214.108	246
214.175	-597
214.242	-742
214.309	123
214.376	-168
214.444	-855
214.511	-44
214.578	39
214.645	47
214.712	-446
214.779	852
214.846	-766
214.913	124
214.980	-68
215.048	117
215.115	216
215.182	148
215.249	738
215.316	-580
215.383	907
215.450	515
215.517	-454
215.584	93
215.651	-259
215.718	50
215.785	448
215.852	281
215.919	-436
215.986	211
216.053	-30
216.120	-694
216.187	-803
216.254	39
216.321	176
216.388	298
216.455	-79
216.522	801
216.589	-279
216.656	-584
216.722	-700
216.789	-538
216.856	-326
216.923	-821
216.990	15
217.057	204
217.124	-283
217.191	-1176
217.258	-222
217.324	-530
217.391	277
217.458	449
217.525	376
217.592	-1016
217.659	-1115
217.725	755
217.792	-171
217.859	1013
217.926	-707
217.993	25
218.059	-476
218.126	35
218.193	-646
218.260	127
218.327	-237
218.393	595
218.460	-1308
218.527	-494
218.594	-419
218.660	-269
218.727	-197
218.794	-1041
218.860	812
218.927	-297
218.994	-283
219.061	-863
219.127	-399
219.194	49
219.261	-52
219.327	-50
219.394	-345
219.461	-1276
219.527	-302
219.594	710
219.661	84
219.727	-515
219.794	-161
219.860	-453
219.927	-208
219.994	-121
220.060	165
220.127	1423
220.193	596
220.260	-314
220.326	-74
220.393	-604
220.460	-855
220.526	-673
220.593	-1071
220.659	1060
220.726	-780
220.792	-101
220.859	-229
220.925	-338
220.992	-725
221.058	-61
221.125	319
221.191	-771
221.258	-748
221.324	385
221.391	-1086
221.457	-482
221.524	-285
221.590	-307
221.657	-128
221.723	-37
221.789	-502
221.856	454
221.922	-890
221.989	1135
222.055	-266
222.121	-723
222.188	1522
222.254	-204
222.321	-468
222.387	538
222.453	-537
222.520	-880
222.586	-768
222.652	90
222.719	-1488
222.785	614
222.851	-216
222.918	-282
222.984	-443
223.050	-427
223.116	-2035
223.183	116
223.249	-536
223.315	-512
223.382	-376
223.448	869
223.514	-851
223.580	-87
223.647	-932
223.713	-774
223.779	-262
223.845	-532
223.911	72
223.978	-624
224.044	-387
224.110	-501
224.176	-431
224.242	-666
224.309	-1433
224.375	294
224.441	-552
224.507	-243
224.573	-1486
224.639	-131
224.705	-1124
224.772	-113
224.838	-679
224.904	265
224.970	-800
225.036	65
225.102	-1418
225.168	-43
225.234	-138
225.300	-234
225.366	-1225
225.432	-764
225.499	-634
225.565	-233
225.631	-1104
225.697	-437
225.763	-781
225.829	-481
225.895	-429
225.961	-474
226.027	-195
226.093	-981
226.159	-264
226.225	-267
226.291	-381
226.357	-993
226.423	-408
226.489	-52
226.554	-444
226.620	-503
226.686	-1368
226.752	-820
226.818	-1201
226.884	-338
226.950	-547
227.016	-30
227.082	145
227.148	199
227.214	-857
227.279	-649
227.345	-667
227.411	87
227.477	-691
227.543	954
227.609	1457
227.674	724
227.740	-875
227.806	25
227.872	-1010
227.938	-533
228.003	-188
228.069	-547
228.135	-1253
228.201	-1032
228.267	-857
228.332	-118
228.398	-1452
228.464	-347
228.530	-1668
228.595	-902
228.661	-1280
228.727	-138
228.792	173
228.858	-848
228.924	-2049
228.990	817
229.055	-1853
229.121	-221
229.187	-868
229.252	-634
229.318	-523
229.384	-374
229.449	-454
229.515	-2229
229.581	-1501
229.646	306
229.712	-867
229.777	-1451
229.843	-643
229.909	-224
229.974	-129
230.040	-1004
230.105	-948
230.171	-1182
230.236	-1016
230.302	-990
230.368	-1302
230.433	-1178
230.499	-538
230.564	34
230.630	-1740
230.695	-1113
230.761	191
230.826	-2450
230.892	-133
230.957	-1396
231.023	-512
231.088	-422
231.154	-1341
231.219	-276
231.284	-1172
231.350	-485
231.415	-2121
231.481	-385
231.546	-1337
231.612	-305
231.677	-1657
231.742	-2300
231.808	215
231.873	-1296
231.939	-2261
232.004	294
232.069	-871
232.135	-1103
232.200	-1948
232.265	-430
232.331	-993
232.396	-1083
232.461	-1391
232.527	-1259
232.592	-1276
232.657	-550
232.723	-1335
232.788	-1474
232.853	62
232.918	-939
232.984	-819
233.049	-1252
233.114	-2027
233.179	-443
233.245	-239
233.310	-905
233.375	-1212
233.440	-939
233.506	-1124
233.571	-1112
233.636	-301
233.701	-1027
233.766	-1523
233.832	-823
233.897	-1044
233.962	-2272
234.027	60
234.092	-235
234.157	-1507
234.222	-1042
234.288	-1065
234.353	-1142
234.418	-966
234.483	54
234.548	-517
234.613	-1088
234.678	-1024
234.743	-1152
234.808	-608
234.873	-2464
234.938	40
235.004	-596
235.069	-1639
235.134	-1319
235.199	-404
235.264	-1432
235.329	-2190
235.394	291
235.459	-740
235.524	-1791
235.589	-664
235.654	-1286
235.719	-2701
235.784	-595
235.849	-1321
235.913	-915
235.978	-1768
236.043	-1444
236.108	-1537
236.173	-1505
236.238	-919
236.303	-830
236.368	-1627
236.433	-294
236.498	-1686
236.563	-637
236.627	-1379
236.692	127
236.757	-904
236.822	-431
236.887	-1941
236.952	-401
237.017	-2596
237.081	-300
237.146	-2365
237.211	-839
237.276	-366
237.341	42
237.405	-1454
237.470	-1001
237.535	-983
237.600	-571
237.664	-908
237.729	-1971
237.794	-1871
237.859	-1411
237.923	-1681
237.988	-1112
238.053	-654
238.118	-1929
238.182	-1774
238.247	-74
238.312	-2821
238.376	-679
238.441	-2798
238.506	-111
238.570	-2315
238.635	477
238.700	-1365
238.764	-963
238.829	-1694
238.893	-2011
238.958	-904
239.023	-1225
239.087	-1706
239.152	-866
239.216	-2101
239.281	-1405
239.346	-1279
239.410	-1011
239.475	-656
239.539	-914
239.604	-1953
239.668	324
239.733	-415
239.797	927
239.862	1857
239.926	1166
239.991	33
240.055	-331
240.120	-1187
240.184	-894
240.249	-1788
240.313	-1334
240.378	-918
240.442	-1169
240.507	-1242
240.571	-1614
240.635	-2037
240.700	-971
240.764	-1456
240.829	-786
240.893	-2120
240.957	-913
241.022	-1815
241.086	-1092
241.151	-2578
241.215	-1934
241.279	-646
241.344	-1821
241.408	-879
241.472	-2210
241.537	-272
241.601	39
241.665	-2568
241.730	-1157
241.794	-853
241.858	-1889
241.922	-2011
241.987	-888
242.051	-2035
242.115	-3263
242.179	-2065
242.244	-1477
242.308	-1160
242.372	-1359
242.436	-1786
242.501	-1434
242.565	-2250
242.629	-2433
242.693	-1299
242.757	-1633
242.822	-2252
242.886	-788
242.950	-1134
243.014	-2120
243.078	-1223
243.142	-1687
243.206	-2225
243.271	-2161
243.335	-2055
243.399	-993
243.463	-2341
243.527	-1096
243.591	-2100
243.655	-460
243.719	-2426
243.783	-998
243.847	-1674
243.911	-1208
243.975	-2622
244.040	-3379
244.104	-52
244.168	-1995
244.232	-1484
244.296	-1185
244.360	-834
244.424	-2736
244.488	-1076
244.552	-1337
244.615	-3008
244.679	-1544
244.743	-1051
244.807	-1958
244.871	-1147
244.935	-257
244.999	-2010
245.063	-1757
245.127	-981
245.191	-1444
245.255	-1961
245.319	-1114
245.383	-2785
245.446	-437
245.510	-2309
245.574	-713
245.638	-708
245.702	-2381
245.766	-1078
245.829	-250
245.893	-2742
245.957	-1489
246.021	-825
246.085	-2234
246.149	-1689
246.212	-322
246.276	-1486
246.340	-1956
246.404	-1605
246.467	-1050
246.531	-3607
246.595	-796
246.659	-1653
246.722	-2379
246.786	-976
246.850	-1452
246.913	-2002
246.977	-2410
247.041	-1440
247.104	-888
247.168	-1306
247.232	-1274
247.295	-1384
247.359	-1097
247.423	-1684
247.486	-1658
247.550	-919
247.614	-1561
247.677	-1219
247.741	-2345
247.804	-1726
247.868	-1194
247.932	-1056
247.995	-191
248.059	-1990
248.122	-3028
248.186	-1327
248.249	-1425
248.313	-222
248.376	170
248.440	-1619
248.503	-2830
248.567	-369
248.630	-2612
248.694	-1369
248.757	-279
248.821	-305
248.884	-108
248.948	-1559
249.011	-887
249.075	-494
249.138	166
249.202	-1470
249.265	-2285
249.328	-1564
249.392	-2495
249.455	-1385
249.519	-1888
249.582	-1677
249.645	-1269
249.709	-1209
249.772	-2287
249.835	-1679
249.899	-1820
249.962	-2060
250.025	-2045
250.089	-1884
250.152	-202
250.215	-1506
250.279	-1661
250.342	-785
250.405	-1154
250.468	-1539
250.532	-1177
250.595	-874
250.658	-1331
250.721	853
250.785	-1117
250.848	-315
250.911	-1696
250.974	-887
251.038	-1448
251.101	-794
251.164	-1536
251.227	-1849
251.290	-1597
251.354	-1608
251.417	-684
251.480	135
251.543	-1202
251.606	1394
251.669	1657
251.732	-1642
251.795	-1226
251.859	-607
251.922	-662
251.985	-267
252.048	-530
252.111	-1341
252.174	-1857
252.237	-867
252.300	-209
252.363	-1183
252.426	1967
252.489	-1501
252.552	-1087
252.615	-1936
252.678	-825
252.741	-1213
252.804	-407
252.867	767
252.930	652
252.993	-1205
253.056	-1248
253.119	-1469
253.182	-1768
253.245	-1837
253.308	-906
253.371	-2138
253.434	-1631
253.497	-772
253.559	-618
253.622	-2194
253.685	-1466
253.748	-1841
253.811	-1450
253.874	-991
253.937	-2324
254.000	-1704
254.062	-1682
254.125	-1313
254.188	-615
254.251	-1795
254.314	-1945
254.376	-1565
254.439	-985
254.502	-1284
254.565	-1327
254.628	-276
254.690	-1415
254.753	-2351
254.816	-1764
254.878	-1775
254.941	-796
255.004	-1490
255.067	-1376
255.129	-2158
255.192	-1198
255.255	-2494
255.317	-1457
255.380	-821
255.443	-1433
255.505	-1656
255.568	-2077
255.631	-1280
255.693	-1624
255.756	-2835
255.819	-366
255.881	-2642
255.944	-1248
256.006	-1376
256.069	-1921
256.132	-2445
256.194	-1890
256.257	-1605
256.319	-1051
256.382	-1865
256.444	-283
256.507	-827
256.569	-1678
256.632	-2013
256.694	-2163
256.757	-1442
256.819	-1167
256.882	-2902
256.944	-1416
257.007	-1396
257.069	-2092
257.132	-2121
257.194	-200
257.257	-1889
257.319	-1999
257.381	-2407
257.444	-1261
257.506	-1480
257.569	-312
257.631	-1933
257.693	-852
257.756	-1792
257.818	-2430
257.880	-1961
257.943	-619
258.005	-2487
258.067	-2070
258.130	-1635
258.192	-2064
258.254	-1848
258.317	-1386
258.379	-1806
258.441	-1782
258.503	-1364
258.566	-1756
258.628	-1430
258.690	-2384
258.753	-1066
258.815	-928
258.877	-1640
258.939	-1065
259.001	-2249
259.064	-1448
259.126	-2143
259.188	-1587
259.250	-1144
259.312	-979
259.375	-1892
259.437	-1441
259.499	-1819
259.561	-1457
259.623	-2209
259.685	-2179
259.747	-1643
259.809	-470
259.872	-1761
259.934	-926
259.996	-1319
260.058	-938
260.120	-2023
260.182	-1296
260.244	-1549
260.306	-1357
260.368	-782
260.430	-1220
260.492	-1857
260.554	-858
260.616	-1643
260.678	-1826
260.740	-1860
260.802	-1029
260.864	-1633
260.926	-2129
260.988	-1141
261.050	-1444
261.112	-2011
261.174	-1055
261.236	-1787
261.298	-919
261.359	-1814
261.421	-319
261.483	-1886
261.545	-665
261.607	-2334
261.669	-756
261.731	-1121
261.793	-1105
261.854	-3053
261.916	-832
261.978	-1816
262.040	-1327
262.102	-727
262.164	-1260
262.225	-1716
262.287	-521
262.349	-1935
262.411	-1589
262.472	-445
262.534	-2316
262.596	-2282
262.658	-742
262.719	-1800
262.781	-492
262.843	-1624
262.904	-227
262.966	-1148
263.028	-2154
263.090	-1403
263.151	-497
263.213	-1110
263.275	-1999
263.336	-1462
263.398	-234
263.459	-1892
263.521	-734
263.583	-1770
263.644	-990
263.706	-1690
263.767	-1613
263.829	-609
263.891	-1531
263.952	-1956
264.014	-1493
264.075	-1835
264.137	-1678
264.198	-929
264.260	-1711
264.321	-1031
264.383	-1256
264.444	-1121
264.506	-1119
264.567	-1051
264.629	-886
264.690	-2832
264.752	-1546
264.813	-1868
264.875	-1364
264.936	-889
264.998	-1154
265.059	-1663
265.120	-665
265.182	-2346
265.243	-1841
265.305	-1546
265.366	-1222
265.427	-573
265.489	-1462
265.550	-2593
265.611	-1368
265.673	-2106
265.734	-1367
265.795	-1225
265.857	-1442
265.918	-2230
265.979	-1317
266.040	-1570
266.102	-1141
266.163	-1503
266.224	-1006
266.286	-1138
266.347	-1702
266.408	-810
266.469	-908
266.530	-1931
266.592	-1206
266.653	-1680
266.714	-1400
266.775	-965
266.836	-1258
266.898	-1496
266.959	-1139
267.020	-853
267.081	-230
267.142	-1440
267.203	-776
267.264	-1708
267.326	82
267.387	-1151
267.448	-1409
267.509	-1293
267.570	-576
267.631	-1452
267.692	-1179
267.753	-425
267.814	-2254
267.875	-1240
267.936	-1176
267.997	-2081
268.058	-1413
268.119	-1450
268.180	-1872
268.241	-1833
268.302	-1052
268.363	-1694
268.424	-1322
268.485	-1412
268.546	-1457
268.607	-1097
268.668	-2742
268.729	-1630
268.790	-905
268.851	-1060
268.912	-1731
268.972	-1520
269.033	-1174
269.094	-1660
269.155	-1512
269.216	-2014
269.277	-1165
269.338	-782
269.398	-1713
269.459	-1957
269.520	-913
269.581	-1685
269.642	-1044
269.702	-2701
269.763	-1453
269.824	-1427
269.885	-1967
269.945	-1464
270.006	-648
270.067	-2026
270.128	-922
270.188	-1833
270.249	-1575
270.310	-2044
270.370	-856
270.431	-1308
270.492	-1746
270.553	-2239
270.613	-1201
270.674	-479
270.734	-2199
270.795	-951
270.856	-763
270.916	-2433
270.977	-1503
271.038	-1967
271.098	-1250
271.159	-1398
271.219	-1210
271.280	-1630
271.340	-1697
271.401	-2452
271.462	-1870
271.522	-1434
271.583	-1051
271.643	-839
271.704	-1199
271.764	-1792
271.825	-1554
271.885	-358
271.946	359
272.006	-1230
272.066	-308
272.127	507
272.187	202
272.248	-781
272.308	-216
272.369	-609
272.429	-649
272.489	-1598
272.550	-1197
272.610	-717
272.671	-667
272.731	-1271
272.791	-1098
272.852	-1234
272.912	-649
272.972	-1022
273.033	-1185
273.093	-1568
273.153	-305
273.214	-1116
273.274	-1007
273.334	-273
273.394	218
273.455	-305
273.515	-408
273.575	-108
273.635	47
273.696	-326
273.756	574
273.816	-587
273.876	360
273.936	-519
273.997	-571
274.057	-1499
274.117	-851
274.177	-1070
274.237	-156
274.297	-535
274.358	-939
274.418	-742
274.478	-747
274.538	-1326
274.598	-1931
274.658	-1273
274.718	-672
274.778	-1251
274.838	-1199
274.898	-1515
274.958	-1116
275.018	-729
275.078	-188
275.138	-2307
275.198	-1156
275.258	-656
275.318	-602
275.378	-1542
275.438	-1130
275.498	-1106
275.558	-553
275.618	-223
275.678	-1211
275.738	-953
275.798	-1426
275.858	-2164
275.918	-1179
275.978	-2109
276.038	-1024
276.098	-1205
276.157	-1050
276.217	-624
276.277	-1007
276.337	-1561
276.397	-1903
276.457	-992
276.517	-777
276.576	-605
276.636	-1519
276.696	-1387
276.756	-180
276.815	-2115
276.875	225
276.935	-1340
276.995	-993
277.055	-447
277.114	-443
277.174	-1460
277.234	-202
277.293	-1078
277.353	-1084
277.413	-1759
277.472	-603
277.532	-961
277.592	44
277.651	2344
277.711	8247
277.771	1324
277.830	7150
277.890	6885
277.950	3571
278.009	15093
278.069	6541
278.128	6279
278.188	9304
278.248	2849
278.307	8652
278.367	6767
278.426	1271
278.486	-126
278.545	67
278.605	-184
278.664	610
278.724	-1042
278.783	-103
278.843	1164
278.902	463
278.962	-1174
279.021	-116
279.081	1499
279.140	918
279.199	-251
279.259	1003
279.318	702
279.378	1620
279.437	2605
279.496	8845
279.556	34707
279.615	32311
279.675	8548
279.734	4324
279.793	2863
279.853	4196
279.912	1590
279.971	1022
280.031	854
280.090	1637
280.149	3561
280.208	4739
280.268	22796
280.327	28084
280.386	5965
280.445	2428
280.505	1246
280.564	600
280.623	-51
280.682	311
280.742	961
280.801	-3
280.860	56
280.919	-244
280.978	-392
281.037	53
281.097	-197
281.156	-624
281.215	-557
281.274	-25
281.333	-337
281.392	-439
281.451	-558
281.510	-31
281.569	-1892
281.628	-549
281.688	-417
281.747	-386
281.806	-547
281.865	-531
281.924	-1466
281.983	-759
282.042	-690
282.101	-658
282.160	-484
282.219	-207
282.278	-464
282.337	-695
282.396	-1416
282.454	-412
282.513	-559
282.572	-126
282.631	-822
282.690	-122
282.749	-1164
282.808	-848
282.867	-422
282.926	-847
282.985	1
283.043	-752
283.102	-1317
283.161	46
283.220	251
283.279	-48
283.338	-718
283.396	-496
283.455	318
283.514	157
283.573	-287
283.631	243
283.690	-332
283.749	-596
283.808	-293
283.866	-292
283.925	-633
283.984	-165
284.043	-253
284.101	280
284.160	413
284.219	1643
284.277	260
284.336	722
284.395	2117
284.453	2055
284.512	798
284.570	2127
284.629	2871
284.688	3071
284.746	4159
284.805	5169
284.863	6726
284.922	9695
284.981	11572
285.039	15625
285.098	23277
285.156	34718
285.215	35854
285.273	33356
285.332	35538
285.390	27777
285.449	19211
285.507	13810
285.566	9723
285.624	7327
285.683	6057
285.741	5127
285.799	3717
285.858	2590
285.916	1557
285.975	1997
286.033	677
286.091	1412
286.150	516
286.208	292
286.267	542
286.325	769
286.383	293
286.442	136
286.500	-26
286.558	-11
286.616	-9
286.675	363
286.733	-152
286.791	-418
286.850	195
286.908	-902
286.966	-726
287.024	4
287.083	-887
287.141	-373
287.199	627
287.257	-130
287.315	-564
287.374	-161
287.432	-720
287.490	-755
287.548	-687
287.606	-1037
287.664	-704
287.723	-358
287.781	-672
287.839	-754
287.897	-726
287.955	-837
288.013	-670
288.071	-205
288.129	191
288.187	5852
288.245	2215
288.303	-375
288.361	-582
288.419	-933
288.477	-1208
288.535	-865
288.593	-1106
288.651	-662
288.709	-1293
288.767	-299
288.825	-1597
288.883	-451
288.941	-1002
288.999	-1389
289.057	46
289.115	-696
289.173	-1207
289.231	-799
289.289	-673
289.346	63
289.404	-1265
289.462	-1024
289.520	-1537
289.578	-478
289.636	-1051
289.694	-874
289.751	-360
289.809	-1399
289.867	-1346
289.925	-66
289.983	-1511
290.040	-493
290.098	-502
290.156	-840
290.214	-1042
290.271	-1004
290.329	-566
290.387	-1210
290.444	-715
290.502	-783
290.560	-1214
290.617	-1178
290.675	-1739
290.733	-573
290.790	-749
290.848	-901
290.906	-786
290.963	-843
291.021	-1189
291.078	-1174
291.136	-1395
291.194	-944
291.251	-1467
291.309	-1789
291.366	-843
291.424	-615
291.481	-1362
291.539	-1002
291.596	-1223
291.654	-1198
291.711	-74
291.769	-593
291.826	-1279
291.884	-451
291.941	-599
291.999	-1173
292.056	-1280
292.114	-1028
292.171	-1078
292.228	170
292.286	-995
292.343	-956
292.401	-1097
292.458	-491
292.515	-1242
292.573	-308
292.630	-886
292.687	-536
292.745	-1156
292.802	-1525
292.859	-1087
292.917	-472
292.974	-1391
293.031	-726
293.089	-940
293.146	-807
293.203	-1103
293.260	-618
293.318	-928
293.375	-1197
293.432	-976
293.489	-178
293.546	-744
293.604	-542
293.661	-468
293.718	1562
293.775	-53
293.832	475
293.889	-234
293.947	-264
294.004	-705
294.061	-557
294.118	-1086
294.175	134
294.232	629
294.289	-71
294.346	-1243
294.403	-718
294.460	-804
294.517	-312
294.574	-1058
294.631	-564
294.688	-1687
294.745	-1384
294.802	162
294.859	214
294.916	-1565
294.973	-226
295.030	-1338
295.087	-1179
295.144	-927
295.201	-1177
295.258	-1687
295.315	-733
295.372	-629
295.429	-105
295.486	-317
295.542	-1111
295.599	-1240
295.656	-233
295.713	-1018
295.770	13
295.827	-1337
295.883	-344
295.940	-1938
295.997	-682
296.054	-1193
296.111	-1141
296.167	-976
296.224	-860
296.281	-1001
296.338	-1302
296.394	-1514
296.451	-1307
296.508	-1007
296.564	-384
296.621	-555
296.678	148
296.734	1263
296.791	182
296.848	-358
296.904	-1558
296.961	-680
297.018	787
297.074	-643
297.131	-902
297.187	-1956
297.244	-1113
297.301	22
297.357	1761
297.414	-35
297.470	-575
297.527	-1611
297.583	-746
297.640	-1027
297.696	-666
297.753	-1562
297.809	-1396
297.866	-1935
297.922	-767
297.979	-1620
298.035	-953
298.092	-1021
298.148	-637
298.204	-781
298.261	-407
298.317	-884
298.374	1026
298.430	-68
298.486	-674
298.543	-1355
298.599	-749
298.656	-1171
298.712	-1015
298.768	-1061
298.824	-15
298.881	-1591
298.937	-1447
298.993	-1765
299.050	-1855
299.106	-582
299.162	-1413
299.218	-615
299.275	-1416
299.331	-135
299.387	-193
299.443	879
299.500	4148
299.556	3508
299.612	273
299.668	98
299.724	3306
299.780	4892
299.837	1583
299.893	1144
299.949	3096
300.005	4387
300.061	3600
300.117	6695
300.173	3064
300.229	223
300.285	70
300.341	4
300.397	384
300.453	-1159
300.510	-184
300.566	-855
300.622	244
300.678	5188
300.734	9793
300.790	4070
300.845	2460
300.901	1965
300.957	5084
301.013	2916
301.069	305
301.125	-75
301.181	-834
301.237	-123
301.293	-528
301.349	-578
301.405	-1105
301.461	-1102
301.516	-753
301.572	-1253
301.628	-1351
301.684	-1074
301.740	-1452
301.796	-1450
301.851	-191
301.907	-947
301.963	-638
302.019	923
302.074	4100
302.130	4389
302.186	1376
302.242	-199
302.297	-142
302.353	-1650
302.409	94
302.464	-451
302.520	-437
302.576	-63
302.631	504
302.687	-323
302.743	-935
302.798	-1151
302.854	-899
302.910	-922
302.965	-1419
303.021	-1008
303.076	-327
303.132	-1386
303.187	-702
303.243	-641
303.299	-29
303.354	-1128
303.410	-915
303.465	-698
303.521	-697
303.576	-529
303.632	-335
303.687	-1346
303.743	245
303.798	-282
303.853	-679
303.909	-689
303.964	-692
304.020	-1510
304.075	-376
304.130	-970
304.186	-1000
304.241	270
304.297	-811
304.352	-612
304.358	-604
304.407	-542
304.449	-467
304.463	-439
304.518	-1468
304.539	-1449
304.573	-1440
304.629	-305
304.630	-325
304.684	-1187
304.720	-235
304.739	252
304.794	1196
304.811	1055
304.850	659
304.902	-634
304.905	-719
304.960	-564
304.992	-993
305.015	-1306
305.071	-298
305.083	-282
305.126	-252
305.173	-474
305.181	-496
305.236	-663
305.264	-571
305.292	-528
305.347	-209
305.354	-255
305.402	-472
305.445	-849
305.457	-992
305.512	-311
305.535	-687
305.567	-1076
305.622	-1047
305.626	-1013
305.678	-492
305.716	-24
305.733	157
305.788	365
305.807	351
305.843	545
305.897	862
305.898	859
305.953	1685
305.988	775
306.008	271
306.063	-550
306.078	-697
306.118	-817
306.168	-269
306.173	-236
306.228	-682
306.259	-409
306.283	-101
306.338	-488
306.349	-412
306.393	-238
306.440	-528
306.448	-543
306.503	5
306.530	-51
306.558	-271
306.613	-139
306.620	-153
306.668	300
306.711	761
306.723	728
306.778	438
306.801	295
306.833	284
306.888	87
306.892	103
306.943	331
306.982	-103
306.997	-258
307.052	238
307.072	140
307.107	42
307.162	30
307.163	24
307.217	-117
307.253	107
307.272	129
307.327	-74
307.343	-139
307.381	68
307.434	155
307.436	147
307.491	641
307.524	560
307.546	634
307.600	778
307.614	826
307.655	531
307.704	198
307.710	231
307.765	162
307.795	619
307.819	905
307.874	979
307.885	901
307.929	788
307.975	1420
307.984	1505
308.038	1602
308.065	1409
308.093	2296
308.148	4935
308.156	5453
308.202	8219
308.246	11313
308.257	11008
308.312	5509
308.336	3399
308.366	2769
308.421	1717
308.426	1660
308.475	1394
308.517	1182
308.530	1194
308.585	1559
308.607	1698
308.639	1885
308.694	2018
308.697	2003
308.748	2076
308.787	2701
308.803	2960
308.857	3017
308.877	3287
308.912	4055
308.967	4573
308.967	4576
309.021	8046
309.058	10464
309.076	11945
309.130	17287
309.148	18745
309.185	25396
309.238	35361
309.239	35606
309.293	44424
309.328	48484
309.348	44188
309.402	27709
309.418	22918
309.457	18309
309.508	13451
309.511	13630
309.566	17669
309.598	20418
309.620	27200
309.674	46184
309.688	51093
309.729	47514
309.778	39284
309.783	38299
309.837	23958
309.868	16244
309.892	14149
309.946	10240
309.959	9425
310.001	8159
310.049	6553
310.055	6370
310.109	5199
310.139	4295
310.163	3667
310.218	2753
310.229	2551
310.272	2724
310.319	2804
310.326	2728
310.381	2041
310.409	1832
310.435	1840
310.489	1500
310.499	1497
310.543	1408
310.589	1133
310.598	1240
310.652	2019
310.679	2267
310.706	1877
310.760	1293
310.769	1187
310.814	1585
310.859	2020
310.868	1991
310.923	1610
310.948	1443
310.977	1512
311.031	1658
311.038	1662
311.085	1301
311.128	985
311.139	1096
311.193	1720
311.218	1895
311.247	1692
311.301	1528
311.308	1470
311.356	1495
311.398	1679
311.410	1699
311.464	1704
311.488	1639
311.518	1638
311.572	1711
311.578	1713
311.626	1739
311.668	1716
311.680	1742
311.734	1830
311.758	1845
311.788	1580
311.842	1133
311.847	1081
311.896	1964
311.937	2711
311.950	2561
312.004	1860
312.027	1554
312.058	1715
312.112	1985
312.117	2007
312.165	2255
312.207	2455
312.297	1413
312.386	2008
312.476	1751
312.566	2106
312.656	2071
312.745	1427
312.835	2285
312.925	1554
313.015	1321
313.104	1901
313.194	2372
313.284	1493
313.374	2234
313.463	2138
313.553	3093
313.643	1935
313.732	3004
313.822	2865
313.912	3226
314.001	3279
314.091	3647
314.180	3408
314.270	4364
314.360	3385
314.449	3572
314.539	2809
314.628	3825
314.718	3344
314.808	4147
314.897	4855
314.987	4342
315.076	3638
315.166	5082
315.255	4900
315.345	4183
315.434	3054
315.524	4160
315.613	3909
315.703	5398
315.792	12856
315.881	42905
315.971	13081
316.060	5570
316.150	3580
316.239	2951
316.328	1962
316.418	4106
316.507	3395
316.597	4780
316.686	3962
316.775	3624
316.865	3464
316.954	3438
317.043	2811
317.133	3503
317.222	2082
317.311	2581
317.400	1598
317.490	3868
317.579	3326
317.668	3924
317.757	6422
317.847	19780
317.936	63941
318.025	18450
318.114	15947
318.203	9248
318.293	3418
318.382	6138
318.471	6518
318.560	6302
318.649	5710
318.738	3199
318.828	2508
318.917	2538
319.006	2297
319.095	2883
319.184	5172
319.273	4134
319.362	3027
319.451	1696
319.540	1619
319.629	2438
319.718	2412
319.807	2484
319.896	2637
319.985	6528
320.074	3655
320.163	2199
320.252	2286
320.341	2897
320.430	2116
320.519	3000
320.608	2662
320.697	4109
320.786	4322
320.875	6254
320.964	5918
321.053	6471
321.142	5702
321.230	7143
321.319	7926
321.408	9974
321.497	8983
321.586	8307
321.675	5562
321.764	6199
321.852	5361
321.941	6146
322.030	5457
322.119	7514
322.207	8078
322.296	10386
322.385	9237
322.474	12624
322.562	13407
322.651	9959
322.740	6836
322.829	6884
322.917	4849
323.006	5013
323.095	4196
323.183	4275
323.272	3733
323.361	4390
323.449	5206
323.538	3499
323.626	3598
323.715	4016
323.804	2338
323.892	3944
323.981	2522
324.069	3301
324.158	2738
324.246	4013
324.335	2787
324.424	3062
324.512	2537
324.601	2718
324.689	1886
324.778	2717
324.866	2266
324.954	2383
325.043	1916
325.131	2390
325.220	2818
325.308	2242
325.397	2377
325.485	2534
325.574	1366
325.662	2726
325.750	1309
325.839	3060
325.927	1830
326.015	2407
326.104	950
326.192	2243
326.280	1918
326.369	2148
326.457	1482
326.545	2785
326.634	1428
326.722	3024
326.810	1180
326.898	3087
326.987	2255
327.075	2516
327.163	2841
327.251	2956
327.340	2879
327.428	4478
327.516	4780
327.604	3527
327.692	1949
327.781	2078
327.869	2044
327.957	1468
328.045	1734
328.133	2149
328.221	823
328.309	2190
328.397	1693
328.485	2123
328.574	4456
328.662	6830
328.750	3331
328.838	1679
328.926	1613
329.014	2334
329.102	1872
329.190	2099
329.278	1707
329.366	3027
329.454	1286
329.542	2048
329.630	839
329.718	2384
329.806	1461
329.893	1523
329.981	1480
330.069	2603
330.157	1971
330.245	2926
330.333	2962
330.421	1958
330.509	1632
330.597	2345
330.684	2080
330.772	2333
330.860	2285
330.948	1965
331.036	1319
331.123	1330
331.211	1059
331.299	1813
331.387	1903
331.475	2523
331.562	1980
331.650	2648
331.738	1389
331.825	2198
331.913	1812
332.001	2032
332.089	2276
332.176	3310
332.264	2445
332.352	2267
332.439	2050
332.527	2517
332.614	1522
332.702	2129
332.790	1964
332.877	3573
332.965	7902
333.052	7691
333.140	7498
333.228	21394
333.315	5665
333.403	2954
333.490	3641
333.578	8303
333.665	31896
333.753	12618
333.840	3988
333.928	3679
334.015	4908
334.103	6248
334.190	8319
334.278	9853
334.365	13290
334.452	14548
334.540	8637
334.627	8109
334.715	10115
334.802	15065
334.889	24653
334.977	36845
335.064	23109
335.151	11104
335.239	7022
335.326	6476
335.413	7509
335.501	8682
335.588	6140
335.675	6605
335.762	7817
335.850	12643
335.937	17434
336.024	29432
336.111	49892
336.199	48239
336.286	20146
336.373	10897
336.460	6624
336.547	6123
336.635	4801
336.722	4428
336.809	3376
336.896	3668
336.983	4036
337.070	5169
337.157	6711
337.245	4047
337.332	3863
337.419	2902
337.506	3266
337.593	3228
337.680	2865
337.767	4633
337.854	2123
337.941	2521
338.028	2225
338.115	2491
338.202	4244
338.289	2255
338.376	3947
338.463	2619
338.550	3258
338.637	4124
338.724	2007
338.811	2573
338.898	2142
338.984	2187
339.071	2399
339.158	2897
339.245	1900
339.332	2059
339.419	1863
339.506	2973
339.593	1991
339.679	2559
339.766	2031
339.853	2376
339.940	2268
340.027	2472
340.113	2433
340.200	2888
340.287	1510
340.374	2507
340.460	2055
340.547	1849
340.634	1430
340.720	3339
340.807	1710
340.894	2966
340.980	1792
341.067	2477
341.154	2737
341.240	1916
341.327	2602
341.414	2759
341.500	1258
341.587	2880
341.674	2210
341.760	2621
341.847	1751
341.933	2391
342.020	569
342.106	2068
342.193	1968
342.279	2704
342.366	1849
342.452	2317
342.539	2071
342.625	2674
342.712	2731
342.798	3608
342.885	2195
342.971	1405
343.058	1811
343.144	1450
343.230	1519
343.317	2238
343.403	1016
343.490	1726
343.576	1435
343.662	2477
343.749	1147
343.835	2565
343.921	2000
344.008	9043
344.094	16167
344.180	4937
344.267	1999
344.353	3123
344.439	3099
344.525	2201
344.612	1878
344.698	2709
344.784	1865
344.870	2954
344.957	1285
345.043	3233
345.129	860
345.215	2789
345.301	2472
345.387	1951
345.474	1457
345.560	1909
345.646	995
345.732	2100
345.818	2223
345.904	1802
345.990	1796
346.076	1911
346.162	954
346.249	2650
346.335	1346
346.421	2624
346.507	2095
346.593	5376
346.679	976
346.765	3566
346.851	4580
346.937	2880
347.023	3154
347.108	2432
347.194	2027
347.280	2745
347.366	3484
347.452	10625
347.538	13400
347.624	9275
347.710	4420
347.796	2489
347.882	1890
347.967	2684
348.053	692
348.139	2450
348.225	1841
348.311	2062
348.397	2467
348.482	3492
348.568	2056
348.654	3763
348.740	14108
348.825	12396
348.911	5902
348.997	5102
349.083	7639
349.168	2831
349.254	2378
349.340	2666
349.425	1981
349.511	2503
349.597	1947
349.682	2833
349.768	4375
349.854	3356
349.939	3189
350.025	2874
350.110	2173
350.196	2730
350.282	1079
350.367	3429
350.453	1612
350.538	2374
350.624	2178
350.709	2710
350.795	1219
350.880	2154
350.966	3169
351.051	2401
351.137	1690
351.222	2923
351.308	2034
351.393	3339
351.479	1083
351.564	1946
351.649	2928
351.735	2227
351.820	2542
351.906	2089
351.991	2333
352.076	2795
352.162	3669
352.247	2146
352.332	2102
352.418	2137
352.503	1819
352.588	4452
352.673	2471
352.759	2244
352.844	1909
352.929	2188
353.014	1092
353.100	2550
353.185	2315
353.270	1851
353.355	2584
353.441	2248
353.526	1609
353.611	2976
353.696	1146
353.781	3119
353.866	1268
353.952	3109
354.037	1532
354.122	3235
354.207	2911
354.292	3056
354.377	2173
354.462	2272
354.547	1740
354.632	2157
354.717	2427
354.802	2341
354.887	1944
354.972	2479
355.057	1603
355.142	2253
355.227	2416
355.312	1973
355.397	2002
355.482	3052
355.567	1444
355.652	3554
355.737	2162
355.822	3759
355.907	2497
355.991	3803
356.076	1068
356.161	2648
356.246	1800
356.331	2031
356.416	1878
356.501	9114
356.585	6515
356.670	2989
356.755	4245
356.840	3440
356.924	6280
357.009	16629
357.094	7371
357.179	2520
357.263	2145
357.348	4018
357.433	1521
357.517	2998
357.602	1992
357.687	2597
357.771	2609
357.856	3029
357.941	2665
358.025	7097
358.110	21435
358.195	9493
358.279	2172
358.364	3144
358.448	3296
358.533	6153
358.617	4343
358.702	5821
358.787	3165
358.871	3144
358.956	2395
359.040	2646
359.125	1762
359.209	3407
359.294	2747
359.378	4435
359.462	4044
359.547	3318
359.631	2075
359.716	1975
359.800	2034
359.885	3564
359.969	1264
360.053	3318
360.138	1577
360.222	2963
360.306	2341
360.391	2849
360.475	2265
360.559	3545
360.644	2192
360.728	2351
360.812	5418
360.896	11531
360.981	3878
361.065	3038
361.149	4253
361.233	3355
361.318	1751
361.402	3181
361.486	3840
361.570	3565
361.654	3012
361.739	4219
361.823	7473
361.907	13782
361.991	5553
362.075	6123
362.159	6785
362.243	14208
362.327	32844
362.411	56504
362.495	21267
362.580	9478
362.664	8259
362.748	10103
362.832	15045
362.916	30066
363.000	87046
363.084	131503
363.168	53167
363.252	16702
363.336	10079
363.420	7992
363.503	7411
363.587	8099
363.671	5666
363.755	5382
363.839	6924
363.923	6054
364.007	8649
364.091	11007
364.175	16153
364.258	41235
364.342	95105
364.426	182632
364.510	97003
364.594	30410
364.677	14837
364.761	14155
364.845	10835
364.929	5640
365.013	4611
365.096	4964
365.180	3038
365.264	4483
365.347	9025
365.431	4088
365.515	1924
365.598	2981
365.682	4391
365.766	2454
365.849	3341
365.933	3191
366.017	4289
366.100	3070
366.184	2714
366.267	4109
366.351	3272
366.435	3381
366.518	2143
366.602	3578
366.685	3141
366.769	2927
366.852	2964
366.936	3707
367.019	2916
367.103	2454
367.186	4513
367.270	3266
367.353	3105
367.436	5000
367.520	3283
367.603	4858
367.687	2636
367.770	4206
367.853	4507
367.937	6393
368.020	5741
368.104	2498
368.187	3216
368.270	3501
368.353	3116
368.437	3380
368.520	4452
368.603	3504
368.687	2834
368.770	5526
368.853	2991
368.936	4092
369.020	3490
369.103	2672
369.186	2115
369.269	2905
369.352	3313
369.436	2617
369.519	2650
369.602	1383
369.685	4083
369.768	2057
369.851	2567
369.934	2303
370.018	1427
370.101	1680
370.184	5366
370.267	3194
370.350	3653
370.433	4370
370.516	10314
370.599	26810
370.682	10399
370.765	7100
370.848	6186
370.931	6729
371.014	5297
371.097	3327
371.180	4277
371.263	4892
371.346	2653
371.429	4098
371.511	3416
371.594	4599
371.677	5216
371.760	5852
371.843	4538
371.926	12535
372.009	22147
372.091	14271
372.174	7203
372.257	11094
372.340	7838
372.423	7791
372.505	7675
372.588	5530
372.671	5886
372.754	6886
372.836	5767
372.919	6065
373.002	7158
373.085	4783
373.167	5842
373.250	5933
373.332	8426
373.415	13784
373.498	24466
373.580	14112
373.663	38219
373.746	39435
373.828	8159
373.911	5945
373.993	3874
374.076	6659
374.159	5379
374.241	5192
374.324	7065
374.406	6610
374.489	8421
374.571	17983
374.654	7537
374.736	6141
374.819	10944
374.901	19790
374.983	17249
375.066	7451
375.148	5139
375.231	6096
375.313	8285
375.395	5984
375.478	5017
375.560	5477
375.643	4425
375.725	6570
375.807	13239
375.890	11466
375.972	3516
376.054	4796
376.136	3610
376.219	3613
376.301	5607
376.383	9808
376.465	5723
376.548	3354
376.630	4285
376.712	8727
376.794	4476
376.877	3281
376.959	1829
377.041	3337
377.123	2344
377.205	4271
377.287	1803
377.369	4064
377.452	3355
377.534	3501
377.616	2600
377.698	2781
377.780	3004
377.862	3903
377.944	3914
378.026	2457
378.108	3213
378.190	3408
378.272	3932
378.354	3045
378.436	2353
378.518	2332
378.600	2540
378.682	3922
378.764	4618
378.846	4867
378.928	2733
379.010	2654
379.091	3526
379.173	3308
379.255	1878
379.337	3162
379.419	3130
379.501	6174
379.583	3741
379.664	3253
379.746	2755
379.828	6011
379.910	4714
379.991	5530
380.073	2561
380.155	2888
380.237	2795
380.318	2950
380.400	2985
380.482	4349
380.564	3258
380.645	4113
380.727	3493
380.809	4928
380.890	2297
380.972	3207
381.053	3854
381.135	5658
381.217	3926
381.298	6814
381.380	4089
381.461	4843
381.543	8967
381.624	11032
381.706	5051
381.787	5423
381.869	5588
381.951	8478
382.032	17873
382.113	16353
382.195	5151
382.276	9048
382.358	7722
382.439	12628
382.521	16464
382.602	23642
382.684	19694
382.765	32062
382.846	83700
382.928	186245
383.009	111441
383.090	84936
383.172	214621
383.253	271413
383.334	101255
383.416	45997
383.497	34446
383.578	39946
383.659	72912
383.741	191967
383.822	335218
383.903	195751
383.984	63859
384.066	36641
384.147	21943
384.228	16617
384.309	13232
384.390	12564
384.471	10452
384.553	10020
384.634	9374
384.715	9933
384.796	8241
384.877	8728
384.958	9284
385.039	9194
385.120	7725
385.201	7720
385.282	6435
385.363	9121
385.444	9959
385.525	11121
385.606	12022
385.687	11755
385.768	8004
385.849	8043
385.930	14064
386.011	20480
386.092	8999
386.173	7763
386.254	6503
386.335	6586
386.416	5604
386.496	7117
386.577	6531
386.658	6956
386.739	4729
386.820	7351
386.901	5979
386.981	7668
387.062	8669
387.143	8684
387.224	10035
387.304	12234
387.385	11269
387.466	9570
387.547	11351
387.627	10765
387.708	10875
387.789	14640
387.869	12872
387.950	10217
388.031	6727
388.111	4963
388.192	7349
388.273	9350
388.353	7499
388.434	5892
388.514	5350
388.595	10444
388.676	9789
388.756	6577
388.837	5650
388.917	5371
388.998	3471
389.078	4885
389.159	4985
389.239	3207
389.320	5913
389.400	2998
389.480	5057
389.561	6145
389.641	5549
389.722	4624
389.802	3173
389.883	5899
389.963	7472
390.043	4747
390.124	2664
390.204	4689
390.284	4916
390.365	4719
390.445	4821
390.525	6119
390.605	5294
390.686	4060
390.766	4876
390.846	6013
390.927	3704
391.007	3756
391.087	5298
391.167	4001
391.247	3596
391.328	6150
391.408	5095
391.488	6151
391.568	3250
391.648	4974
391.728	6006
391.808	6900
391.888	6083
391.969	7969
392.049	7733
392.129	8417
392.209	7950
392.289	12503
392.369	9141
392.449	11075
392.529	10953
392.609	13107
392.689	14720
392.769	19250
392.849	20711
392.929	27049
393.009	38050
393.089	53678
393.169	97784
393.248	212927
393.328	397048
393.408	398061
393.488	218181
393.568	95566
393.648	51605
393.728	33393
393.807	21787
393.887	19648
393.967	15803
394.047	13524
394.127	9698
394.206	10797
394.286	12160
394.366	31974
394.446	34237
394.525	10215
394.605	7640
394.685	7921
394.764	8564
394.844	15163
394.924	18665
395.003	9481
395.083	5586
395.163	6371
395.242	5520
395.322	6966
395.402	4036
395.481	8190
395.561	6867
395.640	23169
395.720	46450
395.799	22891
395.879	9616
395.958	8064
396.038	13272
396.117	43930
396.197	46076
396.276	17445
396.356	13160
396.435	17228
396.515	22679
396.594	35341
396.673	72694
396.753	190259
396.832	361113
396.912	282458
396.991	107527
397.070	47054
397.150	25593
397.229	23448
397.308	38405
397.388	69325
397.467	32806
397.546	13008
397.625	6423
397.705	9170
397.784	6159
397.863	7006
397.942	5728
398.022	5993
398.101	4880
398.180	7534
398.259	5266
398.338	6407
398.417	4058
398.497	4246
398.576	4078
398.655	3386
398.734	3422
398.813	4669
398.892	3711
398.971	6435
399.050	3707
399.129	2494
399.208	3312
399.287	3277
399.366	2586
399.445	3284
399.524	3001
399.603	1891
399.682	1946
399.761	4116
399.840	6098
399.919	6492
399.998	2811
400.077	1567
400.156	840
400.235	5014
400.313	1953
400.392	1222
400.471	3318
400.550	4253
400.629	829
400.708	3749
400.786	1118
400.865	2449
400.944	1225
401.023	4480
401.102	1872
401.180	2278
401.259	2182
401.338	1739
401.416	1832
401.495	1485
401.574	2621
401.652	1156
401.731	2443
401.810	1119
401.888	576
401.967	1429
402.046	1304
402.124	2538
402.203	906
402.281	2714
402.360	1541
402.438	2617
402.517	263
402.596	1754
402.674	750
402.753	1706
402.831	2597
402.910	2835
402.988	2100
403.066	5487
403.145	4742
403.223	4767
403.302	5228
403.380	5064
403.459	4078
403.537	3658
403.615	2098
403.694	2146
403.772	2885
403.850	2518
403.929	1205
404.007	748
404.085	2399
404.164	1887
404.242	1567
404.320	3365
404.398	3505
404.477	3653
404.555	9597
404.633	8407
404.711	3062
404.789	3562
404.868	1923
404.946	1635
405.024	2197
405.102	1126
405.180	1291
405.258	258
405.336	1846
405.415	1494
405.493	2473
405.571	2340
405.649	1407
405.727	1431
405.805	3007
405.883	2786
405.961	2729
406.039	1958
406.117	-392
406.195	2310
406.273	960
406.351	7604
406.429	4747
406.507	1645
406.585	820
406.663	1775
406.740	333
406.818	1035
406.896	476
406.974	2267
407.052	-100
407.130	4565
407.208	4991
407.285	3066
407.363	1069
407.441	1864
407.519	1387
407.596	2383
407.674	1928
407.752	7767
407.830	6380
407.907	2121
407.985	530
408.063	1872
408.141	729
408.218	2033
408.296	120
408.373	1632
408.451	1970
408.529	2025
408.606	1597
408.684	2562
408.762	2313
408.839	2129
408.917	2334
408.994	3558
409.072	2944
409.149	4937
409.227	9369
409.304	12972
409.382	12998
409.459	15662
409.537	20665
409.614	16511
409.692	12843
409.769	12156
409.846	20536
409.924	26057
410.001	15774
410.079	12045
410.156	8433
410.233	6107
410.311	4931
410.388	4260
410.465	3738
410.543	3850
410.620	4108
410.697	4581
410.775	3869
410.852	2999
410.929	4209
411.006	5176
411.083	3309
411.161	4061
411.238	3175
411.315	3599
411.392	2905
411.469	3663
411.547	2527
411.624	1086
411.701	2874
411.778	2551
411.855	1730
411.932	1389
412.009	946
412.086	2245
412.163	2019
412.240	2067
412.317	1738
412.394	2137
412.471	1197
412.548	1617
412.625	666
412.702	2199
412.779	1910
412.856	2264
412.933	1031
413.010	1914
413.087	726
413.164	2018
413.241	2438
413.318	1293
413.395	1751
413.471	1794
413.548	1476
413.625	2689
413.702	83
413.779	2321
413.855	1072
413.932	409
414.009	-601
414.086	1038
414.162	694
414.239	1355
414.316	1359
414.393	3732
414.469	1419
414.546	1404
414.623	1136
414.699	534
414.776	742
414.853	575
414.929	968
415.006	999
415.082	1197
415.159	1456
415.236	283
415.312	2110
415.389	1377
415.465	1555
415.542	867
415.618	860
415.695	1574
415.771	970
415.848	919
415.924	1024
416.000	503
416.077	2226
416.153	-72
416.230	35
416.306	372
416.383	1191
416.459	866
416.535	585
416.612	946
416.688	595
416.764	966
416.841	1352
416.917	686
416.993	2115
417.069	1211
417.146	1422
417.222	1457
417.298	657
417.374	893
417.451	2459
417.527	425
417.603	940
417.679	833
417.755	885
417.831	-620
417.908	1346
417.984	336
418.060	-673
418.136	1325
418.212	1665
418.288	1033
418.364	921
418.440	-199
418.516	1774
418.592	1031
418.668	327
418.744	-37
418.820	1846
418.896	1238
418.972	580
419.048	919
419.124	2388
419.200	388
419.276	1147
419.352	388
419.428	1986
419.504	540
419.579	861
419.655	1461
419.731	1383
419.807	1479
419.883	2137
419.959	1750
420.034	2606
420.110	1738
420.186	2379
420.262	2940
420.337	2816
420.413	1657
420.489	2259
420.565	3595
420.640	2997
420.716	3519
420.792	2478
420.867	3862
420.943	3474
421.019	3298
421.094	3754
421.170	4029
421.245	4159
421.321	5201
421.397	6229
421.472	7446
421.548	10164
421.623	9157
421.699	10087
421.774	9607
421.850	10413
421.925	12856
422.001	15804
422.076	19710
422.152	25135
422.227	32991
422.302	47238
422.378	67272
422.453	108543
422.529	165663
422.604	182371
422.679	133900
422.755	176282
422.830	173807
422.905	117385
422.981	75963
423.056	54104
423.131	39459
423.207	29365
423.282	22672
423.357	19707
423.432	15227
423.508	13818
423.583	11003
423.658	10581
423.733	9475
423.808	8785
423.883	7935
423.959	9120
424.034	11345
424.109	10218
424.184	6585
424.259	5919
424.334	4829
424.409	4463
424.484	4250
424.559	4243
424.634	2991
424.709	3745
424.784	2668
424.859	3392
424.934	1912
425.009	3474
425.084	3196
425.159	2712
425.234	2978
425.309	2076
425.384	2563
425.459	1856
425.534	2406
425.609	1515
425.683	1352
425.758	2111
425.833	1353
425.908	2534
425.983	1397
426.058	4258
426.132	1521
426.207	1000
426.282	1492
426.357	771
426.431	1619
426.506	2445
426.581	1507
426.655	1990
426.730	1312
426.805	984
426.879	1676
426.954	952
427.029	341
427.103	3354
427.178	4602
427.253	2594
427.327	1794
427.402	1115
427.476	1178
427.551	862
427.625	1350
427.700	1291
427.774	717
427.849	1821
427.923	768
427.998	2164
428.072	1927
428.147	4743
428.221	25696
428.296	77017
428.370	41769
428.444	6413
428.519	2162
428.593	2690
428.667	1837
428.742	3532
428.816	8826
428.890	46123
428.965	69776
429.039	17403
429.113	3710
429.188	1874
429.262	953
429.336	1767
429.410	1543
429.485	2959
429.559	1907
429.633	1797
429.707	2166
429.781	8041
429.855	42166
429.930	61886
430.004	16374
430.078	9783
430.152	29025
430.226	101973
430.300	98200
430.374	22246
430.448	6678
430.522	4750
430.596	5334
430.670	15001
430.744	59039
430.818	62190
430.892	11266
430.966	2837
431.040	1281
431.114	1072
431.188	-20
431.262	572
431.336	-201
431.410	2024
431.484	419
431.557	2448
431.631	963
431.705	4283
431.779	19289
431.853	73963
431.927	47891
432.000	6863
432.074	2457
432.148	252
432.222	654
432.295	643
432.369	-571
432.443	402
432.516	1327
432.590	4958
432.664	1591
432.737	562
432.811	-361
432.885	689
432.958	663
433.032	248
433.106	-775
433.179	43
433.253	113
433.326	1200
433.400	-71
433.473	1052
433.547	-904
433.620	252
433.694	-184
433.767	391
433.841	-181
433.914	546
433.988	-883
434.061	1004
434.134	276
434.208	285
434.281	-475
434.355	597
434.428	449
434.501	76
434.575	-699
434.648	281
434.721	-510
434.795	306
434.868	207
434.941	357
435.014	-72
435.088	1629
435.161	2090
435.234	3213
435.307	2356
435.381	3501
435.454	4951
435.527	10252
435.600	11006
435.673	8099
435.746	5700
435.819	4522
435.892	2657
435.966	1175
436.039	1284
436.112	1985
436.185	792
436.258	644
436.331	-292
436.404	747
436.477	330
436.550	529
436.623	-58
436.696	924
436.769	-285
436.842	571
436.915	333
436.987	437
437.060	-94
437.133	138
437.206	-965
437.279	574
437.352	-386
437.425	204
437.498	374
437.570	765
437.643	-936
437.716	340
437.789	-447
437.861	-92
437.934	-61
438.007	251
438.080	-534
438.152	79
438.225	59
438.298	2894
438.370	7572
438.443	3223
438.516	571
438.588	358
438.661	21
438.734	643
438.806	-434
438.879	458
438.951	-262
439.024	99
439.096	144
439.169	531
439.241	-798
439.314	-344
439.386	-478
439.459	30
439.531	-1085
439.604	70
439.676	-192
439.749	360
439.821	-102
439.893	582
439.966	-975
440.038	192
440.110	-21
440.183	-434
440.255	-836
440.327	876
440.400	484
440.472	4609
440.544	1783
440.617	117
440.689	1034
440.761	1079
440.833	79
440.905	906
440.978	-87
441.050	558
441.122	163
441.194	-174
441.266	-714
441.338	-223
441.411	186
441.483	1172
441.555	1319
441.627	726
441.699	27
441.771	621
441.843	272
441.915	1019
441.987	376
442.059	1049
442.131	1385
442.203	2981
442.275	2265
442.347	5946
442.419	12774
442.491	60560
442.563	121228
442.635	47583
442.706	9605
442.778	4891
442.850	2404
442.922	2186
442.994	2240
443.066	3196
443.137	3540
443.209	5502
443.281	7787
443.353	20186
443.425	66620
443.496	179028
443.568	185929
443.640	77969
443.711	17724
443.783	8145
443.855	4558
443.926	2811
443.998	1211
444.070	2523
444.141	1666
444.213	1813
444.285	893
444.356	2381
444.428	285
444.499	2535
444.571	1049
444.642	1350
444.714	1208
444.785	1718
444.857	1697
444.928	2284
445.000	2638
445.071	4269
445.143	5283
445.214	8329
445.285	15228
445.357	40326
445.428	126313
445.500	211607
445.571	173282
445.642	114575
445.714	38123
445.785	13356
445.856	5704
445.928	4057
445.999	2124
446.070	2404
446.141	1618
446.213	2011
446.284	761
446.355	1579
446.426	453
446.497	1490
446.569	498
446.640	84
446.711	41
446.782	7
446.853	283
446.924	1155
446.995	-610
447.066	-107
447.138	236
447.209	330
447.280	-1266
447.351	-108
447.422	-691
447.493	612
447.564	-726
447.635	-192
447.706	-387
447.777	-95
447.847	-331
447.918	201
447.989	146
448.060	475
448.131	23
448.202	257
448.273	-635
448.344	811
448.414	351
448.485	248
448.556	-633
448.627	-416
448.698	669
448.768	-326
448.839	-901
448.910	-428
448.981	-443
449.051	-140
449.122	-770
449.193	-51
449.263	-387
449.334	-123
449.405	291
449.475	92
449.546	-601
449.616	476
449.687	1154
449.758	1
449.828	-594
449.899	-58
449.969	-628
450.040	335
450.110	-68
450.181	697
450.251	-387
450.322	-253
450.392	-447
450.463	-299
450.533	-601
450.604	-79
450.674	-236
450.744	-56
450.815	265
450.885	523
450.955	454
451.026	175
451.096	-424
451.166	373
451.237	916
451.307	1356
451.377	338
451.447	-214
451.518	-411
451.588	-65
451.658	-176
451.728	-303
451.799	-362
451.869	383
451.939	-1004
452.009	402
452.079	-520
452.149	646
452.219	-579
452.289	239
452.360	-22
452.430	969
452.500	384
452.570	1972
452.640	9105
452.710	23047
452.780	23079
452.850	9878
452.920	3245
452.990	2596
453.060	1381
453.129	773
453.199	192
453.269	1034
453.339	1369
453.409	1719
453.479	1403
453.549	2578
453.619	1945
453.688	-48
453.758	-487
453.828	-895
453.898	-696
453.968	422
454.037	-443
454.087	27
454.107	217
454.168	-86
454.177	-138
454.247	-191
454.249	-194
454.316	-522
454.330	-479
454.386	-332
454.411	-828
454.456	-1740
454.492	-790
454.525	48
454.574	-278
454.595	-431
454.655	240
454.665	347
454.734	-298
454.736	-277
454.804	179
454.817	209
454.873	348
454.898	423
454.943	528
454.979	-7
455.013	-506
455.060	-301
455.082	-238
455.141	-302
455.152	-315
455.221	403
455.222	402
455.291	-470
455.303	-268
455.360	480
455.384	508
455.430	570
455.465	855
455.499	1146
455.546	242
455.569	-204
455.627	598
455.638	754
455.707	-389
455.708	-379
455.777	-296
455.789	-280
455.846	-156
455.869	-38
455.916	60
455.950	-185
455.985	-399
456.031	53
456.054	288
456.112	223
456.124	176
456.193	-11
456.193	-18
456.262	376
456.274	480
456.332	797
456.355	363
456.401	-527
456.436	-46
456.470	366
456.516	-306
456.540	-567
456.597	237
456.609	385
456.678	696
456.678	687
456.747	898
456.759	754
456.817	154
456.840	298
456.886	523
456.920	719
456.955	955
457.001	818
457.024	603
457.082	595
457.093	661
457.162	1448
457.163	1455
457.232	559
457.243	692
457.301	1459
457.324	1283
457.370	793
457.405	874
457.439	1091
457.485	1206
457.508	1269
457.566	2052
457.577	2231
457.646	2901
457.647	2926
457.715	7211
457.727	8218
457.784	13969
457.808	20880
457.853	30916
457.889	35673
457.922	37442
457.969	23049
457.991	20023
458.050	22160
458.060	22523
458.129	46552
458.130	47102
458.198	56438
458.211	49938
458.267	24870
458.292	17295
458.336	8610
458.372	8554
458.405	11138
458.453	16280
458.474	20076
458.533	40089
458.543	41872
458.611	78183
458.614	78090
458.680	53066
458.694	42815
458.749	15860
458.775	11749
458.818	6483
458.855	4800
458.887	3592
458.936	3032
458.955	2803
459.016	1795
459.024	1752
459.093	2337
459.097	2340
459.162	1620
459.177	1488
459.230	1394
459.257	1650
459.299	1838
459.338	1637
459.368	1430
459.418	1351
459.437	1314
459.499	776
459.505	772
459.574	1403
459.579	1473
459.643	1511
459.659	1199
459.711	974
459.740	1341
459.780	1455
459.820	1266
459.849	1226
459.900	1482
459.917	1544
459.981	1425
459.986	1414
460.054	1553
460.061	1547
460.123	1306
460.141	1408
460.191	1651
460.222	1381
460.260	1221
460.302	1225
460.328	1208
460.382	1608
460.397	1652
460.462	1786
460.465	1822
460.534	2407
460.543	2464
460.602	4668
460.623	5761
460.671	8201
460.703	11246
460.739	11772
460.783	9774
460.808	8407
460.864	2985
460.876	2471
460.944	2208
460.945	2198
461.013	1805
461.024	1678
461.081	1070
461.104	1203
461.150	1645
461.184	1630
461.218	1459
461.264	1455
461.286	1571
461.345	1446
461.355	1415
461.423	2137
461.425	2129
461.491	1013
461.505	1061
461.559	2006
461.585	1847
461.628	1533
461.665	1973
461.696	2179
461.745	1874
461.764	1901
461.825	2402
461.832	2404
461.901	2164
461.905	2154
461.969	1693
461.985	1592
462.037	2301
462.065	2735
462.105	2100
462.145	1301
462.173	1399
462.225	1700
462.241	1757
462.305	2006
462.310	1994
462.378	2013
462.385	1929
462.446	1540
462.465	1566
462.514	1548
462.545	1620
462.582	1527
462.625	1256
462.650	1379
462.705	1841
462.718	1865
462.785	1968
462.786	1971
462.854	1740
462.865	1736
462.922	1584
462.945	1575
462.990	1839
463.025	1957
463.058	2199
463.104	2514
463.126	2390
463.184	2148
463.194	2081
463.262	1257
463.264	1241
463.330	1967
463.344	2097
463.398	2030
463.424	1976
463.466	1768
463.504	1652
463.533	1737
463.583	1732
463.601	1855
463.663	2151
463.669	2094
463.737	1982
463.743	1907
463.805	1872
463.823	1988
463.873	2005
463.903	1918
463.940	1797
463.982	1635
464.008	1729
464.062	2064
464.076	2095
464.142	2275
464.144	2271
464.211	1574
464.221	1513
464.279	1606
464.301	1672
464.347	1717
464.381	1677
464.414	1593
464.461	1422
464.482	1527
464.540	2092
464.550	2078
464.617	1401
464.620	1394
464.685	1539
464.699	1509
464.753	1433
464.779	1417
464.820	1686
464.859	1885
464.888	1558
464.938	1021
464.956	1426
465.018	2873
465.023	2823
465.091	2170
465.098	2096
465.158	2574
465.177	2680
465.226	2190
465.257	1947
465.293	2088
465.336	2184
465.361	2165
465.416	2098
465.428	2100
465.495	2265
465.496	2264
465.563	1438
465.575	1317
465.631	1921
465.654	2163
465.698	2377
465.734	2511
465.765	2353
465.813	2087
465.833	2047
465.893	2105
465.900	2179
465.968	2533
465.972	2559
466.035	1694
466.052	1488
466.102	2125
466.131	2423
466.170	2396
466.210	2355
466.237	2428
466.290	2639
466.304	2531
466.369	1841
466.372	1839
466.439	1850
466.449	1823
466.506	2200
466.528	2373
466.573	2655
466.607	2831
466.641	2517
466.687	2129
466.708	2311
466.766	2741
466.775	2720
466.842	2554
466.845	2540
466.909	2563
466.925	2578
466.977	2488
467.004	2417
467.044	2837
467.083	3270
467.111	2849
467.163	2021
467.178	2098
467.242	2422
467.245	2449
467.312	2977
467.321	3045
467.379	2350
467.400	2090
467.446	2654
467.480	3060
467.559	2942
467.638	2305
467.717	2224
467.796	2162
467.875	2783
467.955	1742
468.034	3208
468.113	2443
468.192	3563
468.271	4349
468.350	7368
468.429	10866
468.508	12357
468.588	7042
468.667	3981
468.746	2968
468.825	3579
468.904	3960
468.983	2817
469.062	2989
469.141	3498
469.220	2300
469.299	2547
469.378	1676
469.456	2551
469.535	2551
469.614	2297
469.693	2377
469.772	3055
469.851	3769
469.930	2722
470.009	2930
470.088	3960
470.166	4260
470.245	7195
470.324	8335
470.403	5378
470.482	4226
470.560	3074
470.639	3058
470.718	2670
470.797	2451
470.875	3421
470.954	2396
471.033	2549
471.111	2109
471.190	2978
471.269	2615
471.347	2608
471.426	2425
471.505	2749
471.583	3027
471.662	2852
471.740	1972
471.819	2914
471.898	1805
471.976	2800
472.055	2706
472.133	2821
472.212	3348
472.290	2568
472.369	2713
472.447	2207
472.526	2612
472.604	2740
472.683	2765
472.761	2873
472.839	2351
472.918	2623
472.996	2279
473.075	2688
473.153	2464
473.231	3105
473.310	2288
473.388	2940
473.466	3230
473.545	2936
473.623	2442
473.701	2155
473.780	3045
473.858	1753
473.936	4193
474.014	2445
474.093	3295
474.171	2594
474.249	3905
474.327	2920
474.405	1591
474.484	2966
474.562	1846
474.640	2089
474.718	1777
474.796	2494
474.874	3174
474.952	2839
475.030	2095
475.108	2611
475.187	2168
475.265	2789
475.343	3423
475.421	3324
475.499	2560
475.577	3222
475.655	2863
475.733	3243
475.811	3053
475.889	1938
475.966	2863
476.044	2940
476.122	2044
476.200	2668
476.278	2189
476.356	2239
476.434	2252
476.512	2823
476.590	2548
476.667	2731
476.745	2790
476.823	3470
476.901	3088
476.979	1777
477.056	2403
477.134	2597
477.212	2086
477.290	2906
477.367	1788
477.445	3534
477.523	1594
477.601	2530
477.678	2575
477.756	2124
477.834	2679
477.911	2674
477.989	2856
478.066	3330
478.144	1543
478.222	2247
478.299	2278
478.377	2342
478.454	3346
478.532	2571
478.609	1624
478.687	2492
478.764	2004
478.842	2242
478.919	1714
478.997	2888
479.074	1936
479.152	2593
479.229	2267
479.307	2341
479.384	2744
479.461	3133
479.539	1970
479.616	3366
479.694	1779
479.771	1864
479.848	1912
479.926	814
480.003	3675
480.080	2540
480.157	2180
480.235	2814
480.312	2127
480.389	1891
480.467	2224
480.544	2907
480.621	3027
480.698	2103
480.775	2107
480.853	2308
480.930	2594
481.007	2484
481.084	2562
481.161	2557
481.238	2850
481.315	1995
481.392	2581
481.470	2021
481.547	2291
481.624	1646
481.701	1882
481.778	2799
481.855	2193
481.932	3140
482.009	2598
482.086	2280
482.163	3439
482.240	3827
482.317	3973
482.393	3246
482.470	2067
482.547	2116
482.624	2240
482.701	2864
482.778	2097
482.855	2012
482.932	1857
483.009	2306
483.085	3405
483.162	3148
483.239	3001
483.316	2354
483.393	3944
483.469	3423
483.546	2870
483.623	3073
483.699	2292
483.776	1698
483.853	1652
483.930	2028
484.006	2104
484.083	3794
484.160	2641
484.236	3716
484.313	2331
484.389	2426
484.466	3710
484.543	2763
484.619	4864
484.696	7532
484.772	3912
484.849	3128
484.925	2708
485.002	1920
485.078	2867
485.155	1307
485.231	1101
485.308	2034
485.384	2364
485.461	2203
485.537	1932
485.614	3651
485.690	2005
485.766	2707
485.843	2152
485.919	2061
485.995	2314
486.072	2624
486.148	2123
486.224	2173
486.301	1749
486.377	2283
486.453	1586
486.530	2315
486.606	3375
486.682	1947
486.758	2504
486.835	2408
486.911	1726
486.987	3444
487.063	3140
487.139	3421
487.215	3341
487.292	4976
487.368	5695
487.444	5706
487.520	7546
487.596	11333
487.672	33732
487.748	113797
487.824	165817
487.900	42760
487.976	10386
488.052	5521
488.128	5352
488.204	3287
488.280	3585
488.356	3084
488.432	2894
488.508	3654
488.584	2250
488.660	2417
488.736	2409
488.812	1710
488.888	2162
488.964	2499
489.039	2163
489.115	3108
489.191	3139
489.267	2901
489.343	2601
489.418	2306
489.494	2391
489.570	1077
489.646	3504
489.722	2807
489.797	1979
489.873	3058
489.949	1913
490.024	2189
490.100	1592
490.176	1172
490.251	2267
490.327	1536
490.403	2754
490.478	2269
490.554	1892
490.629	2043
490.705	2252
490.781	2459
490.856	2421
490.932	2339
491.007	2230
491.083	1502
491.158	2053
491.234	2171
491.309	2981
491.385	2039
491.460	899
491.536	2621
491.611	2319
491.686	2171
491.762	2067
491.837	2572
491.913	1925
491.988	3013
492.063	2365
492.139	3285
492.214	2627
492.289	2966
492.365	1280
492.440	2816
492.515	2113
492.590	2006
492.666	1426
492.741	2072
492.816	1973
492.891	2330
492.967	2410
493.042	1517
493.117	783
493.192	2547
493.267	2727
493.342	3623
493.418	3393
493.493	2478
493.568	3095
493.643	1907
493.718	2320
493.793	2311
493.868	2617
493.943	3342
494.018	2950
494.093	2600
494.168	2524
494.243	2237
494.318	3091
494.393	3048
494.468	1920
494.543	2889
494.618	2231
494.693	1913
494.768	2692
494.842	2340
494.917	3065
494.992	2417
495.067	2361
495.142	2762
495.217	2601
495.292	3507
495.366	2217
495.441	1295
495.516	4249
495.591	2747
495.665	2536
495.740	4070
495.815	3519
495.890	2450
495.964	1340
496.039	4759
496.114	2904
496.188	4055
496.263	2924
496.338	3138
496.412	2268
496.487	3506
496.561	1903
496.636	2676
496.710	1752
496.785	3168
496.860	2077
496.934	2795
497.009	3610
497.083	2365
497.158	3673
497.232	4037
497.307	4272
497.381	4206
497.455	4347
497.530	2263
497.604	3005
497.679	3437
497.753	2081
497.827	2212
497.902	1768
497.976	3131
498.050	3206
498.125	6377
498.199	7492
498.273	4069
498.348	3581
498.422	3982
498.496	3862
498.570	5716
498.645	2377
498.719	505
498.793	2327
498.867	2986
498.941	2170
499.016	2680
499.090	5247
499.164	4278
499.238	3006
499.312	3149
499.386	3611
499.460	3598
499.534	3918
499.609	5465
499.683	3103
499.757	2216
499.831	2432
499.905	3656
499.979	4165
500.053	2359
500.127	3234
500.201	1654
500.275	2976
500.349	3092
500.422	3656
500.496	4142
500.570	5262
500.644	8208
500.718	8600
500.792	1791
500.866	1809
500.940	2007
501.013	550
501.087	1369
501.161	730
501.235	-703
501.309	2658
501.382	2853
501.456	3846
501.530	2402
501.603	254
501.677	758
501.751	427
501.825	1728
501.898	944
501.972	1585
502.046	1177
502.119	769
502.193	1009
502.266	1947
502.340	671
502.413	1152
502.487	1620
502.561	874
502.634	1106
502.708	1487
502.781	382
502.855	2270
502.928	134
503.002	1104
503.075	82
503.149	1339
503.222	854
503.295	87
503.369	1206
503.442	1423
503.516	2001
503.589	3185
503.662	3142
503.736	3218
503.809	5283
503.882	4993
503.956	9037
504.029	18390
504.102	64954
504.175	96820
504.249	27141
504.322	8662
504.395	4825
504.468	3493
504.542	826
504.615	1065
504.688	2211
504.761	-10
504.834	2737
504.907	570
504.980	748
505.053	948
505.127	-1525
505.200	2574
505.273	322
505.346	68
505.419	-419
505.492	1598
505.565	246
505.638	1290
505.711	608
505.784	120
505.857	724
505.930	2409
506.003	-826
506.076	2391
506.149	143
506.221	-781
506.294	1463
506.367	-561
506.440	1179
506.513	1088
506.586	697
506.659	-228
506.731	786
506.804	841
506.877	-657
506.950	1386
507.022	1758
507.095	-511
507.168	399
507.241	1244
507.313	707
507.386	21
507.459	1303
507.531	1012
507.604	125
507.677	1316
507.749	-749
507.822	1520
507.894	-305
507.967	1655
508.040	505
508.112	1170
508.185	355
508.257	-992
508.330	1621
508.402	-427
508.475	-226
508.547	1505
508.620	-262
508.692	1083
508.765	922
508.837	-761
508.909	1059
508.982	-289
509.054	596
509.127	568
509.199	409
509.271	-682
509.344	-482
509.416	606
509.488	-554
509.560	649
509.633	210
509.705	-326
509.777	273
509.849	-224
509.922	-1242
509.994	193
510.066	981
510.138	-1517
510.210	2844
510.283	-376
510.355	318
510.427	894
510.499	1153
510.571	1354
510.643	-402
510.715	1772
510.787	-1975
510.859	1533
510.931	771
511.003	762
511.076	1227
511.148	132
511.219	-643
511.291	475
511.363	877
511.435	273
511.507	-129
511.579	1623
511.651	1664
511.723	-406
511.795	198
511.867	12
511.939	868
512.010	575
512.082	1086
512.154	-1481
512.226	299
512.298	1098
512.369	130
512.441	1952
512.513	1096
512.585	-1542
512.656	1299
512.728	544
512.800	-44
512.871	1295
512.943	-210
513.015	-1043
513.086	1625
513.158	123
513.230	-844
513.301	454
513.373	1078
513.444	265
513.516	127
513.588	894
513.659	1343
513.731	24
513.802	-641
513.874	2363
513.945	706
514.016	-412
514.088	-179
514.159	-537
514.231	1086
514.302	837
514.374	1071
514.445	-1071
514.516	2955
514.588	-650
514.659	407
514.730	158
514.802	1720
514.873	-914
514.944	2578
515.016	892
515.087	-186
515.158	341
515.229	1573
515.301	-408
515.372	986
515.443	241
515.514	-535
515.585	-20
515.656	1217
515.728	1384
515.799	-245
515.870	1197
515.941	1469
516.012	-254
516.083	1617
516.154	1252
516.225	2255
516.296	3978
516.367	3305
516.438	3968
516.509	5017
516.580	10933
516.651	42971
516.722	142380
516.793	54212
516.864	8299
516.935	8138
517.006	10473
517.077	14188
517.148	34591
517.219	175777
517.289	256720
517.360	33254
517.431	8681
517.502	3874
517.573	4772
517.643	3013
517.714	3306
517.785	3954
517.856	4162
517.926	6964
517.997	9206
518.068	9530
518.138	17419
518.209	26802
518.280	115392
518.350	385772
518.421	146743
518.492	20041
518.562	12548
518.633	11728
518.703	14224
518.774	42005
518.845	118795
518.915	112852
518.986	23755
519.056	8765
519.127	5535
519.197	3703
519.268	2903
519.338	4005
519.408	1246
519.479	1039
519.549	647
519.620	1957
519.690	1856
519.760	1099
519.831	1901
519.901	928
519.971	964
520.042	60
520.112	-57
520.182	1274
520.253	1608
520.323	-146
520.393	222
520.463	2749
520.534	-2111
520.604	2353
520.674	1544
520.744	-577
520.814	-171
520.885	1513
520.955	790
521.025	731
521.095	281
521.165	1370
521.235	8
521.305	-307
521.375	1265
521.445	1371
521.515	46
521.585	1854
521.655	-1736
521.725	997
521.795	1421
521.865	-1590
521.935	2135
522.005	-1044
522.075	68
522.145	1954
522.215	-1060
522.285	731
522.355	3
522.424	1798
522.494	-608
522.564	1631
522.634	325
522.704	2471
522.774	-116
522.843	1263
522.913	240
522.983	364
523.053	-6
523.122	1714
523.192	-22
523.262	118
523.331	286
523.401	1155
523.471	477
523.540	378
523.610	3
523.680	1444
523.749	1563
523.819	1888
523.888	298
523.958	513
524.027	554
524.097	1093
524.166	1374
524.236	-672
524.305	2596
524.375	309
524.444	-152
524.514	2513
524.583	-340
524.653	-79
524.722	1329
524.791	-165
524.861	2705
524.930	-208
524.999	-254
525.069	1969
525.138	385
525.207	556
525.277	1922
525.346	922
525.415	2295
525.484	2001
525.554	2059
525.623	4110
525.692	4960
525.761	5647
525.830	8752
525.900	9372
525.969	18293
526.038	35012
526.107	77018
526.176	226310
526.245	169275
526.314	45588
526.383	107957
526.452	143516
526.522	214624
526.591	190075
526.660	25898
526.729	14541
526.797	17112
526.867	24410
526.935	83194
527.004	328562
527.073	197142
527.142	21678
527.211	7738
527.280	5959
527.349	4067
527.418	1401
527.487	4061
527.555	1157
527.624	1887
527.693	-536
527.762	2512
527.831	-425
527.899	2440
527.968	966
528.037	85
528.106	1091
528.174	707
528.243	1622
528.312	1270
528.380	703
528.449	424
528.518	2895
528.586	-203
528.655	2049
528.723	1223
528.792	830
528.861	862
528.929	-504
528.998	1969
529.066	293
529.135	1723
529.203	424
529.272	170
529.340	907
529.409	3657
529.477	649
529.545	131
529.614	3260
529.682	-316
529.751	1262
529.819	4238
529.887	1873
529.956	1291
530.024	2480
530.092	1273
530.161	2110
530.229	1987
530.297	906
530.365	2302
530.434	2132
530.502	696
530.570	2048
530.638	-200
530.707	1976
530.775	2844
530.843	2011
530.911	1906
530.979	1900
531.047	2345
531.115	1828
531.183	1814
531.252	1874
531.320	1761
531.388	1058
531.456	2760
531.524	-83
531.592	3137
531.660	3534
531.728	1452
531.796	946
531.864	2353
531.932	1804
532.000	1279
532.067	2473
532.135	2471
532.203	3675
532.271	1681
532.339	3076
532.407	3635
532.475	2717
532.542	3173
532.610	2721
532.678	1905
532.746	5002
532.814	5398
532.881	3519
532.949	3801
533.017	2367
533.084	3554
533.152	3241
533.220	2904
533.287	2206
533.355	3408
533.423	4355
533.490	3146
533.558	3243
533.625	3328
533.693	1793
533.761	3181
533.828	2714
533.896	2077
533.963	4543
534.031	4382
534.098	5335
534.166	6093
534.233	5226
534.300	7266
534.368	6623
534.435	5968
534.503	7192
534.570	7530
534.637	7141
534.705	9114
534.772	10345
534.840	20988
534.907	99596
534.974	118523
535.041	15244
535.109	7024
535.176	5236
535.243	7099
535.310	6245
535.378	5353
535.445	6161
535.512	6043
535.579	6477
535.646	5619
535.714	6431
535.781	6060
535.848	6389
535.915	6999
535.982	4857
536.049	5400
536.116	7364
536.183	5555
536.250	5520
536.317	5320
536.384	6073
536.451	7127
536.518	6263
536.585	4345
536.652	8236
536.719	7008
536.786	5462
536.853	6884
536.920	6599
536.987	6377
537.053	4991
537.120	8019
537.187	8347
537.254	7644
537.321	7325
537.388	8705
537.454	6560
537.521	6572
537.588	6812
537.654	7921
537.721	8067
537.788	8747
537.855	7165
537.921	7388
537.988	6036
538.055	8071
538.121	5412
538.188	5800
538.254	5472
538.321	6507
538.388	6816
538.454	8180
538.521	8200
538.587	8117
538.654	7135
538.720	7152
538.787	7273
538.853	7211
538.920	6185
538.986	6596
539.053	6120
539.119	6386
539.185	7278
539.252	7622
539.318	6203
539.385	9206
539.451	5432
539.517	7823
539.583	7601
539.650	7035
539.716	7496
539.782	7200
539.849	5981
539.915	7541
539.981	5670
540.047	6424
540.114	6642
540.180	8057
540.246	6813
540.312	8273
540.378	7292
540.444	8036
540.510	7702
540.576	8526
540.643	7373
540.709	6245
540.775	7042
540.841	6705
540.907	7595
540.973	7189
541.039	6832
541.105	7382
541.171	7772
541.237	7814
541.303	8167
541.369	10006
541.435	7957
541.500	6828
541.566	6294
541.632	7134
541.698	6604
541.764	8926
541.830	7576
541.896	6306
541.961	8190
542.027	7437
542.093	8410
542.159	8572
542.224	7433
542.290	8961
542.356	7085
542.421	7624
542.487	7404
542.553	7506
542.618	6690
542.684	7451
542.750	7746
542.815	8019
542.881	7118
542.947	8572
543.012	8947
543.078	6976
543.143	6673
543.209	8229
543.274	7129
543.340	7533
543.405	8069
543.471	7328
543.536	8443
543.602	7691
543.667	6267
543.732	8418
543.798	6642
543.863	8346
543.928	7594
543.994	7334
544.059	8199
544.124	8650
544.190	8479
544.255	8996
544.320	8270
544.386	6767
544.451	9439
544.516	8859
544.581	7866
544.646	8999
544.712	11020
544.777	9623
544.842	8905
544.907	10212
544.972	9543
545.037	9195
545.102	10404
545.168	11100
545.233	10782
545.298	11328
545.363	9989
545.428	11585
545.493	11674
545.558	10517
545.623	10752
545.688	11380
545.753	11485
545.818	11451
545.883	14356
545.947	13538
546.012	13974
546.077	14341
546.142	16688
546.207	16112
546.272	17255
546.337	16099
546.401	18965
546.466	19409
546.531	19259
546.596	21894
546.661	20678
546.725	24371
546.790	24678
546.855	27988
546.919	30663
546.984	34939
547.049	36980
547.113	42877
547.178	46843
547.243	54344
547.307	62199
547.372	69890
547.436	69408
547.501	75420
547.565	79975
547.630	72855
547.695	69491
547.759	70180
547.823	71640
547.888	73137
547.952	74929
548.017	78692
548.081	80192
548.146	79019
548.210	81617
548.274	88659
548.339	85867
548.403	78598
548.468	73127
548.532	73559
548.596	75239
548.660	75823
548.725	83159
548.789	88672
548.853	87107
548.917	84898
548.982	80576
549.046	73160
549.110	66038
549.174	69176
549.238	81024
549.303	90333
549.367	92994
549.431	85193
549.495	79996
549.559	80583
549.623	95364
549.687	102188
549.751	101397
549.815	122358
549.879	123761
549.943	117911
550.007	123764
550.071	120795
550.135	109427
550.199	103736
550.263	102219
550.327	97212
550.391	100043
550.455	109538
550.519	116615
550.582	124665
550.646	139851
550.710	140858
550.774	139043
550.838	140340
550.901	143988
550.965	152162
551.029	155198
551.093	162805
551.156	170335
551.220	178963
551.284	195118
551.347	165459
551.411	149007
551.475	144973
551.538	153955
551.602	145155
551.666	137397
551.729	130914
551.793	128022
551.856	125798
551.920	124626
551.983	124949
552.047	124012
552.110	123610
552.174	124473
552.237	129846
552.301	119939
552.364	115852
552.428	112209
552.491	115876
552.554	116684
552.618	119078
552.681	120286
552.745	118091
552.808	126019
552.871	135550
552.934	124729
552.998	119371
553.061	117081
553.124	111902
553.187	111500
553.251	115774
553.314	115885
553.377	118114
553.440	125809
553.503	129267
553.567	127069
553.630	127077
553.693	127780
553.756	130266
553.819	128190
553.882	123654
553.945	125037
554.008	125180
554.071	125829
554.134	128854
554.197	121028
554.260	119481
554.323	121023
554.386	120971
554.449	126264
554.512	124938
554.575	120168
554.638	119940
554.701	119848
554.764	119743
554.827	114968
554.889	109855
554.952	105258
555.015	102225
555.078	102408
555.141	104676
555.203	101958
555.266	102327
555.329	101408
555.391	98405
555.454	96822
555.517	91832
555.580	89335
555.642	84869
555.705	83752
555.768	83338
555.830	82450
555.893	77792
555.955	76530
556.018	74039
556.080	73967
556.143	75216
556.206	74299
556.268	72510
556.330	71564
556.393	68588
556.455	67074
556.518	65053
556.580	64128
556.643	60938
556.705	60215
556.767	57904
556.830	57922
556.892	56093
556.955	55845
557.017	53778
557.079	52443
557.142	52516
557.204	50040
557.266	49809
557.328	47385
557.391	44242
557.453	42876
557.515	43503
557.577	43431
557.639	43510
557.701	43163
557.764	40940
557.826	43145
557.888	43080
557.950	43763
558.012	46021
558.074	55149
558.136	98523
558.198	196117
558.260	78473
558.322	42372
558.384	42769
558.446	44803
558.508	46690
558.570	48913
558.632	53313
558.694	65354
558.756	102103
558.818	256426
558.880	506011
558.942	207928
559.003	205017
559.065	102163
559.127	47578
559.189	44956
559.251	50896
559.312	69136
559.374	143065
559.436	381236
559.498	191351
559.559	51409
559.621	45613
559.683	51904
559.744	77627
559.806	212987
559.868	289711
559.929	72183
559.991	49033
560.052	75497
560.114	188215
560.176	120610
560.237	113916
560.299	166774
560.360	42418
560.422	21023
560.483	20775
560.545	18462
560.606	18522
560.667	17509
560.729	16772
560.790	16087
560.852	15886
560.913	15899
560.974	15520
561.036	14868
561.097	15325
561.158	14751
561.220	14804
561.281	13971
561.342	13395
561.403	14193
561.465	12973
561.526	14300
561.587	15616
561.648	12608
561.709	12583
561.771	12712
561.832	14038
561.893	12207
561.954	11602
562.015	12109
562.076	11805
562.137	11020
562.198	11414
562.259	12346
562.320	11662
562.381	11693
562.442	10945
562.503	11100
562.564	11567
562.625	11697
562.686	11103
562.747	9474
562.808	10951
562.869	10638
562.930	10648
562.991	10544
563.051	11174
563.112	9673
563.173	10401
563.234	10053
563.294	9219
563.355	9482
563.416	9075
563.477	9431
563.537	8752
563.598	8812
563.659	9809
563.720	8566
563.780	9064
563.841	8683
563.901	10155
563.962	8589
564.023	9194
564.083	9498
564.144	9369
564.204	8796
564.265	8655
564.325	8168
564.386	8929
564.446	8632
564.507	8518
564.567	8664
564.628	8987
564.688	8052
564.749	7989
564.809	8249
564.869	7931
564.930	7562
564.990	8639
565.050	7407
565.111	8077
565.171	8969
565.231	9158
565.292	9066
565.352	7474
565.412	9210
565.472	8667
565.532	7765
565.593	7856
565.653	8206
565.713	8470
565.773	8500
565.833	8649
565.893	9118
565.953	8308
566.013	7491
566.074	8032
566.134	7355
566.194	7754
566.254	7282
566.314	7701
566.374	6887
566.434	7234
566.494	7745
566.554	8278
566.614	7850
566.673	9002
566.733	8611
566.793	9120
566.853	7878
566.913	7805
566.973	8274
567.033	8338
567.092	7727
567.152	7736
567.212	9113
567.272	7613
567.331	9477
567.391	9799
567.451	10034
567.511	9306
567.570	9129
567.630	10095
567.690	8560
567.749	8325
567.809	8307
567.868	8200
567.928	8473
567.988	8474
568.047	8344
568.107	8163
568.166	8843
568.226	8835
568.285	9449
568.345	8677
568.404	8177
568.464	8421
568.523	9542
568.582	9403
568.642	7996
568.701	8089
568.761	7050
568.820	7738
568.879	8413
568.939	9224
568.998	8145
569.057	7985
569.116	8351
569.176	8751
569.235	8373
569.294	8862
569.353	8191
569.413	8451
569.472	7988
569.531	7888
569.590	6677
569.649	8149
569.708	7945
569.767	9197
569.827	8310
569.886	8521
569.945	7792
570.004	7772
570.063	7760
570.122	8831
570.181	8827
570.240	8633
570.299	8432
570.358	9109
570.417	8344
570.475	9147
570.534	9371
570.593	9126
570.652	8997
570.711	9277
570.770	8399
570.829	8644
570.887	9179
570.946	9110
571.005	9030
571.064	9549
571.122	10062
571.181	9189
571.240	8694
571.299	9285
571.357	8202
571.416	8464
571.475	8906
571.533	9334
571.592	10832
571.650	10221
571.709	8966
571.768	11162
571.826	10941
571.885	10053
571.943	9617
572.002	9025
572.060	8206
572.119	8638
572.177	7997
572.236	9112
572.294	9665
572.352	10141
572.411	9357
572.469	9062
572.528	8852
572.586	8400
572.644	8698
572.703	9121
572.761	7792
572.819	8489
572.877	8045
572.936	8926
572.994	7633
573.052	8085
573.110	8261
573.169	8328
573.227	8198
573.285	9343
573.343	8226
573.401	8048
573.459	9237
573.517	7867
573.576	8500
573.634	9423
573.692	8406
573.750	7304
573.808	7728
573.866	7964
573.924	8677
573.982	6904
574.040	8087
574.098	7198
574.155	8163
574.213	8173
574.271	7757
574.329	8551
574.387	7430
574.445	6816
574.503	7294
574.560	7085
574.618	6481
574.676	6291
574.734	7823
574.792	8224
574.849	6345
574.907	6573
574.965	5950
575.022	5565
575.080	5312
575.138	6081
575.195	5380
575.253	5659
575.311	5304
575.368	6346
575.426	4736
575.483	5785
575.541	5846
575.598	5203
575.656	5848
575.713	6286
575.771	6710
575.828	5952
575.886	5666
575.943	6566
576.001	5693
576.058	4932
576.115	4583
576.173	5555
576.230	5049
576.287	6433
576.345	6326
576.402	5570
576.459	6146
576.517	5284
576.574	5670
576.631	5653
576.688	4886
576.746	5180
576.803	4961
576.860	4618
576.917	5364
576.974	5391
577.031	5566
577.089	5969
577.146	4235
577.203	5513
577.260	5972
577.317	4979
577.374	4884
577.431	5211
577.488	5398
577.545	4909
577.602	5532
577.659	4838
577.716	5588
577.773	4401
577.830	4485
577.886	5530
577.943	4273
578.000	4705
578.057	4393
578.114	5077
578.171	5503
578.227	4811
578.284	4423
578.341	5212
578.398	4671
578.454	5904
578.511	5370
578.568	4831
578.625	4272
578.681	5082
578.738	5238
578.794	4362
578.851	5320
578.908	5079
578.964	5318
579.021	6120
579.077	4716
579.134	5351
579.190	5699
579.247	5249
579.303	4184
579.360	5387
579.416	5673
579.473	5771
579.529	4419
579.586	5258
579.642	5845
579.698	5146
579.755	5913
579.811	5471
579.867	5469
579.924	6805
579.980	5780
580.036	6377
580.093	5837
580.149	5830
580.205	5719
580.261	5801
580.317	5752
580.374	5808
580.430	6970
580.486	6232
580.542	5676
580.598	6159
580.619	6083
580.654	5949
580.692	5998
580.710	6026
580.765	6429
580.767	6441
580.823	7325
580.838	7521
580.879	8032
580.911	7506
580.935	7128
580.984	6423
580.991	6323
581.047	6654
581.057	6497
581.103	5825
581.130	6260
581.159	6695
581.203	6379
581.215	6302
581.270	6356
581.276	6303
581.326	5712
581.349	5902
581.382	6207
581.422	6935
581.438	7207
581.494	6906
581.494	6895
581.550	5860
581.567	6378
581.606	7410
581.640	6703
581.661	6268
581.713	7180
581.717	7252
581.773	7041
581.786	6909
581.829	6426
581.859	6466
581.885	6522
581.932	7174
581.940	7283
581.996	7353
582.004	7508
582.052	8218
582.077	7689
582.107	7169
582.150	7124
582.163	7067
582.219	6364
582.223	6471
582.274	7954
582.296	7557
582.330	6849
582.368	6771
582.386	6780
582.441	7265
582.441	7262
582.497	7529
582.514	7263
582.552	6917
582.587	7101
582.608	7150
582.659	6916
582.663	6911
582.719	7901
582.732	7875
582.774	7570
582.805	7469
582.830	7480
582.877	7554
582.885	7565
582.941	7275
582.950	7402
582.996	7970
583.023	8125
583.052	8350
583.095	8293
583.107	8251
583.162	8737
583.168	8717
583.218	8439
583.240	8430
583.273	8512
583.313	8366
583.328	8279
583.384	8735
583.385	8702
583.439	7715
583.458	7954
583.494	8325
583.531	8467
583.549	8753
583.603	8961
583.605	8951
583.660	8466
583.676	8401
583.715	8375
583.748	8882
583.770	9212
583.820	9132
583.825	9135
583.881	9321
583.893	9295
583.936	9150
583.965	9181
583.991	9179
584.038	9065
584.046	9071
584.101	9896
584.110	9904
584.156	10039
584.183	9831
584.211	9515
584.255	10077
584.266	10271
584.321	10514
584.328	10476
584.376	10055
584.400	10499
584.431	11331
584.472	11625
584.486	11572
584.541	11191
584.545	11195
584.596	11724
584.617	11579
584.651	11610
584.689	12529
584.706	12855
584.761	12766
584.762	12760
584.816	13354
584.834	13587
584.871	14043
584.906	14739
584.926	15048
584.978	14843
584.980	14899
585.035	17619
585.051	18339
585.090	19588
585.123	20339
585.145	21377
585.195	23833
585.200	24137
585.254	28517
585.267	29517
585.309	33472
585.340	36798
585.364	39846
585.412	45904
585.419	47251
585.473	60222
585.484	63135
585.528	84098
585.556	103156
585.583	150646
585.628	247082
585.637	285501
585.692	565018
585.700	608708
585.747	711372
585.772	654641
585.801	438882
585.845	167514
585.856	140858
585.910	68392
585.917	60302
585.965	44692
585.989	38674
586.019	35660
586.061	31346
586.074	30583
586.128	28111
586.133	27789
586.183	26108
586.205	25739
586.237	25551
586.277	25224
586.292	25174
586.346	24732
586.349	24670
586.401	24726
586.421	24734
586.455	24819
586.493	24955
586.509	25321
586.564	25564
586.565	25549
586.618	28226
586.637	29344
586.672	33667
586.709	38176
586.727	39968
586.781	44428
586.781	44490
586.835	34594
586.853	31911
586.889	29531
586.925	27025
586.944	26528
586.996	26400
586.998	26467
587.052	26405
587.068	26473
587.106	26752
587.140	26494
587.161	26762
587.212	27885
587.215	27956
587.269	27806
587.284	27700
587.323	28096
587.356	28845
587.377	29348
587.427	29887
587.431	30030
587.485	30972
587.499	31279
587.539	32175
587.571	32565
587.593	33424
587.643	35600
587.648	35756
587.702	35544
587.715	35640
587.755	36156
587.786	36248
587.810	36652
587.858	37499
587.864	37620
587.917	37174
587.930	37153
587.971	37626
588.001	37650
588.025	37812
588.073	37911
588.079	38005
588.133	37977
588.145	37916
588.187	38138
588.217	38341
588.241	39062
588.288	40027
588.295	40264
588.348	41416
588.360	41637
588.402	42062
588.431	41839
588.456	42622
588.503	44733
588.510	45201
588.564	47711
588.575	48260
588.617	50725
588.646	51996
588.671	53507
588.718	56688
588.725	57853
588.778	67198
588.789	69396
588.832	100398
588.861	123714
588.886	181904
588.932	301964
588.939	312061
588.993	380470
589.004	381677
589.047	210031
589.075	106299
589.100	85860
589.147	57719
589.154	57332
589.207	53520
589.218	52789
589.261	54105
589.290	55077
589.314	56742
589.361	59911
589.368	61939
589.421	78931
589.433	82846
589.475	141116
589.504	184232
589.528	241704
589.576	360144
589.582	347038
589.635	180215
589.647	145779
589.689	89554
589.718	54775
589.742	52832
589.790	48890
589.795	48945
589.849	47967
589.861	47747
589.902	48126
589.932	48146
589.955	47838
590.004	46568
590.009	46655
590.062	46474
590.075	46212
590.115	46203
590.146	45998
590.168	46250
590.218	46523
590.222	46806
590.275	48689
590.289	49064
590.328	49534
590.360	49417
590.381	49528
590.431	49575
590.435	49791
590.488	50964
590.503	51105
590.541	52201
590.574	52818
590.594	53904
590.645	56264
590.647	56464
590.700	57200
590.716	57179
590.753	59173
590.787	60701
590.806	61369
590.859	62767
590.859	62988
590.912	64519
590.930	64853
590.965	65126
591.001	64896
591.018	64841
591.071	64130
591.072	63921
591.124	63343
591.143	62838
591.177	63915
591.214	64854
591.230	65220
591.283	65593
591.285	65397
591.336	65496
591.356	65253
591.389	65722
591.427	65734
591.442	65683
591.495	64847
591.498	64570
591.547	65606
591.569	65891
591.600	67293
591.640	68414
591.653	68779
591.706	69457
591.711	69315
591.759	71344
591.782	72016
591.811	74219
591.853	76873
591.864	77099
591.917	76821
591.924	76533
591.969	76763
591.995	76522
592.022	77766
592.066	79116
592.075	79642
592.127	81283
592.137	81305
592.180	82706
592.208	83187
592.233	84515
592.279	86248
592.285	86769
592.338	88669
592.350	88803
592.390	89181
592.421	88944
592.443	89892
592.491	91028
592.495	91455
592.548	93133
592.562	93282
592.600	93468
592.633	93042
592.653	93343
592.704	92778
592.705	93395
592.775	97507
592.846	100669
592.916	101949
592.987	100396
593.058	101764
593.128	102581
593.199	104680
593.270	105340
593.341	108043
593.411	112467
593.482	116647
593.553	120653
593.623	119884
593.694	126943
593.764	126008
593.835	124183
593.906	125207
593.976	128107
594.047	131163
594.117	138279
594.188	141249
594.258	138162
594.329	140082
594.399	145801
594.470	149026
594.540	154202
594.611	157277
594.681	154215
594.751	155372
594.822	162299
594.892	169020
594.963	172674
595.033	177307
595.103	182221
595.174	184815
595.244	189141
595.314	196535
595.384	197964
595.455	205852
595.525	213454
595.595	221606
595.665	220505
595.736	214882
595.806	219974
595.876	224261
595.946	224755
596.016	236504
596.087	243117
596.157	243272
596.227	245614
596.297	256786
596.367	274111
596.437	290631
596.507	286953
596.577	285214
596.647	297064
596.717	314227
596.787	318763
596.857	315448
596.927	318116
596.997	319125
597.067	323960
597.137	327072
597.207	330952
597.277	331522
597.347	316821
597.417	308460
597.487	308930
597.557	316608
597.626	325457
597.696	333301
597.766	324743
597.836	306653
597.906	290420
597.975	286601
598.045	290286
598.115	304731
598.185	330378
598.254	368414
598.324	398154
598.394	405176
598.464	391510
598.533	381906
598.603	357055
598.672	345582
598.742	352114
598.812	356558
598.881	365202
598.951	363040
599.020	366463
599.090	382319
599.159	388274
599.229	372273
599.299	367718
599.368	378980
599.437	369586
599.507	338630
599.576	329770
599.646	324301
599.715	319314
599.785	316862
599.854	308404
599.924	301704
599.993	299361
600.062	308248
600.132	318570
600.201	338690
600.270	392019
600.340	412293
600.409	404427
600.478	400078
600.547	410320
600.617	366431
600.686	291753
600.755	264398
600.824	249236
600.894	244722
600.963	246168
601.032	243414
601.101	234241
601.170	223607
601.239	215321
601.308	214252
601.378	214328
601.447	214110
601.516	217068
601.585	219032
601.654	223461
601.723	222061
601.792	228776
601.861	237689
601.930	245756
601.999	249165
602.068	245952
602.137	250306
602.206	253450
602.275	258820
602.343	260150
602.412	261949
602.481	264089
602.550	269562
602.619	276502
602.688	278175
602.756	281014
602.825	283125
602.894	291112
602.963	297373
603.032	300655
603.100	302538
603.169	303118
603.238	307387
603.307	307197
603.375	311030
603.444	316786
603.513	323181
603.581	327954
603.650	329402
603.719	326030
603.787	337150
603.856	346439
603.924	354499
603.993	367114
604.061	383998
604.130	399270
604.198	406264
604.267	413325
604.335	418507
604.404	425244
604.472	430861
604.541	437839
604.609	439540
604.678	438908
604.746	440616
604.815	456868
604.883	462424
604.951	461878
605.020	469524
605.088	481527
605.156	492090
605.225	497352
605.293	499104
605.361	497302
605.429	501261
605.498	516731
605.566	526617
605.634	549368
605.702	571372
605.771	588624
605.839	590887
605.907	576163
605.975	557082
606.043	548745
606.111	546400
606.180	549196
606.248	539897
606.316	535339
606.384	535278
606.452	539733
606.520	554868
606.588	574380
606.656	578436
606.724	565013
606.792	537937
606.860	484215
606.928	442415
606.996	425556
607.064	418635
607.132	430950
607.200	457071
607.267	471804
607.335	482401
607.403	492484
607.471	475058
607.539	461251
607.607	460727
607.674	407493
607.742	407612
607.810	404454
607.878	404200
607.946	412761
608.013	434671
608.081	441729
608.149	446679
608.216	464470
608.284	476433
608.352	477366
608.419	471736
608.487	461302
608.555	451736
608.622	468726
608.690	502473
608.757	548610
608.825	558689
608.893	543538
608.960	512430
609.028	489849
609.095	493577
609.163	489548
609.230	437039
609.298	402960
609.365	427091
609.432	460424
609.500	501689
609.567	569400
609.635	646136
609.702	672414
609.769	637836
609.837	492574
609.904	432686
609.971	445392
610.039	477274
610.106	575483
610.173	920687
610.241	1668197
610.308	1061037
610.375	546752
610.442	478780
610.509	450241
610.577	456299
610.644	460189
610.711	477910
610.778	488200
610.845	511681
610.912	540132
610.980	556159
611.047	556038
611.114	547530
611.181	531504
611.248	530022
611.315	563653
611.382	573250
611.449	594497
611.516	601518
611.583	593226
611.650	596407
611.717	600830
611.784	608518
611.851	628256
611.918	652065
611.984	725267
612.051	897589
612.118	1386758
612.185	2281749
612.252	1735570
612.319	905360
612.386	774827
612.452	709173
612.519	674044
612.586	661338
612.653	673122
612.719	695450
612.786	666850
612.853	624948
612.919	615216
612.986	625331
613.053	589759
613.120	558406
613.186	539497
613.253	539272
613.319	541792
613.386	545167
613.453	555004
613.519	556325
613.586	545630
613.652	549794
613.719	544392
613.785	554708
613.852	560229
613.918	558017
613.985	562733
614.051	586401
614.118	574484
614.184	553290
614.250	558161
614.317	571740
614.383	564243
614.449	573017
614.516	568802
614.582	571792
614.648	560655
614.715	558893
614.781	542083
614.847	545164
614.914	543627
614.980	528907
615.046	531298
615.112	549396
615.179	551790
615.245	556388
615.311	546284
615.377	558067
615.443	562678
615.509	568688
615.575	587094
615.642	576769
615.708	590985
615.774	613158
615.840	638664
615.906	664402
615.972	748635
616.038	990511
616.104	1626343
616.170	2464671
616.236	2167945
616.302	1190385
616.368	982391
616.434	751626
616.500	692379
616.565	760079
616.631	921148
616.697	780956
616.763	786367
616.829	1093083
616.895	1738011
616.961	1604754
617.026	849478
617.092	637005
617.158	597544
617.224	578022
617.289	537476
617.355	515731
617.421	509704
617.487	506591
617.552	482476
617.618	478956
617.684	481574
617.749	482650
617.815	462543
617.880	455570
617.946	454299
618.012	463748
618.077	469645
618.143	450811
618.208	458661
618.274	491003
618.339	487238
618.405	406699
618.470	407074
618.536	406930
618.601	402077
618.667	374834
618.732	354746
618.798	352297
618.863	352923
618.928	350139
618.994	353192
619.059	348658
619.124	353098
619.190	347672
619.255	345616
619.320	345858
619.386	349276
619.451	345817
619.516	334604
619.581	342188
619.647	353712
619.712	352778
619.777	336394
619.842	340876
619.907	344738
619.972	351148
620.038	347745
620.103	339856
620.168	339741
620.233	347292
620.298	345204
620.363	354499
620.428	361638
620.493	371439
620.558	372314
620.623	377686
620.688	378175
620.753	374540
620.818	382261
620.883	382335
620.948	380897
621.013	376398
621.078	369270
621.143	375956
621.207	376817
621.272	371312
621.337	358063
621.402	354400
621.467	350530
621.532	354910
621.596	355470
621.661	346469
621.726	342011
621.791	346620
621.855	345667
621.920	343577
621.985	349536
622.049	355696
622.114	356639
622.179	361978
622.243	368046
622.308	381432
622.373	393496
622.437	384579
622.502	362678
622.566	359225
622.631	362160
622.695	368186
622.760	364196
622.824	364213
622.889	364023
622.953	366163
623.018	389627
623.082	390255
623.147	387492
623.211	377818
623.276	377441
623.340	363678
623.404	355745
623.469	354615
623.533	360125
623.597	351466
623.662	351133
623.726	324479
623.790	304979
623.854	297457
623.919	303477
623.983	308105
624.047	312164
624.111	317824
624.176	321792
624.240	323693
624.304	332032
624.368	320955
624.432	321027
624.496	329370
624.560	346948
624.625	350039
624.689	346861
624.753	365394
624.817	343214
624.881	339004
624.945	303116
625.009	298705
625.073	303525
625.137	313428
625.201	327760
625.265	326438
625.329	311053
625.393	317808
625.456	318884
625.520	329493
625.584	333420
625.648	340617
625.712	349995
625.776	348211
625.839	325729
625.903	279816
625.967	258850
626.031	279800
626.095	331156
626.158	302682
626.222	240156
626.286	228243
626.349	217371
626.413	203629
626.477	203090
626.540	206428
626.604	204050
626.668	199693
626.731	198332
626.795	197488
626.858	199345
626.922	195140
626.986	191757
627.049	193859
627.113	202687
627.176	194777
627.240	189465
627.303	191521
627.366	188748
627.430	191057
627.493	187355
627.557	186086
627.620	186985
627.684	198513
627.747	198972
627.810	180863
627.874	162756
627.937	157195
628.000	162104
628.064	157291
628.127	140569
628.190	138588
628.253	136573
628.317	131300
628.380	123878
628.443	120812
628.506	120728
628.569	116322
628.632	109331
628.696	110030
628.759	109824
628.822	105386
628.885	101695
628.948	101380
629.011	99123
629.074	97218
629.137	93823
629.200	91020
629.263	90760
629.326	89529
629.389	90092
629.452	88349
629.515	86643
629.578	86430
629.641	87861
629.704	88005
629.767	86807
629.830	84317
629.892	83147
629.955	81362
630.018	84136
630.081	82742
630.144	82683
630.207	80045
630.269	82276
630.332	79596
630.395	77928
630.458	76761
630.520	73470
630.583	76297
630.646	76445
630.708	77742
630.771	79173
630.834	83665
630.896	80427
630.959	79910
631.021	77297
631.084	77668
631.146	78018
631.209	79632
631.272	78289
631.334	80851
631.397	81312
631.459	82257
631.522	87172
631.584	89225
631.646	95177
631.709	98929
631.771	98104
631.834	93703
631.896	89227
631.958	83979
632.021	81245
632.083	77618
632.145	76769
632.208	75302
632.270	75332
632.332	74753
632.395	75051
632.457	74625
632.519	72577
632.581	74407
632.643	72584
632.706	72901
632.768	69259
632.830	72678
632.892	75196
632.954	74645
633.016	76361
633.078	75931
633.141	74784
633.203	74026
633.265	74219
633.327	73989
633.389	74147
633.451	76583
633.513	73877
633.575	77191
633.637	74795
633.698	78342
633.760	82146
633.822	83931
633.884	85059
633.946	88556
634.008	89930
634.070	92958
634.132	98693
634.193	109082
634.255	115310
634.317	118856
634.379	115462
634.441	103793
634.502	95382
634.564	87725
634.626	80797
634.687	76337
634.749	73962
634.811	74126
634.873	71109
634.934	72686
634.996	72421
635.057	72843
635.119	73852
635.181	75298
635.242	77546
635.304	75338
635.365	76682
635.427	74663
635.488	74530
635.550	74610
635.611	76565
635.673	76175
635.734	82631
635.796	86539
635.857	94233
635.918	100503
635.980	109929
636.041	117655
636.102	124134
636.164	126489
636.225	121143
636.286	105244
636.348	93120
636.409	83872
636.470	78513
636.531	77263
636.593	73744
636.654	72148
636.715	68243
636.776	67965
636.838	64959
636.899	64922
636.960	64077
637.021	62853
637.082	61624
637.143	61060
637.204	58055
637.265	59658
637.326	61147
637.387	62544
637.448	60406
637.509	61696
637.570	60663
637.631	60530
637.692	57746
637.753	56649
637.814	57700
637.875	56293
637.936	56315
637.997	58041
638.058	55323
638.119	55833
638.179	55188
638.240	55535
638.301	56901
638.362	53660
638.423	52299
638.483	53559
638.544	50529
638.605	53028
638.666	52020
638.726	52205
638.787	52429
638.848	53305
638.908	50734
638.969	49804
639.030	49403
639.090	48330
639.151	48989
639.211	50861
639.272	51243
639.332	52667
639.393	52885
639.453	57058
639.514	57726
639.574	50356
639.635	47061
639.695	48366
639.756	46355
639.816	46036
639.877	45796
639.937	48311
639.997	47498
640.058	46120
640.118	45788
640.178	47155
640.239	45234
640.299	47177
640.359	46397
640.420	50898
640.480	57382
640.540	65348
640.600	65558
640.661	57788
640.721	55493
640.781	54219
640.841	47518
640.901	47099
640.961	48022
641.021	50162
641.082	53552
641.142	48707
641.202	46121
641.262	42870
641.322	45325
641.382	42806
641.442	45060
641.502	43843
641.562	44025
641.622	46299
641.682	49637
641.742	57904
641.802	51596
641.861	45713
641.921	42447
641.981	42066
642.041	40400
642.101	40535
642.161	38661
642.221	39614
642.280	41042
642.340	40828
642.400	39898
642.460	43093
642.519	42010
642.579	43026
642.639	42645
642.698	41395
642.758	45585
642.818	43992
642.877	43040
642.937	42827
642.997	43203
643.056	43275
643.116	42100
643.175	44662
643.235	44244
643.294	45158
643.354	47766
643.414	50440
643.473	56574
643.532	65584
643.592	82626
643.651	120277
643.711	193955
643.770	361859
643.830	812151
643.889	1257630
643.948	425031
644.008	127529
644.067	80042
644.126	61099
644.186	53492
644.245	48610
644.304	44178
644.363	47565
644.423	41788
644.482	44025
644.541	44666
644.600	46546
644.659	57409
644.719	68918
644.778	99095
644.837	165394
644.896	337253
644.955	660341
645.014	210914
645.073	68519
645.132	54593
645.191	49359
645.250	48023
645.309	50092
645.368	55243
645.427	75846
645.486	135466
645.545	209948
645.604	62426
645.663	44707
645.722	42883
645.781	46125
645.840	49778
645.898	58340
645.957	74603
646.016	109856
646.075	184436
646.134	347467
646.192	836828
646.251	977046
646.310	234465
646.369	93354
646.427	78003
646.486	58385
646.545	46591
646.603	42759
646.662	40679
646.721	39957
646.779	37875
646.838	39907
646.896	48665
646.955	65415
647.014	102114
647.072	196361
647.131	493864
647.189	208081
647.248	48519
647.306	38816
647.365	35397
647.423	31916
647.481	32831
647.540	30438
647.598	30755
647.657	31130
647.715	32296
647.773	28676
647.832	29238
647.890	26410
647.948	26865
648.007	27700
648.065	24617
648.123	25070
648.181	25587
648.240	25286
648.298	24360
648.356	24832
648.414	24582
648.472	23261
648.531	23423
648.589	22982
648.647	23663
648.705	23619
648.763	23494
648.821	24715
648.879	24642
648.937	28125
648.995	32331
649.053	38665
649.111	54701
649.169	89228
649.227	155902
649.285	330174
649.343	782096
649.401	345879
649.459	68398
649.516	42259
649.574	33057
649.632	33727
649.690	38175
649.748	47465
649.806	71468
649.863	135598
649.921	374535
649.979	208888
650.037	38007
650.094	24496
650.152	23064
650.210	20931
650.268	20681
650.325	19361
650.383	18871
650.440	17163
650.498	18142
650.556	17763
650.613	16737
650.671	18115
650.728	18771
650.786	19643
650.843	29391
650.901	20757
650.958	16101
651.016	15610
651.073	15688
651.131	15391
651.188	13491
651.246	15738
651.303	13262
651.360	14727
651.418	14199
651.475	14208
651.532	13410
651.590	15057
651.647	13233
651.704	14422
651.762	13440
651.819	14408
651.876	13457
651.933	12695
651.990	13775
652.048	11806
652.105	11961
652.162	13366
652.219	12255
652.276	12521
652.333	12218
652.390	11752
652.448	12590
652.505	12396
652.562	12336
652.619	11642
652.676	12404
652.733	13650
652.790	11740
652.847	10694
652.904	11892
652.961	10548
653.017	11106
653.074	11611
653.131	11278
653.188	11121
653.245	11178
653.302	11083
653.359	11143
653.415	11345
653.472	10892
653.529	10866
653.586	9989
653.642	10205
653.699	11804
653.756	10924
653.813	10167
653.869	12756
653.926	10791
653.983	10472
654.039	11261
654.096	10664
654.152	11669
654.209	10234
654.266	11035
654.322	9733
654.379	10607
654.435	11361
654.492	10852
654.548	10745
654.605	9359
654.661	10863
654.717	10058
654.774	9813
654.830	10029
654.887	10283
654.943	10155
655.000	10869
655.056	10265
655.112	10386
655.168	9416
655.225	10753
655.281	10414
655.337	10089
655.394	9384
655.450	9919
655.506	9838
655.562	10438
655.618	10704
655.675	9006
655.731	10024
655.787	8864
655.843	11133
655.899	9221
655.955	10306
656.011	9698
656.067	9379
656.123	10359
656.179	9247
656.235	11142
656.291	8655
656.347	11049
656.403	10562
656.459	10380
656.515	9487
656.571	9189
656.627	9564
656.683	9339
656.739	9472
656.795	9710
656.850	8684
656.906	9312
656.962	10031
657.018	10908
657.074	13524
657.129	18837
657.185	30783
657.241	69863
657.297	30601
657.352	11169
657.408	8478
657.464	9317
657.519	8655
657.575	8026
657.630	8323
657.686	8487
657.742	8127
657.797	8039
657.853	8337
657.908	9808
657.964	7714
658.019	8584
658.075	7698
658.130	8582
658.186	6916
658.241	8768
658.297	7549
658.352	7772
658.407	7940
658.463	8185
658.518	8279
658.573	7296
658.629	7168
658.684	8226
658.739	8225
658.795	6768
658.850	8313
658.905	7462
658.960	7720
659.016	6622
659.071	6601
659.126	7791
659.181	6794
659.236	8339
659.291	8219
659.346	6700
659.401	7325
659.457	8282
659.512	6504
659.567	7966
659.622	7133
659.677	7732
659.732	6282
659.787	7514
659.842	7316
659.897	7089
659.952	7154
660.007	7352
660.061	6936
660.116	6707
660.171	6449
660.226	6389
660.281	7420
660.336	7083
660.391	6853
660.445	6422
660.500	6889
660.555	7116
660.610	6375
660.664	6777
660.719	6891
660.774	7193
660.828	6610
660.883	6832
660.938	6837
660.992	4807
661.047	7283
661.101	6743
661.156	6059
661.211	6312
661.265	6498
661.320	5583
661.374	6840
661.429	5773
661.483	5898
661.538	5376
661.592	6097
661.647	6710
661.701	7917
661.755	6727
661.810	6080
661.864	5500
661.919	5680
661.973	6750
662.027	5966
662.081	6259
662.136	6619
662.190	6659
662.244	7252
662.299	6458
662.353	6081
662.407	6581
662.461	5952
662.515	6440
662.569	5541
662.624	6153
662.678	6414
662.732	5650
662.786	5741
662.840	6854
662.894	6854
662.948	5534
663.002	6219
663.056	5371
663.110	5494
663.164	6970
663.218	6205
663.272	6247
663.326	5214
663.380	6435
663.434	6466
663.488	6193
663.542	6331
663.595	6165
663.649	5999
663.703	6193
663.757	6535
663.811	6263
663.864	5733
663.918	6527
663.972	5787
664.026	6560
664.079	6527
664.133	7301
664.187	6316
664.240	6267
664.294	6427
664.348	6977
664.401	6509
664.455	6275
664.508	5385
664.562	5596
664.615	6196
664.669	5289
664.722	5615
664.776	5331
664.829	5849
664.883	5960
664.936	6007
664.990	6024
665.043	6449
665.097	6216
665.150	6563
665.203	5913
665.257	6077
665.310	6856
665.363	7029
665.417	6780
665.470	6703
665.523	6507
665.576	5571
665.630	6674
665.683	6411
665.736	7463
665.789	6590
665.842	6972
665.895	6180
665.949	7407
666.002	5775
666.055	7593
666.108	7287
666.161	7299
666.214	8360
666.267	7269
666.320	6740
666.373	7532
666.426	7992
666.479	6657
666.532	7843
666.585	7473
666.638	8436
666.691	7850
666.744	7330
666.796	7477
666.849	6351
666.902	7946
666.955	6249
667.008	6279
667.060	5920
667.113	7747
667.166	7672
667.219	8615
667.271	7463
667.324	7744
667.377	7844
667.430	7860
667.482	7504
667.535	7022
667.587	6732
667.640	6975
667.693	7742
667.745	7925
667.798	7406
667.850	7031
667.903	6636
667.955	7383
668.008	7170
668.060	7124
668.113	7089
668.165	7004
668.218	7469
668.270	7514
668.322	7310
668.375	7377
668.427	7335
668.479	7284
668.532	7570
668.584	6879
668.636	6973
668.689	7104
668.741	6503
668.793	7081
668.845	6079
668.898	8007
668.950	6980
669.002	6079
669.054	6334
669.106	7195
669.158	6184
669.211	6920
669.263	5277
669.315	7212
669.367	5888
669.419	5111
669.471	6031
669.523	6672
669.575	5764
669.627	6192
669.679	6142
669.731	5910
669.783	6334
669.835	6468
669.886	5885
669.938	5874
669.990	6730
670.042	6158
670.094	6222
670.146	6176
670.197	6306
670.249	5533
670.301	6136
670.353	6280
670.404	6515
670.456	6580
670.508	6043
670.560	8854
670.611	10846
670.663	14142
670.715	30126
670.766	36899
670.818	12197
670.869	7998
670.921	7407
670.972	8210
671.024	6692
671.075	6248
671.127	6107
671.178	8315
671.230	7553
671.281	8674
671.333	10357
671.384	11059
671.436	15405
671.487	22720
671.538	32825
671.590	53888
671.641	91630
671.692	167687
671.744	288687
671.795	183343
671.846	64781
671.897	32173
671.949	21364
672.000	15524
672.051	12421
672.102	10381
672.153	8477
672.204	8399
672.256	7732
672.307	6689
672.358	6994
672.409	6281
672.460	5657
672.511	6182
672.562	4176
672.613	4527
672.664	4783
672.715	6499
672.766	4931
672.817	5076
672.868	4956
672.919	4677
672.970	3673
673.021	3956
673.071	3788
673.122	4911
673.173	4143
673.224	4195
673.275	4166
673.326	4880
673.376	3786
673.427	3758
673.478	4294
673.528	5887
673.579	4417
673.630	4026
673.680	5558
673.731	4732
673.782	3390
673.832	3875
673.883	4265
673.934	4123
673.984	4282
674.035	4554
674.085	4362
674.136	5250
674.186	5092
674.237	4370
674.287	4928
674.338	4489
674.388	5386
674.438	5567
674.489	5432
674.539	6154
674.589	5543
674.640	5073
674.690	6204
674.740	5378
674.791	4678
674.841	5127
674.891	4245
674.942	3643
674.992	3564
675.042	3823
675.092	2338
675.142	3601
675.193	2962
675.243	3144
675.293	4325
675.343	3690
675.393	3935
675.443	4501
675.493	3883
675.543	3637
675.593	4032
675.643	4458
675.693	3471
675.743	4267
675.793	3829
675.843	2515
675.893	2742
675.943	4063
675.993	3408
676.043	3061
676.093	4056
676.142	3148
676.192	3500
676.242	3187
676.292	3830
676.341	3472
676.391	3013
676.441	3202
676.491	3022
676.540	2754
676.590	2750
676.640	3122
676.689	2498
676.739	1905
676.789	2409
676.838	2111
676.888	2564
676.937	2396
676.987	2688
677.037	1688
677.086	2344
677.136	2703
677.185	1776
677.235	2738
677.284	2304
677.333	2205
677.383	2205
677.432	2612
677.482	2071
677.531	2288
677.580	1799
677.630	1823
677.679	2431
677.728	2810
677.778	1927
677.827	1959
677.876	2996
677.925	1695
677.975	2864
678.024	3557
678.073	2314
678.122	2930
678.171	2817
678.220	3521
678.269	4801
678.319	5226
678.368	4988
678.417	3327
678.466	2878
678.515	2654
678.564	1947
678.613	1887
678.662	1674
678.711	2940
678.760	1350
678.809	2471
678.857	2595
678.906	3132
678.955	1967
679.004	2386
679.053	1734
679.102	1923
679.151	2304
679.199	2088
679.248	2445
679.297	2065
679.346	1422
679.394	1347
679.443	1284
679.492	2672
679.540	2439
679.589	1572
679.638	1903
679.686	2447
679.735	2457
679.784	4029
679.832	4046
679.881	3505
679.929	2096
679.978	2290
680.026	2647
680.075	2715
680.123	1609
680.172	1878
680.220	2307
680.268	2126
680.317	1887
680.365	1915
680.414	1387
680.462	2196
680.510	1524
680.559	2148
680.607	1565
680.655	1652
680.703	2168
680.752	2454
680.800	1480
680.848	1342
680.896	1236
680.945	1816
680.993	624
681.041	1712
681.089	1503
681.137	2007
681.185	1900
681.233	2293
681.258	1621
681.281	949
681.329	2925
681.377	1343
681.380	1370
681.425	1166
681.473	2668
681.502	2437
681.521	2212
681.569	3674
681.617	2875
681.624	2840
681.665	2298
681.713	2736
681.745	2962
681.761	3013
681.809	2337
681.857	3416
681.867	3289
681.904	2685
681.952	3386
681.989	3111
682.000	2985
682.048	2670
682.096	2914
682.111	2749
682.143	2263
682.191	3144
682.233	4178
682.239	4301
682.286	3799
682.334	3076
682.354	3153
682.382	3163
682.430	3867
682.476	4036
682.477	4004
682.525	4208
682.572	3295
682.598	3583
682.620	3796
682.667	4055
682.715	3984
682.720	4078
682.763	4584
682.810	4212
682.841	4445
682.857	4500
682.905	3387
682.952	4374
682.963	4296
683.000	3943
683.047	4449
683.085	5121
683.095	5258
683.142	4424
683.190	4467
683.206	4452
683.237	4346
683.284	4295
683.328	4918
683.332	4935
683.379	5155
683.426	4626
683.449	4590
683.473	4565
683.521	5360
683.568	5386
683.571	5382
683.615	4829
683.662	5032
683.693	5441
683.709	5605
683.757	4784
683.804	5302
683.814	5236
683.851	4973
683.898	6137
683.936	6164
683.945	6147
683.992	5842
684.039	6067
684.057	6097
684.086	6021
684.133	5589
684.179	6167
684.180	6166
684.227	6197
684.274	6321
684.300	6254
684.321	6123
684.368	5843
684.415	6214
684.422	6220
684.462	6328
684.509	6417
684.543	7067
684.556	7226
684.603	7061
684.649	7118
684.665	7201
684.696	7354
684.743	7164
684.786	7350
684.790	7328
684.837	7129
684.883	6775
684.908	6850
684.930	7051
684.977	7406
685.023	7751
685.029	7771
685.070	7622
685.117	7685
685.150	7675
685.164	7638
685.210	7777
685.257	8092
685.272	8243
685.303	8563
685.350	8026
685.393	8433
685.396	8434
685.443	7809
685.490	8445
685.514	8097
685.536	7880
685.583	7795
685.629	7720
685.636	7752
685.675	7957
685.722	8217
685.757	8494
685.768	8509
685.815	7667
685.861	8143
685.878	8233
685.908	8567
685.954	8752
686.000	9210
686.000	9205
686.047	9202
686.093	9092
686.121	9496
686.139	9760
686.185	9290
686.232	8954
686.242	9046
686.278	9261
686.324	9272
686.363	9181
686.370	9171
686.416	9711
686.463	9715
686.484	9658
686.509	9553
686.555	9100
686.601	9437
686.606	9415
686.647	9250
686.693	9677
686.727	9313
686.739	9138
686.785	9414
686.831	9249
686.848	9439
686.877	9877
686.923	8992
686.969	9974
686.969	9978
687.015	9671
687.061	10843
687.090	11151
687.107	11234
687.153	11386
687.199	10442
687.211	10444
687.245	10346
687.291	10490
687.332	10257
687.336	10274
687.382	10403
687.428	10821
687.453	10952
687.474	10882
687.520	10931
687.565	11457
687.574	11319
687.611	11106
687.657	11757
687.695	12116
687.702	12138
687.748	11936
687.794	12093
687.816	11839
687.839	11613
687.885	11910
687.931	12365
687.937	12214
687.976	11363
688.022	12178
688.058	12252
688.067	12285
688.113	12211
688.158	11940
688.179	11836
688.204	11635
688.249	12173
688.295	11966
688.300	11949
688.340	12274
688.386	12813
688.421	12906
688.431	12866
688.477	12230
688.522	12811
688.542	12922
688.567	13278
688.613	13453
688.658	13990
688.663	13992
688.703	13668
688.749	13304
688.784	13101
688.794	13101
688.839	13319
688.884	13807
688.905	13697
688.930	13515
688.975	13260
689.020	13074
689.026	13071
689.065	13373
689.110	12938
689.146	13222
689.155	13232
689.201	13249
689.246	13074
689.267	13034
689.291	13209
689.336	13383
689.381	13454
689.388	13440
689.426	13565
689.471	13676
689.509	14323
689.516	14384
689.561	13389
689.606	14104
689.630	13590
689.651	13298
689.696	13684
689.741	13892
689.750	13951
689.785	14413
689.830	14320
689.871	14193
689.875	14143
689.920	13967
689.965	13597
689.992	13332
690.010	13407
690.054	13924
690.099	13871
690.112	13856
690.144	13646
690.189	13449
690.233	13518
690.233	13540
690.278	13572
690.323	14445
690.354	14548
690.367	14509
690.412	13946
690.457	13812
690.474	13803
690.501	13959
690.546	13976
690.590	14736
690.595	14681
690.635	14027
690.680	13304
690.716	13248
690.724	13394
690.769	13997
690.813	14187
690.836	14336
690.857	14717
690.902	15288
690.946	16247
690.957	16393
690.991	16912
691.035	17853
691.077	18560
691.080	18555
691.124	17835
691.168	16754
691.198	16245
691.213	16161
691.257	15821
691.301	15778
691.318	15622
691.346	15437
691.390	14736
691.434	14084
691.439	14060
691.478	14850
691.522	15526
691.559	15868
691.567	15921
691.611	16469
691.655	16445
691.680	16457
691.699	16346
691.743	15890
691.787	15669
691.800	15732
691.831	16206
691.875	15916
691.919	16160
691.921	16134
691.964	16223
692.008	16302
692.041	16211
692.052	16201
692.096	16260
692.139	16108
692.162	16340
692.183	16664
692.227	16322
692.271	16189
692.282	16153
692.315	15924
692.359	15951
692.402	15451
692.403	15482
692.447	15835
692.490	15899
692.523	16036
692.534	16047
692.578	16553
692.622	16122
692.643	16165
692.666	16254
692.709	15982
692.753	15728
692.763	15821
692.797	16206
692.840	15785
692.884	15819
692.884	15855
692.928	16184
692.971	16319
693.004	16293
693.015	16204
693.059	16310
693.102	16086
693.124	16030
693.146	16256
693.189	16159
693.233	16301
693.245	16395
693.276	16529
693.320	16532
693.363	16363
693.365	16321
693.407	16798
693.450	17202
693.485	17618
693.493	17595
693.537	17238
693.580	16919
693.605	16831
693.624	17270
693.667	18063
693.710	18529
693.725	18799
693.753	20072
693.797	21778
693.840	23546
693.845	23701
693.883	22460
693.926	20910
693.966	19531
693.970	19468
694.013	18422
694.056	17625
694.086	16747
694.099	16862
694.142	17091
694.185	17559
694.206	17731
694.229	17865
694.272	18153
694.315	18106
694.326	18139
694.358	18359
694.401	18538
694.444	18423
694.446	18373
694.487	17920
694.530	17718
694.566	17359
694.573	17431
694.616	17774
694.659	18005
694.686	18260
694.702	18464
694.745	18685
694.787	18900
694.806	18960
694.830	19061
694.873	19223
694.916	19228
694.926	19229
694.959	19379
695.002	19434
695.044	19536
695.046	19497
695.087	20077
695.130	20433
695.166	20638
695.172	20706
695.215	20988
695.258	21343
695.286	21412
695.301	21625
695.343	21870
695.386	22767
695.406	22943
695.428	23732
695.471	25330
695.514	26667
695.526	27079
695.556	28597
695.599	30585
695.641	32268
695.646	32396
695.684	30548
695.726	28355
695.766	26260
695.769	26287
695.811	25864
695.854	25196
695.886	25038
695.896	25358
695.938	25825
695.981	26616
696.005	26916
696.023	27650
696.065	29312
696.108	31061
696.125	31820
696.150	32608
696.192	33308
696.235	34299
696.245	34409
696.277	34310
696.319	34198
696.361	34150
696.365	34062
696.404	33321
696.446	32354
696.485	31350
696.488	31461
696.530	31899
696.572	32390
696.604	32612
696.614	32496
696.656	31818
696.698	31040
696.724	30510
696.740	30911
696.783	31826
696.825	32693
696.844	32951
696.867	32955
696.909	32991
696.951	32696
696.964	32651
696.992	33384
697.034	34111
697.076	34860
697.083	34937
697.118	35618
697.160	36022
697.202	36508
697.203	36432
697.244	36373
697.286	36271
697.323	35920
697.327	35979
697.369	35783
697.411	35632
697.442	35359
697.453	35579
697.494	36224
697.536	36749
697.562	37017
697.578	36939
697.620	36503
697.661	36001
697.682	35701
697.703	36651
697.744	38359
697.786	40017
697.801	40535
697.828	40060
697.869	39048
697.911	38085
697.921	37760
697.952	37852
697.994	37838
698.035	37812
698.040	37714
698.077	38199
698.118	38603
698.160	39022
698.160	38924
698.201	40168
698.243	41304
698.279	42236
698.284	42414
698.325	43035
698.367	43660
698.399	44067
698.408	44393
698.449	45321
698.491	46290
698.518	46817
698.532	46759
698.573	46172
698.614	45641
698.638	45197
698.656	45447
698.697	45770
698.738	46104
698.757	46138
698.779	46033
698.820	45611
698.862	45179
698.877	44908
698.903	45098
698.944	45204
698.985	45307
698.996	45221
699.026	45174
699.067	44947
699.116	44561
699.235	45392
699.354	45155
699.474	41002
699.593	40883
699.713	42420
699.832	42751
699.951	44589
700.070	42419
700.190	40761
700.309	38450
700.428	38086
700.547	36444
700.667	37647
700.786	37498
700.905	36589
701.024	36884
701.143	35744
701.262	37244
701.381	38898
701.500	39290
701.619	38390
701.738	38168
701.857	37869
701.976	35357
702.095	37414
702.214	38379
702.333	36914
702.452	38863
702.571	39095
702.690	37023
702.809	37235
702.928	35673
703.047	33764
703.165	34591
703.284	34404
703.403	34218
703.522	34450
703.640	31881
703.759	32843
703.878	31399
703.997	32745
704.115	32982
704.234	33033
704.353	33160
704.471	30330
704.590	29753
704.708	29765
704.827	29440
704.946	30250
705.064	30199
705.183	30189
705.301	30981
705.420	29171
705.538	28410
705.656	26442
705.775	25948
705.893	28748
706.012	27022
706.130	27112
706.249	28593
706.367	27298
706.485	26425
706.604	26231
706.722	25463
706.840	27885
706.958	27301
707.077	23893
707.195	24482
707.313	26376
707.431	22978
707.549	24330
707.668	21906
707.786	26182
707.904	22431
708.022	26315
708.140	23301
708.258	22774
708.376	24555
708.494	22593
708.612	24588
708.730	25227
708.848	22675
708.966	24059
709.084	23641
709.202	23159
709.320	21083
709.438	22743
709.556	22062
709.674	20657
709.791	21525
709.909	21556
710.027	20675
710.145	20603
710.263	20570
710.380	21483
710.498	20277
710.616	20648
710.733	18587
710.851	20360
710.969	19790
711.086	19605
711.204	19980
711.322	21199
711.439	19112
711.557	18118
711.674	18944
711.792	19857
711.909	17650
712.027	18311
712.144	17713
712.262	18457
712.379	18526
712.497	18353
712.614	17364
712.732	19629
712.849	17162
712.966	18739
713.084	19186
713.201	16149
713.318	18044
713.436	20288
713.553	16916
713.670	20053
713.787	19266
713.905	17934
714.022	19797
714.139	20123
714.256	22457
714.373	31238
714.490	54830
714.608	144772
714.725	542224
714.842	427776
714.959	50795
715.076	25579
715.193	21443
715.310	20406
715.427	15927
715.544	17830
715.661	16387
715.778	16592
715.895	15805
716.011	16487
716.128	15185
716.245	16928
716.362	15524
716.479	14449
716.596	14292
716.713	15538
716.829	14151
716.946	14086
717.063	13417
717.180	13768
717.296	13922
717.413	14251
717.530	13233
717.646	12802
717.763	12863
717.880	13834
717.996	12158
718.113	13308
718.229	11823
718.346	11644
718.462	12581
718.579	12907
718.695	12485
718.812	13216
718.928	12635
719.045	13853
719.161	11498
719.277	12691
719.394	13176
719.510	12469
719.626	14013
719.743	18046
719.859	25736
719.975	52685
720.092	207005
720.208	376333
720.324	44856
720.440	17302
720.557	13950
720.673	14422
720.789	12465
720.905	13687
721.021	12049
721.137	11625
721.253	10439
721.369	11302
721.486	12498
721.602	11211
721.718	11118
721.834	11149
721.950	10801
722.066	10450
722.181	9692
722.297	10701
722.413	9639
722.529	10899
722.645	10635
722.761	10166
722.877	9725
722.993	11132
723.108	14207
723.224	12673
723.340	9353
723.456	10170
723.571	8963
723.687	9295
723.803	9334
723.918	10098
724.034	8953
724.150	9755
724.265	9214
724.381	9580
724.497	8930
724.612	9767
724.728	8661
724.843	9373
724.959	8613
725.074	10780
725.190	10068
725.305	9870
725.421	8228
725.536	9702
725.651	9257
725.767	9743
725.882	9139
725.997	9058
726.113	8930
726.228	8949
726.343	8774
726.459	9268
726.574	8432
726.689	9224
726.804	8352
726.920	9258
727.035	8799
727.150	9392
727.265	8547
727.380	9884
727.495	8510
727.610	8924
727.725	7777
727.841	8946
727.956	9082
728.071	9289
728.186	8787
728.301	8530
728.416	8431
728.531	8992
728.645	8083
728.760	9021
728.875	8332
728.990	8191
729.105	7285
729.220	8219
729.335	8158
729.449	8791
729.564	7635
729.679	8421
729.794	8533
729.908	9100
730.023	7452
730.138	9288
730.253	9077
730.367	7591
730.482	8954
730.596	9543
730.711	9699
730.826	13791
730.940	12352
731.055	12392
731.169	10995
731.284	12029
731.398	11362
731.513	12109
731.627	12930
731.742	17198
731.856	21017
731.970	20223
732.085	22636
732.199	31862
732.313	52172
732.428	139956
732.542	388895
732.656	195608
732.771	43613
732.885	28558
732.999	26860
733.113	29829
733.227	29486
733.342	27836
733.456	26951
733.570	27970
733.684	24912
733.798	24470
733.912	24360
734.026	25877
734.140	24117
734.254	23513
734.368	23192
734.482	22936
734.596	22594
734.710	23146
734.824	21951
734.938	23177
735.052	22225
735.166	21897
735.280	21875
735.393	20932
735.507	21986
735.621	20907
735.735	20058
735.849	23219
735.962	19930
736.076	21585
736.190	19864
736.303	20574
736.417	20586
736.531	19426
736.644	19443
736.758	20296
736.872	19023
736.985	19740
737.099	18795
737.212	18767
737.326	17947
737.439	19474
737.553	16653
737.666	20525
737.780	17148
737.893	19066
738.007	15981
738.120	19009
738.233	16208
738.347	18686
738.460	15641
738.573	19076
738.687	16193
738.800	18813
738.913	18595
739.026	16933
739.140	16283
739.253	17319
739.366	15481
739.479	15930
739.592	16533
739.705	15623
739.818	17643
739.932	14782
740.045	15656
740.158	15387
740.271	16790
740.384	15384
740.497	13134
740.610	16766
740.723	13818
740.836	15322
740.949	14754
741.062	17129
741.174	13949
741.287	14353
741.400	14589
741.513	13239
741.626	15214
741.739	14171
741.851	13556
741.964	14890
742.077	13198
742.189	12133
742.302	13815
742.415	13976
742.527	13269
742.640	14639
742.753	10966
742.865	14201
742.978	12627
743.090	12895
743.203	13124
743.316	12627
743.428	12118
743.541	12848
743.653	9835
743.766	12306
743.878	13108
743.990	10637
744.103	12635
744.215	13053
744.327	10331
744.440	13867
744.552	11873
744.664	11206
744.777	13169
744.889	11521
745.001	10480
745.113	13593
745.226	10706
745.338	10567
745.450	12138
745.562	10986
745.674	9973
745.786	12513
745.898	10497
746.010	10257
746.122	12066
746.234	12115
746.347	11356
746.459	11361
746.570	8111
746.682	11614
746.794	11820
746.906	10419
747.018	9836
747.130	12194
747.242	8938
747.354	9723
747.466	11072
747.577	9501
747.689	10283
747.801	10648
747.913	8825
748.024	9509
748.136	10182
748.248	8568
748.359	9331
748.471	10661
748.583	8869
748.694	9345
748.806	10465
748.918	9048
749.029	7920
749.141	9895
749.252	10109
749.364	8187
749.475	7486
749.587	8957
749.698	7935
749.809	10010
749.921	9166
750.032	8614
750.144	7404
750.255	8745
750.366	8178
750.478	9015
750.589	8756
750.700	7830
750.811	8948
750.923	8740
751.034	7301
751.145	9671
751.256	7396
751.367	7650
751.479	7369
751.590	8455
751.701	6795
751.812	6212
751.923	6427
752.034	9631
752.145	7882
752.256	9057
752.367	6823
752.478	8648
752.589	8032
752.700	8270
752.811	7630
752.922	8330
753.032	7919
753.143	8019
753.254	6727
753.365	9071
753.476	8787
753.586	7882
753.697	6888
753.808	8338
753.919	6860
754.029	7634
754.140	7247
754.251	7304
754.361	7180
754.472	7937
754.582	6398
754.693	7351
754.804	7782
754.914	7097
755.025	5657
755.135	8012
755.246	7688
755.356	7329
755.466	5239
755.577	6222
755.687	6087
755.798	6785
755.908	5708
756.018	7564
756.129	6261
756.239	6858
756.349	7176
756.460	7241
756.570	6795
756.680	6825
756.790	6880
756.900	7135
757.011	6396
757.121	6204
757.231	5951
757.341	6632
757.451	5682
757.561	6283
757.671	6147
757.781	7239
757.891	5453
758.001	5697
758.111	6760
758.221	7735
758.331	6092
758.441	7210
758.551	6208
758.661	7657
758.771	7192
758.880	6973
758.990	5671
759.100	6410
759.210	6431
759.320	6291
759.429	6705
759.539	8169
759.649	7198
759.758	8599
759.868	7028
759.978	8163
760.087	9063
760.197	9598
760.307	7750
760.416	8505
760.526	6487
760.635	8769
760.745	8645
760.854	9589
760.964	10055
761.073	9874
761.182	9692
761.292	8140
761.401	7482
761.511	6979
761.620	5474
761.729	6745
761.839	4937
761.948	6653
762.057	5111
762.166	6335
762.276	4837
762.385	7452
762.494	5460
762.603	6463
762.712	5613
762.822	5563
762.931	4835
763.040	5064
763.149	5014
763.258	5191
763.367	5752
763.476	6152
763.585	4755
763.694	5348
763.803	5570
763.912	6264
764.021	5202
764.130	5240
764.238	5988
764.347	6542
764.456	5906
764.565	6285
764.674	5266
764.783	5926
764.891	5859
765.000	7675
765.109	6251
765.217	6720
765.326	7648
765.435	8664
765.543	9175
765.652	10153
765.761	11074
765.869	15427
765.978	20704
766.086	36087
766.195	66654
766.303	160080
766.412	322328
766.520	249255
766.629	104454
766.737	44645
766.846	26322
766.954	17780
767.062	15388
767.171	11673
767.279	9894
767.387	9122
767.496	7897
767.604	8434
767.712	7395
767.820	7030
767.928	7109
768.037	5854
768.145	5842
768.253	6383
768.361	5395
768.469	6442
768.577	5625
768.685	7749
768.793	6519
768.901	6612
769.009	7574
769.117	7738
769.225	8525
769.333	11975
769.441	16535
769.549	28844
769.657	61700
769.765	174353
769.873	257586
769.981	114545
770.088	36133
770.196	20984
770.304	14523
770.412	12596
770.519	9834
770.627	10705
770.735	8841
770.842	9251
770.950	8042
771.058	9035
771.165	10743
771.273	11504
771.380	10959
771.488	15872
771.595	17619
771.703	15990
771.810	14155
771.918	14648
772.025	17931
772.133	20425
772.240	18412
772.348	21936
772.455	20940
772.562	18593
772.670	17094
772.777	19794
772.884	18924
772.991	17747
773.099	18615
773.206	16702
773.313	16187
773.420	17011
773.528	16876
773.635	15811
773.742	17420
773.849	16480
773.956	17355
774.063	16292
774.170	16269
774.277	17122
774.384	15653
774.491	15403
774.598	16444
774.705	15404
774.812	14931
774.919	15580
775.026	15274
775.133	16091
775.239	14855
775.346	14950
775.453	13837
775.560	14971
775.667	15190
775.773	13937
775.880	13956
775.987	14175
776.093	14347
776.200	15473
776.307	11760
776.413	13303
776.520	15701
776.627	13012
776.733	12705
776.840	10921
776.946	17300
777.053	13558
777.159	12574
777.266	12829
777.372	12392
777.478	14341
777.585	13705
777.691	11315
777.798	14894
777.904	12875
778.010	10592
778.117	13399
778.223	11533
778.329	12928
778.435	9872
778.542	13696
778.648	10509
778.754	10225
778.860	11378
778.966	12453
779.072	11016
779.178	12275
779.284	9476
779.391	11138
779.497	11099
779.603	12568
779.708	9058
779.815	11212
779.920	13658
780.026	14800
780.132	10409
780.238	10249
780.344	9527
780.450	13898
780.556	8352
780.661	10379
780.767	12033
780.873	7796
780.979	9581
781.085	11350
781.190	9484
781.296	8757
781.402	9993
781.507	10742
781.613	6731
781.719	9939
781.824	10652
781.930	9603
782.035	9536
782.141	11364
782.246	6792
782.352	8981
782.457	9007
782.563	9604
782.668	8689
782.773	7964
782.879	7269
782.984	8883
783.090	8859
783.195	9031
783.300	9596
783.405	9148
783.511	6612
783.616	8683
783.721	8387
783.826	7449
783.932	7010
784.037	8589
784.142	8844
784.247	8177
784.352	8011
784.457	6735
784.562	7615
784.667	9266
784.772	6003
784.877	5313
784.982	8546
785.087	8922
785.192	6533
785.297	7255
785.402	9183
785.507	7715
785.611	6447
785.716	6676
785.821	7823
785.926	8728
786.031	6749
786.135	7358
786.240	6795
786.345	5507
786.450	5577
786.554	7216
786.659	5540
786.763	6342
786.868	7016
786.973	8754
787.077	6106
787.182	6251
787.286	6624
787.391	9230
787.495	4480
787.600	4660
787.704	5763
787.809	7469
787.913	5794
788.017	6334
788.122	7726
788.226	6808
788.330	4285
788.435	7054
788.539	7145
788.643	5837
788.747	4453
788.852	6090
788.956	5101
789.060	7070
789.164	4982
789.268	5419
789.372	6576
789.476	6252
789.580	3582
789.684	4315
789.788	6653
789.892	6581
789.996	4085
790.100	4022
790.204	5706
790.308	7838
790.412	3565
790.516	4857
790.620	5221
790.724	6991
790.828	4415
790.931	3509
791.035	4777
791.139	4962
791.242	5560
791.346	6254
791.450	5704
791.554	5207
791.657	3268
791.761	5953
791.864	5129
791.968	6224
792.072	4561
792.175	4308
792.279	3920
792.382	5538
792.486	4401
792.589	5388
792.693	4769
792.796	4040
792.899	5781
793.003	6513
793.106	3204
793.209	5173
793.313	3826
793.416	2654
793.519	4605
793.623	6690
793.726	4074
793.829	3912
793.932	2826
794.035	2916
794.138	5274
794.242	6937
794.345	2688
794.448	3388
794.551	3102
794.654	6702
794.757	6813
794.860	4405
794.963	4437
795.066	3990
795.169	4515
795.272	4017
795.375	4676
795.477	2949
795.580	3701
795.683	3395
795.786	4130
795.889	3037
795.991	4368
796.094	4674
796.197	2696
796.300	6413
796.402	3938
796.505	2826
796.608	2302
796.710	4017
796.813	4619
796.915	4597
797.018	4303
797.120	4754
797.223	2569
797.326	6536
797.428	3018
797.530	2999
797.633	3222
797.735	4943
797.838	3582
797.940	5360
798.042	2955
798.145	3849
798.247	3883
798.349	2969
798.452	4215
798.554	4070
798.656	2868
798.758	4781
798.860	3809
798.962	3164
799.065	1861
799.167	2294
799.269	3406
799.371	4592
799.473	4618
799.575	4136
799.677	2374
799.779	4249
799.881	1244
799.983	5372
800.085	3043
800.187	4041
800.289	1710
800.390	3958
800.492	4617
800.594	3949
800.696	1860
800.798	3898
800.899	2925
801.001	3707
801.103	3893
801.205	2933
801.306	2786
801.408	2188
801.509	3152
801.611	3758
801.713	3602
801.814	2125
801.916	2528
802.017	2980
802.119	1972
802.220	2957
802.322	1588
802.423	4514
802.525	1538
802.626	3062
802.727	3142
802.829	4734
802.930	-238
803.031	3892
803.133	1494
803.234	3102
803.335	3301
803.436	2405
803.538	2923
803.639	2200
803.740	3203
803.841	3569
803.942	3592
804.043	3314
804.144	1092
804.245	2493
804.346	1375
804.447	2492
804.548	1898
804.649	3743
804.750	1945
804.851	1193
804.952	2252
805.053	3643
805.154	1808
805.255	3613
805.355	2414
805.456	3029
805.557	1747
805.658	1974
805.758	3169
805.859	2828
805.960	2518
806.061	2481
806.161	2184
806.262	2814
806.362	1327
806.463	2576
806.564	2875
806.664	3093
806.765	1567
806.865	2551
806.966	1719
807.066	2556
807.166	2643
807.267	3555
807.367	2127
807.468	2850
807.568	1327
807.668	3454
807.769	2928
807.869	2609
807.969	2044
808.069	2324
808.170	2576
808.270	1965
808.370	2682
808.470	2615
808.570	926
808.670	2383
808.770	2541
808.870	1833
808.970	1913
809.070	2327
809.170	828
809.271	3442
809.370	2352
809.470	3207
809.570	913
809.670	2004
809.770	2774
809.870	3174
809.970	2338
810.070	2733
810.169	2138
810.269	439
810.369	3615
810.469	2826
810.568	1420
810.668	2096
810.768	1885
810.867	2900
810.967	1490
811.066	2226
811.166	2308
811.265	3047
811.365	1123
811.464	1878
811.564	1455
811.663	2242
811.763	407
811.862	3563
811.962	2277
812.061	2048
812.160	1468
812.260	2334
812.359	2138
812.458	1588
812.557	2730
812.657	2441
812.756	2659
812.855	2678
812.954	1303
813.053	2583
813.153	1962
813.252	1264
813.351	2556
813.450	2636
813.549	1995
813.648	2417
813.747	1584
813.846	2818
813.945	2159
814.044	2415
814.143	2421
814.242	3102
814.341	2321
814.439	3460
814.538	3056
814.637	3347
814.736	3276
814.835	4422
814.933	2933
815.032	5479
815.131	6568
815.229	13237
815.328	17758
815.427	12948
815.525	10429
815.624	11517
815.722	8993
815.821	12074
815.919	11290
816.018	11500
816.116	10464
816.215	11304
816.313	11263
816.412	14694
816.510	13948
816.609	15508
816.707	15580
816.805	15265
816.904	14526
817.002	14359
817.100	15194
817.198	15984
817.296	12526
817.395	14005
817.493	12779
817.591	11961
817.689	12080
817.787	14164
817.885	12659
817.983	11598
818.081	12077
818.179	13620
818.277	17498
818.375	14927
818.473	12097
818.571	11959
818.669	12784
818.767	13984
818.865	11798
818.963	9394
819.061	11900
819.158	11330
819.256	15625
819.354	14149
819.452	19737
819.549	13284
819.647	13297
819.745	10874
819.842	10961
819.940	11434
820.038	10642
820.135	10037
820.233	12121
820.330	10950
820.428	9564
820.525	11693
820.623	9439
820.720	9380
820.818	9595
820.915	10800
821.012	9215
821.110	9691
821.207	9570
821.304	9405
821.402	10339
821.499	11210
821.596	8237
821.693	9922
821.791	10042
821.888	9940
821.985	10479
822.082	7948
822.179	9692
822.276	10571
822.373	7771
822.470	9115
822.567	9285
822.664	8573
822.761	8731
822.858	9483
822.955	8864
823.052	7338
823.149	8641
823.246	9853
823.343	6900
823.440	8329
823.536	9290
823.633	9241
823.730	7298
823.827	9556
823.923	8728
824.020	7786
824.117	9923
824.213	9553
824.310	6602
824.407	6445
824.503	9397
824.600	8026
824.696	6160
824.793	10461
824.889	8636
824.986	7099
825.082	4879
825.179	7346
825.275	8510
825.371	9606
825.468	6204
825.564	2951
825.660	7745
825.757	11060
825.853	6401
825.949	5797
826.045	6747
826.142	7797
826.238	7505
826.334	8838
826.430	7390
826.526	4677
826.622	4168
826.718	8831
826.814	9063
826.910	7155
827.006	3400
827.102	4404
827.198	7660
827.294	8025
827.390	7831
827.486	6482
827.582	3230
827.678	5546
827.774	9379
827.869	4131
827.965	5144
828.061	4747
828.157	7491
828.252	7327
828.348	6826
828.444	5346
828.539	5189
828.635	7249
828.731	6176
828.826	5298
828.922	7294
829.017	7352
829.113	6685
829.208	4638
829.304	4765
829.399	8546
829.495	5699
829.590	5251
829.685	4819
829.781	7148
829.876	6915
829.971	3050
830.066	2366
830.162	5863
830.257	8128
830.352	5894
830.447	3549
830.543	5086
830.638	4634
830.733	7804
830.828	4674
830.923	5620
831.018	5975
831.113	7969
831.208	3659
831.303	3839
831.398	3855
831.493	5522
831.588	8627
831.683	4849
831.778	2987
831.873	4278
831.967	5952
832.062	6236
832.157	3314
832.252	4855
832.346	3730
832.441	6135
832.536	5028
832.631	6287
832.725	4154
832.820	4768
832.914	4604
833.009	3943
833.104	3567
833.198	3880
833.293	4545
833.387	6135
833.482	4108
833.576	4354
833.670	4158
833.765	4121
833.859	5101
833.954	5198
834.048	4181
834.142	3806
834.237	3180
834.331	4800
834.425	4706
834.519	3618
834.613	3761
834.708	3652
834.802	3703
834.896	4163
834.990	3533
835.084	3400
835.178	2485
835.272	3777
835.366	5062
835.460	6411
835.554	3092
835.648	2646
835.742	1777
835.836	3078
835.930	2711
836.024	4923
836.117	4248
836.211	3348
836.305	1718
836.399	3472
836.493	2228
836.586	5225
836.680	3211
836.774	3601
836.867	3857
836.961	2889
837.055	2443
837.148	2050
837.242	3106
837.335	3751
837.429	3344
837.522	2769
837.616	1849
837.709	3803
837.803	2878
837.896	4847
837.989	4555
838.083	2441
838.176	1964
838.269	1762
838.363	3025
838.456	2431
838.549	4400
838.642	2516
838.735	3313
838.829	3086
838.922	1914
839.015	3735
839.108	2454
839.201	2954
839.294	3259
839.387	3469
839.480	1572
839.573	2754
839.666	1774
839.759	2268
839.852	1801
839.945	3713
840.038	1576
840.131	1778
840.223	1437
840.316	3406
840.409	3358
840.502	4146
840.594	3440
840.687	2116
840.780	1902
840.873	2217
840.965	2076
841.058	3199
841.150	3816
841.243	1799
841.336	2702
841.428	2126
841.521	1710
841.613	2816
841.706	2395
841.798	2361
841.890	2477
841.983	1984
842.075	1578
842.167	2008
842.260	1742
842.352	5033
842.444	3000
842.537	1168
842.629	1886
842.721	1497
842.813	2074
842.905	2048
842.997	2538
843.090	3182
843.182	1433
843.274	1842
843.366	2041
843.458	2813
843.550	3369
843.642	2195
843.734	2775
843.826	1714
843.918	975
844.009	2684
844.101	2065
844.193	2964
844.285	1822
844.377	3272
844.469	2184
844.560	881
844.652	1027
844.744	2092
844.835	2088
844.927	2747
845.019	2049
845.110	2335
845.202	1945
845.293	1897
845.385	931
845.476	2061
845.568	2583
845.659	1935
845.751	1764
845.842	1948
845.934	1902
846.025	1026
846.116	2027
846.208	2628
846.299	872
846.390	1670
846.482	1356
846.573	2862
846.664	2355
846.755	2097
846.846	2279
846.937	799
847.029	1037
847.120	2212
847.211	1260
847.302	2575
847.393	960
847.484	3343
847.575	-456
847.666	1385
847.757	1167
847.847	2400
847.938	2733
848.029	2803
848.120	1565
848.211	1581
848.302	-312
848.392	1568
848.483	1192
848.574	1745
848.664	1739
848.755	3230
848.846	1507
848.936	1831
849.027	2368
849.118	2634
849.208	785
849.299	2545
849.389	5716
849.480	9606
849.570	16271
849.661	32216
849.751	50930
849.841	17333
849.932	3682
850.022	2081
850.112	2357
850.203	2041
850.293	813
850.383	1880
850.474	1347
850.564	1180
850.654	1275
850.744	1359
850.834	556
850.924	2595
851.014	3518
851.104	2132
851.194	346
851.284	312
851.374	1990
851.464	1924
851.554	1506
851.644	473
851.734	2482
851.824	2037
851.914	1154
852.004	2504
852.094	480
852.183	1704
852.273	1314
852.363	1916
852.452	1578
852.542	2044
852.632	349
852.721	2255
852.811	466
852.901	2021
852.990	2531
853.080	2173
853.169	1655
853.259	2257
853.348	1330
853.438	3359
853.527	4104
853.617	5010
853.706	9006
853.795	17230
853.885	36011
853.974	63071
854.063	110913
854.152	147943
854.242	57830
854.331	15803
854.420	7398
854.509	6061
854.598	5001
854.687	4286
854.777	3060
854.866	1891
854.955	2308
855.044	2464
855.133	2078
855.222	2093
855.311	659
855.400	1845
855.488	1181
855.577	1393
855.666	191
855.755	2425
855.844	1507
855.933	1800
856.021	1681
856.110	1397
856.199	921
856.288	503
856.376	427
856.465	1242
856.554	1180
856.642	2513
856.731	1865
856.819	2375
856.908	1520
856.996	1123
857.085	895
857.173	1432
857.262	1167
857.350	1752
857.438	588
857.527	1433
857.615	1020
857.703	1813
857.792	556
857.880	1202
857.968	672
858.056	1121
858.145	1613
858.233	1799
858.321	284
858.409	2400
858.497	1451
858.585	763
858.673	829
858.761	998
858.849	-131
858.937	1255
859.025	1280
859.113	1921
859.201	1110
859.289	2246
859.377	1208
859.465	1263
859.552	928
859.640	1404
859.728	727
859.816	1837
859.903	859
859.991	1012
860.079	1097
860.166	1562
860.254	1389
860.342	1666
860.429	612
860.517	1832
860.604	1067
860.692	1064
860.779	1472
860.867	1613
860.954	1346
861.042	2477
861.129	1797
861.216	1505
861.304	1621
861.391	1652
861.478	1120
861.565	1943
861.653	2304
861.740	916
861.827	785
861.914	1614
862.001	1188
862.089	2044
862.176	1611
862.263	1056
862.350	1562
862.437	1770
862.524	1177
862.611	1209
862.698	2074
862.785	2431
862.871	2538
862.958	2844
863.045	1758
863.132	2716
863.219	1104
863.306	1004
863.392	2241
863.479	2655
863.566	1434
863.652	2477
863.739	1336
863.826	3161
863.912	2356
863.999	1736
864.086	2321
864.172	2629
864.259	2334
864.345	3536
864.432	2919
864.518	3186
864.604	2692
864.691	3001
864.777	2667
864.863	4849
864.950	6597
865.036	9071
865.122	16328
865.209	17215
865.295	14917
865.381	13970
865.467	12310
865.553	13445
865.639	15069
865.726	18086
865.812	27465
865.898	44427
865.984	59280
866.070	99078
866.156	94550
866.242	34822
866.328	17058
866.414	14369
866.499	13106
866.585	13121
866.671	12509
866.757	13020
866.843	10634
866.928	11205
867.014	10589
867.100	11669
867.186	10752
867.271	11025
867.357	10615
867.442	10765
867.528	10303
867.614	11325
867.699	10606
867.785	10877
867.870	10120
867.956	10254
868.041	9665
868.127	9565
868.212	8858
868.297	10488
868.383	10754
868.468	10048
868.553	9772
868.639	9409
868.724	9835
868.809	10753
868.894	9401
868.979	10238
869.065	9891
869.150	8081
869.235	9182
869.320	9224
869.405	7936
869.490	10285
869.575	9517
869.660	7435
869.745	9199
869.830	10493
869.915	8492
870.000	8406
870.085	7918
870.169	11350
870.254	11163
870.339	6477
870.424	6476
870.509	8992
870.593	9827
870.678	10030
870.763	7362
870.847	6716
870.932	9294
871.016	9213
871.101	5888
871.186	9872
871.270	11119
871.355	6614
871.439	7815
871.523	9156
871.608	6576
871.692	6403
871.777	8775
871.861	9490
871.945	6603
872.030	8505
872.114	7563
872.198	7236
872.282	7140
872.367	7046
872.451	6038
872.535	7577
872.619	6506
872.703	7710
872.787	8330
872.871	8036
872.955	6152
873.039	5489
873.123	7712
873.207	8155
873.291	4469
873.375	6902
873.459	8616
873.543	6541
873.627	6071
873.711	5039
873.794	7600
873.878	7059
873.962	4017
874.045	6244
874.129	5677
874.137	5800
874.213	7029
874.245	6430
874.296	5466
874.352	5603
874.380	5677
874.460	6127
874.464	6145
874.547	5655
874.568	5939
874.631	6816
874.676	6581
874.714	6370
874.784	6660
874.798	6728
874.881	5865
874.892	5724
874.965	4742
874.999	5517
875.048	6589
875.107	6267
875.131	6132
875.215	4905
875.215	4904
875.298	4060
875.323	4505
875.381	5546
875.430	6445
875.465	7067
875.538	6597
875.548	6530
875.631	3508
875.646	3613
875.714	4171
875.753	4286
875.798	4416
875.861	6078
875.881	6588
875.964	4220
875.968	4202
876.047	3963
876.076	4354
876.130	5085
876.183	5548
876.213	5800
876.291	5712
876.296	5696
876.379	4854
876.398	4438
876.462	3142
876.506	3570
876.545	3978
876.613	4257
876.628	4322
876.711	4255
876.721	4420
876.794	5703
876.828	5475
876.877	4928
876.935	3336
876.960	2778
877.043	4415
877.043	4418
877.125	4912
877.150	5423
877.208	6492
877.258	4870
877.291	3769
877.365	3690
877.374	3707
877.456	3305
877.472	3400
877.539	3567
877.579	3700
877.622	3982
877.687	4432
877.704	4499
877.787	4122
877.794	4160
877.869	4760
877.901	4531
877.952	3893
878.008	3219
878.034	3064
878.115	2805
878.117	2791
878.199	3363
878.222	3250
878.282	3438
878.329	4549
878.364	4986
878.437	3842
878.447	3731
878.529	3210
878.544	3046
878.611	2212
878.651	2826
878.694	3763
878.758	3967
878.776	3874
878.858	3997
878.865	3898
878.941	2868
878.972	2697
879.023	2279
879.078	2212
879.105	2416
879.185	4414
879.187	4441
879.269	3328
879.292	3568
879.351	4162
879.399	2940
879.433	2150
879.506	3561
879.516	3697
879.598	2545
879.613	2533
879.680	2780
879.720	3114
879.762	3483
879.827	3114
879.844	2958
879.926	2869
879.933	2925
880.007	3655
880.040	3543
880.089	3133
880.147	3776
880.171	4189
880.253	5763
880.254	5773
880.335	5930
880.360	6379
880.417	8050
880.467	10711
880.499	12172
880.574	11722
880.580	11567
880.662	5906
880.680	5016
880.744	2407
880.787	2592
880.825	2859
880.893	2417
880.907	2305
880.989	2381
881.000	2408
881.070	2864
881.106	2996
881.152	3049
881.213	2466
881.233	2138
881.315	2432
881.319	2388
881.396	2590
881.426	2835
881.478	2728
881.532	2962
881.559	3155
881.639	2644
881.641	2623
881.722	2257
881.745	2317
881.803	2616
881.852	2237
881.885	2054
881.958	1904
881.966	1843
882.047	2236
882.064	2219
882.129	2336
882.171	1733
882.210	1100
882.277	1595
882.291	1778
882.372	1951
882.383	2101
882.454	2616
882.489	2193
882.535	1921
882.596	2754
882.616	2912
882.697	2050
882.702	2015
882.778	1452
882.808	1396
882.859	1381
882.914	1933
882.940	2148
883.020	1330
883.021	1325
883.102	2724
883.127	2755
883.183	2989
883.233	3050
883.264	2503
883.339	1178
883.345	1143
883.426	1137
883.445	1197
883.507	1334
883.551	1521
883.587	1942
883.657	2333
883.668	2332
883.749	2743
883.763	2630
883.830	1433
883.869	1192
883.910	1209
883.975	1359
883.991	1562
884.072	2655
884.081	2731
884.152	2625
884.187	2639
884.233	2763
884.292	2541
884.314	2187
884.394	804
884.398	767
884.475	812
884.504	821
884.555	858
884.610	625
884.636	828
884.716	2538
884.716	2539
884.797	2597
884.821	2525
884.877	2552
884.927	2067
884.958	1664
885.033	1324
885.038	1295
885.118	713
885.139	745
885.199	917
885.244	899
885.279	1348
885.350	2368
885.359	2416
885.439	2536
885.456	2460
885.520	1472
885.561	1032
885.600	1122
885.667	1747
885.680	1761
885.760	1195
885.773	1192
885.840	1254
885.878	1045
885.920	941
885.984	1323
886.000	1442
886.080	1559
886.089	1609
886.160	2046
886.195	1947
886.240	1357
886.300	1130
886.320	1301
886.400	1830
886.406	1856
886.480	1328
886.511	1171
886.560	1215
886.616	1230
886.640	1267
886.720	1287
886.722	1294
886.800	1684
886.827	1782
886.879	1335
886.932	1079
886.959	1488
887.038	2163
887.039	2148
887.119	1318
887.143	1035
887.198	1501
887.248	2025
887.278	1799
887.354	909
887.358	900
887.437	1033
887.459	1061
887.517	1514
887.564	1885
887.596	1601
887.669	849
887.676	799
887.755	448
887.774	320
887.835	659
887.880	1108
887.914	1175
887.985	989
887.994	1000
888.073	1585
888.090	1583
888.153	1742
888.195	1986
888.232	1713
888.300	1265
888.311	1223
888.391	1018
888.405	962
888.470	795
888.510	758
888.549	982
888.615	1343
888.628	1362
888.708	1562
888.720	1573
888.787	1387
888.825	1289
888.866	1086
888.930	859
888.945	963
889.024	1582
889.035	1651
889.103	1250
889.140	1065
889.182	896
889.245	680
889.261	793
889.340	1348
889.349	1411
889.419	493
889.454	66
889.498	305
889.559	651
889.577	706
889.656	987
889.664	1023
889.735	1628
889.768	1925
889.814	1402
889.873	709
889.978	1513
890.083	227
890.187	1418
890.292	1432
890.397	1345
890.501	670
890.606	934
890.710	1231
890.815	1858
890.919	260
891.024	754
891.128	873
891.233	1078
891.337	1389
891.442	1875
891.546	1331
891.650	-17
891.755	1171
891.859	1697
891.963	656
892.068	1346
892.172	829
892.276	946
892.380	159
892.484	1490
892.589	811
892.693	1665
892.797	370
892.901	503
893.005	186
893.109	1277
893.213	1680
893.317	1592
893.421	369
893.525	1069
893.629	-313
893.733	1335
893.837	1077
893.941	-105
894.045	34
894.148	427
894.252	949
894.356	1558
894.460	1802
894.564	1509
894.667	731
894.771	988
894.875	285
894.978	731
895.082	1110
895.186	1799
895.289	905
895.393	1156
895.496	1829
895.600	-213
895.703	302
895.807	706
895.910	339
896.014	1203
896.117	-130
896.221	1105
896.324	275
896.427	213
896.531	36
896.634	805
896.737	1495
896.840	585
896.944	1087
897.047	1569
897.150	626
897.253	-275
897.356	380
897.460	999
897.563	-308
897.666	1025
897.769	554
897.872	833
897.975	476
898.078	704
898.181	928
898.284	92
898.387	928
898.490	773
898.593	1372
898.695	450
898.798	161
898.901	383
899.004	786
899.107	1186
899.209	888
899.312	1539
899.415	479
899.518	571
899.620	551
899.723	344
899.826	343
899.928	1046
900.031	141
900.133	768
900.236	295
900.338	479
900.441	355
900.543	977
900.646	768
900.748	584
900.851	1166
900.953	741
901.055	194
901.158	362
901.260	-530
901.362	522
901.465	-183
901.567	904
901.669	351
901.771	884
901.873	646
901.976	128
902.078	-122
902.180	-510
902.282	5
902.384	1216
902.486	1141
902.588	1801
902.690	-1243
902.792	435
902.894	755
902.996	928
903.098	219
903.200	240
903.302	-240
903.404	469
903.505	447
903.607	317
903.709	1235
903.811	291
903.913	981
904.014	-246
904.116	-90
904.218	1228
904.319	176
904.421	1049
904.523	315
904.624	685
904.726	501
904.827	523
904.929	693
905.030	369
905.132	1576
905.233	938
905.335	654
905.436	318
905.537	346
905.639	1073
905.740	399
905.841	938
905.943	1000
906.044	553
906.145	-1034
906.247	636
906.348	989
906.449	756
906.550	536
906.651	804
906.752	469
906.854	824
906.955	-132
907.056	115
907.157	1382
907.258	799
907.359	737
907.460	74
907.561	155
907.662	825
907.762	48
907.863	1412
907.964	833
908.065	1019
908.166	159
908.267	617
908.367	-306
908.468	357
908.569	954
908.670	791
908.770	212
908.871	186
908.971	531
909.072	1087
909.173	326
909.273	565
909.374	558
909.474	434
909.575	224
909.675	1291
909.776	298
909.876	197
909.977	344
910.077	736
910.177	132
910.278	1054
910.378	401
910.478	615
910.579	389
910.679	505
910.779	633
910.879	1730
910.980	699
911.080	923
911.180	-480
911.280	502
911.380	-224
911.480	883
911.580	527
911.680	579
911.780	711
911.880	812
911.980	354
912.080	378
912.180	379
912.280	575
912.380	207
912.480	883
912.580	-169
912.679	908
912.779	849
912.879	899
912.979	352
913.078	82
913.178	20
913.278	471
913.377	474
913.477	904
913.577	389
913.676	806
913.776	1023
913.875	756
913.975	680
914.074	378
914.174	157
914.273	336
914.373	719
914.472	632
914.572	-179
914.671	-161
914.770	-346
914.870	590
914.969	372
915.068	291
915.167	1356
915.267	34
915.366	17
915.465	630
915.564	266
915.663	157
915.763	270
915.862	373
915.961	803
916.060	474
916.159	-54
916.258	316
916.357	737
916.456	667
916.555	949
916.654	624
916.752	159
916.851	799
916.950	490
917.049	414
917.148	449
917.247	1558
917.345	610
917.444	687
917.543	364
917.642	1457
917.740	846
917.839	641
917.937	2168
918.036	1242
918.135	458
918.233	955
918.332	-397
918.430	920
918.529	419
918.627	522
918.726	1017
918.824	1126
918.923	568
919.021	1137
919.119	-252
919.218	1146
919.316	808
919.414	1007
919.512	792
919.611	935
919.709	252
919.807	1030
919.905	531
920.003	980
920.102	841
920.200	981
920.298	1459
920.396	796
920.494	415
920.592	1269
920.690	928
920.788	1348
920.886	1441
920.984	2226
921.082	908
921.180	2173
921.277	1022
921.375	2175
921.473	1779
921.571	2368
921.669	2434
921.766	2016
921.864	2495
921.962	2743
922.060	1922
922.157	2273
922.255	2473
922.352	2125
922.450	3003
922.548	2996
922.645	2624
922.743	3369
922.840	6782
922.938	7238
923.035	6622
923.133	6091
923.230	6180
923.327	8603
923.425	7196
923.522	7294
923.619	7566
923.717	6627
923.814	5979
923.911	6050
924.008	7051
924.106	6116
924.203	6018
924.300	6233
924.397	6140
924.494	6378
924.591	6378
924.688	5936
924.786	6117
924.883	6251
924.979	5744
925.077	5495
925.173	5559
925.270	5948
925.367	5678
925.464	5970
925.561	6055
925.658	6193
925.755	4867
925.852	6212
925.948	5927
926.045	5387
926.142	5788
926.239	6572
926.335	4094
926.432	6529
926.529	6660
926.625	6821
926.722	3973
926.818	4667
926.915	5443
927.011	5170
927.108	5628
927.204	5821
927.301	4096
927.397	6025
927.494	6175
927.590	4214
927.687	5231
927.783	6594
927.879	5829
927.976	4546
928.072	4300
928.168	6079
928.264	4892
928.361	4956
928.457	5809
928.553	4672
928.649	5460
928.745	5174
928.841	4866
928.937	5228
929.033	4580
929.129	4208
929.225	5135
929.321	4925
929.417	3804
929.513	5240
929.609	4556
929.705	4281
929.801	5034
929.897	4188
929.993	4087
930.089	5810
930.184	3570
930.280	5711
930.376	6448
930.471	4273
930.567	3204
930.663	5205
930.758	3444
930.854	3722
930.950	3454
931.045	3765
931.141	3692
931.236	4795
931.332	4425
931.427	3376
931.523	5374
931.618	4848
931.714	2853
931.809	4570
931.905	4136
932.000	2877
932.095	3180
932.191	4019
932.286	5532
932.381	4479
932.476	3288
932.572	3702
932.667	2739
932.762	3486
932.857	4333
932.952	4869
933.047	3625
933.142	2370
933.237	4126
933.332	4192
933.427	4350
933.522	3945
933.617	2997
933.712	3032
933.807	5345
933.902	4253
933.997	3668
934.092	2749
934.187	4428
934.282	4274
934.376	3479
934.471	4494
934.566	3237
934.661	3483
934.755	4906
934.850	3623
934.945	2407
935.039	2763
935.134	2665
935.228	3488
935.323	5775
935.417	2922
935.512	2668
935.606	3072
935.701	3287
935.795	4307
935.890	3016
935.984	3265
936.079	2132
936.173	3561
936.267	2349
936.362	2951
936.456	3580
936.550	3851
936.644	3005
936.738	2607
936.833	3042
936.927	2667
937.021	2558
937.115	3096
937.209	2180
937.303	4108
937.397	2244
937.491	3320
937.585	3436
937.679	2664
937.773	2033
937.867	1916
937.961	2766
938.055	3715
938.149	2791
938.243	1634
938.337	1238
938.430	2526
938.524	3355
938.618	2767
938.712	2376
938.805	2342
938.899	3337
938.993	3269
939.086	2109
939.180	613
939.274	2203
939.367	2779
939.461	3004
939.554	2417
939.648	1466
939.741	1843
939.835	1879
939.928	3375
940.022	2774
940.115	2327
940.208	3477
940.302	3737
940.395	3307
940.488	1506
940.582	2601
940.675	1832
940.768	2532
940.861	2928
940.954	3208
941.048	990
941.141	1365
941.234	1895
941.327	1880
941.420	3007
941.513	2539
941.606	2125
941.699	1845
941.792	1974
941.885	1702
941.978	2852
942.071	1915
942.164	1403
942.257	1406
942.349	2082
942.442	2134
942.535	1536
942.628	1994
942.721	1104
942.813	1062
942.906	2864
942.999	1668
943.091	1053
943.184	1717
943.277	1876
943.369	1692
943.462	1439
943.554	1652
943.647	1630
943.739	3142
943.832	2810
943.924	127
944.017	1744
944.109	901
944.201	2048
944.294	1360
944.386	2120
944.478	749
944.571	1695
944.663	1810
944.755	2125
944.847	1768
944.940	2419
945.032	390
945.124	1482
945.216	2875
945.308	2239
945.400	2249
945.492	2183
945.584	2716
945.676	2437
945.768	1749
945.860	2923
945.952	2217
946.044	2771
946.136	1221
946.228	1544
946.320	964
946.412	1848
946.503	2141
946.595	1870
946.687	1384
946.779	1423
946.870	1693
946.962	1156
947.054	1531
947.145	2617
947.237	2054
947.329	1774
947.420	1629
947.512	1653
947.603	643
947.695	1955
947.786	516
947.878	804
947.969	1712
948.061	1501
948.152	1542
948.243	796
948.335	1655
948.426	600
948.517	585
948.609	1401
948.700	1044
948.791	587
948.882	615
948.973	1227
949.065	588
949.156	1333
949.247	956
949.338	1436
949.429	578
949.520	1408
949.611	911
949.702	1599
949.793	1811
949.884	1352
949.975	967
950.066	1270
950.157	688
950.247	939
950.338	442
950.429	719
950.520	1287
950.611	-163
950.701	1224
950.792	2243
950.883	1294
950.973	1088
951.064	1433
951.155	1895
951.245	1183
951.336	2191
951.427	1141
951.517	2547
951.608	1275
951.698	574
951.788	457
951.879	1604
951.969	442
952.060	1064
952.150	752
952.240	1783
952.331	-696
952.421	2078
952.511	670
952.602	1142
952.692	477
952.782	639
952.872	191
952.962	339
953.052	728
953.143	762
953.233	1341
953.323	1089
953.413	1212
953.503	1225
953.593	826
953.683	1500
953.773	-448
953.863	660
953.953	810
954.042	1252
954.132	972
954.222	1380
954.312	-142
954.402	601
954.492	337
954.581	1155
954.671	705
954.761	194
954.850	969
954.940	35
955.030	269
955.119	284
955.209	856
955.298	426
955.388	758
955.477	2079
955.567	253
955.656	965
955.746	743
955.835	-225
955.925	230
956.014	1089
956.103	1322
956.193	1121
956.282	1700
956.371	1370
956.461	529
956.550	1344
956.639	418
956.728	62
956.817	648
956.906	643
956.995	1515
957.085	410
957.174	-121
957.263	116
957.352	614
957.441	1000
957.530	513
957.619	522
957.708	140
957.796	869
957.885	547
957.974	-65
958.063	1245
958.152	-192
958.241	497
958.329	71
958.418	722
958.507	-161
958.596	1554
958.684	-174
958.773	990
958.861	298
958.950	551
959.039	1025
959.127	280
959.216	404
959.304	596
959.393	256
959.481	523
959.570	45
959.658	-620
959.746	233
959.835	-403
959.923	-72
960.011	38
960.100	750
960.188	690
960.276	387
960.365	-368
960.453	407
960.541	363
960.629	-121
960.717	-179
960.805	-313
960.893	831
960.981	264
961.069	1230
961.158	1468
961.245	1253
961.333	1587
961.421	-37
961.509	898
961.597	-188
961.685	311
961.773	534
961.861	87
961.949	651
962.036	326
962.124	1026
962.212	590
962.299	48
962.387	-220
962.475	182
962.562	-312
962.650	1052
962.738	867
962.825	-70
962.913	-22
963.000	-685
963.088	78
963.175	173
963.263	-122
963.350	243
963.438	356
963.525	-447
963.612	81
963.700	386
963.787	414
963.874	628
963.962	555
964.049	-181
964.136	114
964.223	-858
964.310	743
964.398	-306
964.485	155
964.572	252
964.659	216
964.746	-166
964.833	295
964.920	122
965.007	1255
965.094	601
965.181	160
965.268	55
965.355	708
965.441	315
965.528	133
965.615	1138
965.702	382
965.789	159
965.875	186
965.962	77
966.049	181
966.136	345
966.222	-239
966.309	454
966.395	-110
966.482	451
966.569	-145
966.655	9
966.742	-220
966.828	180
966.915	48
967.001	102
967.087	-61
967.174	-1294
967.260	-448
967.347	-801
967.433	-853
967.519	-308
967.605	-716
967.692	-64
967.778	299
967.864	103
967.950	155
968.036	-337
968.123	259
968.209	181
968.295	-820
968.381	1106
968.467	-292
968.553	-1417
968.639	484
968.725	-877
968.811	-630
968.897	270
968.983	94
969.069	-1274
969.154	817
969.240	1058
969.326	-1332
969.412	-614
969.497	660
969.583	-767
969.669	848
969.755	1177
969.840	106
969.926	1326
970.012	781
970.097	1828
970.183	-456
970.268	-617
970.354	802
970.439	-1191
970.525	341
970.610	-1627
970.696	366
970.781	90
970.866	-918
970.952	42
971.037	-670
971.122	-672
971.208	-433
971.293	-987
971.378	-1017
971.463	-73
971.549	-653
971.634	-229
971.719	-212
971.804	528
971.889	1023
971.974	-34
972.059	-709
972.144	-128
972.229	-385
972.314	-359
972.399	-73
972.484	-363
972.569	134
972.654	-1525
972.739	1130
972.824	-1184
972.908	-81
972.993	-370
973.078	-562
973.163	-109
973.247	-170
973.332	-1358
973.417	1203
973.501	-928
973.586	-234
973.671	-473
973.755	-521
973.840	392
973.924	818
974.009	423
974.093	348
974.178	1374
974.262	676
974.346	-796
974.431	-70
974.515	-230
974.600	-280
974.684	14
974.768	81
974.852	808
974.937	-1135
975.021	-598
975.105	81
975.189	280
975.273	-321
975.358	-920
975.442	-795
975.526	90
975.610	-384
975.694	-182
975.778	442
975.862	-218
975.946	-1905
976.030	894
976.114	-180
976.198	-260
976.281	375
976.365	278
976.449	-419
976.533	598
976.617	-626
976.700	-1054
976.784	-80
976.868	-1053
976.951	-336
977.035	215
977.119	-552
977.202	-41
977.286	512
977.369	-13
977.453	1599
977.536	421
977.620	53
977.703	242
977.787	-616
977.870	544
977.953	79
978.037	-565
978.120	888
978.203	230
978.287	176
978.370	253
978.453	-749
978.536	357
978.620	391
978.703	199
978.786	-601
978.869	-1757
978.952	-532
979.035	1415
979.118	336
979.201	-999
979.284	1105
979.367	-1239
979.450	473
979.533	-1671
979.616	784
979.699	-417
979.782	88
979.865	-39
979.948	-1421
980.030	-539
980.113	874
980.196	-1073
980.279	682
980.361	-1073
980.444	-191
980.526	680
980.609	741
980.692	1276
980.774	1050
980.857	-862
980.939	644
981.022	-439
981.104	-285
981.187	-329
981.269	787
981.352	-90
981.434	-782
981.516	-406
981.599	1220
981.681	217
981.763	175
981.846	237
981.928	-276
982.010	472
982.092	-282
982.174	-91
982.256	-211
982.339	-324
982.421	-381
982.503	661
982.585	-1009
982.667	-317
982.749	-125
982.831	361
982.913	-1062
982.995	541
983.077	-577
983.158	1945
983.240	-976
983.322	505
983.404	1611
983.486	497
983.568	1272
983.649	93
983.731	538
983.813	311
983.894	1090
983.976	267
984.058	316
984.139	966
984.221	-383
984.302	500
984.384	138
984.465	-1070
984.547	1227
984.628	134
984.710	552
984.791	580
984.872	497
984.954	-749
985.035	1506
985.116	28
985.198	113
985.279	1053
985.360	274
985.441	-382
985.522	1188
985.604	269
985.685	-1412
985.766	793
985.847	652
985.928	-140
986.009	-193
986.090	1122
986.171	421
986.252	-851
986.333	1208
986.414	308
986.495	881
986.576	525
986.656	1180
986.737	949
986.818	171
986.899	399
986.980	565
987.060	1021
987.141	711
987.222	1453
987.302	1280
987.383	1473
987.464	637
987.544	1377
987.625	826
987.705	1352
987.786	2205
987.866	1404
987.947	1280
988.027	1156
988.108	415
988.188	847
988.268	679
988.349	1405
988.429	1335
988.509	1610
988.589	765
988.670	-325
988.750	2531
988.830	222
988.910	1255
988.990	454
989.070	972
989.151	540
989.231	1029
989.311	897
989.391	636
989.471	405
989.551	837
989.631	160
989.711	733
989.791	277
989.870	-434
989.950	1071
990.030	570
990.110	880
990.190	-245
990.269	-389
990.349	277
990.429	182
990.509	396
990.588	485
990.668	543
990.747	197
990.827	457
990.907	887
990.986	528
991.066	275
991.145	301
991.225	678
991.304	-471
991.383	406
991.463	187
991.542	140
991.622	-163
991.701	118
991.780	-320
991.859	-24
991.939	159
992.018	245
992.097	1162
992.176	929
992.256	58
992.335	238
992.414	1018
992.493	-601
992.572	-717
992.651	16
992.730	98
992.809	-660
992.888	19
992.967	-376
993.046	1009
993.125	-989
993.203	246
993.282	71
993.361	-78
993.440	-129
993.519	-791
993.597	557
993.676	-368
993.755	399
993.834	269
993.912	-1368
993.991	728
994.069	-586
994.148	248
994.226	-599
994.305	212
994.384	-434
994.462	820
994.540	-1663
994.619	-512
994.697	-86
994.776	-488
994.854	102
994.932	-389
995.011	26
995.089	-1432
995.167	-749
995.245	-291
995.324	-675
995.402	924
995.480	-252
995.558	-297
995.636	-1484
995.714	-776
995.792	-207
995.870	-711
995.948	141
996.026	-691
996.104	-950
996.182	342
996.260	-1575
996.338	-303
996.416	-1686
996.494	-236
996.572	504
996.649	28
996.727	-1064
996.805	-125
996.883	-290
996.960	-704
997.038	-111
997.116	38
997.193	-513
997.271	-609
997.348	-806
997.426	-57
997.504	-1256
997.581	-110
997.658	161
997.736	-1849
997.813	-1439
997.891	556
997.968	-620
998.046	-1014
998.123	-1248
998.200	-232
998.277	-719
998.355	-573
998.432	-1764
998.509	-502
998.586	-146
998.663	-381
998.741	-1014
998.818	-1041
998.895	-1523
998.972	-115
999.049	-562
999.126	-749
999.203	-131
999.280	-263
999.357	-1116
999.434	-946
999.511	-935
999.587	78
999.664	-2059
999.741	-1018
999.818	-820
999.895	-281
999.971	-1053
1000.048	96
1000.125	372
1000.202	-934
1000.278	-985
1000.355	-212
1000.431	-616
1000.508	-1486
1000.584	-490
1000.661	54
1000.738	-849
1000.814	-399
1000.890	-414
1000.967	-1092
1001.043	-2109
1001.120	-1338
1001.196	-390
1001.272	-1723
1001.349	-609
1001.425	-778
1001.501	-1096
1001.577	-1395
1001.654	-1247
1001.730	-1365
1001.806	-969
1001.882	-1384
1001.958	-673
1002.034	-171
1002.110	-1020
1002.186	-592
1002.262	-1288
1002.338	-1075
1002.414	-865
1002.490	-134
1002.566	-1754
1002.642	-1238
1002.718	-1034
1002.794	-997
1002.870	-1160
1002.945	-251
1003.021	-1211
1003.097	-713
1003.173	-607
1003.248	-1683
1003.324	-609
1003.400	-1040
1003.475	-1492
1003.551	-884
1003.626	-336
1003.702	-1779
1003.777	-1366
1003.853	-916
1003.928	-1253
1004.004	-808
1004.079	-957
1004.155	-1293
1004.230	-2021
1004.305	-108
1004.381	-1488
1004.456	-1354
1004.531	-1490
1004.607	-986
1004.682	-832
1004.757	-392
1004.832	-1698
1004.907	-287
1004.982	-1326
1005.057	-1330
1005.133	-973
1005.208	-980
1005.283	-888
1005.358	-760
1005.433	-1612
1005.508	-491
1005.583	-1608
1005.657	-1309
1005.732	-905
1005.807	-1947
1005.882	-1169
1005.957	-720
1006.032	-1433
1006.106	-618
1006.181	90
1006.256	-31
1006.331	-1466
1006.405	-1281
1006.480	-1036
1006.554	-1696
1006.629	-592
1006.704	-1609
1006.778	-1002
1006.853	-235
1006.927	-1552
1007.002	-1470
1007.076	-1074
1007.150	-1310
1007.225	-696
1007.299	-368
1007.373	-1062
1007.448	-948
1007.522	-1268
1007.596	-1292
1007.671	-1800
1007.745	-564
1007.819	-1766
1007.893	-1085
1007.967	-1062
1008.041	-1604
1008.115	-897
1008.190	-2135
1008.264	-1137
1008.338	-2478
1008.412	-1902
1008.486	-458
1008.560	-1061
1008.633	-1785
1008.707	-1497
1008.781	-1543
1008.855	-1588
1008.929	-919
1009.003	-2054
1009.076	-1325
1009.150	-2190
1009.224	-1753
1009.298	-646
1009.371	-1647
1009.445	-914
1009.519	-2112
1009.592	-1978
1009.666	-1159
1009.739	-1278
1009.813	-1390
1009.886	-1057
1009.960	-1988
1010.033	-995
1010.107	-202
1010.180	-1495
1010.253	-656
1010.327	-2587
1010.400	-1153
1010.473	-1649
1010.547	311
1010.620	-1551
1010.693	-1310
1010.766	-917
1010.840	-372
1010.913	-1575
1010.986	-2012
1011.059	-1207
1011.132	-1545
1011.205	-1691
1011.278	-1298
1011.351	-1534
1011.424	-665
1011.497	-1932
1011.570	-1451
1011.643	-1137
1011.716	-1500
1011.789	-1359
1011.862	-1534
1011.934	-1103
1012.007	-2757
1012.080	-1289
1012.153	-1821
1012.225	-376
1012.298	-1716
1012.371	-1180
1012.443	-1194
1012.516	-2229
1012.588	-1318
1012.661	-1221
1012.733	-1405
1012.806	-725
1012.879	-2018
1012.951	-1375
1013.023	-1535
1013.096	-1366
1013.168	-1248
1013.241	-1346
1013.313	-919
1013.385	-2016
1013.458	-1874
1013.530	-1353
1013.602	-2287
1013.674	-597
1013.746	-1091
1013.819	-759
1013.891	-1384
1013.963	-1153
1014.035	-935
1014.107	-1131
1014.179	-677
1014.251	-2293
1014.323	-1077
1014.395	-2465
1014.467	-1058
1014.539	-1712
1014.611	-2003
1014.683	-736
1014.754	-1848
1014.826	-2029
1014.898	-1386
1014.970	-3158
1015.042	-1117
1015.113	-1476
1015.185	-2054
1015.257	-2217
1015.328	-679
1015.400	-1780
1015.471	-904
1015.543	-2186
1015.615	-629
1015.686	-2299
1015.757	-1429
1015.829	-1430
1015.901	-919
1015.972	-1112
1016.043	-958
1016.115	-1853
1016.186	-1205
1016.257	-1636
1016.328	-1059
1016.400	-630
1016.471	-2195
1016.542	-1694
1016.613	-1827
1016.685	-1512
1016.756	-1377
1016.827	-1998
1016.898	-1654
1016.969	-794
1017.040	-1738
1017.111	-1923
1017.182	-1758
1017.253	-1979
1017.324	-1910
1017.395	-2101
1017.466	-621
1017.537	-1853
1017.608	-1459
1017.678	-946
1017.749	-1862
1017.820	-1736
1017.891	-2163
1017.961	-1753
1018.032	-1806
1018.103	-1265
1018.173	-708
1018.244	-1713
1018.315	-1402
1018.385	-1171
1018.456	-1619
1018.526	-2555
1018.597	-1313
1018.667	-1063
1018.738	-1645
1018.808	-1603
1018.878	-1902
1018.949	-1455
1019.019	-1077
1019.089	-2257
1019.160	-1799
1019.230	-2067
1019.300	-1820
1019.371	-2879
1019.441	-912
1019.511	-1393
1019.581	-901
1019.651	-1902
1019.721	-1144
1019.791	-2249
1019.861	-1754
1019.931	-1713
1020.001	-1851
1020.071	-1899
1020.141	-1985
1020.211	-1876
1020.281	-1515
1020.351	-2040
1020.421	-1442
1020.491	-982
1020.560	-2271
1020.630	-2155
1020.700	-1847
1020.770	-1858
1020.839	-1632
1020.909	-2074
1020.979	-1414
1021.048	-2251
1021.118	-1171
1021.187	-1692
1021.257	-2244
1021.326	-1442
1021.396	-1893
1021.465	-1591
1021.535	-1731
1021.604	-2423
1021.674	-1461
1021.743	-1945
1021.812	-1517
1021.882	-2139
1021.951	-2049
1022.020	-1635
1022.089	-1482
1022.159	-1935
1022.228	-986
1022.297	-1431
1022.366	-1914
1022.435	-1779
1022.504	-1909
1022.573	-2147
1022.642	-706
1022.711	-1674
1022.781	-1150
1022.849	-1625
1022.918	-2646
1022.987	-1259
1023.056	-2482
1023.125	-1804
1023.194	-1833
1023.263	-1900
1023.331	-1261
1023.400	-1896
1023.469	-1881
1023.538	-1534
1023.606	-2310
1023.675	-1440
1023.744	-1260
1023.812	-1715
1023.881	-1722
1023.949	-2225
1024.018	-2479
1024.086	-2939
1024.155	-2144
1024.223	-2547
1024.292	-2020
1024.360	-2361
1024.429	-2347
1024.497	-2097
1024.565	-2490
1024.634	-1870
1024.702	-1817
1024.770	-1746
1024.838	-1686
1024.907	-2025
1024.975	-1994
1025.043	-1301
1025.111	-2507
1025.179	-2419
1025.247	-1691
1025.315	-2343
1025.383	-1177
1025.451	-2623
1025.519	-1917
1025.587	-2263
1025.655	-1996
1025.723	-2666
1025.791	-1402
1025.859	-1743
1025.927	-1699
1025.995	-2529
1026.062	-1784
1026.130	-2021
1026.198	-2003
1026.266	-2378
1026.333	-1345
1026.401	-1646
1026.469	-2807
1026.536	-2373
1026.604	-1433
1026.671	-2381
1026.739	-1801
1026.806	-2030
1026.874	-1561
1026.941	-2566
1027.009	-1825
1027.076	-2506
1027.144	-1648
1027.211	-1969
1027.278	-2762
1027.345	-1855
1027.413	-2256
1027.480	-2911
1027.547	-1972
1027.614	-1912
1027.682	-1619
1027.749	-2910
1027.816	-2711
1027.883	-2463
1027.950	-2248
1028.017	-2940
1028.084	-1252
1028.151	-2144
1028.218	-2087
1028.285	-2283
1028.352	-2583
1028.419	-2317
1028.486	-2008
1028.553	-2919
1028.619	-2227
1028.686	-2272
1028.753	-2155
1028.820	-2931
1028.886	-2678
1028.953	-2715
1029.020	-2032
1029.086	-2710
1029.153	-2499
1029.220	-2374
1029.286	-1982
1029.353	-3018
1029.419	-1877
1029.486	-2027
1029.552	-1824
1029.619	-1982
1029.685	-2144
1029.751	-2495
1029.818	-1682
1029.884	-2442
1029.951	-1122
1030.017	-2920
1030.083	-2437
1030.149	-2122
1030.216	-2507
1030.282	-2126
1030.348	-2557
1030.414	-2632
1030.480	-2160
1030.546	-2318
1030.612	-2057
1030.678	-2654
1030.744	-1725
1030.810	-2185
1030.876	-1868
1030.942	-2259
1031.008	-2633
1031.074	-2145
1031.140	-2468
1031.206	-2143
1031.272	-2425
1031.337	-2230
1031.403	-1962
1031.469	-3480
1031.534	-1878
1031.600	-2146
1031.666	-1966
1031.731	-2681
1031.797	-1316
1031.863	-2215
1031.928	-2311
1031.994	-2967
1032.059	-2316
1032.125	-2358
1032.190	-3126
1032.256	-2330
1032.321	-2641
1032.386	-3204
1032.452	-2345
1032.517	-1795
1032.582	-1856
1032.647	-2386
1032.713	-3203
1032.778	-2460
1032.843	-2418
1032.908	-2525
1032.974	-2293
1033.039	-1824
1033.104	-1735
1033.169	-2165
1033.234	-2379
1033.299	-2263
1033.364	-1925
1033.429	-1965
1033.494	-2368
1033.559	-2829
1033.624	-2500
1033.688	-2032
1033.753	-2424
1033.818	-2896
1033.883	-2302
1033.948	-2396
1034.013	-1957
1034.077	-2043
1034.142	-887
1034.207	-2254
1034.271	-1005
1034.336	-1260
1034.400	-1030
1034.465	-2212
1034.530	-2101
1034.594	-2042
1034.658	-2148
1034.723	-2346
1034.787	-1447
1034.852	-2522
1034.916	-1632
1034.981	-2536
1035.045	-2282
1035.109	-2436
1035.173	-1738
1035.238	-2792
1035.302	-2277
1035.366	-2422
1035.430	-2284
1035.495	-3023
1035.559	-1772
1035.623	-1483
1035.687	-2105
1035.751	-2925
1035.815	-1777
1035.879	-2033
1035.943	-2052
1036.007	-2860
1036.071	-2039
1036.135	-2055
1036.198	-1628
1036.262	-2046
1036.326	-1549
1036.390	-2575
1036.454	-1473
1036.517	-1762
1036.581	-2207
1036.645	-2018
1036.709	-1988
1036.772	-1690
1036.836	-1869
1036.900	-2646
1036.963	-2459
1037.026	-2385
1037.090	-1701
1037.154	-1759
1037.217	-2057
1037.280	-2818
1037.344	-1566
1037.407	-2723
1037.471	-1623
1037.534	-2225
1037.597	-2549
1037.661	-1365
1037.724	-2237
1037.787	-2149
1037.850	-2206
1037.913	-1941
1037.977	-1253
1038.040	-2495
1038.103	-1685
1038.166	-1899
1038.229	-1752
1038.292	-2180
1038.355	-1570
1038.418	-2310
1038.481	-2032
1038.544	-2524
1038.607	-2083
1038.670	-2717
1038.732	-2918
1038.795	-2088
1038.858	-2314
1038.921	-2599
1038.984	-2067
1039.046	-2498
1039.109	-1693
1039.172	-2436
1039.234	-2764
1039.297	-1824
1039.360	-1997
1039.422	-2205
1039.485	-1699
1039.547	-2182
1039.610	-2048
1039.672	-1749
1039.734	-2524
1039.797	-1834
1039.859	-1991
1039.922	-2526
1039.984	-1050
1040.046	-2499
1040.109	-1869
1040.171	-2257
1040.233	-2112
1040.295	-2387
1040.358	-1996
1040.420	-2726
1040.482	-2123
1040.544	-1949
1040.606	-1667
1040.668	-2375
1040.730	-1684
1040.792	-2229
1040.854	-1774
1040.916	-1793
1040.978	-1404
1041.040	-1116
1041.102	-1931
1041.164	-2412
1041.225	-1911
1041.287	-2072
1041.349	-1623
1041.411	-2462
1041.472	-1726
1041.534	-2501
1041.596	-2514
1041.657	-1590
1041.719	-1790
1041.781	-1946
1041.842	-2083
1041.904	-1751
1041.965	-2250
1042.027	-2012
1042.088	-1472
1042.150	-984
1042.211	-1854
1042.272	-1955
1042.334	-1420
1042.395	-2084
1042.456	-1219
1042.518	-2148
1042.579	-1296
1042.640	-1865
1042.701	-1226
1042.763	-2001
1042.824	-2303
1042.885	-2868
1042.946	-1767
1043.007	-2218
1043.068	-1854
1043.129	-2214
1043.190	-1678
1043.251	-1141
1043.312	-1313
1043.373	-1239
1043.434	-2340
1043.495	-1340
1043.556	-1755
1043.616	-2057
1043.677	-1571
1043.738	-2270
1043.799	-1351
1043.859	-1652
1043.920	-1433
1043.981	-1882
1044.041	-1485
1044.102	-2073
1044.162	-2233
1044.223	-2522
1044.284	-1127
1044.344	-2141
1044.405	-1937
1044.465	-1993
1044.525	-2143
1044.586	-1331
1044.646	-1654
1044.707	-363
1044.767	-1580
1044.827	-1461
1044.887	-1625
1044.948	-1807
1045.008	-1784
1045.068	-2155
1045.128	-1529
1045.188	-1679
1045.249	-1458
1045.309	-1355
1045.369	-2030
1045.429	-2122
1045.489	-1806
1045.549	-1745
1045.609	-1405
1045.669	-1428
1045.729	-1052
1045.789	-2166
1045.848	-1815
1045.908	-2052
1045.968	-1376
1046.028	-1514
1046.088	-1126
1046.147	-1301
1046.207	-511
1046.267	-1299
1046.326	-1830
1046.386	-1162
1046.446	-1149
1046.505	-1589
1046.565	-1128
1046.624	-1584
1046.684	-1066
1046.743	-846
1046.803	-360
1046.862	-327
1046.922	0
