'Start Wavelength	183.907
'End Wavelength	1046.922
'Gate Delay	5.000
'Gate Width (ms)	1.050
'Laser Output Level	0.000
'X Position	0.000
'Y Position	0.000
'Z Position	0.000
'Grid Point Number	1.000
'Shot Number	100.000
183.907	396.000
183.977	-347.000
184.047	-426
184.116	985
184.186	754
184.256	-473
184.325	-105
184.395	-1191
184.465	464
184.534	167
184.604	-531
184.674	40
184.743	-105
184.813	-250
184.883	253
184.952	304
185.022	338
185.092	114
185.161	436
185.231	-419
185.301	304
185.370	791
185.440	-344
185.509	-262
185.579	9
185.649	312
185.718	241
185.788	-108
185.857	-132
185.927	-170
185.996	65
186.066	141
186.136	720
186.205	223
186.275	-726
186.344	700
186.414	-337
186.483	-936
186.553	936
186.622	1090
186.692	494
186.761	-416
186.831	164
186.900	-422
186.970	437
187.039	-183
187.109	962
187.178	437
187.248	-297
187.317	-180
187.387	-14
187.456	256
187.526	-123
187.595	178
187.664	-264
187.734	473
187.803	299
187.873	691
187.942	594
188.012	519
188.081	-44
188.150	-68
188.220	212
188.289	729
188.358	-594
188.428	273
188.497	-499
188.567	1468
188.636	-316
188.705	577
188.775	-78
188.844	-791
188.913	731
188.983	448
189.052	991
189.121	419
189.191	494
189.260	217
189.329	217
189.399	-532
189.468	-119
189.537	-67
189.606	351
189.676	757
189.745	-297
189.814	478
189.883	-326
189.953	146
190.022	646
190.091	631
190.161	1281
190.230	775
190.299	-154
190.368	-630
190.437	224
190.507	131
190.576	-54
190.645	403
190.714	-654
190.783	251
190.853	804
190.922	317
190.991	46
191.060	193
191.129	-787
191.198	77
191.268	120
191.337	-326
191.406	751
191.475	-124
191.544	-492
191.613	494
191.682	331
191.752	396
191.821	-535
191.890	388
191.959	453
192.028	168
192.097	-1232
192.166	764
192.235	-445
192.304	708
192.373	-249
192.442	-142
192.511	155
192.580	948
192.650	376
192.719	184
192.788	253
192.857	408
192.926	-128
192.995	43
193.064	82
193.133	872
193.202	625
193.271	1347
193.340	419
193.409	1322
193.478	303
193.547	800
193.615	1162
193.684	902
193.753	773
193.822	1539
193.891	381
193.960	722
194.029	3
194.098	1140
194.167	-546
194.236	1286
194.305	373
194.374	11
194.443	806
194.512	521
194.580	146
194.649	315
194.718	44
194.787	100
194.856	49
194.925	1542
194.994	-550
195.062	224
195.131	-22
195.200	1124
195.269	743
195.338	276
195.407	1311
195.475	-92
195.544	170
195.613	82
195.682	568
195.751	58
195.819	211
195.888	448
195.957	984
196.026	153
196.094	1177
196.163	756
196.232	13
196.301	881
196.369	698
196.438	587
196.507	626
196.576	634
196.644	-158
196.713	-75
196.782	63
196.850	11
196.919	677
196.988	358
197.056	88
197.125	688
197.194	514
197.262	101
197.331	189
197.400	-29
197.468	430
197.537	295
197.606	511
197.674	1819
197.743	792
197.812	665
197.880	876
197.949	593
198.017	1073
198.086	901
198.155	61
198.223	686
198.292	1445
198.360	842
198.429	494
198.497	938
198.566	869
198.635	2244
198.703	1068
198.772	744
198.840	1631
198.909	1500
198.977	245
199.046	511
199.114	898
199.183	938
199.251	533
199.320	-21
199.388	369
199.457	-738
199.525	-126
199.594	120
199.662	-22
199.731	276
199.799	856
199.867	776
199.936	-48
200.004	638
200.073	985
200.141	939
200.210	732
200.278	110
200.346	1293
200.415	567
200.483	829
200.552	921
200.620	118
200.688	678
200.757	798
200.825	524
200.893	121
200.962	142
201.030	389
201.098	332
201.167	1132
201.235	627
201.303	668
201.372	897
201.440	390
201.508	889
201.577	115
201.645	246
201.713	964
201.781	308
201.850	1094
201.918	710
201.986	305
202.055	681
202.123	221
202.191	694
202.259	903
202.327	917
202.396	-281
202.464	1051
202.532	539
202.600	1416
202.669	1864
202.737	1157
202.805	354
202.873	702
202.941	1029
203.009	-116
203.078	632
203.146	1023
203.214	607
203.282	-348
203.350	368
203.418	479
203.487	-145
203.555	-188
203.623	1265
203.691	736
203.759	770
203.827	405
203.895	983
203.963	-167
204.031	498
204.099	422
204.168	849
204.236	909
204.304	116
204.372	517
204.440	1176
204.508	731
204.576	474
204.644	1293
204.712	651
204.780	655
204.848	91
204.916	151
204.984	403
205.052	807
205.120	76
205.188	902
205.256	374
205.324	157
205.392	461
205.460	132
205.528	511
205.596	476
205.664	1032
205.732	320
205.799	968
205.867	2849
205.935	721
206.003	2178
206.071	773
206.139	316
206.207	1076
206.275	684
206.343	592
206.411	979
206.478	1430
206.546	619
206.614	471
206.682	-60
206.750	773
206.818	1192
206.885	1539
206.953	81
207.021	1064
207.089	1112
207.157	104
207.225	1712
207.292	756
207.360	554
207.428	545
207.496	517
207.563	1248
207.631	334
207.699	-106
207.767	650
207.834	162
207.902	912
207.970	538
208.038	918
208.105	-40
208.173	679
208.241	804
208.309	1234
208.376	913
208.444	1501
208.512	1274
208.579	-322
208.647	1065
208.715	1695
208.782	1174
208.850	423
208.918	1041
208.985	1456
209.053	546
209.120	1760
209.188	1061
209.256	683
209.323	-52
209.391	1115
209.459	1936
209.526	1039
209.594	924
209.661	1166
209.729	886
209.796	1279
209.864	1466
209.932	1100
209.999	2250
210.067	1530
210.134	890
210.202	1562
210.269	1368
210.337	1627
210.404	1042
210.472	1097
210.539	1867
210.607	1124
210.674	401
210.742	752
210.809	1190
210.877	1009
210.944	1711
211.012	166
211.079	1917
211.146	1689
211.214	969
211.281	1100
211.349	1410
211.416	977
211.484	1593
211.551	1481
211.618	1176
211.686	1217
211.753	1028
211.821	1484
211.888	1196
211.955	1418
212.023	1186
212.090	1883
212.157	1392
212.225	1180
212.292	2656
212.359	3581
212.427	7089
212.494	4741
212.561	2444
212.629	2421
212.696	491
212.763	2146
212.831	-77
212.898	1365
212.965	905
213.032	2156
213.100	1915
213.167	1421
213.234	1969
213.301	2447
213.369	1427
213.436	885
213.503	1060
213.570	2644
213.638	718
213.705	847
213.772	665
213.839	1422
213.906	1567
213.973	1576
214.041	1237
214.108	1761
214.175	1148
214.242	1031
214.309	1724
214.376	1559
214.444	1323
214.511	1812
214.578	1256
214.645	2171
214.712	1539
214.779	1629
214.846	1310
214.913	2417
214.980	1163
215.048	2482
215.115	1613
215.182	1578
215.249	1545
215.316	1985
215.383	1610
215.450	1488
215.517	2101
215.584	1711
215.651	894
215.718	2021
215.785	2101
215.852	970
215.919	1770
215.986	1933
216.053	279
216.120	1209
216.187	1091
216.254	780
216.321	715
216.388	1413
216.455	-2
216.522	1385
216.589	1730
216.656	2354
216.722	2125
216.789	2105
216.856	2392
216.923	1878
216.990	2390
217.057	2116
217.124	2016
217.191	1807
217.258	3276
217.324	3195
217.391	3963
217.458	2439
217.525	2633
217.592	1828
217.659	548
217.725	2190
217.792	1092
217.859	2515
217.926	738
217.993	1409
218.059	1237
218.126	1429
218.193	1148
218.260	1122
218.327	816
218.393	1056
218.460	959
218.527	-79
218.594	816
218.660	1256
218.727	2184
218.794	856
218.860	1098
218.927	802
218.994	758
219.061	864
219.127	351
219.194	1420
219.261	1510
219.327	432
219.394	386
219.461	-106
219.527	734
219.594	976
219.661	787
219.727	40
219.794	1537
219.860	225
219.927	1901
219.994	1906
220.060	2256
220.127	2900
220.193	1955
220.260	1757
220.326	2550
220.393	4541
220.460	5190
220.526	4731
220.593	2621
220.659	4763
220.726	3200
220.792	6072
220.859	5410
220.925	8737
220.992	9718
221.058	7889
221.125	6993
221.191	5105
221.258	3065
221.324	3035
221.391	1861
221.457	2064
221.524	2179
221.590	3188
221.657	4653
221.723	4100
221.789	2358
221.856	4255
221.922	1281
221.989	1442
222.055	1436
222.121	640
222.188	2191
222.254	1730
222.321	1079
222.387	374
222.453	1016
222.520	1156
222.586	-24
222.652	1844
222.719	578
222.785	1565
222.851	664
222.918	1414
222.984	1140
223.050	696
223.116	109
223.183	1670
223.249	422
223.315	1207
223.382	2051
223.448	743
223.514	699
223.580	1028
223.647	175
223.713	375
223.779	341
223.845	1036
223.911	1364
223.978	766
224.044	826
224.110	965
224.176	1614
224.242	792
224.309	246
224.375	1037
224.441	835
224.507	625
224.573	-191
224.639	1785
224.705	628
224.772	1191
224.838	1015
224.904	848
224.970	712
225.036	1302
225.102	-146
225.168	1045
225.234	1355
225.300	1416
225.366	1241
225.432	1186
225.499	552
225.565	1040
225.631	1366
225.697	1549
225.763	1427
225.829	2118
225.895	1975
225.961	1988
226.027	2272
226.093	1849
226.159	3139
226.225	4747
226.291	8584
226.357	14379
226.423	8301
226.489	5286
226.554	2482
226.620	2944
226.686	2451
226.752	5669
226.818	8210
226.884	15588
226.950	15044
227.016	7944
227.082	4712
227.148	3516
227.214	2969
227.279	2347
227.345	1826
227.411	2712
227.477	2046
227.543	3485
227.609	4673
227.674	3190
227.740	1539
227.806	1171
227.872	1572
227.938	849
228.003	1735
228.069	1616
228.135	485
228.201	1436
228.267	676
228.332	658
228.398	-263
228.464	1521
228.530	760
228.595	1425
228.661	-641
228.727	1328
228.792	2084
228.858	908
228.924	-703
228.990	1874
229.055	197
229.121	1685
229.187	574
229.252	317
229.318	768
229.384	765
229.449	572
229.515	-323
229.581	-718
229.646	2580
229.712	1330
229.777	672
229.843	741
229.909	1170
229.974	1268
230.040	1147
230.105	1626
230.171	-157
230.236	1843
230.302	2802
230.368	1313
230.433	851
230.499	1985
230.564	3023
230.630	738
230.695	1271
230.761	1839
230.826	-936
230.892	1863
230.957	268
231.023	565
231.088	1407
231.154	1365
231.219	1485
231.284	351
231.350	1435
231.415	-554
231.481	1695
231.546	756
231.612	1294
231.677	1336
231.742	-507
231.808	2266
231.873	-481
231.939	-977
232.004	2127
232.069	1365
232.135	575
232.200	666
232.265	1059
232.331	-236
232.396	914
232.461	95
232.527	873
232.592	-803
232.657	1101
232.723	672
232.788	227
232.853	1885
232.918	993
232.984	-371
233.049	-355
233.114	295
233.179	1268
233.245	1712
233.310	1642
233.375	-510
233.440	1326
233.506	206
233.571	127
233.636	615
233.701	857
233.766	-137
233.832	847
233.897	68
233.962	102
234.027	1631
234.092	1211
234.157	667
234.222	777
234.288	1050
234.353	1496
234.418	1704
234.483	1605
234.548	846
234.613	776
234.678	1323
234.743	554
234.808	2812
234.873	719
234.938	2908
235.004	1250
235.069	923
235.134	666
235.199	1228
235.264	1381
235.329	129
235.394	1842
235.459	1246
235.524	138
235.589	1289
235.654	383
235.719	47
235.784	1878
235.849	391
235.913	1216
235.978	1072
236.043	1917
236.108	1454
236.173	465
236.238	1860
236.303	517
236.368	950
236.433	2799
236.498	2252
236.563	4081
236.627	6706
236.692	20079
236.757	18739
236.822	8887
236.887	4369
236.952	4854
237.017	2219
237.081	4262
237.146	3985
237.211	12442
237.276	20194
237.341	25640
237.405	16742
237.470	7089
237.535	4072
237.600	3306
237.664	3691
237.729	1740
237.794	2173
237.859	8056
237.923	4009
237.988	1856
238.053	2393
238.118	2424
238.182	2314
238.247	4078
238.312	398
238.376	2078
238.441	-196
238.506	1754
238.570	-325
238.635	2538
238.700	1438
238.764	288
238.829	1590
238.893	922
238.958	1942
239.023	1405
239.087	1118
239.152	1893
239.216	-3
239.281	1210
239.346	1321
239.410	1560
239.475	583
239.539	2788
239.604	1654
239.668	2076
239.733	1366
239.797	2555
239.862	6498
239.926	4617
239.991	1813
240.055	1533
240.120	1202
240.184	1164
240.249	996
240.313	889
240.378	962
240.442	954
240.507	1592
240.571	670
240.635	564
240.700	639
240.764	780
240.829	292
240.893	-589
240.957	1244
241.022	1678
241.086	2468
241.151	342
241.215	464
241.279	1636
241.344	684
241.408	1052
241.472	402
241.537	2799
241.601	1682
241.665	303
241.730	1896
241.794	2654
241.858	1473
241.922	1401
241.987	1535
242.051	374
242.115	274
242.179	1510
242.244	755
242.308	1452
242.372	2153
242.436	1506
242.501	1808
242.565	202
242.629	473
242.693	1912
242.757	143
242.822	468
242.886	2311
242.950	1971
243.014	115
243.078	1327
243.142	570
243.206	982
243.271	2107
243.335	699
243.399	3986
243.463	7267
243.527	25540
243.591	8947
243.655	3208
243.719	1236
243.783	2500
243.847	3041
243.911	4489
243.975	1575
244.040	574
244.104	2610
244.168	1460
244.232	657
244.296	2074
244.360	3880
244.424	974
244.488	772
244.552	922
244.615	-837
244.679	1393
244.743	633
244.807	1149
244.871	404
244.935	1326
244.999	419
245.063	1008
245.127	1402
245.191	2684
245.255	2399
245.319	1238
245.383	-813
245.446	2036
245.510	-127
245.574	1084
245.638	657
245.702	495
245.766	982
245.829	2042
245.893	442
245.957	891
246.021	857
246.085	806
246.149	1305
246.212	3567
246.276	3077
246.340	1378
246.404	1440
246.467	2631
246.531	-328
246.595	1902
246.659	1983
246.722	519
246.786	1461
246.850	1422
246.913	747
246.977	-396
247.041	925
247.104	1059
247.168	1080
247.232	1946
247.295	3511
247.359	2644
247.423	375
247.486	1739
247.550	1578
247.614	969
247.677	993
247.741	490
247.804	727
247.868	1493
247.932	502
247.995	4255
248.059	1692
248.122	946
248.186	2323
248.249	1718
248.313	5026
248.376	6222
248.440	3403
248.503	1243
248.567	2708
248.630	1344
248.694	1764
248.757	4159
248.821	6179
248.884	5181
248.948	2276
249.011	5473
249.075	7364
249.138	8251
249.202	3190
249.265	1799
249.328	2900
249.392	1159
249.455	1985
249.519	1987
249.582	1680
249.645	2655
249.709	3562
249.772	3396
249.835	2811
249.899	1630
249.962	2246
250.025	1516
250.089	2915
250.152	4378
250.215	1851
250.279	1196
250.342	2679
250.405	2775
250.468	1847
250.532	3188
250.595	5593
250.658	18258
250.721	37697
250.785	13184
250.848	6168
250.911	3456
250.974	4035
251.038	3467
251.101	6239
251.164	3693
251.227	3640
251.290	3697
251.354	6850
251.417	28526
251.480	33653
251.543	22391
251.606	51791
251.669	45332
251.732	17061
251.795	12147
251.859	12447
251.922	33820
251.985	22378
252.048	8944
252.111	5183
252.174	4286
252.237	5262
252.300	10124
252.363	13381
252.426	41364
252.489	18133
252.552	7873
252.615	4313
252.678	6205
252.741	7921
252.804	16521
252.867	44634
252.930	22572
252.993	9369
253.056	5560
253.119	3508
253.182	3437
253.245	7223
253.308	5356
253.371	2361
253.434	2238
253.497	1547
253.559	4465
253.622	2896
253.685	1560
253.748	2059
253.811	1217
253.874	1833
253.937	1119
254.000	1647
254.062	1927
254.125	3550
254.188	4525
254.251	2835
254.314	2236
254.376	1716
254.439	2251
254.502	1188
254.565	2393
254.628	4969
254.690	1997
254.753	1148
254.816	1198
254.878	1171
254.941	3073
255.004	2392
255.067	1732
255.129	-120
255.192	1012
255.255	-87
255.317	1309
255.380	876
255.443	837
255.505	741
255.568	-151
255.631	1380
255.693	865
255.756	519
255.819	2127
255.881	616
255.944	1608
256.006	1052
256.069	986
256.132	211
256.194	1324
256.257	1432
256.319	1792
256.382	1312
256.444	2486
256.507	2087
256.569	1521
256.632	1937
256.694	3330
256.757	10786
256.819	34601
256.882	16492
256.944	6172
257.007	3089
257.069	2535
257.132	2896
257.194	3590
257.257	1677
257.319	2234
257.381	3237
257.444	8721
257.506	34209
257.569	43199
257.631	14110
257.693	6434
257.756	3636
257.818	2719
257.880	2471
257.943	2072
258.005	531
258.067	1828
258.130	1931
258.192	1429
258.254	1128
258.317	1941
258.379	1496
258.441	2324
258.503	2918
258.566	2488
258.628	3232
258.690	1061
258.753	1505
258.815	1721
258.877	597
258.939	1023
259.001	1811
259.064	1268
259.126	1081
259.188	1266
259.250	1427
259.312	1963
259.375	1300
259.437	1116
259.499	2097
259.561	1031
259.623	1270
259.685	845
259.747	779
259.809	2697
259.872	3989
259.934	6301
259.996	7956
260.058	3216
260.120	1315
260.182	1450
260.244	310
260.306	893
260.368	1410
260.430	582
260.492	2818
260.554	5244
260.616	861
260.678	2571
260.740	3508
260.802	1114
260.864	882
260.926	204
260.988	1366
261.050	987
261.112	4700
261.174	8660
261.236	3906
261.298	1513
261.359	1629
261.421	3376
261.483	444
261.545	1523
261.607	-462
261.669	1775
261.731	1502
261.793	2255
261.854	161
261.916	1247
261.978	1823
262.040	1946
262.102	1282
262.164	924
262.225	1669
262.287	1143
262.349	422
262.411	698
262.472	1572
262.534	523
262.596	1351
262.658	2046
262.719	-177
262.781	1571
262.843	1201
262.904	2031
262.966	1378
263.028	1588
263.090	8067
263.151	32598
263.213	11370
263.275	5150
263.336	2078
263.398	1594
263.459	625
263.521	1268
263.583	1541
263.644	1700
263.706	518
263.767	454
263.829	735
263.891	602
263.952	611
264.014	393
264.075	1398
264.137	6533
264.198	2725
264.260	537
264.321	821
264.383	1544
264.444	8974
264.506	3191
264.567	2032
264.629	4244
264.690	8100
264.752	3479
264.813	1313
264.875	941
264.936	1461
264.998	1126
265.059	1204
265.120	1952
265.182	2765
265.243	18023
265.305	24843
265.366	5499
265.427	2522
265.489	2325
265.550	342
265.611	1556
265.673	1156
265.734	1174
265.795	1093
265.857	1799
265.918	1394
265.979	6017
266.040	28125
266.102	30788
266.163	7401
266.224	3854
266.286	2660
266.347	1264
266.408	1069
266.469	1326
266.530	971
266.592	1082
266.653	633
266.714	609
266.775	1297
266.836	851
266.898	81
266.959	2217
267.020	1351
267.081	2099
267.142	1669
267.203	1380
267.264	578
267.326	1633
267.387	496
267.448	185
267.509	1696
267.570	1108
267.631	-154
267.692	52
267.753	1399
267.814	157
267.875	465
267.936	1536
267.997	2055
268.058	1743
268.119	-163
268.180	429
268.241	176
268.302	807
268.363	-104
268.424	167
268.485	1758
268.546	564
268.607	113
268.668	475
268.729	190
268.790	736
268.851	221
268.912	1383
268.972	1031
269.033	59
269.094	-111
269.155	672
269.216	-281
269.277	594
269.338	296
269.398	541
269.459	105
269.520	1667
269.581	203
269.642	943
269.702	-19
269.763	1446
269.824	733
269.885	411
269.945	766
270.006	1350
270.067	348
270.128	1142
270.188	-208
270.249	-750
270.310	-73
270.370	927
270.431	532
270.492	40
270.553	-50
270.613	742
270.674	1678
270.734	289
270.795	17
270.856	728
270.916	394
270.977	27
271.038	1238
271.098	778
271.159	4
271.219	83
271.280	770
271.340	784
271.401	-259
271.462	1095
271.522	446
271.583	899
271.643	5
271.704	366
271.764	1018
271.825	346
271.885	3873
271.946	8281
272.006	2152
272.066	3028
272.127	6299
272.187	3045
272.248	1143
272.308	1221
272.369	4184
272.429	3495
272.489	1781
272.550	1606
272.610	2022
272.671	1771
272.731	1278
272.791	1488
272.852	1338
272.912	1249
272.972	690
273.033	1015
273.093	687
273.153	2494
273.214	2039
273.274	1296
273.334	4200
273.394	7068
273.455	2048
273.515	2290
273.575	4895
273.635	3543
273.696	3399
273.756	5961
273.816	2550
273.876	2761
273.936	1433
273.997	3949
274.057	1034
274.117	1491
274.177	1225
274.237	6268
274.297	6814
274.358	2982
274.418	3438
274.478	2407
274.538	796
274.598	696
274.658	1434
274.718	2886
274.778	988
274.838	769
274.898	1651
274.958	4006
275.018	4433
275.078	4487
275.138	813
275.198	983
275.258	558
275.318	636
275.378	511
275.438	593
275.498	400
275.558	2095
275.618	3833
275.678	3240
275.738	1522
275.798	2230
275.858	1844
275.918	-85
275.978	527
276.038	965
276.098	-22
276.157	678
276.217	1835
276.277	1837
276.337	646
276.397	763
276.457	1333
276.517	411
276.576	113
276.636	1386
276.696	1308
276.756	960
276.815	1318
276.875	1217
276.935	364
276.995	425
277.055	501
277.114	1074
277.174	980
277.234	1822
277.293	1407
277.353	184
277.413	731
277.472	1034
277.532	-142
277.592	2018
277.651	7728
277.711	21557
277.771	5704
277.830	17354
277.890	17794
277.950	8902
278.009	34233
278.069	15724
278.128	11436
278.188	20954
278.248	8128
278.307	19836
278.367	15234
278.426	4423
278.486	2191
278.545	2402
278.605	1175
278.664	1235
278.724	1451
278.783	3026
278.843	7026
278.902	2572
278.962	1948
279.021	2650
279.081	4680
279.140	5245
279.199	2661
279.259	2877
279.318	4167
279.378	6771
279.437	8892
279.496	22368
279.556	93678
279.615	92149
279.675	25030
279.734	12220
279.793	11185
279.853	14681
279.912	7196
279.971	4271
280.031	4577
280.090	5986
280.149	8019
280.208	12666
280.268	64296
280.327	83125
280.386	19278
280.445	9218
280.505	5869
280.564	4722
280.623	3612
280.682	2653
280.742	3763
280.801	2258
280.860	1943
280.919	1902
280.978	2106
281.037	1939
281.097	1006
281.156	2064
281.215	1718
281.274	1715
281.333	2694
281.392	3041
281.451	1142
281.510	1184
281.569	1034
281.628	1509
281.688	1166
281.747	1779
281.806	916
281.865	1497
281.924	190
281.983	417
282.042	399
282.101	777
282.160	1082
282.219	-248
282.278	414
282.337	1337
282.396	1290
282.454	933
282.513	785
282.572	2398
282.631	1484
282.690	354
282.749	645
282.808	977
282.867	1137
282.926	746
282.985	782
283.043	488
283.102	717
283.161	988
283.220	1311
283.279	3558
283.338	726
283.396	666
283.455	1135
283.514	1486
283.573	1691
283.631	1818
283.690	810
283.749	1160
283.808	1758
283.866	1643
283.925	1429
283.984	1566
284.043	1725
284.101	2110
284.160	1985
284.219	3206
284.277	2465
284.336	2694
284.395	4405
284.453	4479
284.512	3827
284.570	3696
284.629	3508
284.688	4674
284.746	5567
284.805	6959
284.863	9337
284.922	10890
284.981	14066
285.039	21492
285.098	34830
285.156	67554
285.215	93945
285.273	87397
285.332	81808
285.390	48070
285.449	29005
285.507	21226
285.566	13739
285.624	11788
285.683	9299
285.741	7257
285.799	5725
285.858	4484
285.916	4573
285.975	3228
286.033	3613
286.091	2842
286.150	2989
286.208	2848
286.267	2287
286.325	2408
286.383	2098
286.442	2021
286.500	1937
286.558	762
286.616	1288
286.675	1476
286.733	2114
286.791	1311
286.850	1613
286.908	1818
286.966	1561
287.024	1289
287.083	1591
287.141	1262
287.199	1636
287.257	1054
287.315	1031
287.374	1422
287.432	2671
287.490	2246
287.548	445
287.606	1920
287.664	1586
287.723	1403
287.781	2381
287.839	2369
287.897	2077
287.955	4070
288.013	5966
288.071	13006
288.129	41629
288.187	126229
288.245	71800
288.303	22383
288.361	10941
288.419	7840
288.477	5313
288.535	4224
288.593	3223
288.651	2953
288.709	1473
288.767	1378
288.825	929
288.883	1370
288.941	1552
288.999	1367
289.057	647
289.115	762
289.173	594
289.231	1688
289.289	943
289.346	1340
289.404	1559
289.462	508
289.520	1094
289.578	1407
289.636	498
289.694	1281
289.751	752
289.809	608
289.867	1429
289.925	1659
289.983	561
290.040	702
290.098	316
290.156	590
290.214	992
290.271	597
290.329	743
290.387	837
290.444	661
290.502	20
290.560	883
290.617	1609
290.675	91
290.733	814
290.790	1074
290.848	1145
290.906	496
290.963	660
291.021	305
291.078	979
291.136	560
291.194	3258
291.251	8627
291.309	3206
291.366	753
291.424	1614
291.481	826
291.539	1434
291.596	2237
291.654	870
291.711	766
291.769	1134
291.826	1114
291.884	1225
291.941	35
291.999	602
292.056	-63
292.114	429
292.171	114
292.228	673
292.286	864
292.343	800
292.401	1518
292.458	988
292.515	814
292.573	893
292.630	215
292.687	518
292.745	786
292.802	1762
292.859	5425
292.917	5225
292.974	2164
293.031	1526
293.089	800
293.146	982
293.203	681
293.260	1033
293.318	386
293.375	3257
293.432	1796
293.489	1523
293.546	1193
293.604	2275
293.661	2379
293.718	9743
293.775	5812
293.832	2368
293.889	2227
293.947	2121
294.004	661
294.061	1414
294.118	1943
294.175	5878
294.232	17626
294.289	8330
294.346	2447
294.403	3217
294.460	1633
294.517	1610
294.574	1028
294.631	1449
294.688	1745
294.745	2118
294.802	11308
294.859	21166
294.916	8424
294.973	2661
295.030	1387
295.087	1878
295.144	2334
295.201	1728
295.258	1145
295.315	1796
295.372	3328
295.429	6224
295.486	3002
295.542	2924
295.599	9071
295.656	21364
295.713	10955
295.770	6996
295.827	3565
295.883	2385
295.940	1775
295.997	1641
296.054	1197
296.111	1446
296.167	1290
296.224	1156
296.281	825
296.338	831
296.394	849
296.451	710
296.508	2327
296.564	5643
296.621	4762
296.678	7014
296.734	12062
296.791	5625
296.848	2265
296.904	1619
296.961	2415
297.018	5668
297.074	5987
297.131	3301
297.187	1905
297.244	1715
297.301	5716
297.357	13438
297.414	4929
297.470	1838
297.527	865
297.583	1302
297.640	1121
297.696	1232
297.753	1040
297.809	549
297.866	156
297.922	1214
297.979	681
298.035	674
298.092	1417
298.148	3282
298.204	3382
298.261	1756
298.317	3588
298.374	10439
298.430	5691
298.486	2051
298.543	1379
298.599	1760
298.656	2720
298.712	4447
298.768	13671
298.824	14096
298.881	3943
298.937	2780
298.993	1646
299.050	1737
299.106	1154
299.162	1041
299.218	1988
299.275	1333
299.331	707
299.387	2502
299.443	6994
299.500	12130
299.556	6446
299.612	3118
299.668	2121
299.724	5396
299.780	6686
299.837	2722
299.893	1931
299.949	6091
300.005	8707
300.061	7321
300.117	17380
300.173	8718
300.229	2854
300.285	2297
300.341	2428
300.397	1516
300.453	721
300.510	1212
300.566	1616
300.622	1915
300.678	8843
300.734	15614
300.790	8524
300.845	7973
300.901	6839
300.957	9163
301.013	5566
301.069	1932
301.125	2007
301.181	1148
301.237	2039
301.293	1451
301.349	1571
301.405	1074
301.461	1797
301.516	3128
301.572	2068
301.628	1077
301.684	932
301.740	2181
301.796	4480
301.851	2871
301.907	3279
301.963	4283
302.019	6079
302.074	19057
302.130	21917
302.186	12010
302.242	4661
302.297	3534
302.353	2236
302.409	3785
302.464	3227
302.520	3051
302.576	5101
302.631	7556
302.687	3610
302.743	2284
302.798	2318
302.854	1785
302.910	2516
302.965	2536
303.021	3285
303.076	2976
303.132	2956
303.187	3278
303.243	1400
303.299	2321
303.354	1644
303.410	1674
303.465	2154
303.521	1826
303.576	2000
303.632	2313
303.687	2553
303.743	7152
303.798	7772
303.853	3930
303.909	1773
303.964	1834
304.020	2626
304.075	2474
304.130	2230
304.186	2385
304.241	3586
304.297	3431
304.352	2104
304.358	2145
304.407	2473
304.449	1234
304.463	818
304.518	1282
304.539	1397
304.573	1573
304.629	1844
304.630	1840
304.684	1736
304.720	3644
304.739	4595
304.794	8534
304.811	7763
304.850	5919
304.902	2668
304.905	2457
304.960	1775
304.992	2537
305.015	3092
305.071	3446
305.083	3141
305.126	1984
305.173	1638
305.181	1597
305.236	1225
305.264	1315
305.292	1351
305.347	1468
305.354	1587
305.402	2467
305.445	3299
305.457	3494
305.512	3144
305.535	2687
305.567	2175
305.622	2198
305.626	2289
305.678	3927
305.716	7471
305.733	8807
305.788	8475
305.807	7379
305.843	5634
305.897	7462
305.898	7479
305.953	8247
305.988	6188
306.008	5056
306.063	2876
306.078	2749
306.118	2508
306.168	1643
306.173	1555
306.228	1815
306.259	1741
306.283	1789
306.338	1911
306.349	2027
306.393	2331
306.440	3217
306.448	3402
306.503	3510
306.530	3169
306.558	3004
306.613	6130
306.620	6572
306.668	8702
306.711	7423
306.723	7033
306.778	5207
306.801	4302
306.833	3235
306.888	1963
306.892	1945
306.943	1764
306.982	1844
306.997	1915
307.052	2289
307.072	2365
307.107	2590
307.162	2856
307.163	2874
307.217	4584
307.253	5622
307.272	5995
307.327	6694
307.343	6274
307.381	5291
307.434	3819
307.436	3805
307.491	6420
307.524	9107
307.546	10020
307.600	7580
307.614	6687
307.655	4414
307.704	3511
307.710	3530
307.765	3881
307.795	5211
307.819	6348
307.874	11551
307.885	11663
307.929	10982
307.975	9814
307.984	9988
308.038	13432
308.065	16617
308.093	26268
308.148	52912
308.156	59285
308.202	90384
308.246	111608
308.257	110520
308.312	68007
308.336	47842
308.366	33327
308.421	18564
308.426	17644
308.475	12041
308.517	9689
308.530	8979
308.585	7036
308.607	6702
308.639	6866
308.694	7407
308.697	7501
308.748	10716
308.787	15267
308.803	15746
308.857	13291
308.877	11737
308.912	10324
308.967	9926
308.967	9966
309.021	14064
309.058	17380
309.076	20651
309.130	34476
309.148	40154
309.185	68910
309.238	119876
309.239	120189
309.293	131606
309.328	125837
309.348	113424
309.402	63550
309.418	50667
309.457	35997
309.508	22604
309.511	22084
309.566	18467
309.598	17631
309.620	19081
309.674	25216
309.688	27116
309.729	26442
309.778	22288
309.783	21728
309.837	14573
309.868	10914
309.892	9727
309.946	7926
309.959	7789
310.001	7841
310.049	8075
310.055	7882
310.109	6036
310.139	4751
310.163	4085
310.218	3307
310.229	3126
310.272	3079
310.319	3452
310.326	3361
310.381	2497
310.409	2263
310.435	2303
310.489	1925
310.499	1922
310.543	1880
310.589	1888
310.598	1926
310.652	2423
310.679	2480
310.706	2267
310.760	1871
310.769	1812
310.814	1727
310.859	1853
310.868	1857
310.923	1708
310.948	1648
310.977	1872
311.031	2392
311.038	2481
311.085	1943
311.128	1340
311.139	1392
311.193	1643
311.218	1755
311.247	1820
311.301	2103
311.308	2119
311.356	1993
311.398	1943
311.410	1925
311.464	1840
311.488	1803
311.518	1443
311.572	862
311.578	792
311.626	995
311.668	1216
311.680	1398
311.734	2291
311.758	2674
311.788	2426
311.842	1973
311.847	1932
311.896	2460
311.937	2969
311.950	2866
312.004	2459
312.027	2274
312.058	2280
312.112	2323
312.117	2334
312.165	2157
312.207	2021
312.297	2530
312.386	1605
312.476	1939
312.566	1942
312.656	1396
312.745	1330
312.835	1629
312.925	1771
313.015	2113
313.104	2329
313.194	2331
313.284	901
313.374	1672
313.463	1672
313.553	1651
313.643	1660
313.732	1995
313.822	1716
313.912	1624
314.001	1875
314.091	2674
314.180	2713
314.270	1789
314.360	1514
314.449	1823
314.539	945
314.628	1568
314.718	2346
314.808	2680
314.897	1698
314.987	1994
315.076	1485
315.166	2331
315.255	1853
315.345	2062
315.434	3020
315.524	2015
315.613	1967
315.703	2176
315.792	6548
315.881	22277
315.971	6431
316.060	3789
316.150	4936
316.239	5071
316.328	1997
316.418	1943
316.507	1685
316.597	2337
316.686	2190
316.775	3144
316.865	5865
316.954	1645
317.043	1448
317.133	2372
317.222	1376
317.311	2154
317.400	546
317.490	2525
317.579	1654
317.668	3037
317.757	3398
317.847	10851
317.936	36882
318.025	9884
318.114	6814
318.203	3561
318.293	3611
318.382	6034
318.471	4117
318.560	9015
318.649	18114
318.738	4588
318.828	1689
318.917	2012
319.006	2845
319.095	7316
319.184	22822
319.273	7417
319.362	2111
319.451	938
319.540	835
319.629	2284
319.718	2390
319.807	3356
319.896	7236
319.985	27795
320.074	7410
320.163	2918
320.252	3186
320.341	3187
320.430	2963
320.519	1977
320.608	1501
320.697	1444
320.786	1919
320.875	2431
320.964	1910
321.053	2700
321.142	2269
321.230	3267
321.319	3590
321.408	5971
321.497	2731
321.586	3074
321.675	5433
321.764	5658
321.852	3161
321.941	3196
322.030	2845
322.119	4067
322.207	5126
322.296	8434
322.385	4382
322.474	4704
322.562	5183
322.651	4614
322.740	3497
322.829	4621
322.917	5399
323.006	2912
323.095	2253
323.183	2516
323.272	3113
323.361	7781
323.449	23523
323.538	7489
323.626	15297
323.715	9534
323.804	3882
323.892	12792
323.981	5596
324.069	3165
324.158	8251
324.246	7744
324.335	2322
324.424	1361
324.512	1414
324.601	2497
324.689	3976
324.778	8233
324.866	3536
324.954	1616
325.043	1189
325.131	2828
325.220	5780
325.308	5497
325.397	4276
325.485	3229
325.574	1941
325.662	856
325.750	-214
325.839	2114
325.927	1045
326.015	1604
326.104	2662
326.192	4411
326.280	1812
326.369	1173
326.457	639
326.545	1196
326.634	960
326.722	1306
326.810	912
326.898	1723
326.987	1667
327.075	1111
327.163	2675
327.251	2887
327.340	3307
327.428	5012
327.516	1097
327.604	1481
327.692	822
327.781	1846
327.869	2040
327.957	1481
328.045	661
328.133	2567
328.221	909
328.309	856
328.397	1439
328.485	1865
328.574	1594
328.662	3372
328.750	2031
328.838	2556
328.926	1090
329.014	1302
329.102	1245
329.190	4067
329.278	1753
329.366	460
329.454	111
329.542	987
329.630	629
329.718	1162
329.806	696
329.893	2014
329.981	406
330.069	1538
330.157	1195
330.245	3800
330.333	2567
330.421	1603
330.509	1057
330.597	2176
330.684	1625
330.772	2647
330.860	3173
330.948	4042
331.036	1194
331.123	1034
331.211	764
331.299	2160
331.387	3189
331.475	6309
331.562	1218
331.650	1314
331.738	772
331.825	1824
331.913	525
332.001	1571
332.089	1112
332.176	3423
332.264	7174
332.352	4303
332.439	1584
332.527	1430
332.614	641
332.702	2345
332.790	1548
332.877	3154
332.965	7136
333.052	3510
333.140	2607
333.228	7701
333.315	2316
333.403	1712
333.490	4037
333.578	3866
333.665	10554
333.753	3957
333.840	748
333.928	2174
334.015	4445
334.103	9665
334.190	31014
334.278	7034
334.365	4510
334.452	3639
334.540	2033
334.627	2612
334.715	3853
334.802	7608
334.889	32680
334.977	32353
335.064	7002
335.151	2698
335.239	2933
335.326	3690
335.413	16489
335.501	20165
335.588	3189
335.675	1989
335.762	3317
335.850	5821
335.937	5243
336.024	13044
336.111	38537
336.199	17078
336.286	5108
336.373	2880
336.460	1662
336.547	1515
336.635	1455
336.722	2240
336.809	827
336.896	1901
336.983	7323
337.070	20127
337.157	31451
337.245	20757
337.332	12026
337.419	1981
337.506	1120
337.593	2575
337.680	7053
337.767	20643
337.854	4577
337.941	5116
338.028	5627
338.115	1792
338.202	3043
338.289	5884
338.376	16337
338.463	5172
338.550	12068
338.637	12267
338.724	2949
338.811	5645
338.898	808
338.984	1129
339.071	313
339.158	1421
339.245	2048
339.332	1759
339.419	3546
339.506	4440
339.593	-217
339.679	1564
339.766	-43
339.853	1204
339.940	825
340.027	1030
340.113	594
340.200	1234
340.287	706
340.374	444
340.460	1133
340.547	345
340.634	1462
340.720	2246
340.807	240
340.894	689
340.980	773
341.067	324
341.154	1380
341.240	1101
341.327	596
341.414	1209
341.500	493
341.587	1691
341.674	1008
341.760	1014
341.847	562
341.933	242
342.020	33
342.106	124
342.193	743
342.279	1243
342.366	246
342.452	896
342.539	509
342.625	1006
342.712	1750
342.798	1002
342.885	-28
342.971	3
343.058	414
343.144	797
343.230	329
343.317	1086
343.403	-27
343.490	590
343.576	-42
343.662	1310
343.749	302
343.835	605
343.921	1338
344.008	9587
344.094	18322
344.180	3575
344.267	473
344.353	2914
344.439	5305
344.525	1699
344.612	5537
344.698	5162
344.784	2769
344.870	1322
344.957	159
345.043	1172
345.129	-229
345.215	507
345.301	-181
345.387	1180
345.474	9
345.560	1114
345.646	157
345.732	1472
345.818	553
345.904	-612
345.990	1078
346.076	1044
346.162	1925
346.249	1543
346.335	-75
346.421	199
346.507	970
346.593	4908
346.679	-535
346.765	1964
346.851	322
346.937	116
347.023	1480
347.108	-209
347.194	6
347.280	1060
347.366	811
347.452	3490
347.538	7592
347.624	6012
347.710	3042
347.796	1366
347.882	367
347.967	1174
348.053	1478
348.139	1396
348.225	154
348.311	349
348.397	384
348.482	2022
348.568	763
348.654	145
348.740	2895
348.825	1320
348.911	1879
348.997	3692
349.083	6843
349.168	1403
349.254	557
349.340	1425
349.425	-125
349.511	548
349.597	283
349.682	1589
349.768	2330
349.854	895
349.939	867
350.025	536
350.110	971
350.196	570
350.282	-283
350.367	1365
350.453	1237
350.538	1152
350.624	-156
350.709	1282
350.795	411
350.880	400
350.966	890
351.051	1787
351.137	1396
351.222	399
351.308	451
351.393	2050
351.479	345
351.564	371
351.649	729
351.735	1047
351.820	-301
351.906	1053
351.991	573
352.076	1418
352.162	2052
352.247	621
352.332	554
352.418	936
352.503	1064
352.588	3484
352.673	1076
352.759	723
352.844	-123
352.929	231
353.014	-21
353.100	1610
353.185	319
353.270	389
353.355	1199
353.441	1655
353.526	344
353.611	1387
353.696	-219
353.781	1643
353.866	-723
353.952	1650
354.037	-72
354.122	1687
354.207	1235
354.292	1033
354.377	586
354.462	403
354.547	-193
354.632	1434
354.717	1570
354.802	168
354.887	787
354.972	824
355.057	253
355.142	809
355.227	714
355.312	463
355.397	640
355.482	1383
355.567	1121
355.652	1914
355.737	1317
355.822	3012
355.907	1508
355.991	2071
356.076	106
356.161	1414
356.246	-310
356.331	417
356.416	531
356.501	8559
356.585	6446
356.670	226
356.755	1860
356.840	1843
356.924	5036
357.009	19409
357.094	6987
357.179	573
357.263	432
357.348	2500
357.433	697
357.517	1639
357.602	851
357.687	490
357.771	2525
357.856	12093
357.941	5331
358.025	6391
358.110	27024
358.195	10758
358.279	1316
358.364	862
358.448	2416
358.533	4588
358.617	2974
358.702	3880
358.787	1461
358.871	652
358.956	1117
359.040	590
359.125	432
359.209	1798
359.294	4935
359.378	9168
359.462	1912
359.547	1030
359.631	361
359.716	-175
359.800	250
359.885	1543
359.969	58
360.053	2052
360.138	1136
360.222	993
360.306	129
360.391	1489
360.475	4549
360.559	7691
360.644	2290
360.728	1421
360.812	5072
360.896	11534
360.981	3855
361.065	2598
361.149	1658
361.233	1275
361.318	203
361.402	628
361.486	1898
361.570	716
361.654	583
361.739	925
361.823	7496
361.907	12787
361.991	2088
362.075	1866
362.159	1082
362.243	4102
362.327	6841
362.411	13235
362.495	3882
362.580	1869
362.664	1740
362.748	1343
362.832	3639
362.916	6841
363.000	22855
363.084	35625
363.168	21442
363.252	4647
363.336	2760
363.420	4126
363.503	22002
363.587	24284
363.671	2631
363.755	985
363.839	3318
363.923	59
364.007	2022
364.091	2797
364.175	9590
364.258	41560
364.342	35417
364.426	52971
364.510	23618
364.594	9048
364.677	5565
364.761	9504
364.845	7477
364.929	2101
365.013	2046
365.096	1581
365.180	790
365.264	9403
365.347	37716
365.431	13699
365.515	2106
365.598	242
365.682	2607
365.766	2503
365.849	3598
365.933	1244
366.017	3352
366.100	1469
366.184	-401
366.267	1856
366.351	495
366.435	850
366.518	143
366.602	813
366.685	1330
366.769	567
366.852	2007
366.936	2885
367.019	786
367.103	1182
367.186	4264
367.270	1318
367.353	-182
367.436	685
367.520	481
367.603	1630
367.687	-1077
367.770	500
367.853	1134
367.937	3356
368.020	3524
368.104	587
368.187	925
368.270	964
368.353	-248
368.437	3539
368.520	10241
368.603	4237
368.687	1293
368.770	3034
368.853	1262
368.936	2992
369.020	3506
369.103	1167
369.186	-77
369.269	366
369.352	654
369.436	57
369.519	915
369.602	-852
369.685	1973
369.768	-656
369.851	153
369.934	82
370.018	-14
370.101	-163
370.184	2854
370.267	1317
370.350	1762
370.433	2836
370.516	6191
370.599	12038
370.682	2422
370.765	3534
370.848	3163
370.931	5254
371.014	4578
371.097	-1017
371.180	860
371.263	1311
371.346	-1066
371.429	1163
371.511	-259
371.594	958
371.677	2176
371.760	5340
371.843	1765
371.926	10875
372.009	22861
372.091	8962
372.174	3642
372.257	9427
372.340	3555
372.423	5197
372.505	6449
372.588	1950
372.671	2594
372.754	4953
372.836	3431
372.919	10047
373.002	17883
373.085	2744
373.167	2104
373.250	1810
373.332	5513
373.415	13121
373.498	27406
373.580	11204
373.663	22708
373.746	26506
373.828	3666
373.911	3800
373.993	3538
374.076	19529
374.159	14930
374.241	3814
374.324	4633
374.406	3716
374.489	6808
374.571	18991
374.654	6054
374.736	3434
374.819	9759
374.901	19476
374.983	17528
375.066	3680
375.148	3026
375.231	16098
375.313	28817
375.395	7616
375.478	1242
375.560	1517
375.643	1883
375.725	3735
375.807	13531
375.890	16264
375.972	6783
376.054	3639
376.136	8617
376.219	2559
376.301	3489
376.383	9053
376.465	2857
376.548	1411
376.630	1859
376.712	6655
376.794	2997
376.877	676
376.959	37
377.041	351
377.123	3272
377.205	3823
377.287	113
377.369	1119
377.452	78
377.534	-102
377.616	575
377.698	38
377.780	-379
377.862	543
377.944	1816
378.026	-607
378.108	437
378.190	661
378.272	681
378.354	873
378.436	129
378.518	69
378.600	5027
378.682	3010
378.764	1927
378.846	2021
378.928	589
379.010	807
379.091	1231
379.173	650
379.255	-1154
379.337	-266
379.419	305
379.501	4453
379.583	1332
379.664	289
379.746	-161
379.828	3369
379.910	2203
379.991	2946
380.073	-249
380.155	601
380.237	99
380.318	217
380.400	-209
380.482	1134
380.564	357
380.645	1159
380.727	62
380.809	1341
380.890	253
380.972	-438
381.053	-6
381.135	1612
381.217	720
381.298	3702
381.380	1897
381.461	2233
381.543	7839
381.624	8984
381.706	1457
381.787	2224
381.869	2381
381.951	6379
382.032	19976
382.113	14437
382.195	1567
382.276	3428
382.358	2309
382.439	7719
382.521	11571
382.602	18631
382.684	9441
382.765	14967
382.846	35558
382.928	83954
383.009	43511
383.090	31857
383.172	124484
383.253	179044
383.334	47690
383.416	20528
383.497	13139
383.578	11536
383.659	25790
383.741	109421
383.822	267897
383.903	123013
383.984	23363
384.066	18731
384.147	8899
384.228	4897
384.309	3204
384.390	3259
384.471	2031
384.553	2557
384.634	2610
384.715	2498
384.796	1835
384.877	2708
384.958	3775
385.039	2106
385.120	1534
385.201	2739
385.282	2498
385.363	4249
385.444	2403
385.525	3835
385.606	6946
385.687	6490
385.768	2329
385.849	2453
385.930	10849
386.011	18899
386.092	4016
386.173	1355
386.254	1891
386.335	2610
386.416	1014
386.496	2380
386.577	3537
386.658	1875
386.739	550
386.820	3430
386.901	1083
386.981	2275
387.062	1881
387.143	862
387.224	3419
387.304	4728
387.385	3180
387.466	1214
387.547	3823
387.627	2100
387.708	2906
387.789	7171
387.869	7386
387.950	3019
388.031	1349
388.111	-381
388.192	5004
388.273	7566
388.353	3588
388.434	2174
388.514	1595
388.595	8888
388.676	7791
388.756	3270
388.837	3584
388.917	1848
388.998	-197
389.078	1740
389.159	1021
389.239	-1080
389.320	2326
389.400	-311
389.480	1955
389.561	3269
389.641	2915
389.722	1382
389.802	437
389.883	2044
389.963	5598
390.043	4002
390.124	1352
390.204	2217
390.284	3564
390.365	2477
390.445	12510
390.525	32562
390.605	22297
390.686	2618
390.766	2080
390.846	1781
390.927	718
391.007	636
391.087	1179
391.167	811
391.247	-310
391.328	3082
391.408	4731
391.488	3282
391.568	-657
391.648	1054
391.728	1465
391.808	2402
391.888	771
391.969	2564
392.049	1833
392.129	4404
392.209	2036
392.289	5989
392.369	3895
392.449	8647
392.529	4617
392.609	4487
392.689	4043
392.769	5937
392.849	7603
392.929	11538
393.009	16675
393.089	16158
393.169	30615
393.248	102697
393.328	347494
393.408	350526
393.488	101068
393.568	29470
393.648	13632
393.728	8522
393.807	5772
393.887	5824
393.967	5087
394.047	5985
394.127	6016
394.206	11644
394.286	44689
394.366	173365
394.446	175709
394.525	41991
394.605	11059
394.685	8642
394.764	13233
394.844	21616
394.924	14716
395.003	5037
395.083	2295
395.163	2908
395.242	1738
395.322	2691
395.402	1011
395.481	4641
395.561	8585
395.640	23233
395.720	22658
395.799	30080
395.879	23393
395.958	18180
396.038	65443
396.117	226006
396.197	230206
396.276	71757
396.356	23167
396.435	14940
396.515	11017
396.594	12214
396.673	25877
396.753	108075
396.832	313514
396.912	201795
396.991	39864
397.070	14169
397.150	6008
397.229	6606
397.308	8685
397.388	16801
397.467	8224
397.546	3826
397.625	203
397.705	2641
397.784	720
397.863	1572
397.942	613
398.022	1659
398.101	7120
398.180	21569
398.259	9491
398.338	3158
398.417	902
398.497	1023
398.576	1113
398.655	419
398.734	1266
398.813	666
398.892	6760
398.971	24185
399.050	10331
399.129	842
399.208	999
399.287	840
399.366	-551
399.445	-176
399.524	393
399.603	-1432
399.682	385
399.761	4880
399.840	25863
399.919	18739
399.998	1429
400.077	-559
400.156	-906
400.235	3187
400.313	-142
400.392	-482
400.471	1758
400.550	1876
400.629	-804
400.708	1116
400.786	1006
400.865	3881
400.944	3107
401.023	2238
401.102	-462
401.180	-316
401.259	-120
401.338	332
401.416	694
401.495	-440
401.574	450
401.652	85
401.731	1124
401.810	-1127
401.888	108
401.967	-685
402.046	-340
402.124	943
402.203	-628
402.281	711
402.360	223
402.438	5577
402.517	2087
402.596	1162
402.674	-40
402.753	89
402.831	494
402.910	1264
402.988	-929
403.066	725
403.145	755
403.223	1881
403.302	699
403.380	1336
403.459	-5
403.537	304
403.615	540
403.694	-450
403.772	698
403.850	364
403.929	-324
404.007	604
404.085	1439
404.164	-164
404.242	1303
404.320	10210
404.398	33422
404.477	26089
404.555	15691
404.633	14481
404.711	23587
404.789	14964
404.868	1478
404.946	-319
405.024	79
405.102	182
405.180	-695
405.258	-866
405.336	591
405.415	-168
405.493	517
405.571	1235
405.649	-889
405.727	-787
405.805	452
405.883	615
405.961	738
406.039	448
406.117	-1879
406.195	621
406.273	-306
406.351	6464
406.429	4103
406.507	380
406.585	-762
406.663	97
406.740	-776
406.818	-933
406.896	-839
406.974	602
407.052	-1536
407.130	4012
407.208	3530
407.285	523
407.363	-1488
407.441	-369
407.519	-738
407.596	153
407.674	1338
407.752	5377
407.830	6021
407.907	2084
407.985	-929
408.063	390
408.141	-381
408.218	1379
408.296	-1565
408.373	-463
408.451	-767
408.529	-696
408.606	-809
408.684	143
408.762	-302
408.839	-198
408.917	-861
408.994	-526
409.072	-919
409.149	-218
409.227	1118
409.304	1946
409.382	2164
409.459	1770
409.537	3853
409.614	3073
409.692	1405
409.769	1336
409.846	2846
409.924	5345
410.001	884
410.079	2023
410.156	2225
410.233	726
410.311	57
410.388	-349
410.465	945
410.543	184
410.620	615
410.697	773
410.775	-458
410.852	-1142
410.929	89
411.006	1162
411.083	-1051
411.161	619
411.238	1622
411.315	664
411.392	-268
411.469	942
411.547	752
411.624	-727
411.701	-459
411.778	442
411.855	-791
411.932	-709
412.009	-1037
412.086	265
412.163	-570
412.240	-56
412.317	303
412.394	307
412.471	-877
412.548	158
412.625	-1513
412.702	319
412.779	678
412.856	173
412.933	-1167
413.010	-228
413.087	-158
413.164	93
413.241	1381
413.318	-870
413.395	-306
413.471	-731
413.548	-141
413.625	249
413.702	-1050
413.779	-243
413.855	-108
413.932	-644
414.009	-1213
414.086	-756
414.162	-150
414.239	336
414.316	1057
414.393	2635
414.469	-539
414.546	9
414.623	-323
414.699	-1057
414.776	-1398
414.853	-851
414.929	34
415.006	-535
415.082	-1044
415.159	-395
415.236	-392
415.312	490
415.389	460
415.465	-745
415.542	162
415.618	-899
415.695	-289
415.771	-521
415.848	-919
415.924	24
416.000	-452
416.077	344
416.153	-1270
416.230	-1881
416.306	-749
416.383	539
416.459	-594
416.535	-267
416.612	32
416.688	54
416.764	-1034
416.841	-792
416.917	-686
416.993	-353
417.069	380
417.146	-182
417.222	455
417.298	-414
417.374	-369
417.451	78
417.527	-513
417.603	-1470
417.679	-384
417.755	-342
417.831	-1497
417.908	-6
417.984	-358
418.060	-1284
418.136	-96
418.212	-821
418.288	-652
418.364	201
418.440	-1474
418.516	-211
418.592	-213
418.668	612
418.744	-705
418.820	-599
418.896	-905
418.972	-739
419.048	-684
419.124	652
419.200	-1240
419.276	22
419.352	-1057
419.428	-22
419.504	-1360
419.579	-445
419.655	-1217
419.731	-598
419.807	-269
419.883	-690
419.959	-937
420.034	378
420.110	-54
420.186	666
420.262	59
420.337	-227
420.413	165
420.489	117
420.565	-468
420.640	-313
420.716	-248
420.792	-734
420.867	840
420.943	-351
421.019	132
421.094	549
421.170	261
421.245	-155
421.321	992
421.397	-439
421.472	1273
421.548	2774
421.623	2328
421.699	1654
421.774	1235
421.850	1046
421.925	1328
422.001	2556
422.076	3492
422.152	5023
422.227	5536
422.302	9931
422.378	13910
422.453	28373
422.529	65760
422.604	167236
422.679	222747
422.755	162416
422.830	68687
422.905	29496
422.981	15610
423.056	10999
423.131	6787
423.207	4941
423.282	2208
423.357	3790
423.432	1370
423.508	2389
423.583	653
423.658	1692
423.733	1113
423.808	1760
423.883	1087
423.959	858
424.034	814
424.109	2070
424.184	606
424.259	229
424.334	-707
424.409	-157
424.484	-964
424.559	442
424.634	-1015
424.709	-53
424.784	-258
424.859	-352
424.934	-622
425.009	616
425.084	246
425.159	-34
425.234	-676
425.309	-253
425.384	2301
425.459	4062
425.534	1054
425.609	-190
425.683	-489
425.758	-1160
425.833	-431
425.908	60
425.983	-874
426.058	1636
426.132	474
426.207	102
426.282	1885
426.357	-308
426.431	-427
426.506	-270
426.581	-404
426.655	75
426.730	-941
426.805	-1213
426.879	-563
426.954	-866
427.029	-906
427.103	1213
427.178	3906
427.253	796
427.327	626
427.402	1167
427.476	5094
427.551	1894
427.625	-327
427.700	408
427.774	-1111
427.849	703
427.923	-1128
427.998	-883
428.072	124
428.147	2514
428.221	14209
428.296	50567
428.370	24834
428.444	2694
428.519	1737
428.593	4490
428.667	2424
428.742	4191
428.816	5763
428.890	32049
428.965	50158
429.039	12932
429.113	4429
429.188	781
429.262	-545
429.336	143
429.410	674
429.485	807
429.559	2755
429.633	1677
429.707	232
429.781	4565
429.855	30165
429.930	44288
430.004	16173
430.078	22090
430.152	25685
430.226	70211
430.300	65031
430.374	9807
430.448	2196
430.522	8266
430.596	21354
430.670	14532
430.744	37815
430.818	41352
430.892	5370
430.966	-197
431.040	-156
431.114	-751
431.188	-679
431.262	30
431.336	-832
431.410	2213
431.484	2921
431.557	2125
431.631	-755
431.705	998
431.779	10080
431.853	48609
431.927	29064
432.000	2767
432.074	836
432.148	-364
432.222	-138
432.295	-827
432.369	-782
432.443	201
432.516	1737
432.590	4733
432.664	2075
432.737	-44
432.811	-1485
432.885	-1367
432.958	-576
433.032	-1027
433.106	-1662
433.179	-592
433.253	-869
433.326	-310
433.400	-1084
433.473	-793
433.547	-1225
433.620	-680
433.694	-1612
433.767	-583
433.841	-800
433.914	-588
433.988	-871
434.061	-600
434.134	-1115
434.208	-750
434.281	-1499
434.355	-972
434.428	-1093
434.501	-437
434.575	-1129
434.648	-663
434.721	-1476
434.795	103
434.868	-1109
434.941	-989
435.014	-1299
435.088	-833
435.161	-48
435.234	267
435.307	116
435.381	-381
435.454	-603
435.527	1101
435.600	1199
435.673	1609
435.746	126
435.819	540
435.892	-780
435.966	-102
436.039	-784
436.112	483
436.185	-526
436.258	-951
436.331	-1674
436.404	-463
436.477	-661
436.550	-1106
436.623	-1095
436.696	-817
436.769	-522
436.842	-1029
436.915	-1206
436.987	82
437.060	-677
437.133	-510
437.206	-1005
437.279	-9
437.352	-1426
437.425	-1034
437.498	-508
437.570	-279
437.643	-1195
437.716	-624
437.789	-2043
437.861	-464
437.934	572
438.007	510
438.080	-1537
438.152	-463
438.225	-605
438.298	2763
438.370	9603
438.443	4499
438.516	770
438.588	-1657
438.661	-1789
438.734	-1095
438.806	-878
438.879	-385
438.951	-429
439.024	620
439.096	-878
439.169	-508
439.241	-710
439.314	-957
439.386	-1205
439.459	-324
439.531	281
439.604	-276
439.676	-502
439.749	-850
439.821	-1004
439.893	29
439.966	-1265
440.038	-203
440.110	-816
440.183	-1357
440.255	-1923
440.327	-392
440.400	606
440.472	3883
440.544	1627
440.617	-197
440.689	266
440.761	526
440.833	765
440.905	660
440.978	-772
441.050	-1159
441.122	-227
441.194	-404
441.266	-1205
441.338	-710
441.411	-601
441.483	698
441.555	984
441.627	250
441.699	738
441.771	285
441.843	-1705
441.915	-189
441.987	-1030
442.059	-319
442.131	304
442.203	698
442.275	150
442.347	1614
442.419	3851
442.491	25935
442.563	60503
442.635	23027
442.706	5836
442.778	3303
442.850	731
442.922	344
442.994	-372
443.066	-134
443.137	773
443.209	892
443.281	2077
443.353	6746
443.425	32004
443.496	112634
443.568	103392
443.640	36225
443.711	5730
443.783	1991
443.855	1522
443.926	745
443.998	358
444.070	1026
444.141	-712
444.213	137
444.285	104
444.356	271
444.428	303
444.499	-705
444.571	-540
444.642	268
444.714	14
444.785	459
444.857	780
444.928	3212
445.000	2231
445.071	2462
445.143	3085
445.214	2398
445.285	5321
445.357	18862
445.428	76260
445.500	160984
445.571	96676
445.642	51445
445.714	15658
445.785	7864
445.856	2307
445.928	938
445.999	301
446.070	-182
446.141	-226
446.213	18
446.284	-758
446.355	816
446.426	-307
446.497	-323
446.569	283
446.640	-173
446.711	-304
446.782	-12
446.853	174
446.924	508
446.995	-1285
447.066	492
447.138	435
447.209	940
447.280	-1225
447.351	-1079
447.422	-1461
447.493	1035
447.564	88
447.635	-1392
447.706	-781
447.777	-930
447.847	-1225
447.918	-1057
447.989	102
448.060	42
448.131	2174
448.202	955
448.273	-254
448.344	-178
448.414	-534
448.485	-283
448.556	-222
448.627	-123
448.698	432
448.768	-298
448.839	-1124
448.910	305
448.981	150
449.051	-355
449.122	-1002
449.193	-882
449.263	-999
449.334	-955
449.405	-664
449.475	831
449.546	437
449.616	1218
449.687	124
449.758	52
449.828	-881
449.899	-127
449.969	-960
450.040	-948
450.110	-367
450.181	726
450.251	-554
450.322	-443
450.392	-254
450.463	-674
450.533	-615
450.604	-300
450.674	216
450.744	-321
450.815	-297
450.885	-158
450.955	-95
451.026	-309
451.096	-631
451.166	-63
451.237	922
451.307	3692
451.377	1078
451.447	-614
451.518	-181
451.588	-34
451.658	459
451.728	889
451.799	4509
451.869	5261
451.939	243
452.009	165
452.079	-79
452.149	133
452.219	775
452.289	5253
452.360	4052
452.430	285
452.500	-161
452.570	603
452.640	1728
452.710	6281
452.780	8282
452.850	3710
452.920	1220
452.990	1679
453.060	388
453.129	183
453.199	90
453.269	8053
453.339	15014
453.409	22017
453.479	22433
453.549	32541
453.619	32669
453.688	12023
453.758	1319
453.828	945
453.898	136
453.968	137
454.037	21
454.087	59
454.107	49
454.168	-280
454.177	-360
454.247	-383
454.249	-362
454.316	-501
454.330	-236
454.386	508
454.411	1405
454.456	2277
454.492	3311
454.525	4181
454.574	2159
454.595	1308
454.655	570
454.665	498
454.734	994
454.736	1121
454.804	2731
454.817	3896
454.873	6579
454.898	6605
454.943	6210
454.979	3592
455.013	1648
455.060	1601
455.082	1954
455.141	3421
455.152	3536
455.221	8462
455.222	8699
455.291	12171
455.303	12383
455.360	12469
455.384	15433
455.430	18116
455.465	14313
455.499	10995
455.546	8784
455.569	7228
455.627	4698
455.638	4459
455.707	1089
455.708	1118
455.777	1158
455.789	1153
455.846	915
455.869	1040
455.916	1178
455.950	972
455.985	678
456.031	1010
456.054	1118
456.112	1210
456.124	1254
456.193	1241
456.193	1212
456.262	1377
456.274	1605
456.332	2361
456.355	2476
456.401	2115
456.436	1564
456.470	1100
456.516	967
456.540	943
456.597	1049
456.609	1056
456.678	1400
456.678	1381
456.747	1068
456.759	1081
456.817	1080
456.840	1266
456.886	1530
456.920	1254
456.955	1106
457.001	2092
457.024	2515
457.082	2551
457.093	2578
457.162	3549
457.163	3586
457.232	2851
457.243	2760
457.301	2001
457.324	1732
457.370	1553
457.405	1878
457.439	2272
457.485	2321
457.508	2325
457.566	2568
457.577	2626
457.646	3593
457.647	3627
457.715	5646
457.727	6073
457.784	8715
457.808	10783
457.853	13415
457.889	15206
457.922	14752
457.969	11191
457.991	11578
458.050	13678
458.060	14006
458.129	21906
458.130	22146
458.198	21913
458.211	20193
458.267	12127
458.292	8988
458.336	6840
458.372	6688
458.405	8408
458.453	11376
458.474	13594
458.533	22416
458.543	23288
458.611	35986
458.614	36252
458.680	23860
458.694	19667
458.749	10989
458.775	8686
458.818	6409
458.855	5299
458.887	4711
458.936	3950
458.955	3492
459.016	3472
459.024	3629
459.093	4257
459.097	4335
459.162	4183
459.177	4074
459.230	4382
459.257	4476
459.299	4487
459.338	4646
459.368	4668
459.418	5169
459.437	5015
459.499	4323
459.505	4346
459.574	4104
459.579	4133
459.643	3728
459.659	3613
459.711	3916
459.740	4270
459.780	4679
459.820	4895
459.849	5145
459.900	5820
459.917	5766
459.981	5547
459.986	5518
460.054	5179
460.061	5152
460.123	5098
460.141	5133
460.191	5362
460.222	5524
460.260	5824
460.302	5937
460.328	5814
460.382	6110
460.397	6096
460.462	5535
460.465	5599
460.534	7479
460.543	7787
460.602	15609
460.623	18384
460.671	26640
460.703	33733
460.739	28678
460.783	20711
460.808	17611
460.864	6877
460.876	6196
460.944	5281
460.945	5268
461.013	5595
461.024	5635
461.081	5033
461.104	4884
461.150	4817
461.184	4648
461.218	4836
461.264	5476
461.286	5694
461.345	5478
461.355	5465
461.423	6121
461.425	6120
461.491	6580
461.505	6930
461.559	13016
461.585	15570
461.628	23521
461.665	31047
461.696	32431
461.745	35289
461.764	29381
461.825	7728
461.832	7553
461.901	6183
461.905	6181
461.969	6055
461.985	5934
462.037	6294
462.065	6616
462.105	8003
462.145	9266
462.173	12257
462.225	18202
462.241	19854
462.305	26339
462.310	25434
462.378	11629
462.385	9906
462.446	6806
462.465	6106
462.514	6551
462.545	6839
462.582	6895
462.625	7080
462.650	6859
462.705	5950
462.718	6188
462.785	8054
462.786	8126
462.854	11602
462.865	12284
462.922	14032
462.945	14531
462.990	10203
463.025	6815
463.058	6740
463.104	6605
463.126	6482
463.184	6656
463.194	6769
463.262	6586
463.264	6603
463.330	6950
463.344	6944
463.398	8458
463.424	9225
463.466	8526
463.504	7800
463.533	7944
463.583	8217
463.601	8354
463.663	8695
463.669	8888
463.737	11348
463.743	11515
463.805	17920
463.823	19933
463.873	32225
463.903	39712
463.940	39627
463.982	39511
464.008	30894
464.062	11840
464.076	11228
464.142	8164
464.144	8178
464.211	8748
464.221	8852
464.279	8276
464.301	7941
464.347	8911
464.381	9731
464.414	10825
464.461	12347
464.482	12751
464.540	13807
464.550	13431
464.617	10546
464.620	10423
464.685	10412
464.699	10428
464.753	13412
464.779	14891
464.820	16719
464.859	18576
464.888	18167
464.938	17050
464.956	17199
465.018	17630
465.023	17467
465.091	14980
465.098	14703
465.158	14233
465.177	14096
465.226	13951
465.257	13681
465.293	13356
465.336	13193
465.361	13727
465.416	14522
465.428	15930
465.495	23637
465.496	23783
465.563	39994
465.575	42794
465.631	48917
465.654	51445
465.698	31955
465.734	15463
465.765	14381
465.813	12590
465.833	12579
465.893	12967
465.900	12973
465.968	12642
465.972	12600
466.035	11879
466.052	11635
466.102	12408
466.131	12843
466.170	12297
466.210	11668
466.237	12091
466.290	12803
466.304	12907
466.369	13217
466.372	13243
466.439	13306
466.449	13268
466.506	14876
466.528	15485
466.573	21924
466.607	26654
466.641	38231
466.687	54262
466.708	58345
466.766	69312
466.775	63771
466.842	20992
466.845	18919
466.909	14707
466.925	13695
466.977	14670
467.004	15168
467.044	16272
467.083	17323
467.111	19095
467.163	22306
467.178	23135
467.242	26359
467.245	26212
467.312	22023
467.321	21422
467.379	21688
467.400	21718
467.446	22692
467.480	23314
467.559	21721
467.638	19646
467.717	19880
467.796	19430
467.875	19180
467.955	21959
468.034	34730
468.113	68913
468.192	95719
468.271	25760
468.350	20643
468.429	20524
468.508	20757
468.588	20228
468.667	19785
468.746	21388
468.825	20102
468.904	17046
468.983	21103
469.062	29947
469.141	33543
469.220	17853
469.299	18125
469.378	20111
469.456	24890
469.535	22525
469.614	20670
469.693	20543
469.772	26858
469.851	34887
469.930	23976
470.009	18628
470.088	19154
470.166	20151
470.245	24333
470.324	26663
470.403	24615
470.482	19807
470.560	18358
470.639	18023
470.718	18031
470.797	16991
470.875	20197
470.954	26072
471.033	28704
471.111	16532
471.190	16499
471.269	15672
471.347	16131
471.426	16535
471.505	19389
471.583	21339
471.662	19395
471.740	16358
471.819	17869
471.898	16927
471.976	17813
472.055	17489
472.133	18926
472.212	22698
472.290	24627
472.369	17046
472.447	16618
472.526	15623
472.604	17040
472.683	16013
472.761	14757
472.839	15439
472.918	15585
472.996	16476
473.075	18411
473.153	17664
473.231	15967
473.310	17142
473.388	16750
473.466	17155
473.545	16294
473.623	17346
473.701	15933
473.780	15636
473.858	15113
473.936	18205
474.014	15814
474.093	17258
474.171	23942
474.249	32372
474.327	21056
474.405	14279
474.484	13958
474.562	13715
474.640	14612
474.718	14217
474.796	14628
474.874	14147
474.952	12765
475.030	13005
475.108	12820
475.187	13268
475.265	13142
475.343	15016
475.421	16660
475.499	13920
475.577	16117
475.655	19716
475.733	39486
475.811	63061
475.889	56359
475.966	33818
476.044	15048
476.122	13641
476.200	15780
476.278	14939
476.356	14501
476.434	14619
476.512	14597
476.590	15753
476.667	15650
476.745	11983
476.823	14965
476.901	14585
476.979	15691
477.056	14596
477.134	15624
477.212	15094
477.290	13595
477.367	13426
477.445	13674
477.523	13140
477.601	13065
477.678	13540
477.756	16711
477.834	18044
477.911	13618
477.989	13271
478.066	13370
478.144	15609
478.222	13022
478.299	12838
478.377	12875
478.454	12086
478.532	11814
478.609	11983
478.687	12710
478.764	12441
478.842	12575
478.919	12769
478.997	12721
479.074	12972
479.152	15446
479.229	19299
479.307	12521
479.384	11096
479.461	12091
479.539	13389
479.616	15210
479.694	12814
479.771	14906
479.848	14353
479.926	19245
480.003	20664
480.080	12404
480.157	11802
480.235	11186
480.312	12402
480.389	14538
480.467	21693
480.544	25766
480.621	14247
480.698	14238
480.775	14797
480.853	15361
480.930	12552
481.007	14075
481.084	14572
481.161	15568
481.238	15434
481.315	12054
481.392	11471
481.470	13143
481.547	13751
481.624	13189
481.701	11498
481.778	12865
481.855	14229
481.932	21704
482.009	35302
482.086	20980
482.163	12417
482.240	11844
482.317	12063
482.393	12395
482.470	11737
482.547	13696
482.624	12304
482.701	13176
482.778	10873
482.855	11688
482.932	10129
483.009	10654
483.085	13043
483.162	13687
483.239	13523
483.316	10972
483.393	12611
483.469	11998
483.546	15376
483.623	14702
483.699	11751
483.776	12931
483.853	13299
483.930	21486
484.006	53893
484.083	87558
484.160	49599
484.236	72833
484.313	52229
484.389	40501
484.466	38259
484.543	35192
484.619	35679
484.696	37181
484.772	38589
484.849	39226
484.925	33147
485.002	34591
485.078	34362
485.155	35471
485.231	32780
485.308	32299
485.384	32981
485.461	38861
485.537	59837
485.614	65413
485.690	32404
485.766	29785
485.843	28871
485.919	29678
485.995	27785
486.072	27782
486.148	27114
486.224	28187
486.301	29026
486.377	32634
486.453	31729
486.530	33131
486.606	43002
486.682	47812
486.758	53740
486.835	58368
486.911	46889
486.987	68393
487.063	43972
487.139	35611
487.215	32740
487.292	32030
487.368	31515
487.444	34072
487.520	37856
487.596	35812
487.672	49328
487.748	92369
487.824	128442
487.900	61782
487.976	36674
488.052	34660
488.128	35092
488.204	31201
488.280	28904
488.356	34205
488.432	65397
488.508	89942
488.584	30815
488.660	24869
488.736	24374
488.812	24434
488.888	28429
488.964	28536
489.039	27592
489.115	30166
489.191	25966
489.267	26175
489.343	25166
489.418	22867
489.494	23826
489.570	21354
489.646	24251
489.722	23516
489.797	23112
489.873	36955
489.949	73440
490.024	53455
490.100	20954
490.176	21592
490.251	19876
490.327	22260
490.403	19568
490.478	20947
490.554	17372
490.629	19850
490.705	18028
490.781	20283
490.856	19388
490.932	21091
491.007	18868
491.083	21213
491.158	18869
491.234	28198
491.309	54960
491.385	48850
491.460	19560
491.536	21192
491.611	16936
491.686	17395
491.762	17961
491.837	19302
491.913	28275
491.988	33384
492.063	30222
492.139	32441
492.214	26336
492.289	15844
492.365	15805
492.440	18329
492.515	18142
492.590	19247
492.666	14979
492.741	24059
492.816	30370
492.891	17434
492.967	16389
493.042	15139
493.117	17198
493.192	17134
493.267	28596
493.342	80453
493.418	95489
493.493	19582
493.568	13418
493.643	14679
493.718	17952
493.793	23026
493.868	17310
493.943	12542
494.018	15158
494.093	14463
494.168	14376
494.243	13560
494.318	12622
494.393	13981
494.468	12117
494.543	12215
494.618	12884
494.693	13157
494.768	13800
494.842	14653
494.917	11673
494.992	13605
495.067	13433
495.142	12612
495.217	13443
495.292	12194
495.366	13108
495.441	15364
495.516	17283
495.591	17948
495.665	24788
495.740	32479
495.815	22204
495.890	16222
495.964	13747
496.039	18427
496.114	15027
496.188	16099
496.263	16581
496.338	15148
496.412	18893
496.487	21089
496.561	17270
496.636	17641
496.710	16560
496.785	18309
496.860	20206
496.934	15579
497.009	15342
497.083	16595
497.158	16929
497.232	19324
497.307	21820
497.381	17022
497.455	23050
497.530	29084
497.604	18682
497.679	19967
497.753	31911
497.827	35000
497.902	26794
497.976	36217
498.050	107564
498.125	409994
498.199	322900
498.273	30728
498.348	17651
498.422	17831
498.496	19293
498.570	18585
498.645	18075
498.719	18899
498.793	24206
498.867	39496
498.941	55975
499.016	174725
499.090	432680
499.164	105212
499.238	19548
499.312	15393
499.386	17875
499.460	19070
499.534	18085
499.609	24834
499.683	35628
499.757	32510
499.831	81653
499.905	308730
499.979	227439
500.053	38601
500.127	32579
500.201	18020
500.275	17510
500.349	18730
500.422	20575
500.496	24091
500.570	41250
500.644	160519
500.718	288418
500.792	47493
500.866	19937
500.940	26049
501.013	19997
501.087	18758
501.161	23574
501.235	34827
501.309	104720
501.382	283509
501.456	187395
501.530	47632
501.603	88833
501.677	28604
501.751	14463
501.825	19413
501.898	40411
501.972	114559
502.046	54907
502.119	19327
502.193	48018
502.266	120450
502.340	45623
502.413	56649
502.487	98540
502.561	50731
502.634	16998
502.708	12339
502.781	9603
502.855	11698
502.928	10100
503.002	11695
503.075	10968
503.149	13328
503.222	12936
503.295	15133
503.369	18811
503.442	25394
503.516	89659
503.589	208214
503.662	111466
503.736	41096
503.809	96467
503.882	68009
503.956	113258
504.029	81101
504.102	46414
504.175	57738
504.249	29309
504.322	22153
504.395	16814
504.468	12834
504.542	12519
504.615	10392
504.688	9296
504.761	9192
504.834	12521
504.907	10085
504.980	10497
505.053	9106
505.127	6626
505.200	14499
505.273	17324
505.346	10729
505.419	8887
505.492	9807
505.565	7540
505.638	9104
505.711	8137
505.784	8360
505.857	8116
505.930	10837
506.003	8382
506.076	11739
506.149	13954
506.221	16250
506.294	16484
506.367	46049
506.440	147299
506.513	52341
506.586	17171
506.659	9919
506.731	8297
506.804	9614
506.877	9846
506.950	10891
507.022	8508
507.095	12181
507.168	13097
507.241	8915
507.313	7832
507.386	6830
507.459	7434
507.531	7884
507.604	7010
507.677	8511
507.749	6395
507.822	10812
507.894	18405
507.967	24941
508.040	15773
508.112	15911
508.185	14594
508.257	10850
508.330	14838
508.402	14113
508.475	15191
508.547	15780
508.620	15006
508.692	23735
508.765	14340
508.837	11771
508.909	11345
508.982	10439
509.054	11913
509.127	11424
509.199	10828
509.271	10329
509.344	11155
509.416	11950
509.488	12176
509.560	12624
509.633	11529
509.705	13206
509.777	14391
509.849	16365
509.922	14447
509.994	15187
510.066	16557
510.138	16842
510.210	30577
510.283	25442
510.355	19834
510.427	18809
510.499	16508
510.571	16537
510.643	14416
510.715	16431
510.787	14127
510.859	17486
510.931	16825
511.003	16160
511.076	17637
511.148	15445
511.219	18583
511.291	28690
511.363	27741
511.435	16866
511.507	14091
511.579	15416
511.651	15244
511.723	14213
511.795	13476
511.867	13695
511.939	17292
512.010	32302
512.082	22142
512.154	11951
512.226	14631
512.298	20909
512.369	24526
512.441	20608
512.513	17042
512.585	13677
512.656	15715
512.728	16064
512.800	13527
512.871	15231
512.943	13078
513.015	12647
513.086	13613
513.158	14375
513.230	12444
513.301	13764
513.373	13838
513.444	13311
513.516	12439
513.588	12312
513.659	12007
513.731	11749
513.802	10501
513.874	14967
513.945	13717
514.016	11539
514.088	12499
514.159	11001
514.231	14625
514.302	21860
514.374	18972
514.445	17920
514.516	35230
514.588	22234
514.659	17464
514.730	29369
514.802	17903
514.873	11879
514.944	14937
515.016	14483
515.087	12031
515.158	21138
515.229	26662
515.301	12782
515.372	14005
515.443	10978
515.514	11318
515.585	10158
515.656	12690
515.728	12818
515.799	11204
515.870	12667
515.941	12089
516.012	12623
516.083	19774
516.154	17032
516.225	17162
516.296	18351
516.367	16799
516.438	19421
516.509	20396
516.580	31110
516.651	89610
516.722	259063
516.793	90909
516.864	30509
516.935	31947
517.006	37182
517.077	43790
517.148	90839
517.219	389322
517.289	526416
517.360	180264
517.431	50989
517.502	22007
517.573	21575
517.643	20507
517.714	23985
517.785	24193
517.856	25325
517.926	29223
517.997	32161
518.068	36907
518.138	47215
518.209	73197
518.280	267835
518.350	852275
518.421	269843
518.492	43792
518.562	29827
518.633	29179
518.703	27798
518.774	43806
518.845	79538
518.915	69931
518.986	32593
519.056	24889
519.127	27831
519.197	45474
519.268	143792
519.338	75210
519.408	21808
519.479	15504
519.549	14132
519.620	14582
519.690	12660
519.760	12770
519.831	12762
519.901	12212
519.971	12896
520.042	13967
520.112	16670
520.182	14382
520.253	14892
520.323	15077
520.393	23175
520.463	31665
520.534	24129
520.604	49123
520.674	21094
520.744	23015
520.814	51983
520.885	38287
520.955	56154
521.025	179886
521.095	47648
521.165	15968
521.235	13564
521.305	10854
521.375	11390
521.445	12536
521.515	10316
521.585	12313
521.655	9762
521.725	12226
521.795	12651
521.865	10577
521.935	20527
522.005	14743
522.075	10902
522.145	12576
522.215	13967
522.285	18156
522.355	24856
522.424	46603
522.494	33845
522.564	14613
522.634	14493
522.704	17958
522.774	10778
522.843	10250
522.913	9794
522.983	9586
523.053	8864
523.122	10481
523.192	8236
523.262	10174
523.331	10184
523.401	10075
523.471	8211
523.540	8788
523.610	7243
523.680	9429
523.749	9048
523.819	12814
523.888	11614
523.958	8992
524.027	9797
524.097	10833
524.166	8782
524.236	7491
524.305	11433
524.375	8135
524.444	9170
524.514	12288
524.583	10278
524.653	12975
524.722	14474
524.791	8452
524.861	9685
524.930	7677
524.999	8475
525.069	10476
525.138	11110
525.207	13438
525.277	10818
525.346	9217
525.415	9917
525.484	9830
525.554	12711
525.623	12803
525.692	11536
525.761	12198
525.830	12854
525.900	14381
525.969	21777
526.038	30833
526.107	60261
526.176	159781
526.245	117944
526.314	42722
526.383	88372
526.452	110047
526.522	197793
526.591	170859
526.660	31749
526.729	21683
526.797	24964
526.867	35041
526.935	111249
527.004	361624
527.073	191028
527.142	25124
527.211	14326
527.280	12299
527.349	10319
527.418	8239
527.487	8821
527.555	7039
527.624	7688
527.693	6950
527.762	9003
527.831	6049
527.899	9327
527.968	7351
528.037	6055
528.106	7969
528.174	9442
528.243	10768
528.312	14345
528.380	13276
528.449	6864
528.518	8088
528.586	6407
528.655	7125
528.723	6926
528.792	7193
528.861	7227
528.929	6753
528.998	8786
529.066	9420
529.135	14091
529.203	12015
529.272	14968
529.340	17745
529.409	17817
529.477	16100
529.545	17808
529.614	21408
529.682	24277
529.751	25087
529.819	28734
529.887	25056
529.956	22638
530.024	21497
530.092	19359
530.161	19875
530.229	20126
530.297	20658
530.365	21488
530.434	22511
530.502	21947
530.570	19633
530.638	16446
530.707	17737
530.775	17434
530.843	17378
530.911	19424
530.979	18798
531.047	21579
531.115	20251
531.183	19259
531.252	18083
531.320	19036
531.388	18189
531.456	20641
531.524	18515
531.592	23033
531.660	25115
531.728	21047
531.796	20037
531.864	21035
531.932	20817
532.000	21613
532.067	23225
532.135	23771
532.203	25534
532.271	26999
532.339	30766
532.407	30377
532.475	27594
532.542	25039
532.610	24283
532.678	24417
532.746	32832
532.814	39971
532.881	27772
532.949	24898
533.017	22995
533.084	23448
533.152	21744
533.220	21588
533.287	21178
533.355	22626
533.423	23612
533.490	23200
533.558	21966
533.625	22172
533.693	22289
533.761	22504
533.828	22925
533.896	24295
533.963	32703
534.031	33921
534.098	32112
534.166	28173
534.233	25321
534.300	28666
534.368	26633
534.435	25098
534.503	23168
534.570	26616
534.637	23310
534.705	24051
534.772	25444
534.840	32386
534.907	87892
534.974	91536
535.041	22778
535.109	20756
535.176	16123
535.243	18024
535.310	16089
535.378	16850
535.445	16151
535.512	15518
535.579	15727
535.646	14174
535.714	16728
535.781	19550
535.848	19696
535.915	23277
535.982	25980
536.049	25375
536.116	23172
536.183	19329
536.250	17540
536.317	16006
536.384	16057
536.451	15168
536.518	15596
536.585	13210
536.652	17511
536.719	15156
536.786	12193
536.853	13113
536.920	16015
536.987	15087
537.053	11339
537.120	19363
537.187	16666
537.254	11609
537.321	11582
537.388	12659
537.454	10538
537.521	10879
537.588	10257
537.654	12477
537.721	13367
537.788	13156
537.855	10428
537.921	11110
537.988	10580
538.055	11243
538.121	8759
538.188	10320
538.254	9207
538.321	10832
538.388	10357
538.454	10252
538.521	10394
538.587	9792
538.654	9437
538.720	9630
538.787	9707
538.853	10037
538.920	11093
538.986	11313
539.053	9480
539.119	9715
539.185	9018
539.252	10201
539.318	9237
539.385	12293
539.451	11050
539.517	11397
539.583	11061
539.650	13736
539.716	15772
539.782	9977
539.849	8225
539.915	10171
539.981	7984
540.047	9485
540.114	8981
540.180	10080
540.246	8053
540.312	8586
540.378	10859
540.444	11142
540.510	10419
540.576	13646
540.643	9035
540.709	7891
540.775	8714
540.841	8815
540.907	14153
540.973	20056
541.039	11302
541.105	10248
541.171	8381
541.237	7956
541.303	8951
541.369	10833
541.435	8761
541.500	9294
541.566	6984
541.632	7314
541.698	7522
541.764	8671
541.830	7721
541.896	7397
541.961	8219
542.027	7383
542.093	7909
542.159	9106
542.224	8582
542.290	11222
542.356	9596
542.421	10984
542.487	9067
542.553	9679
542.618	9823
542.684	8996
542.750	7709
542.815	8814
542.881	10041
542.947	14463
543.012	9999
543.078	7349
543.143	7588
543.209	8627
543.274	7073
543.340	8399
543.405	9614
543.471	9558
543.536	8066
543.602	9909
543.667	6403
543.732	8959
543.798	7718
543.863	9362
543.928	6933
543.994	7317
544.059	7463
544.124	8035
544.190	7334
544.255	8485
544.320	7965
544.386	6504
544.451	9313
544.516	8372
544.581	7879
544.646	13262
544.712	14414
544.777	11479
544.842	10629
544.907	10987
544.972	9621
545.037	10795
545.102	10683
545.168	9889
545.233	10809
545.298	12587
545.363	11910
545.428	11609
545.493	12059
545.558	13104
545.623	11349
545.688	10564
545.753	10854
545.818	10466
545.883	11710
545.947	10477
546.012	12111
546.077	12613
546.142	12020
546.207	10078
546.272	11069
546.337	12001
546.401	12572
546.466	12806
546.531	11348
546.596	13838
546.661	12306
546.725	13432
546.790	11667
546.855	13368
546.919	12540
546.984	14882
547.049	15402
547.113	18665
547.178	16920
547.243	19391
547.307	22258
547.372	24241
547.436	23941
547.501	21427
547.565	22719
547.630	21633
547.695	22772
547.759	26141
547.823	23190
547.888	22255
547.952	21741
548.017	23482
548.081	24954
548.146	30098
548.210	26355
548.274	23866
548.339	23538
548.403	22853
548.468	20364
548.532	20589
548.596	21354
548.660	21239
548.725	23203
548.789	26617
548.853	26270
548.917	24657
548.982	28372
549.046	26524
549.110	20703
549.174	20384
549.238	22423
549.303	22865
549.367	25458
549.431	22834
549.495	21671
549.559	22909
549.623	26145
549.687	26736
549.751	27188
549.815	31358
549.879	31940
549.943	29425
550.007	32331
550.071	31441
550.135	27894
550.199	27635
550.263	27229
550.327	27758
550.391	32145
550.455	28838
550.519	28830
550.582	31000
550.646	35375
550.710	34382
550.774	34894
550.838	36177
550.901	38310
550.965	40421
551.029	40649
551.093	45257
551.156	54599
551.220	75799
551.284	73358
551.347	52365
551.411	76063
551.475	66259
551.538	38137
551.602	34396
551.666	33034
551.729	31256
551.793	31030
551.856	31211
551.920	30624
551.983	31015
552.047	28905
552.110	29312
552.174	28498
552.237	30556
552.301	29030
552.364	28165
552.428	27196
552.491	27147
552.554	28336
552.618	29292
552.681	30279
552.745	29858
552.808	38178
552.871	43889
552.934	33834
552.998	30327
553.061	29365
553.124	28527
553.187	29258
553.251	29395
553.314	30238
553.377	32443
553.440	42372
553.503	92202
553.567	109851
553.630	35739
553.693	30740
553.756	29429
553.819	28210
553.882	27931
553.945	28135
554.008	28194
554.071	27998
554.134	27730
554.197	26114
554.260	26818
554.323	27352
554.386	27231
554.449	28050
554.512	28585
554.575	26907
554.638	28202
554.701	26211
554.764	25865
554.827	25199
554.889	23988
554.952	22772
555.015	23013
555.078	22810
555.141	23490
555.203	23373
555.266	24303
555.329	21994
555.391	21228
555.454	21161
555.517	21399
555.580	20766
555.642	20454
555.705	20514
555.768	20659
555.830	19530
555.893	18707
555.955	17866
556.018	18712
556.080	18326
556.143	18374
556.206	17675
556.268	18409
556.330	18043
556.393	18326
556.455	18152
556.518	22568
556.580	20206
556.643	16219
556.705	15368
556.767	15103
556.830	15508
556.892	15397
556.955	15232
557.017	14733
557.079	14831
557.142	15017
557.204	13976
557.266	15479
557.328	14217
557.391	13454
557.453	12555
557.515	13300
557.577	13461
557.639	14379
557.701	14229
557.764	14137
557.826	14277
557.888	15615
557.950	15608
558.012	17883
558.074	24124
558.136	50389
558.198	106623
558.260	37841
558.322	18853
558.384	19535
558.446	20982
558.508	24321
558.570	28007
558.632	32824
558.694	44710
558.756	79608
558.818	248050
558.880	515811
558.942	148437
559.003	118636
559.065	55515
559.127	26706
559.189	25628
559.251	30032
559.312	45933
559.374	115862
559.436	338439
559.498	139399
559.559	28268
559.621	25779
559.683	31884
559.744	54646
559.806	166199
559.868	214790
559.929	40058
559.991	27754
560.052	43545
560.114	110451
560.176	64428
560.237	65653
560.299	92279
560.360	21210
560.422	12146
560.483	11631
560.545	10954
560.606	10207
560.667	9615
560.729	9634
560.790	9403
560.852	9148
560.913	8922
560.974	9514
561.036	8579
561.097	9386
561.158	9278
561.220	9800
561.281	8468
561.342	8297
561.403	9161
561.465	8505
561.526	10430
561.587	11518
561.648	8496
561.709	8636
561.771	8735
561.832	8858
561.893	7820
561.954	8631
562.015	8194
562.076	8362
562.137	8432
562.198	7841
562.259	8028
562.320	9291
562.381	7709
562.442	9132
562.503	8436
562.564	8187
562.625	7772
562.686	8533
562.747	8091
562.808	8447
562.869	8695
562.930	10523
562.991	9615
563.051	8864
563.112	8721
563.173	8460
563.234	7550
563.294	7546
563.355	7532
563.416	8754
563.477	8089
563.537	8117
563.598	8624
563.659	8457
563.720	7684
563.780	8066
563.841	8075
563.901	9030
563.962	8290
564.023	8027
564.083	8706
564.144	8021
564.204	7194
564.265	8642
564.325	11346
564.386	20841
564.446	14888
564.507	7169
564.567	7590
564.628	7781
564.688	6972
564.749	7900
564.809	9931
564.869	11041
564.930	7732
564.990	7896
565.050	6239
565.111	7374
565.171	7368
565.231	7232
565.292	6792
565.352	6066
565.412	6622
565.472	7839
565.532	6323
565.593	6482
565.653	5717
565.713	7701
565.773	7336
565.833	7519
565.893	8313
565.953	6443
566.013	6681
566.074	8622
566.134	11348
566.194	16669
566.254	14186
566.314	10127
566.374	7332
566.434	8738
566.494	7342
566.554	6971
566.614	7186
566.673	7364
566.733	7878
566.793	7859
566.853	7635
566.913	8452
566.973	7438
567.033	9250
567.092	7902
567.152	8170
567.212	7636
567.272	9039
567.331	9350
567.391	9263
567.451	8977
567.511	12646
567.570	11498
567.630	8727
567.690	7075
567.749	7644
567.809	7307
567.868	7219
567.928	8232
567.988	9370
568.047	8257
568.107	7249
568.166	8339
568.226	8986
568.285	9473
568.345	8333
568.404	8434
568.464	9098
568.523	7858
568.582	8479
568.642	8214
568.701	9169
568.761	9394
568.820	11378
568.879	12965
568.939	13762
568.998	10271
569.057	9208
569.116	8766
569.176	7998
569.235	6880
569.294	7751
569.353	7016
569.413	7739
569.472	7669
569.531	7581
569.590	7180
569.649	8052
569.708	6662
569.767	8081
569.827	8685
569.886	7101
569.945	7174
570.004	6891
570.063	6725
570.122	7118
570.181	6694
570.240	9108
570.299	8061
570.358	7465
570.417	6838
570.475	7197
570.534	7280
570.593	7355
570.652	7012
570.711	7231
570.770	7158
570.829	8519
570.887	6543
570.946	6331
571.005	6527
571.064	6667
571.122	7521
571.181	8257
571.240	7321
571.299	6816
571.357	8160
571.416	7764
571.475	9141
571.533	8643
571.592	6947
571.650	7447
571.709	6160
571.768	7450
571.826	7461
571.885	6485
571.943	5945
572.002	7127
572.060	6725
572.119	5937
572.177	6268
572.236	5771
572.294	5556
572.352	7288
572.411	5950
572.469	6182
572.528	5602
572.586	6717
572.644	7053
572.703	8553
572.761	6347
572.819	7241
572.877	4855
572.936	5080
572.994	4973
573.052	6367
573.110	5736
573.169	5087
573.227	4603
573.285	6344
573.343	5804
573.401	6130
573.459	6583
573.517	6588
573.576	6025
573.634	6184
573.692	5891
573.750	6854
573.808	6162
573.866	6673
573.924	8269
573.982	8337
574.040	6830
574.098	5384
574.155	5584
574.213	5629
574.271	5014
574.329	6650
574.387	5006
574.445	5270
574.503	5052
574.560	5386
574.618	4341
574.676	5077
574.734	4859
574.792	6026
574.849	5141
574.907	5259
574.965	4333
575.022	4849
575.080	4520
575.138	4700
575.195	4317
575.253	5031
575.311	4507
575.368	4567
575.426	5049
575.483	5889
575.541	4842
575.598	5580
575.656	5577
575.713	4548
575.771	5408
575.828	5640
575.886	4509
575.943	5291
576.001	6051
576.058	5201
576.115	5134
576.173	6766
576.230	7077
576.287	6764
576.345	6335
576.402	5627
576.459	5618
576.517	6659
576.574	6009
576.631	7328
576.688	5534
576.746	5208
576.803	5107
576.860	5675
576.917	5864
576.974	5946
577.031	5358
577.089	5749
577.146	4779
577.203	6207
577.260	5983
577.317	7060
577.374	6939
577.431	6649
577.488	5046
577.545	5902
577.602	6415
577.659	6806
577.716	6288
577.773	7358
577.830	6986
577.886	7468
577.943	6725
578.000	8211
578.057	8679
578.114	10797
578.171	14460
578.227	22987
578.284	21777
578.341	16429
578.398	12451
578.454	11117
578.511	10706
578.568	10783
578.625	7642
578.681	8130
578.738	5824
578.794	6861
578.851	6998
578.908	5722
578.964	6130
579.021	6127
579.077	4698
579.134	6306
579.190	5985
579.247	6381
579.303	6333
579.360	5620
579.416	5453
579.473	5470
579.529	4938
579.586	6351
579.642	6792
579.698	8230
579.755	7703
579.811	8752
579.867	9359
579.924	10572
579.980	12103
580.036	15801
580.093	22694
580.149	34854
580.205	39657
580.261	29563
580.317	22222
580.374	17210
580.430	14430
580.486	13463
580.542	10607
580.598	10203
580.619	9899
580.654	9383
580.692	8887
580.710	8655
580.765	8455
580.767	8459
580.823	8551
580.838	8217
580.879	7354
580.911	7437
580.935	7499
580.984	7719
580.991	7766
581.047	9587
581.057	9702
581.103	10274
581.130	11096
581.159	11969
581.203	13860
581.215	14373
581.270	13713
581.276	13416
581.326	10704
581.349	10649
581.382	10590
581.422	9721
581.438	9367
581.494	8410
581.494	8398
581.550	7712
581.567	7944
581.606	8453
581.640	8000
581.661	7763
581.713	9219
581.717	9339
581.773	7689
581.786	7879
581.829	8435
581.859	7836
581.885	7449
581.932	8380
581.940	8540
581.996	8433
582.004	8486
582.052	8657
582.077	8091
582.107	7523
582.150	8469
582.163	8736
582.219	7943
582.223	7958
582.274	8299
582.296	8527
582.330	8808
582.368	8788
582.386	8827
582.441	7492
582.441	7492
582.497	8417
582.514	8424
582.552	8709
582.587	9907
582.608	10459
582.659	9015
582.663	8910
582.719	9760
582.732	9604
582.774	9287
582.805	10056
582.830	10668
582.877	10940
582.885	10995
582.941	12229
582.950	12419
582.996	13507
583.023	15151
583.052	17127
583.095	18735
583.107	19090
583.162	23016
583.168	23051
583.218	23143
583.240	21699
583.273	19362
583.313	17406
583.328	16797
583.384	14914
583.385	14823
583.439	11690
583.458	11438
583.494	11262
583.531	10684
583.549	10366
583.603	9551
583.605	9530
583.660	9947
583.676	9955
583.715	9877
583.748	9703
583.770	9593
583.820	9498
583.825	9479
583.881	9114
583.893	9007
583.936	8813
583.965	8662
583.991	8547
584.038	9330
584.046	9423
584.101	8497
584.110	8591
584.156	9243
584.183	8905
584.211	8453
584.255	8560
584.266	8631
584.321	9137
584.328	9180
584.376	9329
584.400	9236
584.431	9128
584.472	8764
584.486	8690
584.541	8646
584.545	8731
584.596	9734
584.617	9664
584.651	9957
584.689	10135
584.706	9982
584.761	9880
584.762	9879
584.816	10143
584.834	10334
584.871	10353
584.906	10192
584.926	10215
584.978	10171
584.980	10167
585.035	10867
585.051	10978
585.090	11477
585.123	12040
585.145	12256
585.195	12354
585.200	12412
585.254	14176
585.267	14429
585.309	15245
585.340	16281
585.364	16953
585.412	17418
585.419	17563
585.473	20996
585.484	21594
585.528	25122
585.556	30106
585.583	40027
585.628	62423
585.637	70456
585.692	137534
585.700	149368
585.747	189002
585.772	162821
585.801	104457
585.845	39305
585.856	31457
585.910	18832
585.917	17601
585.965	14555
585.989	13802
586.019	13343
586.061	12393
586.074	12193
586.128	11822
586.133	11807
586.183	11616
586.205	11723
586.237	11700
586.277	11296
586.292	11297
586.346	11394
586.349	11393
586.401	11139
586.421	11263
586.455	11220
586.493	11557
586.509	12169
586.564	13915
586.565	14069
586.618	21464
586.637	20917
586.672	17462
586.709	14032
586.727	12775
586.781	12301
586.781	12301
586.835	10482
586.853	10155
586.889	9998
586.925	9502
586.944	9279
586.996	9535
586.998	9536
587.052	9203
587.068	9202
587.106	9815
587.140	9606
587.161	9284
587.212	9499
587.215	9526
587.269	9435
587.284	9546
587.323	9446
587.356	9096
587.377	9092
587.427	9417
587.431	9423
587.485	9506
587.499	9466
587.539	9566
587.571	9880
587.593	10208
587.643	10605
587.648	10620
587.702	11159
587.715	11180
587.755	11085
587.786	10967
587.810	10943
587.858	11058
587.864	11089
587.917	11666
587.930	11741
587.971	12563
588.001	13615
588.025	14041
588.073	14148
588.079	14225
588.133	14596
588.145	14927
588.187	16269
588.217	17278
588.241	18168
588.288	19486
588.295	19689
588.348	22168
588.360	22676
588.402	24505
588.431	26144
588.456	27655
588.503	30653
588.510	31184
588.564	37007
588.575	38287
588.617	43098
588.646	47294
588.671	52063
588.718	64075
588.725	66790
588.778	94885
588.789	103046
588.832	171609
588.861	228429
588.886	323274
588.932	535470
588.939	553174
588.993	636295
589.004	627193
589.047	355239
589.075	192180
589.100	134674
589.147	69132
589.154	66164
589.207	52854
589.218	50883
589.261	50562
589.290	51794
589.314	54551
589.361	63887
589.368	67431
589.421	103695
589.433	113652
589.475	211994
589.504	295782
589.528	386289
589.576	559278
589.582	542626
589.635	277580
589.647	225279
589.689	110004
589.718	48921
589.742	40281
589.790	28793
589.795	28229
589.849	24465
589.861	23985
589.902	23333
589.932	21730
589.955	19787
590.004	16333
590.009	16141
590.062	14408
590.075	14145
590.115	14219
590.146	14244
590.168	14000
590.218	13195
590.222	13141
590.275	12549
590.289	12413
590.328	12924
590.360	13238
590.381	13098
590.431	12933
590.435	12931
590.488	12547
590.503	12449
590.541	12768
590.574	13133
590.594	12820
590.645	11969
590.647	12003
590.700	12481
590.716	12697
590.753	12969
590.787	13228
590.806	13143
590.859	12816
590.859	12825
590.912	12320
590.930	12247
590.965	12525
591.001	12716
591.018	12851
591.071	13148
591.072	13135
591.124	12567
591.143	12320
591.177	12409
591.214	12486
591.230	12637
591.283	13233
591.285	13231
591.336	12545
591.356	12303
591.389	12868
591.427	13498
591.442	13339
591.495	12556
591.498	12485
591.547	12439
591.569	12409
591.600	12706
591.640	13134
591.653	13146
591.706	12959
591.711	12925
591.759	13760
591.782	14272
591.811	14625
591.853	14859
591.864	14799
591.917	14464
591.924	14394
591.969	13996
591.995	13745
592.022	13939
592.066	14234
592.075	14506
592.127	16112
592.137	16391
592.180	16454
592.208	16407
592.233	15919
592.279	14932
592.285	15023
592.338	15712
592.350	15840
592.390	15146
592.421	14609
592.443	15063
592.491	15990
592.495	15992
592.548	15685
592.562	15577
592.600	15161
592.633	14775
592.653	14920
592.704	15171
592.705	15269
592.775	15836
592.846	16322
592.916	16436
592.987	16823
593.058	16648
593.128	17137
593.199	16014
593.270	15885
593.341	16734
593.411	17226
593.482	17405
593.553	17873
593.623	17901
593.694	19178
593.764	19566
593.835	18546
593.906	19048
593.976	18698
594.047	19491
594.117	21172
594.188	21902
594.258	20690
594.329	20757
594.399	20730
594.470	21359
594.540	22483
594.611	22915
594.681	21645
594.751	22628
594.822	23515
594.892	24892
594.963	24728
595.033	25385
595.103	25535
595.174	26078
595.244	29065
595.314	32386
595.384	28571
595.455	28345
595.525	29592
595.595	29894
595.665	31058
595.736	29301
595.806	30973
595.876	30212
595.946	31778
596.016	31702
596.087	32656
596.157	32892
596.227	33856
596.297	35382
596.367	36898
596.437	39564
596.507	40706
596.577	42389
596.647	40335
596.717	41191
596.787	42084
596.857	42608
596.927	41769
596.997	43039
597.067	44016
597.137	46146
597.207	45391
597.277	45312
597.347	44193
597.417	42007
597.487	43661
597.557	43858
597.626	45470
597.696	46899
597.766	48070
597.836	46691
597.906	42370
597.975	41335
598.045	42676
598.115	44314
598.185	46855
598.254	52390
598.324	56047
598.394	55714
598.464	54254
598.533	54464
598.603	51902
598.672	50060
598.742	51956
598.812	53535
598.881	54667
598.951	55375
599.020	56169
599.090	57474
599.159	58691
599.229	56497
599.299	55636
599.368	58094
599.437	57033
599.507	55034
599.576	53813
599.646	55411
599.715	55406
599.785	54391
599.854	53709
599.924	53818
599.993	53746
600.062	55682
600.132	56214
600.201	60685
600.270	66210
600.340	70034
600.409	68473
600.478	70398
600.547	73008
600.617	65832
600.686	59752
600.755	57477
600.824	56990
600.894	57270
600.963	58220
601.032	57855
601.101	59395
601.170	58049
601.239	58850
601.308	59513
601.378	60736
601.447	61695
601.516	61725
601.585	64596
601.654	65068
601.723	66646
601.792	68340
601.861	72625
601.930	77350
601.999	76443
602.068	76754
602.137	75456
602.206	77074
602.275	77990
602.343	78056
602.412	79285
602.481	79829
602.550	80576
602.619	82313
602.688	82868
602.756	82363
602.825	84393
602.894	86627
602.963	85008
603.032	87152
603.100	86523
603.169	86807
603.238	88660
603.307	85254
603.375	86102
603.444	90040
603.513	82356
603.581	85779
603.650	90601
603.719	76739
603.787	73737
603.856	75866
603.924	77032
603.993	80207
604.061	81241
604.130	85050
604.198	86606
604.267	87709
604.335	89607
604.404	89727
604.472	92896
604.541	93291
604.609	96505
604.678	99521
604.746	101149
604.815	104897
604.883	99748
604.951	100002
605.020	101261
605.088	95321
605.156	91172
605.225	91951
605.293	90461
605.361	91955
605.429	91622
605.498	95022
605.566	93118
605.634	98488
605.702	98214
605.771	100966
605.839	103016
605.907	95281
605.975	97830
606.043	94430
606.111	92819
606.180	99437
606.248	91473
606.316	92508
606.384	96016
606.452	80633
606.520	70427
606.588	71253
606.656	72191
606.724	70728
606.792	67433
606.860	59289
606.928	56760
606.996	55605
607.064	53964
607.132	54368
607.200	57537
607.267	60186
607.335	59847
607.403	63327
607.471	60191
607.539	58482
607.607	58875
607.674	52033
607.742	53264
607.810	51551
607.878	52768
607.946	53062
608.013	55176
608.081	56765
608.149	56113
608.216	58043
608.284	60423
608.352	59998
608.419	58527
608.487	61032
608.555	56466
608.622	58670
608.690	61663
608.757	67282
608.825	67890
608.893	65890
608.960	62280
609.028	61101
609.095	62549
609.163	59428
609.230	52329
609.298	49752
609.365	51796
609.432	55910
609.500	60300
609.567	69701
609.635	78004
609.702	82277
609.769	78775
609.837	62263
609.904	54749
609.971	56019
610.039	65895
610.106	88515
610.173	170152
610.241	380168
610.308	229797
610.375	96367
610.442	63281
610.509	58477
610.577	56942
610.644	57162
610.711	58557
610.778	61685
610.845	62403
610.912	67425
610.980	70153
611.047	73427
611.114	69619
611.181	64827
611.248	63835
611.315	69259
611.382	71043
611.449	72334
611.516	74489
611.583	73654
611.650	72680
611.717	76321
611.784	77547
611.851	80885
611.918	87852
611.984	103228
612.051	155016
612.118	320693
612.185	752585
612.252	438809
612.319	123390
612.386	99858
612.452	89201
612.519	85386
612.586	85953
612.653	85536
612.719	87943
612.786	83154
612.853	77377
612.919	77389
612.986	79603
613.053	72787
613.120	67369
613.186	65586
613.253	68692
613.319	67137
613.386	67584
613.453	69215
613.519	69574
613.586	67709
613.652	69828
613.719	68019
613.785	69814
613.852	70355
613.918	69239
613.985	73096
614.051	77664
614.118	85425
614.184	80390
614.250	70177
614.317	71652
614.383	70542
614.449	70836
614.516	71254
614.582	72345
614.648	69501
614.715	69586
614.781	68748
614.847	68473
614.914	68161
614.980	66256
615.046	67263
615.112	69002
615.179	69387
615.245	70424
615.311	68605
615.377	70335
615.443	70704
615.509	72158
615.575	74584
615.642	74141
615.708	76821
615.774	81584
615.840	85916
615.906	92778
615.972	116286
616.038	177904
616.104	388351
616.170	915303
616.236	707751
616.302	183411
616.368	130325
616.434	97537
616.500	91520
616.565	98444
616.631	117317
616.697	100018
616.763	102987
616.829	148857
616.895	250724
616.961	233666
617.026	109701
617.092	79624
617.158	77885
617.224	74429
617.289	68885
617.355	67256
617.421	65672
617.487	67339
617.552	63673
617.618	62728
617.684	61085
617.749	64385
617.815	60956
617.880	59525
617.946	60403
618.012	61410
618.077	62044
618.143	60559
618.208	61721
618.274	65271
618.339	65038
618.405	54122
618.470	55724
618.536	55681
618.601	55679
618.667	52351
618.732	50451
618.798	51180
618.863	50359
618.928	49569
618.994	50765
619.059	50339
619.124	51036
619.190	50323
619.255	48948
619.320	50367
619.386	50346
619.451	48041
619.516	48953
619.581	50461
619.647	50279
619.712	49488
619.777	49915
619.842	49724
619.907	50449
619.972	50722
620.038	50819
620.103	49926
620.168	48456
620.233	51932
620.298	49956
620.363	51251
620.428	52637
620.493	53445
620.558	53621
620.623	54139
620.688	53909
620.753	53928
620.818	55577
620.883	54162
620.948	55132
621.013	54590
621.078	54496
621.143	53916
621.207	56542
621.272	53662
621.337	53653
621.402	54884
621.467	56117
621.532	56472
621.596	55350
621.661	52108
621.726	52912
621.791	52366
621.855	53229
621.920	52970
621.985	53470
622.049	55085
622.114	53122
622.179	56558
622.243	55750
622.308	57636
622.373	60356
622.437	58030
622.502	55620
622.566	55473
622.631	54090
622.695	55657
622.760	55279
622.824	55477
622.889	55131
622.953	54786
623.018	59348
623.082	58832
623.147	56796
623.211	56359
623.276	56087
623.340	52817
623.404	54036
623.469	52605
623.533	53676
623.597	52791
623.662	53221
623.726	49375
623.790	47798
623.854	46335
623.919	47750
623.983	45836
624.047	48108
624.111	47766
624.176	48696
624.240	48656
624.304	51108
624.368	48480
624.432	48107
624.496	48984
624.560	51690
624.625	49384
624.689	51261
624.753	53358
624.817	50881
624.881	47625
624.945	45439
625.009	43848
625.073	45190
625.137	44368
625.201	47265
625.265	46155
625.329	46379
625.393	44423
625.456	45995
625.520	46115
625.584	46516
625.648	49291
625.712	54104
625.776	66245
625.839	65695
625.903	44791
625.967	38466
626.031	46384
626.095	54601
626.158	41833
626.222	34625
626.286	33219
626.349	31165
626.413	29496
626.477	31007
626.540	30476
626.604	29993
626.668	29978
626.731	28051
626.795	28967
626.858	28964
626.922	27073
626.986	27915
627.049	27635
627.113	28935
627.176	28190
627.240	26736
627.303	27260
627.366	26033
627.430	26338
627.493	26654
627.557	26648
627.620	26793
627.684	27337
627.747	27838
627.810	23148
627.874	23918
627.937	21992
628.000	24993
628.064	22622
628.127	18821
628.190	21213
628.253	20478
628.317	18565
628.380	19200
628.443	18466
628.506	18128
628.569	17222
628.632	15635
628.696	17468
628.759	16255
628.822	15607
628.885	13878
628.948	16054
629.011	14871
629.074	15032
629.137	14298
629.200	13796
629.263	16059
629.326	13523
629.389	13315
629.452	14693
629.515	13575
629.578	13865
629.641	14404
629.704	12873
629.767	13721
629.830	13457
629.892	13483
629.955	11795
630.018	14955
630.081	11103
630.144	13653
630.207	11751
630.269	15124
630.332	12700
630.395	12126
630.458	11285
630.520	10142
630.583	12212
630.646	11703
630.708	10944
630.771	11041
630.834	12625
630.896	11948
630.959	11287
631.021	10657
631.084	11517
631.146	12786
631.209	13372
631.272	11684
631.334	11503
631.397	12054
631.459	10387
631.522	12296
631.584	11231
631.646	13339
631.709	13364
631.771	13211
631.834	12994
631.896	12730
631.958	11085
632.021	12282
632.083	9685
632.145	11389
632.208	10625
632.270	12226
632.332	9857
632.395	9836
632.457	11978
632.519	9629
632.581	12034
632.643	9491
632.706	11102
632.768	9772
632.830	11662
632.892	10585
632.954	9876
633.016	11390
633.078	10777
633.141	9918
633.203	10586
633.265	11006
633.327	10065
633.389	10140
633.451	11052
633.513	10898
633.575	11422
633.637	10557
633.698	10251
633.760	11467
633.822	11409
633.884	11576
633.946	11435
634.008	11559
634.070	12878
634.132	14080
634.193	13612
634.255	14695
634.317	14235
634.379	15916
634.441	12753
634.502	11492
634.564	11733
634.626	11555
634.687	10752
634.749	10606
634.811	9985
634.873	9229
634.934	9857
634.996	11219
635.057	8894
635.119	9383
635.181	10169
635.242	11075
635.304	8153
635.365	12752
635.427	9611
635.488	10413
635.550	9702
635.611	10735
635.673	8406
635.734	12214
635.796	10903
635.857	13597
635.918	11632
635.980	14332
636.041	12799
636.102	15649
636.164	16051
636.225	16909
636.286	11470
636.348	11600
636.409	10662
636.470	10172
636.531	10599
636.593	9845
636.654	9573
636.715	9521
636.776	9921
636.838	9766
636.899	9935
636.960	8244
637.021	8840
637.082	8202
637.143	9295
637.204	7485
637.265	8471
637.326	9631
637.387	9087
637.448	8069
637.509	9152
637.570	8748
637.631	10472
637.692	7569
637.753	7348
637.814	9492
637.875	9066
637.936	8987
637.997	7988
638.058	7894
638.119	9131
638.179	8525
638.240	7733
638.301	8945
638.362	7373
638.423	7069
638.483	9388
638.544	7123
638.605	8852
638.666	7472
638.726	8863
638.787	9262
638.848	7694
638.908	7267
638.969	8502
639.030	8065
639.090	6225
639.151	7168
639.211	7800
639.272	8285
639.332	8727
639.393	7998
639.453	6959
639.514	8295
639.574	7976
639.635	7336
639.695	7703
639.756	6196
639.816	7468
639.877	7768
639.937	7862
639.997	8660
640.058	5855
640.118	6510
640.178	7577
640.239	6494
640.299	7189
640.359	7275
640.420	7817
640.480	8668
640.540	8848
640.600	9434
640.661	7846
640.721	7284
640.781	9269
640.841	5256
640.901	8855
640.961	8411
641.021	7621
641.082	6946
641.142	6657
641.202	7735
641.262	5055
641.322	7678
641.382	6070
641.442	7756
641.502	6286
641.562	7695
641.622	7012
641.682	6934
641.742	8250
641.802	8151
641.861	7868
641.921	6703
641.981	7061
642.041	5776
642.101	7006
642.161	5156
642.221	6194
642.280	6490
642.340	6444
642.400	5607
642.460	8097
642.519	6746
642.579	6250
642.639	8075
642.698	4776
642.758	8733
642.818	7241
642.877	6045
642.937	6539
642.997	6950
643.056	7038
643.116	5343
643.175	8001
643.235	6433
643.294	7807
643.354	7704
643.414	9122
643.473	10647
643.532	12243
643.592	17806
643.651	28013
643.711	52025
643.770	107864
643.830	269852
643.889	503576
643.948	102092
644.008	20641
644.067	12819
644.126	10261
644.186	8887
644.245	9203
644.304	6467
644.363	9602
644.423	5720
644.482	7750
644.541	8225
644.600	5849
644.659	9195
644.719	10648
644.778	16894
644.837	30728
644.896	64774
644.955	138631
645.014	38434
645.073	10667
645.132	8033
645.191	7486
645.250	6702
645.309	9542
645.368	7737
645.427	10932
645.486	17330
645.545	27503
645.604	8834
645.663	7376
645.722	7145
645.781	7742
645.840	8533
645.898	10968
645.957	17189
646.016	25660
646.075	50147
646.134	99042
646.192	282034
646.251	353332
646.310	45582
646.369	14182
646.427	12272
646.486	8797
646.545	7889
646.603	7312
646.662	7209
646.721	7099
646.779	5750
646.838	6841
646.896	9004
646.955	11119
647.014	18536
647.072	34131
647.131	91529
647.189	35074
647.248	6517
647.306	5970
647.365	6207
647.423	4362
647.481	6070
647.540	4262
647.598	4726
647.657	4693
647.715	5188
647.773	4292
647.832	5427
647.890	3261
647.948	4316
648.007	4837
648.065	2754
648.123	4271
648.181	6349
648.240	5652
648.298	4333
648.356	4006
648.414	4758
648.472	4873
648.531	4550
648.589	3432
648.647	3261
648.705	4422
648.763	3664
648.821	4280
648.879	4130
648.937	4932
648.995	6220
649.053	7635
649.111	12446
649.169	21630
649.227	39846
649.285	86957
649.343	237349
649.401	89774
649.459	13084
649.516	9075
649.574	5988
649.632	12666
649.690	12592
649.748	10029
649.806	14138
649.863	26799
649.921	64518
649.979	33933
650.037	5904
650.094	2534
650.152	4236
650.210	2147
650.268	4776
650.325	3634
650.383	3290
650.440	2365
650.498	2833
650.556	2440
650.613	2505
650.671	3361
650.728	2677
650.786	3379
650.843	3940
650.901	1475
650.958	2821
651.016	2276
651.073	2748
651.131	1748
651.188	1975
651.246	2412
651.303	1955
651.360	1993
651.418	2477
651.475	2006
651.532	2036
651.590	2731
651.647	1695
651.704	2172
651.762	2313
651.819	1745
651.876	1946
651.933	2209
651.990	2213
652.048	859
652.105	1905
652.162	2703
652.219	1280
652.276	2689
652.333	2123
652.390	1884
652.448	2063
652.505	1683
652.562	1893
652.619	1713
652.676	4281
652.733	3684
652.790	2211
652.847	841
652.904	2481
652.961	391
653.017	372
653.074	1553
653.131	1350
653.188	1341
653.245	1992
653.302	1554
653.359	1956
653.415	1473
653.472	1055
653.529	2299
653.586	1290
653.642	1481
653.699	2140
653.756	553
653.813	1385
653.869	1683
653.926	944
653.983	742
654.039	1822
654.096	1365
654.152	2319
654.209	659
654.266	1069
654.322	627
654.379	2165
654.435	1884
654.492	1595
654.548	1791
654.605	2225
654.661	1898
654.717	1997
654.774	2332
654.830	1594
654.887	865
654.943	1179
655.000	1210
655.056	2744
655.112	1418
655.168	1839
655.225	390
655.281	2235
655.337	2054
655.394	2343
655.450	1734
655.506	2256
655.562	2195
655.618	3420
655.675	1170
655.731	2276
655.787	469
655.843	3019
655.899	1450
655.955	2070
656.011	1954
656.067	679
656.123	2257
656.179	2109
656.235	3316
656.291	479
656.347	2538
656.403	2001
656.459	1671
656.515	1947
656.571	1768
656.627	1445
656.683	1176
656.739	1724
656.795	1715
656.850	1134
656.906	2127
656.962	1835
657.018	1060
657.074	2059
657.129	1789
657.185	4335
657.241	7832
657.297	3881
657.352	2348
657.408	287
657.464	2028
657.519	1584
657.575	298
657.630	1375
657.686	737
657.742	-263
657.797	370
657.853	1034
657.908	1830
657.964	966
658.019	1065
658.075	1718
658.130	1122
658.186	-172
658.241	2353
658.297	698
658.352	1441
658.407	1671
658.463	456
658.518	1274
658.573	1032
658.629	535
658.684	288
658.739	1912
658.795	1040
658.850	1509
658.905	634
658.960	879
659.016	898
659.071	721
659.126	820
659.181	1922
659.236	2296
659.291	1070
659.346	1041
659.401	893
659.457	2532
659.512	1452
659.567	2680
659.622	288
659.677	901
659.732	-187
659.787	586
659.842	709
659.897	1083
659.952	1296
660.007	436
660.061	1307
660.116	133
660.171	733
660.226	1442
660.281	1713
660.336	318
660.391	1410
660.445	432
660.500	1824
660.555	1222
660.610	1197
660.664	1143
660.719	349
660.774	1282
660.828	688
660.883	1060
660.938	1461
660.992	-351
661.047	1164
661.101	691
661.156	362
661.211	724
661.265	1144
661.320	-262
661.374	1759
661.429	1036
661.483	2050
661.538	196
661.592	564
661.647	1000
661.701	2254
661.755	1133
661.810	1101
661.864	584
661.919	-21
661.973	902
662.027	835
662.081	-160
662.136	887
662.190	812
662.244	1554
662.299	727
662.353	733
662.407	333
662.461	901
662.515	1253
662.569	961
662.624	1065
662.678	350
662.732	982
662.786	1096
662.840	257
662.894	1252
662.948	1228
663.002	1395
663.056	331
663.110	334
663.164	64
663.218	1089
663.272	1182
663.326	871
663.380	436
663.434	1294
663.488	165
663.542	513
663.595	192
663.649	1594
663.703	1559
663.757	926
663.811	301
663.864	829
663.918	712
663.972	1403
664.026	424
664.079	1100
664.133	1317
664.187	1492
664.240	1288
664.294	834
664.348	1500
664.401	1164
664.455	989
664.508	1267
664.562	708
664.615	108
664.669	-35
664.722	341
664.776	319
664.829	957
664.883	587
664.936	342
664.990	942
665.043	1080
665.097	977
665.150	1288
665.203	396
665.257	814
665.310	961
665.363	1516
665.417	1435
665.470	1213
665.523	1239
665.576	1080
665.630	56
665.683	1107
665.736	1133
665.789	1281
665.842	459
665.895	1217
665.949	358
666.002	1530
666.055	491
666.108	1933
666.161	334
666.214	1051
666.267	1346
666.320	1012
666.373	631
666.426	2073
666.479	622
666.532	944
666.585	670
666.638	1684
666.691	282
666.744	925
666.796	446
666.849	408
666.902	1584
666.955	1189
667.008	867
667.060	516
667.113	282
667.166	373
667.219	905
667.271	159
667.324	343
667.377	1190
667.430	1716
667.482	2150
667.535	541
667.587	1181
667.640	763
667.693	929
667.745	820
667.798	1270
667.850	395
667.903	497
667.955	453
668.008	1486
668.060	544
668.113	1081
668.165	588
668.218	1716
668.270	2126
668.322	1626
668.375	524
668.427	1623
668.479	855
668.532	1513
668.584	946
668.636	599
668.689	722
668.741	501
668.793	940
668.845	476
668.898	1196
668.950	1193
669.002	359
669.054	601
669.106	30
669.158	1329
669.211	634
669.263	648
669.315	2575
669.367	1906
669.419	1126
669.471	2192
669.523	1987
669.575	2419
669.627	1972
669.679	1261
669.731	1246
669.783	1778
669.835	1896
669.886	1139
669.938	1802
669.990	2028
670.042	782
670.094	1559
670.146	1716
670.197	2491
670.249	3116
670.301	3582
670.353	5440
670.404	7752
670.456	12045
670.508	20350
670.560	34825
670.611	63627
670.663	114344
670.715	282981
670.766	378169
670.818	105182
670.869	20386
670.921	10894
670.972	7718
671.024	4641
671.075	4633
671.127	3450
671.178	2634
671.230	3395
671.281	2443
671.333	2555
671.384	1808
671.436	3974
671.487	3828
671.538	4594
671.590	7922
671.641	12058
671.692	20724
671.744	36390
671.795	23317
671.846	7998
671.897	4471
671.949	3398
672.000	1828
672.051	1745
672.102	2273
672.153	1509
672.204	880
672.256	888
672.307	1056
672.358	622
672.409	1036
672.460	1415
672.511	552
672.562	1035
672.613	-56
672.664	732
672.715	1445
672.766	512
672.817	491
672.868	916
672.919	1034
672.970	748
673.021	630
673.071	545
673.122	91
673.173	918
673.224	666
673.275	497
673.326	220
673.376	735
673.427	-158
673.478	894
673.528	713
673.579	-171
673.630	541
673.680	2289
673.731	438
673.782	1000
673.832	555
673.883	684
673.934	870
673.984	381
674.035	893
674.085	599
674.136	801
674.186	745
674.237	560
674.287	1308
674.338	1480
674.388	206
674.438	221
674.489	805
674.539	884
674.589	1330
674.640	597
674.690	1191
674.740	492
674.791	898
674.841	798
674.891	1163
674.942	671
674.992	504
675.042	187
675.092	484
675.142	130
675.193	567
675.243	-123
675.293	1230
675.343	116
675.393	-205
675.443	594
675.493	968
675.543	578
675.593	701
675.643	647
675.693	687
675.743	595
675.793	863
675.843	769
675.893	621
675.943	532
675.993	629
676.043	116
676.093	844
676.142	-497
676.192	641
676.242	103
676.292	-654
676.341	350
676.391	484
676.441	-14
676.491	404
676.540	321
676.590	310
676.640	-228
676.689	127
676.739	-70
676.789	341
676.838	-177
676.888	522
676.937	97
676.987	662
677.037	302
677.086	-60
677.136	278
677.185	1036
677.235	-153
677.284	283
677.333	190
677.383	-49
677.432	-1200
677.482	431
677.531	29
677.580	268
677.630	48
677.679	574
677.728	229
677.778	-70
677.827	335
677.876	1669
677.925	-647
677.975	66
678.024	117
678.073	-251
678.122	79
678.171	87
678.220	-723
678.269	674
678.319	32
678.368	73
678.417	169
678.466	466
678.515	746
678.564	3
678.613	-859
678.662	-190
678.711	-70
678.760	655
678.809	-670
678.857	-244
678.906	298
678.955	342
679.004	-130
679.053	163
679.102	-521
679.151	1006
679.199	-36
679.248	592
679.297	151
679.346	665
679.394	-86
679.443	152
679.492	984
679.540	570
679.589	-22
679.638	150
679.686	158
679.735	98
679.784	824
679.832	818
679.881	-79
679.929	208
679.978	736
680.026	460
680.075	117
680.123	-399
680.172	-586
680.220	-534
680.268	-86
680.317	53
680.365	-184
680.414	207
680.462	-145
680.510	559
680.559	-196
680.607	-762
680.655	-355
680.703	-34
680.752	-313
680.800	-152
680.848	247
680.896	-720
680.945	-674
680.993	108
681.041	-175
681.089	125
681.137	-396
681.185	213
681.233	-483
681.258	16
681.281	466
681.329	-316
681.377	357
681.380	396
681.425	712
681.473	524
681.502	509
681.521	457
681.569	262
681.617	242
681.624	219
681.665	-100
681.713	1067
681.745	448
681.761	127
681.809	491
681.857	546
681.867	436
681.904	-33
681.952	133
681.989	168
682.000	146
682.048	137
682.096	-126
682.111	168
682.143	721
682.191	528
682.233	1034
682.239	1089
682.286	627
682.334	808
682.354	804
682.382	774
682.430	1075
682.476	753
682.477	725
682.525	1117
682.572	830
682.598	1154
682.620	1409
682.667	356
682.715	1510
682.720	1470
682.763	946
682.810	1189
682.841	1507
682.857	1637
682.905	1051
682.952	1588
682.963	1583
683.000	1521
683.047	1047
683.085	2052
683.095	2303
683.142	1774
683.190	1099
683.206	1173
683.237	1204
683.284	1727
683.328	1729
683.332	1717
683.379	1508
683.426	1346
683.449	1321
683.473	1316
683.521	1444
683.568	2230
683.571	2224
683.615	1741
683.662	2075
683.693	1718
683.709	1550
683.757	1935
683.804	2132
683.814	1977
683.851	1285
683.898	2156
683.936	2391
683.945	2451
683.992	2699
684.039	2426
684.057	2313
684.086	2083
684.133	2574
684.179	2199
684.180	2173
684.227	3136
684.274	2225
684.300	2327
684.321	2416
684.368	2135
684.415	2736
684.422	2696
684.462	2339
684.509	2189
684.543	2371
684.556	2438
684.603	3153
684.649	2773
684.665	2796
684.696	2841
684.743	3323
684.786	3417
684.790	3406
684.837	3087
684.883	3902
684.908	3758
684.930	3596
684.977	3239
685.023	2811
685.029	2868
685.070	3183
685.117	3152
685.150	3207
685.164	3258
685.210	3714
685.257	3847
685.272	3761
685.303	3449
685.350	3745
685.393	3427
685.396	3398
685.443	3272
685.490	4228
685.514	3676
685.536	3156
685.583	3479
685.629	3822
685.636	3792
685.675	3624
685.722	4009
685.757	3322
685.768	3070
685.815	4229
685.861	3390
685.878	3530
685.908	3899
685.954	3812
686.000	4983
686.000	4995
686.047	4514
686.093	4890
686.121	4852
686.139	4784
686.185	4858
686.232	4565
686.242	4654
686.278	4816
686.324	4777
686.363	4434
686.370	4403
686.416	4651
686.463	4814
686.484	4698
686.509	4513
686.555	4349
686.601	4442
686.606	4509
686.647	4968
686.693	4533
686.727	4456
686.739	4530
686.785	3633
686.831	4892
686.848	5101
686.877	5270
686.923	4717
686.969	4620
686.969	4619
687.015	4526
687.061	4722
687.090	4949
687.107	5105
687.153	5110
687.199	5169
687.211	5010
687.245	4656
687.291	5162
687.332	5064
687.336	5048
687.382	5762
687.428	5127
687.453	5600
687.474	5867
687.520	5333
687.565	5287
687.574	5283
687.611	5520
687.657	5092
687.695	5241
687.702	5272
687.748	5889
687.794	6050
687.816	5905
687.839	5570
687.885	5537
687.931	4609
687.937	4715
687.976	5804
688.022	5535
688.058	5893
688.067	5914
688.113	5925
688.158	6068
688.179	6060
688.204	6197
688.249	5979
688.295	6235
688.300	6246
688.340	6091
688.386	6450
688.421	5822
688.431	5689
688.477	6607
688.522	5973
688.542	6127
688.567	6365
688.613	6499
688.658	6678
688.663	6655
688.703	6376
688.749	6343
688.784	6600
688.794	6703
688.839	6605
688.884	6475
688.905	6744
688.930	7054
688.975	6411
689.020	6749
689.026	6712
689.065	6448
689.110	6440
689.146	6291
689.155	6310
689.201	6749
689.246	6303
689.267	6683
689.291	7050
689.336	7079
689.381	7106
689.388	7018
689.426	6609
689.471	7170
689.509	7000
689.516	6985
689.561	7769
689.606	7265
689.630	7217
689.651	7112
689.696	7209
689.741	7177
689.750	7139
689.785	7227
689.830	7322
689.871	7477
689.875	7481
689.920	7297
689.965	6835
689.992	6837
690.010	7008
690.054	7645
690.099	7652
690.112	7761
690.144	8077
690.189	8120
690.233	7792
690.233	7803
690.278	8793
690.323	8724
690.354	8978
690.367	9185
690.412	9343
690.457	9692
690.474	9744
690.501	9867
690.546	10737
690.590	10995
690.595	11029
690.635	12308
690.680	13587
690.716	14798
690.724	15402
690.769	18426
690.813	21816
690.836	23095
690.857	27004
690.902	36194
690.946	45541
690.957	47802
690.991	67464
691.035	95323
691.077	120107
691.080	119999
691.124	109791
691.168	99631
691.198	94098
691.213	86818
691.257	65186
691.301	42875
691.318	34307
691.346	30666
691.390	24350
691.434	18898
691.439	18194
691.478	16724
691.522	15190
691.559	13581
691.567	13438
691.611	13163
691.655	12363
691.680	11804
691.699	11532
691.743	11151
691.787	10508
691.800	10379
691.831	10494
691.875	10410
691.919	10430
691.921	10408
691.964	10134
692.008	10305
692.041	9808
692.052	9786
692.096	9721
692.139	10250
692.162	10127
692.183	9906
692.227	9821
692.271	9827
692.282	9854
692.315	10057
692.359	9709
692.402	9504
692.403	9525
692.447	9356
692.490	9911
692.523	9990
692.534	10063
692.578	10189
692.622	9946
692.643	10132
692.666	10294
692.709	9940
692.753	9985
692.763	10002
692.797	10400
692.840	10516
692.884	10513
692.884	10538
692.928	11121
692.971	11414
693.004	11745
693.015	11881
693.059	11838
693.102	12477
693.124	12594
693.146	12960
693.189	13458
693.233	14215
693.245	14352
693.276	15344
693.320	17040
693.363	18143
693.365	18164
693.407	21522
693.450	24719
693.485	27285
693.493	28753
693.537	36213
693.580	43778
693.605	48039
693.624	57069
693.667	78290
693.710	99970
693.725	107695
693.753	145469
693.797	205169
693.840	264830
693.845	271030
693.883	252670
693.926	230816
693.966	212534
693.970	208156
694.013	158199
694.056	108203
694.086	73768
694.099	69493
694.142	55369
694.185	41084
694.206	34370
694.229	32352
694.272	28203
694.315	24160
694.326	23047
694.358	21644
694.401	19481
694.444	17425
694.446	17297
694.487	16738
694.530	15677
694.566	14987
694.573	14947
694.616	14148
694.659	13750
694.686	13349
694.702	13263
694.745	12835
694.787	12385
694.806	12202
694.830	11964
694.873	11399
694.916	11122
694.926	10951
694.959	10986
695.002	11265
695.044	11142
695.046	11132
695.087	11347
695.130	11013
695.166	10893
695.172	10937
695.215	10913
695.258	11019
695.286	10928
695.301	10971
695.343	11394
695.386	11299
695.406	11492
695.428	11632
695.471	11475
695.514	11398
695.526	11349
695.556	11605
695.599	12137
695.641	12089
695.646	12125
695.684	11973
695.726	11321
695.766	10673
695.769	10702
695.811	10983
695.854	11092
695.886	11136
695.896	11183
695.938	11285
695.981	11299
696.005	11298
696.023	11536
696.065	12135
696.108	12696
696.125	12850
696.150	12624
696.192	12360
696.235	11944
696.245	11820
696.277	12203
696.319	12625
696.361	13152
696.365	13155
696.404	13613
696.446	14097
696.485	14414
696.488	14428
696.530	14246
696.572	14039
696.604	13758
696.614	13633
696.656	12962
696.698	12437
696.724	11902
696.740	11816
696.783	11797
696.825	11641
696.844	11554
696.867	11565
696.909	11354
696.951	11426
696.964	11367
696.992	11474
697.034	11583
697.076	11683
697.083	11673
697.118	11905
697.160	12123
697.202	12321
697.203	12290
697.244	11930
697.286	11700
697.323	11311
697.327	11342
697.369	11360
697.411	11415
697.442	11415
697.453	11435
697.494	11300
697.536	11214
697.562	11142
697.578	11258
697.620	11477
697.661	11704
697.682	11790
697.703	11931
697.744	12125
697.786	12363
697.801	12371
697.828	12389
697.869	12372
697.911	12448
697.921	12430
697.952	12253
697.994	11915
698.035	11578
698.040	11508
698.077	11629
698.118	11744
698.160	11790
698.160	11756
698.201	12090
698.243	12342
698.279	12559
698.284	12609
698.325	12701
698.367	12868
698.399	12908
698.408	12913
698.449	12775
698.491	12644
698.518	12537
698.532	12677
698.573	12957
698.614	13240
698.638	13371
698.656	13357
698.697	13239
698.738	13104
698.757	13014
698.779	13134
698.820	13265
698.862	13421
698.877	13443
698.903	13670
698.944	13954
698.985	14246
698.996	14290
699.026	13874
699.067	13240
699.116	12451
699.235	13355
699.354	12380
699.474	12764
699.593	13380
699.713	12584
699.832	12165
699.951	13459
700.070	12631
700.190	11815
700.309	12160
700.428	12853
700.547	11902
700.667	12287
700.786	12304
700.905	11724
701.024	12135
701.143	11836
701.262	11154
701.381	11260
701.500	11786
701.619	11085
701.738	11635
701.857	11613
701.976	10049
702.095	11146
702.214	11909
702.333	12041
702.452	11279
702.571	10662
702.690	11569
702.809	10559
702.928	11787
703.047	10237
703.165	10631
703.284	10656
703.403	10135
703.522	11409
703.640	10118
703.759	11079
703.878	12004
703.997	10592
704.115	10820
704.234	9638
704.353	10053
704.471	9500
704.590	9880
704.708	10204
704.827	9880
704.946	9629
705.064	9653
705.183	10196
705.301	11144
705.420	14279
705.538	13303
705.656	11683
705.775	12284
705.893	18382
706.012	20348
706.130	12517
706.249	12348
706.367	11247
706.485	12227
706.604	11083
706.722	11611
706.840	11967
706.958	13647
707.077	11865
707.195	11524
707.313	12150
707.431	10900
707.549	10764
707.668	10485
707.786	11379
707.904	9997
708.022	11219
708.140	10027
708.258	10552
708.376	10979
708.494	10234
708.612	11611
708.730	14476
708.848	14518
708.966	11680
709.084	12106
709.202	12298
709.320	13098
709.438	11813
709.556	11552
709.674	12237
709.791	12479
709.909	11842
710.027	11855
710.145	12087
710.263	11875
710.380	12066
710.498	11063
710.616	10793
710.733	10596
710.851	10512
710.969	12014
711.086	10628
711.204	11525
711.322	11292
711.439	10832
711.557	10724
711.674	10676
711.792	10849
711.909	11178
712.027	11272
712.144	9936
712.262	10928
712.379	12146
712.497	14717
712.614	14630
712.732	12443
712.849	13381
712.966	11758
713.084	13854
713.201	12289
713.318	13156
713.436	13026
713.553	14379
713.670	13489
713.787	14187
713.905	13509
714.022	13440
714.139	12896
714.256	15480
714.373	19502
714.490	31394
714.608	83383
714.725	330227
714.842	272259
714.959	26684
715.076	16156
715.193	14252
715.310	13246
715.427	12556
715.544	11557
715.661	11997
715.778	10899
715.895	12882
716.011	11923
716.128	11096
716.245	11784
716.362	11603
716.479	10241
716.596	11147
716.713	10966
716.829	9989
716.946	10667
717.063	10544
717.180	10636
717.296	10233
717.413	9798
717.530	9807
717.646	9840
717.763	10233
717.880	9137
717.996	9296
718.113	8630
718.229	9031
718.346	8796
718.462	9411
718.579	9827
718.695	9357
718.812	10953
718.928	10902
719.045	9446
719.161	8989
719.277	9100
719.394	9384
719.510	9967
719.626	10246
719.743	12820
719.859	15550
719.975	27311
720.092	101275
720.208	195702
720.324	23197
720.440	11977
720.557	9790
720.673	11416
720.789	13528
720.905	22763
721.021	11949
721.137	9217
721.253	8713
721.369	9825
721.486	9779
721.602	10998
721.718	8732
721.834	7663
721.950	8844
722.066	7697
722.181	7984
722.297	8819
722.413	8053
722.529	8156
722.645	8565
722.761	6805
722.877	7638
722.993	7551
723.108	8952
723.224	8156
723.340	8473
723.456	7328
723.571	8305
723.687	6972
723.803	8374
723.918	7213
724.034	8016
724.150	6844
724.265	8145
724.381	11279
724.497	11550
724.612	6716
724.728	7239
724.843	7368
724.959	7418
725.074	10555
725.190	11240
725.305	7725
725.421	7170
725.536	7261
725.651	6983
725.767	7309
725.882	7190
725.997	6681
726.113	6307
726.228	6822
726.343	6538
726.459	6593
726.574	6398
726.689	6485
726.804	6398
726.920	5886
727.035	7304
727.150	7014
727.265	6234
727.380	6997
727.495	6998
727.610	5727
727.725	6530
727.841	7360
727.956	11073
728.071	8796
728.186	6626
728.301	5694
728.416	6831
728.531	6565
728.645	5418
728.760	6695
728.875	6157
728.990	5569
729.105	6692
729.220	5674
729.335	6099
729.449	6477
729.564	5535
729.679	5359
729.794	6156
729.908	6210
730.023	6628
730.138	6194
730.253	5419
730.367	6543
730.482	5624
730.596	5221
730.711	5880
730.826	6336
730.940	6389
731.055	5780
731.169	5858
731.284	6261
731.398	5430
731.513	6560
731.627	6353
731.742	6842
731.856	8316
731.970	7408
732.085	8713
732.199	11527
732.313	17865
732.428	43770
732.542	114649
732.656	56175
732.771	14685
732.885	9646
732.999	8654
733.113	8613
733.227	8145
733.342	7601
733.456	7728
733.570	6915
733.684	7106
733.798	6673
733.912	6430
734.026	6901
734.140	6100
734.254	7665
734.368	8464
734.482	9392
734.596	7179
734.710	6970
734.824	7125
734.938	5798
735.052	6554
735.166	6737
735.280	6859
735.393	6738
735.507	7105
735.621	7059
735.735	8167
735.849	6900
735.962	7115
736.076	6963
736.190	6413
736.303	7174
736.417	8197
736.531	6176
736.644	6445
736.758	5802
736.872	6285
736.985	6285
737.099	6078
737.212	5315
737.326	6961
737.439	6438
737.553	5704
737.666	5951
737.780	5599
737.893	6021
738.007	5650
738.120	5005
738.233	6045
738.347	6038
738.460	5658
738.573	6595
738.687	5845
738.800	5552
738.913	6248
739.026	6162
739.140	6385
739.253	5864
739.366	6255
739.479	5383
739.592	5132
739.705	5667
739.818	6372
739.932	5235
740.045	5823
740.158	5671
740.271	6055
740.384	5084
740.497	5101
740.610	5621
740.723	6756
740.836	5861
740.949	6071
741.062	6371
741.174	5751
741.287	5231
741.400	5133
741.513	5420
741.626	6807
741.739	5779
741.851	5929
741.964	5353
742.077	5508
742.189	5447
742.302	6833
742.415	6150
742.527	5760
742.640	5886
742.753	5358
742.865	5692
742.978	5220
743.090	4675
743.203	5518
743.316	5941
743.428	5030
743.541	5052
743.653	5700
743.766	5305
743.878	5530
743.990	5652
744.103	6522
744.215	5257
744.327	5445
744.440	5715
744.552	6995
744.664	5475
744.777	5138
744.889	5495
745.001	6091
745.113	5230
745.226	5762
745.338	6553
745.450	5042
745.562	5324
745.674	5432
745.786	4962
745.898	5385
746.010	5149
746.122	5181
746.234	5662
746.347	5390
746.459	5679
746.570	5647
746.682	6680
746.794	7663
746.906	4994
747.018	5442
747.130	6127
747.242	5475
747.354	5065
747.466	6126
747.577	5205
747.689	4885
747.801	5429
747.913	5288
748.024	5999
748.136	5417
748.248	5249
748.359	5351
748.471	5746
748.583	6093
748.694	6620
748.806	7465
748.918	5925
749.029	6015
749.141	5927
749.252	6794
749.364	5618
749.475	6266
749.587	5721
749.698	6017
749.809	5936
749.921	5147
750.032	6413
750.144	5232
750.255	5520
750.366	5921
750.478	5759
750.589	6182
750.700	4898
750.811	6054
750.923	6206
751.034	5584
751.145	7048
751.256	5329
751.367	5633
751.479	6709
751.590	6089
751.701	6109
751.812	5882
751.923	5609
752.034	6294
752.145	6207
752.256	6715
752.367	6374
752.478	6243
752.589	6186
752.700	5698
752.811	7146
752.922	5748
753.032	6526
753.143	6604
753.254	5539
753.365	7755
753.476	6710
753.586	5937
753.697	7259
753.808	6516
753.919	6165
754.029	5835
754.140	6106
754.251	6838
754.361	6582
754.472	7146
754.582	6763
754.693	6497
754.804	7328
754.914	6283
755.025	6323
755.135	6965
755.246	7927
755.356	7391
755.466	8780
755.577	7929
755.687	7765
755.798	8186
755.908	7506
756.018	7757
756.129	8272
756.239	7891
756.349	8482
756.460	7921
756.570	7744
756.680	7896
756.790	7903
756.900	8951
757.011	8757
757.121	8414
757.231	8946
757.341	9361
757.451	9220
757.561	8020
757.671	8680
757.781	8757
757.891	9865
758.001	9577
758.111	9812
758.221	10013
758.331	10167
758.441	10225
758.551	10812
758.661	10676
758.771	11271
758.880	11352
758.990	11151
759.100	10593
759.210	11628
759.320	11574
759.429	12295
759.539	12884
759.649	13493
759.758	12733
759.868	14376
759.978	14131
760.087	14187
760.197	15038
760.307	14623
760.416	14224
760.526	14515
760.635	14265
760.745	15822
760.854	16016
760.964	17513
761.073	17576
761.182	18078
761.292	18233
761.401	17547
761.511	17807
761.620	19390
761.729	19410
761.839	19914
761.948	20181
762.057	21557
762.166	21795
762.276	20270
762.385	24241
762.494	25314
762.603	25489
762.712	25554
762.822	27206
762.931	28901
763.040	29649
763.149	30510
763.258	31462
763.367	34208
763.476	35977
763.585	37780
763.694	41055
763.803	43035
763.912	44368
764.021	47673
764.130	51594
764.238	55619
764.347	59482
764.456	63133
764.565	68758
764.674	77701
764.783	83475
764.891	91641
765.000	104294
765.109	116243
765.217	131957
765.326	152618
765.435	179092
765.543	212162
765.652	253030
765.761	309385
765.869	382152
765.978	472212
766.086	575928
766.195	670038
766.303	688709
766.412	516806
766.520	510072
766.629	622133
766.737	627314
766.846	546863
766.954	444002
767.062	358461
767.171	287825
767.279	234213
767.387	192170
767.496	164262
767.604	141991
767.712	123950
767.820	111216
767.928	101079
768.037	93363
768.145	89345
768.253	84797
768.361	81916
768.469	83088
768.577	83320
768.685	88948
768.793	93682
768.901	104013
769.009	123240
769.117	143831
769.225	179659
769.333	237066
769.441	321343
769.549	448493
769.657	602101
769.765	645388
769.873	481053
769.981	550115
770.088	544602
770.196	429375
770.304	324864
770.412	249486
770.519	196851
770.627	162163
770.735	132795
770.842	113746
770.950	97947
771.058	85029
771.165	77532
771.273	69428
771.380	64134
771.488	57538
771.595	52950
771.703	48103
771.810	46004
771.918	41323
772.025	39797
772.133	36678
772.240	35702
772.348	34719
772.455	31896
772.562	29813
772.670	29251
772.777	27435
772.884	27544
772.991	25596
773.099	25017
773.206	22756
773.313	22868
773.420	22247
773.528	20722
773.635	20868
773.742	18985
773.849	19221
773.956	18456
774.063	18160
774.170	17374
774.277	16752
774.384	16240
774.491	14891
774.598	15805
774.705	14743
774.812	15308
774.919	14452
775.026	15122
775.133	14370
775.239	14051
775.346	13566
775.453	12868
775.560	13175
775.667	11580
775.773	12381
775.880	12470
775.987	11297
776.093	11760
776.200	11144
776.307	10756
776.413	11210
776.520	10071
776.627	10737
776.733	10900
776.840	9292
776.946	11875
777.053	11356
777.159	11559
777.266	9950
777.372	12429
777.478	10357
777.585	10619
777.691	8885
777.798	9080
777.904	8791
778.010	8762
778.117	8486
778.223	8391
778.329	7896
778.435	7697
778.542	8813
778.648	7215
778.754	7803
778.860	8027
778.966	6778
779.072	7770
779.178	7572
779.284	6594
779.391	7609
779.497	7323
779.603	10318
779.708	11335
779.815	23977
779.920	82323
780.026	138211
780.132	23289
780.238	8599
780.344	8327
780.450	7141
780.556	7276
780.661	5761
780.767	6565
780.873	5269
780.979	5579
781.085	5833
781.190	5398
781.296	5646
781.402	5921
781.507	4990
781.613	5504
781.719	4862
781.824	4921
781.930	5405
782.035	5460
782.141	4755
782.246	3843
782.352	4601
782.457	4322
782.563	4823
782.668	3834
782.773	3823
782.879	3911
782.984	5553
783.090	5302
783.195	4440
783.300	4450
783.405	4235
783.511	3715
783.616	4730
783.721	4806
783.826	3973
783.932	4696
784.037	4656
784.142	4349
784.247	3788
784.352	3776
784.457	4025
784.562	3708
784.667	4082
784.772	3923
784.877	3755
784.982	4427
785.087	3602
785.192	3926
785.297	3328
785.402	3721
785.507	3666
785.611	4055
785.716	3684
785.821	3853
785.926	2931
786.031	2973
786.135	3789
786.240	3076
786.345	2469
786.450	3620
786.554	3509
786.659	2716
786.763	2951
786.868	3620
786.973	3847
787.077	3772
787.182	3586
787.286	2795
787.391	2982
787.495	2149
787.600	3210
787.704	3165
787.809	3503
787.913	2735
788.017	3540
788.122	4125
788.226	3175
788.330	2199
788.435	2013
788.539	2339
788.643	2909
788.747	2629
788.852	2484
788.956	2889
789.060	2990
789.164	3103
789.268	1804
789.372	3319
789.476	2641
789.580	2194
789.684	1743
789.788	2997
789.892	1810
789.996	2749
790.100	1847
790.204	2087
790.308	2946
790.412	2376
790.516	2663
790.620	2361
790.724	2143
790.828	2338
790.931	1247
791.035	3322
791.139	2238
791.242	1018
791.346	3286
791.450	2147
791.554	2178
791.657	1035
791.761	2879
791.864	2746
791.968	2647
792.072	2256
792.175	1755
792.279	2412
792.382	2505
792.486	2633
792.589	1958
792.693	1677
792.796	1499
792.899	2793
793.003	2078
793.106	253
793.209	2277
793.313	2643
793.416	1157
793.519	2751
793.623	1891
793.726	2009
793.829	1535
793.932	2167
794.035	1081
794.138	2376
794.242	2841
794.345	2585
794.448	4650
794.551	10087
794.654	42402
794.757	81084
794.860	12871
794.963	3252
795.066	1981
795.169	3645
795.272	1736
795.375	2242
795.477	769
795.580	1771
795.683	1537
795.786	1772
795.889	991
795.991	2938
796.094	2359
796.197	-64
796.300	2665
796.402	827
796.505	1271
796.608	1534
796.710	1781
796.813	1414
796.915	1178
797.018	940
797.120	1667
797.223	270
797.326	2242
797.428	1240
797.530	1495
797.633	1765
797.735	2357
797.838	1707
797.940	1940
798.042	757
798.145	1213
798.247	891
798.349	272
798.452	2221
798.554	1064
798.656	1048
798.758	2208
798.860	967
798.962	1155
799.065	661
799.167	-157
799.269	2247
799.371	1500
799.473	1724
799.575	1189
799.677	1105
799.779	2276
799.881	-403
799.983	2062
800.085	912
800.187	1608
800.289	186
800.390	1269
800.492	1683
800.594	1992
800.696	654
800.798	1158
800.899	496
801.001	894
801.103	719
801.205	396
801.306	1283
801.408	743
801.509	1548
801.611	1378
801.713	829
801.814	659
801.916	869
802.017	1199
802.119	-282
802.220	688
802.322	-70
802.423	2250
802.525	-252
802.626	1098
802.727	1471
802.829	1627
802.930	-1761
803.031	2116
803.133	640
803.234	-9
803.335	1327
803.436	277
803.538	597
803.639	-105
803.740	1630
803.841	194
803.942	1198
804.043	1748
804.144	-329
804.245	839
804.346	507
804.447	-2
804.548	1219
804.649	2191
804.750	784
804.851	519
804.952	451
805.053	1112
805.154	91
805.255	1818
805.355	451
805.456	447
805.557	827
805.658	-250
805.758	1028
805.859	917
805.960	745
806.061	88
806.161	843
806.262	539
806.362	55
806.463	260
806.564	847
806.664	306
806.765	666
806.865	1445
806.966	108
807.066	103
807.166	1296
807.267	939
807.367	714
807.468	1118
807.568	-35
807.668	1129
807.769	1347
807.869	-400
807.969	929
808.069	1027
808.170	1007
808.270	-161
808.370	818
808.470	729
808.570	-341
808.670	322
808.770	952
808.870	528
808.970	828
809.070	-99
809.170	-140
809.271	892
809.370	335
809.470	442
809.570	231
809.670	-257
809.770	662
809.870	850
809.970	145
810.070	526
810.169	926
810.269	-1591
810.369	1753
810.469	239
810.568	503
810.668	661
810.768	496
810.867	671
810.967	-531
811.066	-360
811.166	336
811.265	1152
811.365	-304
811.464	-237
811.564	250
811.663	733
811.763	-817
811.862	523
811.962	1354
812.061	-202
812.160	444
812.260	279
812.359	1036
812.458	53
812.557	3999
812.657	4010
812.756	1854
812.855	259
812.954	-159
813.053	923
813.153	752
813.252	-839
813.351	809
813.450	100
813.549	-74
813.648	318
813.747	-220
813.846	612
813.945	-168
814.044	154
814.143	415
814.242	462
814.341	-471
814.439	-86
814.538	1200
814.637	-154
814.736	322
814.835	1085
814.933	-243
815.032	951
815.131	-155
815.229	156
815.328	1359
815.427	565
815.525	1710
815.624	1143
815.722	589
815.821	974
815.919	830
816.018	919
816.116	1122
816.215	1333
816.313	873
816.412	617
816.510	733
816.609	2216
816.707	1504
816.805	1032
816.904	598
817.002	1266
817.100	3227
817.198	802
817.296	1398
817.395	1036
817.493	2170
817.591	885
817.689	1644
817.787	1233
817.885	1958
817.983	3145
818.081	3487
818.179	8403
818.277	20812
818.375	17720
818.473	4892
818.571	1944
818.669	2038
818.767	1986
818.865	1743
818.963	1442
819.061	2518
819.158	3051
819.256	8929
819.354	16157
819.452	41430
819.549	24336
819.647	7084
819.745	2884
819.842	3144
819.940	1384
820.038	683
820.135	976
820.233	2232
820.330	338
820.428	259
820.525	2104
820.623	887
820.720	369
820.818	1448
820.915	1455
821.012	725
821.110	23
821.207	1716
821.304	-327
821.402	1585
821.499	2596
821.596	2183
821.693	1074
821.791	961
821.888	657
821.985	668
822.082	333
822.179	1075
822.276	667
822.373	1224
822.470	822
822.567	115
822.664	49
822.761	983
822.858	165
822.955	864
823.052	-197
823.149	616
823.246	316
823.343	187
823.440	671
823.536	858
823.633	617
823.730	350
823.827	1034
823.923	745
824.020	1681
824.117	-228
824.213	-117
824.310	1066
824.407	-208
824.503	571
824.600	1582
824.696	-492
824.793	1036
824.889	267
824.986	845
825.082	345
825.179	571
825.275	1109
825.371	237
825.468	496
825.564	-46
825.660	536
825.757	583
825.853	979
825.949	-1219
826.045	-288
826.142	390
826.238	412
826.334	107
826.430	157
826.526	101
826.622	-800
826.718	849
826.814	74
826.910	1354
827.006	27
827.102	-1262
827.198	963
827.294	-211
827.390	492
827.486	1011
827.582	-393
827.678	-644
827.774	1713
827.869	-992
827.965	1059
828.061	-1262
828.157	633
828.252	588
828.348	-553
828.444	578
828.539	-1329
828.635	-310
828.731	1037
828.826	-657
828.922	-89
829.017	-307
829.113	614
829.208	145
829.304	-119
829.399	2195
829.495	132
829.590	1385
829.685	-368
829.781	361
829.876	-210
829.971	386
830.066	-915
830.162	96
830.257	195
830.352	-476
830.447	1581
830.543	788
830.638	-901
830.733	938
830.828	-81
830.923	853
831.018	-843
831.113	835
831.208	-1031
831.303	-187
831.398	380
831.493	62
831.588	727
831.683	-149
831.778	677
831.873	-158
831.967	1241
832.062	3
832.157	-382
832.252	583
832.346	197
832.441	738
832.536	753
832.631	762
832.725	-433
832.820	-814
832.914	-757
833.009	-1429
833.104	-41
833.198	31
833.293	-64
833.387	725
833.482	-319
833.576	-280
833.670	804
833.765	638
833.859	-183
833.954	-58
834.048	-196
834.142	739
834.237	360
834.331	-397
834.425	234
834.519	-1159
834.613	808
834.708	-296
834.802	363
834.896	-1056
834.990	677
835.084	-23
835.178	467
835.272	-211
835.366	-447
835.460	379
835.554	-246
835.648	7
835.742	121
835.836	-300
835.930	-1269
836.024	183
836.117	832
836.211	-409
836.305	990
836.399	510
836.493	-1055
836.586	228
836.680	-1055
836.774	-695
836.867	332
836.961	-759
837.055	-227
837.148	-403
837.242	-513
837.335	-629
837.429	-68
837.522	-183
837.616	157
837.709	331
837.803	-376
837.896	-57
837.989	-760
838.083	493
838.176	532
838.269	383
838.363	987
838.456	-427
838.549	620
838.642	-117
838.735	-127
838.829	317
838.922	190
839.015	123
839.108	-80
839.201	-74
839.294	-348
839.387	-597
839.480	-915
839.573	-331
839.666	736
839.759	296
839.852	-375
839.945	-197
840.038	-611
840.131	-390
840.223	-449
840.316	366
840.409	-926
840.502	-224
840.594	773
840.687	-1485
840.780	-356
840.873	-472
840.965	-783
841.058	-175
841.150	639
841.243	-805
841.336	5
841.428	-1078
841.521	-1503
841.613	-890
841.706	585
841.798	-372
841.890	504
841.983	-1216
842.075	-407
842.167	-876
842.260	-378
842.352	164
842.444	-426
842.537	652
842.629	2097
842.721	-776
842.813	-198
842.905	-1148
842.997	-572
843.090	-62
843.182	-381
843.274	-151
843.366	4184
843.458	5354
843.550	3588
843.642	-432
843.734	-717
843.826	-450
843.918	-504
844.009	60
844.101	-1005
844.193	-359
844.285	-154
844.377	-388
844.469	-58
844.560	403
844.652	-165
844.744	-265
844.835	762
844.927	-676
845.019	-610
845.110	-73
845.202	-721
845.293	-476
845.385	-514
845.476	-538
845.568	303
845.659	-961
845.751	67
845.842	-1389
845.934	-860
846.025	-1078
846.116	-225
846.208	-362
846.299	-852
846.390	-190
846.482	-285
846.573	-712
846.664	203
846.755	-650
846.846	-187
846.937	-1306
847.029	-225
847.120	-504
847.211	-1187
847.302	179
847.393	-1025
847.484	608
847.575	-769
847.666	-334
847.757	-863
847.847	-119
847.938	77
848.029	-120
848.120	-668
848.211	-177
848.302	-882
848.392	8
848.483	15
848.574	-951
848.664	-781
848.755	-878
848.846	221
848.936	-18
849.027	-123
849.118	64
849.208	-613
849.299	553
849.389	277
849.480	1722
849.570	4778
849.661	10292
849.751	15941
849.841	4595
849.932	35
850.022	-506
850.112	-145
850.203	-429
850.293	-110
850.383	-987
850.474	-268
850.564	-1048
850.654	487
850.744	-1488
850.834	-562
850.924	146
851.014	-327
851.104	-476
851.194	159
851.284	-805
851.374	-555
851.464	-822
851.554	-93
851.644	-332
851.734	1193
851.824	648
851.914	183
852.004	2284
852.094	1340
852.183	-191
852.273	30
852.363	-949
852.452	-571
852.542	-229
852.632	68
852.721	203
852.811	-1156
852.901	-1220
852.990	-901
853.080	-369
853.169	217
853.259	-279
853.348	-553
853.438	-400
853.527	370
853.617	530
853.706	3479
853.795	6230
853.885	17125
853.974	31918
854.063	60974
854.152	84957
854.242	28586
854.331	5568
854.420	1616
854.509	1410
854.598	515
854.687	133
854.777	835
854.866	-295
854.955	114
855.044	234
855.133	-517
855.222	-255
855.311	-1260
855.400	-1012
855.488	-65
855.577	-768
855.666	317
855.755	-379
855.844	343
855.933	-156
856.021	-764
856.110	-949
856.199	-792
856.288	-837
856.376	-653
856.465	-1303
856.554	-377
856.642	-786
856.731	-69
856.819	-667
856.908	-1225
856.996	-700
857.085	-986
857.173	130
857.262	-374
857.350	-208
857.438	-444
857.527	-589
857.615	-1101
857.703	441
857.792	-633
857.880	-378
857.968	-963
858.056	-1215
858.145	-764
858.233	-1482
858.321	-1210
858.409	-280
858.497	-822
858.585	-1522
858.673	-78
858.761	-1021
858.849	-253
858.937	-1194
859.025	-495
859.113	-34
859.201	-1162
859.289	-205
859.377	-888
859.465	-858
859.552	-949
859.640	-1142
859.728	-552
859.816	-266
859.903	-714
859.991	-1343
860.079	-552
860.166	-648
860.254	-713
860.342	-211
860.429	-1784
860.517	-1173
860.604	-2
860.692	32
860.779	-1041
860.867	-1045
860.954	-556
861.042	374
861.129	140
861.216	-359
861.304	-1164
861.391	-1021
861.478	-114
861.565	-1199
861.653	-184
861.740	-1382
861.827	-1194
861.914	-776
862.001	-1254
862.089	-1097
862.176	-378
862.263	-842
862.350	236
862.437	-287
862.524	-523
862.611	-1149
862.698	-202
862.785	-1352
862.871	-888
862.958	-1046
863.045	-1659
863.132	-854
863.219	-606
863.306	-1732
863.392	-285
863.479	-1392
863.566	-703
863.652	-143
863.739	-1379
863.826	-1153
863.912	-772
863.999	-1608
864.086	266
864.172	-871
864.259	-1041
864.345	-620
864.432	-1139
864.518	-1112
864.604	-1139
864.691	-472
864.777	-585
864.863	-533
864.950	161
865.036	-1077
865.122	316
865.209	490
865.295	1093
865.381	597
865.467	1105
865.553	1869
865.639	1415
865.726	2997
865.812	8511
865.898	15416
865.984	22529
866.070	45918
866.156	43013
866.242	10323
866.328	2830
866.414	1382
866.499	1149
866.585	8
866.671	521
866.757	703
866.843	611
866.928	141
867.014	-519
867.100	826
867.186	-436
867.271	450
867.357	865
867.442	127
867.528	488
867.614	293
867.699	366
867.785	576
867.870	150
867.956	344
868.041	857
868.127	631
868.212	144
868.297	-100
868.383	384
868.468	243
868.553	755
868.639	477
868.724	41
868.809	457
868.894	196
868.979	-554
869.065	295
869.150	-948
869.235	-1135
869.320	-356
869.405	306
869.490	-533
869.575	-391
869.660	325
869.745	443
869.830	-969
869.915	-751
870.000	-970
870.085	-612
870.169	164
870.254	-377
870.339	-60
870.424	-501
870.509	184
870.593	-12
870.678	-771
870.763	-485
870.847	166
870.932	-1224
871.016	-135
871.101	-551
871.186	-720
871.270	-548
871.355	-43
871.439	-45
871.523	-658
871.608	-408
871.692	-249
871.777	372
871.861	-510
871.945	-65
872.030	-274
872.114	-367
872.198	-877
872.282	-1291
872.367	-178
872.451	-124
872.535	-509
872.619	-377
872.703	-173
872.787	7
872.871	-1083
872.955	-517
873.039	-1041
873.123	-217
873.207	1
873.291	-649
873.375	-325
873.459	-301
873.543	-1345
873.627	-1046
873.711	-519
873.794	-804
873.878	-945
873.962	-1371
874.045	-957
874.129	-1029
874.137	-1017
874.213	-899
874.245	-761
874.296	-534
874.352	-1095
874.380	-1374
874.460	-955
874.464	-940
874.547	-878
874.568	-714
874.631	-225
874.676	-598
874.714	-922
874.784	-428
874.798	-326
874.881	1323
874.892	1046
874.965	-846
874.999	-825
875.048	-836
875.107	-741
875.131	-694
875.215	-1030
875.215	-1030
875.298	-1327
875.323	-1204
875.381	-955
875.430	-116
875.465	536
875.538	-364
875.548	-505
875.631	-636
875.646	-667
875.714	-802
875.753	-678
875.798	-486
875.861	-720
875.881	-820
875.964	-554
875.968	-530
876.047	-75
876.076	-300
876.130	-669
876.183	-295
876.213	-115
876.291	-195
876.296	-198
876.379	-739
876.398	-861
876.462	-1306
876.506	-785
876.545	-241
876.613	-224
876.628	-245
876.711	32
876.721	38
876.794	132
876.828	-173
876.877	-660
876.935	-582
876.960	-527
877.043	-310
877.043	-307
877.125	451
877.150	499
877.208	613
877.258	-55
877.291	-500
877.365	-138
877.374	-83
877.456	214
877.472	199
877.539	-186
877.579	-556
877.622	-780
877.687	-380
877.704	-262
877.787	-611
877.794	-574
877.869	-206
877.901	15
877.952	243
878.008	76
878.034	89
878.115	-278
878.117	-286
878.199	17
878.222	-73
878.282	-360
878.329	101
878.364	446
878.437	236
878.447	228
878.529	-394
878.544	-318
878.611	-177
878.651	-322
878.694	-360
878.758	-367
878.776	-358
878.858	89
878.865	98
878.941	-150
878.972	-301
879.023	-219
879.078	-163
879.105	-191
879.185	-337
879.187	-344
879.269	-440
879.292	-489
879.351	-478
879.399	-680
879.433	-741
879.506	-173
879.516	-90
879.598	-412
879.613	-332
879.680	-267
879.720	-222
879.762	14
879.827	-277
879.844	-376
879.926	378
879.933	374
880.007	-1
880.040	-174
880.089	-33
880.147	374
880.171	469
880.253	1132
880.254	1134
880.335	1938
880.360	2094
880.417	2584
880.467	4012
880.499	5187
880.574	5755
880.580	5597
880.662	1837
880.680	1261
880.744	-148
880.787	-313
880.825	-107
880.893	48
880.907	45
880.989	-131
881.000	-141
881.070	23
881.106	-227
881.152	-458
881.213	139
881.233	246
881.315	-241
881.319	-248
881.396	86
881.426	27
881.478	-417
881.532	-105
881.559	149
881.639	-383
881.641	-395
881.722	-29
881.745	-67
881.803	27
881.852	50
881.885	-64
881.958	-150
881.966	-142
882.047	-87
882.064	-119
882.129	-351
882.171	-297
882.210	-179
882.277	-327
882.291	-287
882.372	138
882.383	208
882.454	577
882.489	569
882.535	281
882.596	88
882.616	15
882.697	-232
882.702	-271
882.778	-146
882.808	132
882.859	107
882.914	-476
882.940	-408
883.020	495
883.021	501
883.102	246
883.127	208
883.183	-89
883.233	-409
883.264	-339
883.339	-265
883.345	-241
883.426	244
883.445	356
883.507	263
883.551	158
883.587	219
883.657	260
883.668	262
883.749	237
883.763	250
883.830	302
883.869	284
883.910	301
883.975	269
883.991	220
884.072	-103
884.081	-117
884.152	195
884.187	305
884.233	342
884.292	440
884.314	421
884.394	-18
884.398	-33
884.475	255
884.504	424
884.555	22
884.610	-698
884.636	-646
884.716	-5
884.716	3
884.797	596
884.821	697
884.877	848
884.927	968
884.958	792
885.033	279
885.038	271
885.118	24
885.139	66
885.199	355
885.244	382
885.279	334
885.350	237
885.359	263
885.439	696
885.456	692
885.520	429
885.561	423
885.600	598
885.667	694
885.680	678
885.760	764
885.773	750
885.840	443
885.878	304
885.920	256
885.984	169
886.000	127
886.080	100
886.089	52
886.160	54
886.195	153
886.240	563
886.300	1089
886.320	1041
886.400	777
886.406	752
886.480	634
886.511	626
886.560	601
886.616	383
886.640	392
886.720	815
886.722	813
886.800	663
886.827	614
886.879	616
886.932	674
886.959	708
887.038	788
887.039	791
887.119	516
887.143	489
887.198	665
887.248	751
887.278	814
887.354	1086
887.358	1085
887.437	659
887.459	598
887.517	683
887.564	749
887.596	794
887.669	849
887.676	866
887.755	989
887.774	998
887.835	1305
887.880	1596
887.914	1451
887.985	1134
887.994	1167
888.073	1287
888.090	1310
888.153	890
888.195	603
888.232	755
888.300	1088
888.311	1049
888.391	702
888.405	617
888.470	752
888.510	849
888.549	709
888.615	534
888.628	619
888.708	1019
888.720	1079
888.787	947
888.825	881
888.866	941
888.930	977
888.945	1011
889.024	1185
889.035	1214
889.103	1056
889.140	903
889.182	832
889.245	773
889.261	855
889.340	1218
889.349	1256
889.419	1546
889.454	1685
889.498	1347
889.559	874
889.577	906
889.656	1030
889.664	1042
889.735	1483
889.768	1687
889.814	1553
889.873	1368
889.978	1247
890.083	1218
890.187	1231
890.292	1590
890.397	1095
890.501	807
890.606	983
890.710	1446
890.815	1050
890.919	2125
891.024	1509
891.128	774
891.233	-98
891.337	1350
891.442	852
891.546	704
891.650	863
891.755	390
891.859	1654
891.963	253
892.068	396
892.172	799
892.276	966
892.380	1629
892.484	1497
892.589	1756
892.693	1355
892.797	247
892.901	1129
893.005	1140
893.109	1415
893.213	1889
893.317	383
893.421	857
893.525	833
893.629	740
893.733	626
893.837	877
893.941	635
894.045	1359
894.148	860
894.252	2495
894.356	1760
894.460	1322
894.564	757
894.667	868
894.771	-62
894.875	319
894.978	1508
895.082	281
895.186	951
895.289	1672
895.393	52
895.496	1221
895.600	-89
895.703	655
895.807	712
895.910	664
896.014	305
896.117	403
896.221	1289
896.324	118
896.427	735
896.531	949
896.634	689
896.737	529
896.840	400
896.944	657
897.047	866
897.150	463
897.253	378
897.356	590
897.460	318
897.563	469
897.666	367
897.769	957
897.872	953
897.975	734
898.078	673
898.181	412
898.284	456
898.387	692
898.490	811
898.593	1060
898.695	226
898.798	927
898.901	1559
899.004	457
899.107	633
899.209	309
899.312	907
899.415	470
899.518	731
899.620	1299
899.723	27
899.826	194
899.928	1257
900.031	196
900.133	224
900.236	386
900.338	180
900.441	754
900.543	766
900.646	326
900.748	153
900.851	1281
900.953	384
901.055	1435
901.158	95
901.260	-44
901.362	826
901.465	371
901.567	1254
901.669	476
901.771	-434
901.873	1329
901.976	1069
902.078	170
902.180	382
902.282	640
902.384	360
902.486	766
902.588	116
902.690	145
902.792	594
902.894	1501
902.996	1013
903.098	360
903.200	578
903.302	271
903.404	1132
903.505	-643
903.607	421
903.709	895
903.811	918
903.913	579
904.014	179
904.116	712
904.218	285
904.319	765
904.421	1037
904.523	1032
904.624	658
904.726	333
904.827	100
904.929	644
905.030	-112
905.132	222
905.233	652
905.335	73
905.436	407
905.537	107
905.639	590
905.740	216
905.841	238
905.943	830
906.044	991
906.145	1007
906.247	362
906.348	709
906.449	404
906.550	181
906.651	867
906.752	264
906.854	309
906.955	723
907.056	606
907.157	551
907.258	619
907.359	-271
907.460	334
907.561	500
907.662	297
907.762	1104
907.863	317
907.964	192
908.065	1195
908.166	759
908.267	737
908.367	-316
908.468	690
908.569	639
908.670	643
908.770	556
908.871	-146
908.971	1003
909.072	888
909.173	-27
909.273	594
909.374	-45
909.474	522
909.575	58
909.675	3
909.776	564
909.876	566
909.977	387
910.077	11
910.177	742
910.278	227
910.378	-121
910.478	-165
910.579	1116
910.679	399
910.779	-291
910.879	1053
910.980	833
911.080	503
911.180	299
911.280	78
911.380	420
911.480	215
911.580	764
911.680	243
911.780	273
911.880	190
911.980	-639
912.080	674
912.180	147
912.280	337
912.380	677
912.480	14
912.580	-225
912.679	231
912.779	1164
912.879	270
912.979	289
913.078	-383
913.178	245
913.278	-80
913.377	527
913.477	765
913.577	842
913.676	272
913.776	813
913.875	367
913.975	389
914.074	-150
914.174	417
914.273	241
914.373	1604
914.472	288
914.572	766
914.671	-587
914.770	559
914.870	314
914.969	345
915.068	197
915.167	127
915.267	1003
915.366	630
915.465	-243
915.564	-157
915.663	-26
915.763	1163
915.862	879
915.961	289
916.060	465
916.159	848
916.258	667
916.357	-667
916.456	1436
916.555	33
916.654	231
916.752	268
916.851	793
916.950	316
917.049	360
917.148	-393
917.247	-252
917.345	454
917.444	622
917.543	-54
917.642	224
917.740	-23
917.839	208
917.937	793
918.036	1042
918.135	760
918.233	686
918.332	750
918.430	-58
918.529	131
918.627	298
918.726	1151
918.824	1068
918.923	539
919.021	128
919.119	220
919.218	32
919.316	33
919.414	548
919.512	453
919.611	257
919.709	405
919.807	12
919.905	52
920.003	208
920.102	282
920.200	861
920.298	-71
920.396	449
920.494	937
920.592	-350
920.690	462
920.788	718
920.886	-638
920.984	603
921.082	-18
921.180	81
921.277	607
921.375	491
921.473	522
921.571	660
921.669	98
921.766	1186
921.864	444
921.962	595
922.060	308
922.157	969
922.255	515
922.352	1103
922.450	1288
922.548	141
922.645	237
922.743	469
922.840	948
922.938	829
923.035	1055
923.133	1153
923.230	1179
923.327	1939
923.425	1461
923.522	675
923.619	1128
923.717	1555
923.814	1296
923.911	1206
924.008	1235
924.106	595
924.203	1545
924.300	1343
924.397	949
924.494	2545
924.591	1642
924.688	1004
924.786	955
924.883	513
924.979	942
925.077	1670
925.173	1535
925.270	1305
925.367	631
925.464	1068
925.561	1039
925.658	682
925.755	1084
925.852	1520
925.948	1548
926.045	1886
926.142	1861
926.239	1999
926.335	1108
926.432	1830
926.529	2121
926.625	1754
926.722	1920
926.818	1225
926.915	2187
927.011	933
927.108	1725
927.204	1353
927.301	1723
927.397	2221
927.494	1784
927.590	583
927.687	1467
927.783	1139
927.879	1253
927.976	789
928.072	1333
928.168	866
928.264	938
928.361	1091
928.457	677
928.553	1021
928.649	1567
928.745	708
928.841	1105
928.937	834
929.033	1386
929.129	1661
929.225	529
929.321	474
929.417	877
929.513	930
929.609	870
929.705	850
929.801	1935
929.897	465
929.993	583
930.089	464
930.184	791
930.280	405
930.376	824
930.471	102
930.567	492
930.663	1359
930.758	555
930.854	627
930.950	813
931.045	435
931.141	1511
931.236	1006
931.332	946
931.427	792
931.523	589
931.618	995
931.714	257
931.809	975
931.905	560
932.000	-71
932.095	884
932.191	1525
932.286	521
932.381	644
932.476	289
932.572	245
932.667	1098
932.762	1335
932.857	1368
932.952	1063
933.047	599
933.142	578
933.237	637
933.332	151
933.427	1408
933.522	579
933.617	1312
933.712	45
933.807	282
933.902	660
933.997	1252
934.092	176
934.187	936
934.282	1163
934.376	437
934.471	934
934.566	969
934.661	1266
934.755	375
934.850	430
934.945	1610
935.039	587
935.134	377
935.228	588
935.323	921
935.417	962
935.512	1101
935.606	974
935.701	1140
935.795	495
935.890	280
935.984	526
936.079	-60
936.173	710
936.267	561
936.362	261
936.456	1088
936.550	1008
936.644	925
936.738	777
936.833	782
936.927	1413
937.021	1123
937.115	786
937.209	-484
937.303	1224
937.397	165
937.491	401
937.585	1020
937.679	321
937.773	193
937.867	184
937.961	-3
938.055	-176
938.149	1188
938.243	330
938.337	164
938.430	-275
938.524	1335
938.618	397
938.712	715
938.805	69
938.899	199
938.993	1068
939.086	915
939.180	490
939.274	892
939.367	897
939.461	484
939.554	729
939.648	637
939.741	522
939.835	457
939.928	892
940.022	695
940.115	883
940.208	-189
940.302	763
940.395	471
940.488	-409
940.582	970
940.675	53
940.768	-119
940.861	612
940.954	1025
941.048	503
941.141	-67
941.234	-565
941.327	267
941.420	1768
941.513	917
941.606	123
941.699	1127
941.792	116
941.885	111
941.978	897
942.071	408
942.164	280
942.257	1046
942.349	-232
942.442	463
942.535	-124
942.628	-246
942.721	664
942.813	-1067
942.906	1434
942.999	23
943.091	-262
943.184	0
943.277	-412
943.369	711
943.462	-195
943.554	635
943.647	70
943.739	-10
943.832	63
943.924	-117
944.017	870
944.109	-955
944.201	637
944.294	1512
944.386	-250
944.478	-782
944.571	328
944.663	-21
944.755	601
944.847	66
944.940	-22
945.032	-386
945.124	-567
945.216	975
945.308	403
945.400	56
945.492	217
945.584	306
945.676	81
945.768	456
945.860	-78
945.952	394
946.044	550
946.136	495
946.228	-132
946.320	-809
946.412	233
946.503	268
946.595	626
946.687	24
946.779	-317
946.870	399
946.962	145
947.054	426
947.145	789
947.237	184
947.329	375
947.420	-522
947.512	-204
947.603	-508
947.695	-193
947.786	-90
947.878	314
947.969	424
948.061	-306
948.152	-26
948.243	642
948.335	472
948.426	-298
948.517	-451
948.609	-211
948.700	-166
948.791	-1095
948.882	-170
948.973	-375
949.065	-616
949.156	-400
949.247	-1176
949.338	-193
949.429	218
949.520	406
949.611	-1400
949.702	575
949.793	-207
949.884	456
949.975	356
950.066	30
950.157	-45
950.247	674
950.338	377
950.429	-426
950.520	940
950.611	375
950.701	93
950.792	694
950.883	960
950.973	-451
951.064	-304
951.155	1140
951.245	486
951.336	537
951.427	-487
951.517	230
951.608	-538
951.698	-705
951.788	196
951.879	-630
951.969	-224
952.060	193
952.150	334
952.240	10
952.331	-1592
952.421	1283
952.511	479
952.602	596
952.692	-344
952.782	-578
952.872	-310
952.962	304
953.052	-25
953.143	-256
953.233	1108
953.323	277
953.413	-1202
953.503	526
953.593	94
953.683	464
953.773	-39
953.863	-42
953.953	-344
954.042	-85
954.132	481
954.222	294
954.312	-318
954.402	-213
954.492	154
954.581	878
954.671	-862
954.761	-857
954.850	669
954.940	-142
955.030	-146
955.119	106
955.209	153
955.298	-614
955.388	493
955.477	1612
955.567	-132
955.656	-482
955.746	250
955.835	-50
955.925	273
956.014	488
956.103	-456
956.193	224
956.282	884
956.371	326
956.461	569
956.550	-252
956.639	820
956.728	375
956.817	270
956.906	-238
956.995	976
957.085	-185
957.174	188
957.263	204
957.352	580
957.441	-239
957.530	123
957.619	885
957.708	555
957.796	590
957.885	390
957.974	64
958.063	1031
958.152	-111
958.241	969
958.329	772
958.418	726
958.507	630
958.596	783
958.684	1220
958.773	1445
958.861	814
958.950	750
959.039	2041
959.127	1397
959.216	982
959.304	2108
959.393	1277
959.481	1028
959.570	1525
959.658	1095
959.746	1227
959.835	2472
959.923	1517
960.011	1652
960.100	2147
960.188	1498
960.276	909
960.365	1208
960.453	545
960.541	684
960.629	1050
960.717	1312
960.805	-187
960.893	843
960.981	-42
961.069	1826
961.158	-234
961.245	708
961.333	304
961.421	-227
961.509	-279
961.597	445
961.685	241
961.773	32
961.861	826
961.949	668
962.036	-51
962.124	1026
962.212	57
962.299	32
962.387	-57
962.475	318
962.562	-352
962.650	1030
962.738	793
962.825	86
962.913	-238
963.000	-930
963.088	-193
963.175	491
963.263	-184
963.350	290
963.438	19
963.525	-200
963.612	1500
963.700	1248
963.787	6565
963.874	2576
963.962	-119
964.049	909
964.136	-179
964.223	-762
964.310	-337
964.398	-318
964.485	-144
964.572	158
964.659	739
964.746	1099
964.833	58
964.920	-350
965.007	-249
965.094	-522
965.181	-602
965.268	296
965.355	-260
965.441	-899
965.528	-538
965.615	624
965.702	-275
965.789	-883
965.875	27
965.962	-599
966.049	-1037
966.136	-166
966.222	-1060
966.309	214
966.395	-1000
966.482	490
966.569	-589
966.655	-576
966.742	-366
966.828	-14
966.915	-98
967.001	427
967.087	-1126
967.174	20
967.260	418
967.347	-334
967.433	1584
967.519	4295
967.605	1152
967.692	-180
967.778	1129
967.864	-581
967.950	22
968.036	-936
968.123	131
968.209	-650
968.295	-600
968.381	835
968.467	257
968.553	-1371
968.639	392
968.725	-1010
968.811	510
968.897	482
968.983	8
969.069	-85
969.154	49
969.240	1047
969.326	-1162
969.412	-786
969.497	-646
969.583	-997
969.669	298
969.755	-374
969.840	-914
969.926	-406
970.012	736
970.097	345
970.183	-626
970.268	-315
970.354	-405
970.439	-268
970.525	3129
970.610	252
970.696	-129
970.781	757
970.866	-636
970.952	528
971.037	-399
971.122	-854
971.208	425
971.293	-282
971.378	-1497
971.463	-792
971.549	-68
971.634	-217
971.719	337
971.804	-657
971.889	774
971.974	-120
972.059	-1174
972.144	-696
972.229	-278
972.314	-841
972.399	-454
972.484	-192
972.569	109
972.654	-1661
972.739	1818
972.824	1228
972.908	-344
972.993	169
973.078	-1295
973.163	-466
973.247	-477
973.332	-1496
973.417	724
973.501	-1147
973.586	-437
973.671	-646
973.755	-719
973.840	268
973.924	-145
974.009	-411
974.093	-1066
974.178	568
974.262	508
974.346	129
974.431	118
974.515	-178
974.600	-714
974.684	-436
974.768	-559
974.852	802
974.937	-1705
975.021	199
975.105	-420
975.189	192
975.273	-360
975.358	-811
975.442	-853
975.526	849
975.610	-984
975.694	-924
975.778	241
975.862	-363
975.946	-2578
976.030	1918
976.114	-403
976.198	-82
976.281	-742
976.365	-241
976.449	-157
976.533	823
976.617	-631
976.700	429
976.784	283
976.868	-887
976.951	-260
977.035	122
977.119	123
977.202	-420
977.286	-179
977.369	-466
977.453	265
977.536	-164
977.620	-1160
977.703	-22
977.787	-992
977.870	-346
977.953	1094
978.037	-935
978.120	308
978.203	-399
978.287	963
978.370	220
978.453	-272
978.536	439
978.620	668
978.703	835
978.786	-449
978.869	-1040
978.952	-1340
979.035	1223
979.118	-427
979.201	-630
979.284	115
979.367	-824
979.450	218
979.533	-784
979.616	-74
979.699	-819
979.782	-610
979.865	630
979.948	-772
980.030	302
980.113	38
980.196	-1135
980.279	103
980.361	-1099
980.444	-1220
980.526	-302
980.609	-580
980.692	115
980.774	281
980.857	-881
980.939	-223
981.022	-1033
981.104	-424
981.187	-786
981.269	-430
981.352	-812
981.434	-1268
981.516	-880
981.599	826
981.681	51
981.763	-957
981.846	-1005
981.928	-726
982.010	-772
982.092	-363
982.174	402
982.256	-853
982.339	-1374
982.421	269
982.503	90
982.585	-923
982.667	-406
982.749	-536
982.831	-23
982.913	-939
982.995	698
983.077	-1233
983.158	377
983.240	-984
983.322	-411
983.404	478
983.486	-678
983.568	167
983.649	222
983.731	-3
983.813	54
983.894	-676
983.976	-433
984.058	-837
984.139	418
984.221	-1533
984.302	626
984.384	181
984.465	-1270
984.547	-924
984.628	-975
984.710	-315
984.791	-395
984.872	-564
984.954	-111
985.035	-112
985.116	-1399
985.198	-865
985.279	467
985.360	-1212
985.441	-1189
985.522	-119
985.604	-158
985.685	-2186
985.766	-331
985.847	243
985.928	-649
986.009	244
986.090	-922
986.171	53
986.252	-1364
986.333	-114
986.414	-521
986.495	-263
986.576	-628
986.656	309
986.737	-209
986.818	-53
986.899	-474
986.980	-408
987.060	314
987.141	-1403
987.222	-187
987.302	-216
987.383	563
987.464	-9
987.544	69
987.625	-1013
987.705	736
987.786	-635
987.866	-256
987.947	66
988.027	-477
988.108	-1014
988.188	157
988.268	-471
988.349	135
988.429	-838
988.509	-111
988.589	-351
988.670	-1764
988.750	599
988.830	-238
988.910	-79
988.990	-920
989.070	-398
989.151	-867
989.231	-1308
989.311	382
989.391	-178
989.471	-464
989.551	-694
989.631	-762
989.711	-252
989.791	-935
989.870	-1810
989.950	624
990.030	-892
990.110	-474
990.190	-727
990.269	-271
990.349	-820
990.429	-213
990.509	-796
990.588	-484
990.668	99
990.747	-1228
990.827	-928
990.907	51
990.986	-580
991.066	-587
991.145	-785
991.225	-387
991.304	-294
991.383	-803
991.463	-500
991.542	184
991.622	-1188
991.701	-631
991.780	-1349
991.859	-145
991.939	-577
992.018	-558
992.097	-724
992.176	-111
992.256	-433
992.335	-1181
992.414	-228
992.493	-1579
992.572	-1126
992.651	337
992.730	-720
992.809	-908
992.888	-1078
992.967	-1464
993.046	-517
993.125	-1533
993.203	-209
993.282	-395
993.361	-1107
993.440	-166
993.519	-1869
993.597	-830
993.676	-830
993.755	-480
993.834	-579
993.912	-1639
993.991	-183
994.069	-1776
994.148	-401
994.226	-105
994.305	-1047
994.384	-1618
994.462	225
994.540	-1171
994.619	-1093
994.697	-69
994.776	-1617
994.854	174
994.932	-39
995.011	-373
995.089	-416
995.167	-1108
995.245	-228
995.324	-1542
995.402	-384
995.480	-732
995.558	-7
995.636	-616
995.714	-669
995.792	-116
995.870	-1178
995.948	-1631
996.026	-753
996.104	-644
996.182	6
996.260	-1459
996.338	-835
996.416	-1667
996.494	-1348
996.572	488
996.649	-1390
996.727	-2061
996.805	-1356
996.883	-778
996.960	-1115
997.038	-29
997.116	-484
997.193	-1991
997.271	-361
997.348	-619
997.426	-719
997.504	-1474
997.581	-928
997.658	127
997.736	-2203
997.813	-1859
997.891	389
997.968	-1469
998.046	-1075
998.123	-954
998.200	-657
998.277	-1324
998.355	-823
998.432	-1802
998.509	-1408
998.586	-531
998.663	-1354
998.741	-1446
998.818	-992
998.895	-1491
998.972	-504
999.049	-692
999.126	-1202
999.203	-428
999.280	-887
999.357	-1005
999.434	-1715
999.511	-684
999.587	-468
999.664	-1031
999.741	-1384
999.818	-466
999.895	-574
999.971	-1752
1000.048	-861
1000.125	142
1000.202	-1504
1000.278	-791
1000.355	-326
1000.431	-1827
1000.508	-1769
1000.584	-852
1000.661	-1118
1000.738	-2141
1000.814	-1141
1000.890	-595
1000.967	-723
1001.043	-1180
1001.120	-2123
1001.196	-620
1001.272	-1505
1001.349	-1039
1001.425	-824
1001.501	-1607
1001.577	-1751
1001.654	-999
1001.730	-1379
1001.806	-1043
1001.882	-1912
1001.958	-327
1002.034	-1080
1002.110	-1102
1002.186	-1706
1002.262	-1293
1002.338	-2531
1002.414	-481
1002.490	-725
1002.566	-1132
1002.642	-1282
1002.718	-94
1002.794	-696
1002.870	-1400
1002.945	-1981
1003.021	-1013
1003.097	-1006
1003.173	-527
1003.248	-1720
1003.324	-480
1003.400	-1082
1003.475	-1675
1003.551	-1753
1003.626	-1921
1003.702	-1145
1003.777	-1683
1003.853	-2081
1003.928	-1544
1004.004	-1027
1004.079	-958
1004.155	-1800
1004.230	-1930
1004.305	-157
1004.381	-1574
1004.456	-1538
1004.531	-877
1004.607	-937
1004.682	-1464
1004.757	-1118
1004.832	-2011
1004.907	-1089
1004.982	-769
1005.057	-1205
1005.133	-976
1005.208	-1755
1005.283	-1242
1005.358	-1246
1005.433	-1471
1005.508	-1524
1005.583	-1776
1005.657	-1276
1005.732	-734
1005.807	-1642
1005.882	-1364
1005.957	-1599
1006.032	-987
1006.106	-1898
1006.181	-2295
1006.256	-1341
1006.331	-1789
1006.405	-1157
1006.480	-1161
1006.554	-1527
1006.629	-1042
1006.704	-1782
1006.778	-1208
1006.853	-1382
1006.927	-2126
1007.002	-1616
1007.076	-1011
1007.150	-2024
1007.225	-1509
1007.299	-1065
1007.373	-1331
1007.448	-1512
1007.522	-985
1007.596	-1753
1007.671	-1256
1007.745	-850
1007.819	-1849
1007.893	-2008
1007.967	-1344
1008.041	-2492
1008.115	-983
1008.190	-1194
1008.264	-1332
1008.338	-2367
1008.412	-1872
1008.486	-1282
1008.560	-2011
1008.633	-1428
1008.707	-1878
1008.781	-1430
1008.855	-1156
1008.929	-1572
1009.003	-1996
1009.076	-1599
1009.150	-967
1009.224	-864
1009.298	-911
1009.371	-1749
1009.445	-791
1009.519	-1618
1009.592	-1703
1009.666	-1099
1009.739	-1460
1009.813	-2538
1009.886	-515
1009.960	-2166
1010.033	49
1010.107	-182
1010.180	-1683
1010.253	-2084
1010.327	-2281
1010.400	-1465
1010.473	-1947
1010.547	-358
1010.620	-1683
1010.693	-1089
1010.766	-1938
1010.840	-986
1010.913	-1431
1010.986	-1694
1011.059	-1354
1011.132	-915
1011.205	-765
1011.278	-1604
1011.351	-1107
1011.424	-1889
1011.497	-1257
1011.570	-1500
1011.643	-938
1011.716	-1569
1011.789	-1962
1011.862	-1767
1011.934	-1022
1012.007	-1766
1012.080	-1122
1012.153	-1289
1012.225	-229
1012.298	-2146
1012.371	-1299
1012.443	-1195
1012.516	-2355
1012.588	-1180
1012.661	-1349
1012.733	-1924
1012.806	-704
1012.879	-1460
1012.951	-1143
1013.023	-1162
1013.096	-1402
1013.168	-2017
1013.241	-862
1013.313	-1058
1013.385	-1743
1013.458	-1269
1013.530	-478
1013.602	-1188
1013.674	-1200
1013.746	-2075
1013.819	-2178
1013.891	188
1013.963	-1353
1014.035	-1090
1014.107	-996
1014.179	-1341
1014.251	-1653
1014.323	-1449
1014.395	-1301
1014.467	-859
1014.539	-1298
1014.611	-2112
1014.683	-1397
1014.754	-1230
1014.826	-1185
1014.898	-1686
1014.970	-2017
1015.042	-713
1015.113	-901
1015.185	-1911
1015.257	-1876
1015.328	-997
1015.400	-1785
1015.471	-1302
1015.543	-2669
1015.615	-1930
1015.686	-1565
1015.757	-1196
1015.829	-1212
1015.901	-1535
1015.972	-1959
1016.043	-1934
1016.115	-810
1016.186	-1231
1016.257	-2491
1016.328	-1098
1016.400	-630
1016.471	-1665
1016.542	-854
1016.613	-1234
1016.685	-1678
1016.756	-1258
1016.827	-1258
1016.898	-2594
1016.969	-965
1017.040	-1480
1017.111	-3037
1017.182	-1717
1017.253	-1120
1017.324	-1525
1017.395	-2125
1017.466	-1256
1017.537	-772
1017.608	-1644
1017.678	-1490
1017.749	-1316
1017.820	-858
1017.891	-1780
1017.961	-1390
1018.032	-1362
1018.103	-1095
1018.173	-1712
1018.244	-504
1018.315	-1098
1018.385	-695
1018.456	-1370
1018.526	-1104
1018.597	-2082
1018.667	-1224
1018.738	-2010
1018.808	-1563
1018.878	-1286
1018.949	-1721
1019.019	-1196
1019.089	-1668
1019.160	-1141
1019.230	-1373
1019.300	-1098
1019.371	-2089
1019.441	-1328
1019.511	-1017
1019.581	-1228
1019.651	-1616
1019.721	-1508
1019.791	-1275
1019.861	-1395
1019.931	-2254
1020.001	-1412
1020.071	-1093
1020.141	-1603
1020.211	-1659
1020.281	-1696
1020.351	-944
1020.421	-1700
1020.491	-188
1020.560	-1701
1020.630	-643
1020.700	-1566
1020.770	-1348
1020.839	-1796
1020.909	-591
1020.979	-1565
1021.048	-1398
1021.118	-699
1021.187	-1735
1021.257	-1489
1021.326	-1348
1021.396	-1963
1021.465	-1281
1021.535	-1173
1021.604	-1255
1021.674	-1885
1021.743	-2184
1021.812	-1653
1021.882	-1176
1021.951	-1805
1022.020	-1425
1022.089	-2019
1022.159	-1322
1022.228	-730
1022.297	-1638
1022.366	-451
1022.435	-2024
1022.504	-1203
1022.573	-1331
1022.642	-1664
1022.711	-1299
1022.781	-1565
1022.849	-1410
1022.918	-2274
1022.987	-1029
1023.056	-1819
1023.125	-1249
1023.194	-2008
1023.263	-1438
1023.331	-178
1023.400	-1894
1023.469	-2255
1023.538	-2181
1023.606	-1171
1023.675	-1470
1023.744	-1601
1023.812	-1648
1023.881	-1303
1023.949	-1263
1024.018	-1771
1024.086	-773
1024.155	-1494
1024.223	-1353
1024.292	-1368
1024.360	-837
1024.429	-1653
1024.497	-1805
1024.565	-2213
1024.634	-1556
1024.702	-1495
1024.770	-1050
1024.838	-1719
1024.907	-1757
1024.975	-1813
1025.043	-624
1025.111	-1525
1025.179	-1542
1025.247	-1246
1025.315	-1516
1025.383	-1461
1025.451	-1075
1025.519	-2167
1025.587	-1329
1025.655	-1779
1025.723	-1615
1025.791	-889
1025.859	-1502
1025.927	-320
1025.995	-1390
1026.062	-1020
1026.130	-2188
1026.198	-1252
1026.266	-1548
1026.333	-871
1026.401	-437
1026.469	-1889
1026.536	-1202
1026.604	-1666
1026.671	-1964
1026.739	-1296
1026.806	-1590
1026.874	-2063
1026.941	-1690
1027.009	-1161
1027.076	-1809
1027.144	-612
1027.211	-1393
1027.278	-1594
1027.345	-1182
1027.413	-1837
1027.480	-1688
1027.547	-1788
1027.614	-1043
1027.682	-1434
1027.749	-1565
1027.816	-1195
1027.883	-1482
1027.950	-1603
1028.017	-1910
1028.084	-633
1028.151	-1710
1028.218	-1270
1028.285	-1713
1028.352	-1441
1028.419	-1757
1028.486	-1565
1028.553	-1773
1028.619	-2022
1028.686	-1373
1028.753	-2119
1028.820	-1311
1028.886	-1558
1028.953	-1171
1029.020	-1670
1029.086	-1759
1029.153	-1574
1029.220	-1950
1029.286	-1240
1029.353	-857
1029.419	-1688
1029.486	-1422
1029.552	-1413
1029.619	-1884
1029.685	-1108
1029.751	-2097
1029.818	-1001
1029.884	-1926
1029.951	-622
1030.017	-1691
1030.083	-1197
1030.149	-953
1030.216	-1472
1030.282	-842
1030.348	-1745
1030.414	-1377
1030.480	-1413
1030.546	-1486
1030.612	-1409
1030.678	-1881
1030.744	-845
1030.810	-1346
1030.876	-1486
1030.942	-847
1031.008	-1312
1031.074	-1205
1031.140	-2342
1031.206	-1149
1031.272	-1879
1031.337	-1279
1031.403	-1401
1031.469	-1811
1031.534	-1359
1031.600	-1190
1031.666	-2479
1031.731	-2008
1031.797	-1062
1031.863	-1766
1031.928	-2135
1031.994	-1942
1032.059	-1986
1032.125	-1239
1032.190	-2127
1032.256	-1976
1032.321	-1491
1032.386	-1801
1032.452	-656
1032.517	-2136
1032.582	-1801
1032.647	-944
1032.713	-1610
1032.778	-1510
1032.843	-2172
1032.908	-1727
1032.974	-654
1033.039	-1652
1033.104	-1396
1033.169	-1444
1033.234	-1300
1033.299	-1592
1033.364	-1601
1033.429	-1853
1033.494	-1392
1033.559	-1103
1033.624	-1149
1033.688	-1061
1033.753	-2270
1033.818	-1309
1033.883	-1130
1033.948	-1438
1034.013	-2054
1034.077	-1241
1034.142	-924
1034.207	-1312
1034.271	332
1034.336	202
1034.400	-822
1034.465	-571
1034.530	-1427
1034.594	-747
1034.658	-1296
1034.723	-1943
1034.787	-2119
1034.852	-1906
1034.916	-2370
1034.981	-1107
1035.045	-1488
1035.109	-1824
1035.173	-933
1035.238	-1511
1035.302	-1237
1035.366	-1285
1035.430	-1697
1035.495	-1912
1035.559	-1520
1035.623	-2099
1035.687	-1989
1035.751	-2743
1035.815	-1764
1035.879	-1570
1035.943	-2151
1036.007	-1030
1036.071	-1833
1036.135	-1195
1036.198	-812
1036.262	-2533
1036.326	-1779
1036.390	-1763
1036.454	-1566
1036.517	-1575
1036.581	-1518
1036.645	-924
1036.709	-1945
1036.772	-2117
1036.836	-1266
1036.900	-1290
1036.963	-1369
1037.026	-1327
1037.090	-2179
1037.154	-2216
1037.217	-1065
1037.280	-1344
1037.344	-1950
1037.407	-1141
1037.471	-1913
1037.534	-1627
1037.597	-1880
1037.661	-2343
1037.724	-1764
1037.787	-846
1037.850	-2227
1037.913	-1625
1037.977	-847
1038.040	-1095
1038.103	-1396
1038.166	-2136
1038.229	-848
1038.292	-1670
1038.355	-1860
1038.418	-1346
1038.481	-839
1038.544	-2018
1038.607	-1672
1038.670	-1990
1038.732	-2096
1038.795	-1929
1038.858	-1547
1038.921	-1464
1038.984	-2265
1039.046	-1641
1039.109	-2017
1039.172	-1305
1039.234	-1628
1039.297	-1892
1039.360	-1243
1039.422	-1431
1039.485	-1479
1039.547	-2272
1039.610	-1935
1039.672	-1673
1039.734	-2074
1039.797	-1705
1039.859	-2187
1039.922	-1703
1039.984	-1860
1040.046	-1752
1040.109	-1522
1040.171	-1088
1040.233	-1799
1040.295	-1463
1040.358	-1890
1040.420	-2191
1040.482	-1699
1040.544	-1447
1040.606	-1419
1040.668	-1324
1040.730	-2246
1040.792	-1472
1040.854	-1161
1040.916	-1702
1040.978	-1914
1041.040	-1497
1041.102	-1282
1041.164	-1955
1041.225	-1458
1041.287	-1764
1041.349	-2001
1041.411	-1820
1041.472	-1823
1041.534	-2185
1041.596	-2875
1041.657	-2124
1041.719	-1690
1041.781	-1743
1041.842	-1892
1041.904	-854
1041.965	-984
1042.027	-2072
1042.088	-1929
1042.150	-1764
1042.211	-1395
1042.272	-1791
1042.334	-1886
1042.395	-1693
1042.456	-2094
1042.518	-2296
1042.579	-2037
1042.640	-1955
1042.701	-1474
1042.763	-1349
1042.824	-2203
1042.885	-2503
1042.946	-1581
1043.007	-1616
1043.068	-1609
1043.129	-1827
1043.190	-1926
1043.251	-1087
1043.312	-1477
1043.373	-1831
1043.434	-1269
1043.495	-287
1043.556	-1461
1043.616	-493
1043.677	-1338
1043.738	-1453
1043.799	-1519
1043.859	-1245
1043.920	-1906
1043.981	-2108
1044.041	-1258
1044.102	-891
1044.162	-1578
1044.223	-2146
1044.284	-2226
1044.344	-932
1044.405	-1830
1044.465	-1353
1044.525	-1406
1044.586	-1791
1044.646	-1534
1044.707	-2452
1044.767	-1306
1044.827	-2089
1044.887	-1852
1044.948	-1417
1045.008	-1987
1045.068	-903
1045.128	-1832
1045.188	-1730
1045.249	-259
1045.309	-1686
1045.369	-871
1045.429	-1360
1045.489	-1236
1045.549	-1041
1045.609	-2093
1045.669	-1965
1045.729	-1762
1045.789	-1276
1045.848	-1044
1045.908	-912
1045.968	-1613
1046.028	-1655
1046.088	-645
1046.147	-318
1046.207	-2174
1046.267	-924
1046.326	-1032
1046.386	-986
1046.446	-1165
1046.505	-906
1046.565	-650
1046.624	-635
1046.684	-533
1046.743	-728
1046.803	-468
1046.862	813
1046.922	0
