'Start Wavelength	183.907
'End Wavelength	1046.922
'Gate Delay	5.000
'Gate Width (ms)	1.050
'Laser Output Level	0.000
'X Position	0.000
'Y Position	0.000
'Z Position	0.000
'Grid Point Number	1.000
'Shot Number	100.000
183.907	259.000
183.977	-770.000
184.047	-234
184.116	890
184.186	960
184.256	-185
184.325	354
184.395	-1086
184.465	666
184.534	-302
184.604	-9
184.674	643
184.743	-244
184.813	-340
184.883	6
184.952	104
185.022	865
185.092	-208
185.161	-311
185.231	371
185.301	-673
185.370	54
185.440	-439
185.509	-5
185.579	185
185.649	312
185.718	573
185.788	642
185.857	1
185.927	373
185.996	64
186.066	-141
186.136	370
186.205	-186
186.275	615
186.344	-136
186.414	358
186.483	-769
186.553	458
186.622	-381
186.692	-378
186.761	363
186.831	-46
186.900	-38
186.970	-39
187.039	-329
187.109	744
187.178	-144
187.248	175
187.317	868
187.387	276
187.456	211
187.526	699
187.595	1031
187.664	-12
187.734	-585
187.803	709
187.873	-439
187.942	-485
188.012	235
188.081	67
188.150	544
188.220	532
188.289	190
188.358	586
188.428	469
188.497	-145
188.567	50
188.636	1061
188.705	-54
188.775	-233
188.844	-243
188.913	701
188.983	-151
189.052	-342
189.121	-228
189.191	-106
189.260	-231
189.329	-467
189.399	18
189.468	625
189.537	253
189.606	231
189.676	298
189.745	214
189.814	628
189.883	849
189.953	-14
190.022	350
190.091	451
190.161	437
190.230	276
190.299	-60
190.368	19
190.437	380
190.507	783
190.576	-236
190.645	310
190.714	104
190.783	-408
190.853	694
190.922	315
190.991	235
191.060	59
191.129	-416
191.198	892
191.268	-170
191.337	382
191.406	756
191.475	65
191.544	299
191.613	523
191.682	614
191.752	-87
191.821	66
191.890	-437
191.959	505
192.028	216
192.097	978
192.166	155
192.235	752
192.304	137
192.373	121
192.442	516
192.511	-218
192.580	-56
192.650	-44
192.719	702
192.788	62
192.857	871
192.926	349
192.995	422
193.064	236
193.133	778
193.202	544
193.271	829
193.340	1270
193.409	1898
193.478	671
193.547	383
193.615	596
193.684	1203
193.753	747
193.822	934
193.891	391
193.960	589
194.029	330
194.098	-188
194.167	393
194.236	367
194.305	5
194.374	398
194.443	-510
194.512	177
194.580	542
194.649	782
194.718	911
194.787	404
194.856	141
194.925	769
194.994	691
195.062	602
195.131	1019
195.200	717
195.269	149
195.338	489
195.407	737
195.475	159
195.544	835
195.613	806
195.682	327
195.751	588
195.819	56
195.888	784
195.957	984
196.026	-481
196.094	289
196.163	459
196.232	669
196.301	963
196.369	136
196.438	671
196.507	614
196.576	458
196.644	461
196.713	603
196.782	-178
196.850	545
196.919	773
196.988	113
197.056	335
197.125	-492
197.194	-101
197.262	718
197.331	115
197.400	1332
197.468	-93
197.537	464
197.606	582
197.674	972
197.743	1357
197.812	59
197.880	862
197.949	555
198.017	1084
198.086	687
198.155	-87
198.223	950
198.292	911
198.360	167
198.429	223
198.497	552
198.566	263
198.635	422
198.703	483
198.772	746
198.840	556
198.909	666
198.977	564
199.046	1106
199.114	1283
199.183	778
199.251	864
199.320	188
199.388	341
199.457	-665
199.525	42
199.594	486
199.662	707
199.731	21
199.799	1059
199.867	707
199.936	-60
200.004	622
200.073	1409
200.141	550
200.210	680
200.278	1220
200.346	1171
200.415	874
200.483	285
200.552	671
200.620	476
200.688	65
200.757	873
200.825	428
200.893	1040
200.962	940
201.030	847
201.098	776
201.167	837
201.235	1208
201.303	826
201.372	1189
201.440	766
201.508	912
201.577	1141
201.645	1289
201.713	279
201.781	1134
201.850	498
201.918	369
201.986	502
202.055	555
202.123	1327
202.191	935
202.259	601
202.327	1073
202.396	618
202.464	468
202.532	702
202.600	1375
202.669	830
202.737	56
202.805	1079
202.873	1005
202.941	535
203.009	525
203.078	261
203.146	1532
203.214	714
203.282	-474
203.350	1508
203.418	447
203.487	907
203.555	592
203.623	765
203.691	1926
203.759	-217
203.827	943
203.895	-94
203.963	1250
204.031	312
204.099	456
204.168	419
204.236	875
204.304	341
204.372	1080
204.440	1300
204.508	175
204.576	855
204.644	574
204.712	366
204.780	746
204.848	-247
204.916	796
204.984	1054
205.052	757
205.120	213
205.188	802
205.256	1986
205.324	1067
205.392	825
205.460	1622
205.528	874
205.596	973
205.664	516
205.732	150
205.799	1152
205.867	1390
205.935	884
206.003	1159
206.071	926
206.139	1377
206.207	1378
206.275	200
206.343	1130
206.411	733
206.478	1257
206.546	799
206.614	464
206.682	1143
206.750	1508
206.818	1319
206.885	1270
206.953	-305
207.021	1952
207.089	819
207.157	723
207.225	1901
207.292	626
207.360	539
207.428	1085
207.496	824
207.563	1059
207.631	942
207.699	1440
207.767	1465
207.834	1096
207.902	1314
207.970	868
208.038	1226
208.105	1264
208.173	1243
208.241	1174
208.309	1948
208.376	1220
208.444	1294
208.512	1140
208.579	556
208.647	1405
208.715	1688
208.782	1604
208.850	1349
208.918	1283
208.985	1347
209.053	1117
209.120	806
209.188	1001
209.256	1831
209.323	193
209.391	1815
209.459	2884
209.526	1363
209.594	775
209.661	970
209.729	1657
209.796	1371
209.864	1492
209.932	1095
209.999	2923
210.067	1195
210.134	1336
210.202	1669
210.269	2377
210.337	2183
210.404	1690
210.472	930
210.539	2165
210.607	662
210.674	1675
210.742	1255
210.809	1156
210.877	1743
210.944	1492
211.012	489
211.079	2919
211.146	1367
211.214	1093
211.281	1567
211.349	2193
211.416	2079
211.484	1735
211.551	1312
211.618	1436
211.686	1569
211.753	809
211.821	1876
211.888	1046
211.955	1008
212.023	1385
212.090	1231
212.157	2096
212.225	1571
212.292	2441
212.359	2671
212.427	3934
212.494	2302
212.561	1813
212.629	1480
212.696	1373
212.763	1721
212.831	1515
212.898	1859
212.965	1059
213.032	1936
213.100	2274
213.167	1533
213.234	1782
213.301	1827
213.369	1768
213.436	1520
213.503	894
213.570	2174
213.638	1963
213.705	947
213.772	707
213.839	2688
213.906	1672
213.973	1608
214.041	1187
214.108	2217
214.175	1624
214.242	1349
214.309	1038
214.376	1735
214.444	1549
214.511	1978
214.578	1106
214.645	1817
214.712	2455
214.779	2240
214.846	1174
214.913	2295
214.980	2320
215.048	2573
215.115	2492
215.182	1830
215.249	2288
215.316	1690
215.383	2070
215.450	1842
215.517	1254
215.584	1776
215.651	1861
215.718	1503
215.785	1626
215.852	864
215.919	2373
215.986	2039
216.053	2284
216.120	669
216.187	1450
216.254	2403
216.321	1820
216.388	1737
216.455	2495
216.522	1770
216.589	2406
216.656	2331
216.722	2288
216.789	2877
216.856	2457
216.923	2301
216.990	3249
217.057	2477
217.124	2406
217.191	1786
217.258	3785
217.324	2620
217.391	3247
217.458	2648
217.525	2489
217.592	1679
217.659	1348
217.725	2836
217.792	2482
217.859	2424
217.926	1779
217.993	1621
218.059	2016
218.126	1215
218.193	1005
218.260	1432
218.327	1403
218.393	1586
218.460	1673
218.527	2111
218.594	1920
218.660	1742
218.727	2323
218.794	779
218.860	1754
218.927	1580
218.994	1110
219.061	1611
219.127	1761
219.194	1766
219.261	1846
219.327	1505
219.394	1184
219.461	1186
219.527	1725
219.594	1483
219.661	1063
219.727	737
219.794	1801
219.860	1390
219.927	2152
219.994	1913
220.060	2061
220.127	2738
220.193	2369
220.260	2742
220.326	3579
220.393	3728
220.460	4372
220.526	3492
220.593	2456
220.659	3977
220.726	2916
220.792	3309
220.859	3541
220.925	4685
220.992	6703
221.058	6054
221.125	4864
221.191	4191
221.258	2715
221.324	1936
221.391	1684
221.457	1801
221.524	1836
221.590	2515
221.657	3957
221.723	2070
221.789	3140
221.856	2706
221.922	1687
221.989	2178
222.055	2159
222.121	100
222.188	3309
222.254	2110
222.321	1451
222.387	946
222.453	1519
222.520	2082
222.586	1090
222.652	1603
222.719	1056
222.785	2155
222.851	1220
222.918	1909
222.984	1779
223.050	1388
223.116	671
223.183	1903
223.249	1452
223.315	1090
223.382	1624
223.448	-17
223.514	666
223.580	1602
223.647	1630
223.713	292
223.779	1012
223.845	1444
223.911	1988
223.978	614
224.044	2147
224.110	1135
224.176	1543
224.242	1802
224.309	920
224.375	1036
224.441	1635
224.507	1057
224.573	971
224.639	2019
224.705	1019
224.772	1850
224.838	954
224.904	1784
224.970	1503
225.036	1151
225.102	1474
225.168	1843
225.234	1181
225.300	755
225.366	1147
225.432	1659
225.499	1562
225.565	1112
225.631	1492
225.697	1560
225.763	1752
225.829	2234
225.895	2162
225.961	2146
226.027	3010
226.093	1335
226.159	3435
226.225	4878
226.291	6286
226.357	9926
226.423	5794
226.489	4638
226.554	3071
226.620	3005
226.686	3769
226.752	4070
226.818	6437
226.884	10975
226.950	10168
227.016	5468
227.082	4228
227.148	2749
227.214	3361
227.279	2019
227.345	2209
227.411	2647
227.477	2361
227.543	2276
227.609	2898
227.674	2873
227.740	1606
227.806	2138
227.872	1311
227.938	2049
228.003	2172
228.069	2424
228.135	1324
228.201	1902
228.267	1583
228.332	2235
228.398	183
228.464	1652
228.530	1026
228.595	1894
228.661	1278
228.727	1240
228.792	2845
228.858	821
228.924	-365
228.990	3446
229.055	1084
229.121	1851
229.187	1465
229.252	861
229.318	285
229.384	1380
229.449	2033
229.515	-32
229.581	582
229.646	2395
229.712	1642
229.777	2000
229.843	2490
229.909	2482
229.974	2270
230.040	2500
230.105	2671
230.171	2429
230.236	2552
230.302	2886
230.368	1924
230.433	1074
230.499	2238
230.564	2613
230.630	1460
230.695	1926
230.761	2499
230.826	62
230.892	2505
230.957	652
231.023	1583
231.088	1599
231.154	2179
231.219	1587
231.284	1316
231.350	1835
231.415	1343
231.481	1971
231.546	2456
231.612	1568
231.677	1027
231.742	-60
231.808	2866
231.873	749
231.939	-637
232.004	2332
232.069	2327
232.135	1273
232.200	1511
232.265	2017
232.331	942
232.396	1224
232.461	1064
232.527	1663
232.592	1642
232.657	1055
232.723	1362
232.788	1453
232.853	1447
232.918	1746
232.984	1418
233.049	1148
233.114	883
233.179	1949
233.245	2439
233.310	1735
233.375	30
233.440	2037
233.506	1413
233.571	1487
233.636	774
233.701	1859
233.766	1748
233.832	1218
233.897	1758
233.962	370
234.027	2617
234.092	1492
234.157	1184
234.222	744
234.288	2003
234.353	2917
234.418	3966
234.483	3358
234.548	2328
234.613	2474
234.678	2186
234.743	1611
234.808	4808
234.873	2525
234.938	3309
235.004	1730
235.069	1546
235.134	787
235.199	1824
235.264	1943
235.329	502
235.394	2269
235.459	3386
235.524	743
235.589	2311
235.654	2150
235.719	1078
235.784	2250
235.849	1451
235.913	2890
235.978	2222
236.043	2947
236.108	1841
236.173	1096
236.238	2475
236.303	1606
236.368	1783
236.433	3435
236.498	3072
236.563	3813
236.627	6261
236.692	14936
236.757	13280
236.822	6466
236.887	3950
236.952	4454
237.017	2585
237.081	4467
237.146	4046
237.211	9338
237.276	13854
237.341	16713
237.405	11465
237.470	6429
237.535	4212
237.600	3505
237.664	3459
237.729	2336
237.794	2570
237.859	7065
237.923	4041
237.988	2873
238.053	3289
238.118	2527
238.182	3336
238.247	4856
238.312	1009
238.376	2299
238.441	1384
238.506	2334
238.570	639
238.635	2722
238.700	2190
238.764	1024
238.829	2870
238.893	2332
238.958	2220
239.023	1949
239.087	1837
239.152	1871
239.216	1084
239.281	1613
239.346	1514
239.410	1532
239.475	819
239.539	5295
239.604	2682
239.668	2512
239.733	1523
239.797	2084
239.862	4495
239.926	4142
239.991	2385
240.055	2001
240.120	1673
240.184	1894
240.249	1417
240.313	903
240.378	1487
240.442	2714
240.507	4280
240.571	1678
240.635	1536
240.700	2663
240.764	1736
240.829	1333
240.893	869
240.957	1752
241.022	2341
241.086	4818
241.151	1091
241.215	-39
241.279	3144
241.344	2184
241.408	2078
241.472	1061
241.537	2650
241.601	2186
241.665	1217
241.730	1489
241.794	2946
241.858	1494
241.922	1840
241.987	1868
242.051	1721
242.115	802
242.179	2169
242.244	1170
242.308	2387
242.372	2147
242.436	1741
242.501	1682
242.565	914
242.629	1833
242.693	2163
242.757	1226
242.822	1678
242.886	2116
242.950	2517
243.014	1535
243.078	2121
243.142	1486
243.206	1603
243.271	2456
243.335	2194
243.399	3635
243.463	6232
243.527	15567
243.591	5694
243.655	3408
243.719	1214
243.783	3285
243.847	3350
243.911	4078
243.975	4078
244.040	2453
244.104	3082
244.168	2345
244.232	2092
244.296	3392
244.360	3998
244.424	1654
244.488	1842
244.552	1970
244.615	383
244.679	2178
244.743	1661
244.807	1603
244.871	2489
244.935	1592
244.999	814
245.063	981
245.127	2704
245.191	2952
245.255	2341
245.319	2173
245.383	1016
245.446	3282
245.510	1437
245.574	2022
245.638	2936
245.702	267
245.766	2876
245.829	3041
245.893	1125
245.957	1111
246.021	2636
246.085	1303
246.149	2000
246.212	4613
246.276	4780
246.340	3764
246.404	3542
246.467	3013
246.531	1609
246.595	3199
246.659	2377
246.722	988
246.786	3233
246.850	2908
246.913	3637
246.977	857
247.041	1947
247.104	2131
247.168	2703
247.232	3610
247.295	6861
247.359	4058
247.423	2630
247.486	4527
247.550	4130
247.614	2316
247.677	2996
247.741	2435
247.804	1552
247.868	2826
247.932	2942
247.995	7860
248.059	3367
248.122	1436
248.186	3665
248.249	4218
248.313	10146
248.376	11125
248.440	6566
248.503	3093
248.567	4721
248.630	3724
248.694	6149
248.757	7438
248.821	11161
248.884	8651
248.948	7473
249.011	10423
249.075	12788
249.138	11964
249.202	5679
249.265	3489
249.328	5060
249.392	3623
249.455	4362
249.519	2453
249.582	3746
249.645	5662
249.709	4893
249.772	3809
249.835	4209
249.899	2832
249.962	3259
250.025	2513
250.089	4903
250.152	7784
250.215	4308
250.279	3085
250.342	3168
250.405	3363
250.468	2934
250.532	4580
250.595	6027
250.658	13442
250.721	24155
250.785	9501
250.848	6578
250.911	2586
250.974	4782
251.038	5277
251.101	8069
251.164	4998
251.227	5778
251.290	5432
251.354	7569
251.417	20425
251.480	21630
251.543	16390
251.606	35028
251.669	27947
251.732	13315
251.795	11542
251.859	11836
251.922	23087
251.985	15461
252.048	7751
252.111	6024
252.174	4695
252.237	8567
252.300	14072
252.363	15244
252.426	29484
252.489	13156
252.552	8153
252.615	5252
252.678	6980
252.741	10878
252.804	15020
252.867	30645
252.930	18904
252.993	10738
253.056	7768
253.119	4886
253.182	3041
253.245	6034
253.308	5657
253.371	4620
253.434	4834
253.497	4214
253.559	7603
253.622	5723
253.685	6245
253.748	7372
253.811	3494
253.874	4383
253.937	4380
254.000	3175
254.062	5065
254.125	7674
254.188	7613
254.251	6874
254.314	3927
254.376	5625
254.439	6552
254.502	5013
254.565	4796
254.628	9593
254.690	5408
254.753	3812
254.816	2503
254.878	3294
254.941	5684
255.004	5612
255.067	2706
255.129	2428
255.192	2140
255.255	709
255.317	2727
255.380	1640
255.443	1525
255.505	1835
255.568	465
255.631	2044
255.693	1676
255.756	1231
255.819	1967
255.881	1035
255.944	1894
256.006	1252
256.069	960
256.132	1957
256.194	1963
256.257	3687
256.319	2643
256.382	2116
256.444	2891
256.507	2375
256.569	2137
256.632	2714
256.694	3690
256.757	10137
256.819	26851
256.882	11125
256.944	5330
257.007	4894
257.069	4380
257.132	2515
257.194	3530
257.257	2744
257.319	2592
257.381	2506
257.444	7752
257.506	27352
257.569	32392
257.631	14808
257.693	7811
257.756	4042
257.818	3535
257.880	2761
257.943	3184
258.005	2300
258.067	2612
258.130	2479
258.192	2214
258.254	3596
258.317	3314
258.379	3138
258.441	4720
258.503	4928
258.566	4371
258.628	5653
258.690	1950
258.753	3841
258.815	5005
258.877	2561
258.939	2829
259.001	3083
259.064	1798
259.126	2501
259.188	3142
259.250	2473
259.312	2767
259.375	4852
259.437	3016
259.499	2788
259.561	2383
259.623	3369
259.685	2422
259.747	2559
259.809	4823
259.872	7439
259.934	11670
259.996	11988
260.058	4949
260.120	1737
260.182	2145
260.244	2348
260.306	2629
260.368	2751
260.430	2434
260.492	3817
260.554	7172
260.616	3582
260.678	7273
260.740	7195
260.802	2056
260.864	3534
260.926	1748
260.988	3220
261.050	2231
261.112	5485
261.174	10383
261.236	7186
261.298	3060
261.359	4312
261.421	4881
261.483	2724
261.545	3058
261.607	1048
261.669	2683
261.731	2617
261.793	6145
261.854	2201
261.916	2750
261.978	2299
262.040	2953
262.102	2690
262.164	2015
262.225	2442
262.287	2828
262.349	3969
262.411	4044
262.472	3186
262.534	2540
262.596	3868
262.658	2778
262.719	1474
262.781	1672
262.843	3409
262.904	2973
262.966	2966
263.028	3364
263.090	8692
263.151	23198
263.213	9585
263.275	5430
263.336	2743
263.398	2909
263.459	961
263.521	1667
263.583	5366
263.644	3339
263.706	2321
263.767	1081
263.829	2415
263.891	758
263.952	1603
264.014	1161
264.075	2111
264.137	7093
264.198	4172
264.260	1076
264.321	1297
264.383	3928
264.444	10418
264.506	3609
264.567	3182
264.629	4789
264.690	7706
264.752	3385
264.813	2940
264.875	1639
264.936	1960
264.998	2529
265.059	1363
265.120	2174
265.182	3143
265.243	16404
265.305	18243
265.366	4543
265.427	2844
265.489	3093
265.550	1578
265.611	2182
265.673	2593
265.734	2401
265.795	2487
265.857	1287
265.918	2393
265.979	5140
266.040	23770
266.102	22216
266.163	6930
266.224	4790
266.286	3984
266.347	2074
266.408	2149
266.469	1579
266.530	1301
266.592	2884
266.653	2878
266.714	4873
266.775	1377
266.836	1659
266.898	1540
266.959	2805
267.020	2157
267.081	2188
267.142	1342
267.203	1297
267.264	1125
267.326	2508
267.387	1050
267.448	860
267.509	2337
267.570	1785
267.631	1555
267.692	1405
267.753	1890
267.814	954
267.875	2970
267.936	5870
267.997	4710
268.058	3605
268.119	2312
268.180	2310
268.241	2046
268.302	1761
268.363	1425
268.424	1459
268.485	2036
268.546	1153
268.607	2282
268.668	1169
268.729	1372
268.790	1916
268.851	1914
268.912	3938
268.972	4784
269.033	3113
269.094	1620
269.155	2564
269.216	618
269.277	1789
269.338	1635
269.398	1972
269.459	1523
269.520	2789
269.581	3596
269.642	3572
269.702	2644
269.763	2828
269.824	1948
269.885	2295
269.945	3796
270.006	2236
270.067	1460
270.128	1255
270.188	1218
270.249	1195
270.310	1989
270.370	2220
270.431	1555
270.492	1131
270.553	2248
270.613	3258
270.674	6328
270.734	2461
270.795	2317
270.856	2623
270.916	2129
270.977	2430
271.038	2578
271.098	2297
271.159	3935
271.219	3252
271.280	2925
271.340	1591
271.401	1630
271.462	3804
271.522	2755
271.583	1750
271.643	2729
271.704	1203
271.764	2609
271.825	4911
271.885	12557
271.946	15430
272.006	5974
272.066	7792
272.127	12090
272.187	5104
272.248	3823
272.308	2350
272.369	7716
272.429	5337
272.489	4622
272.550	5271
272.610	5091
272.671	3885
272.731	2723
272.791	3850
272.852	2517
272.912	3143
272.972	2956
273.033	1579
273.093	2968
273.153	3205
273.214	2557
273.274	1804
273.334	7262
273.394	12518
273.455	6087
273.515	5061
273.575	10380
273.635	5153
273.696	5895
273.756	11013
273.816	6187
273.876	4014
273.936	4419
273.997	8064
274.057	3587
274.117	2198
274.177	3785
274.237	14151
274.297	13003
274.358	7511
274.418	9418
274.478	8210
274.538	3289
274.598	2861
274.658	6058
274.718	7022
274.778	4452
274.838	3456
274.898	3517
274.958	8667
275.018	11099
275.078	8238
275.138	4335
275.198	2848
275.258	2343
275.318	3206
275.378	3888
275.438	5746
275.498	3638
275.558	5469
275.618	9774
275.678	8399
275.738	6734
275.798	5336
275.858	3239
275.918	1760
275.978	3109
276.038	3140
276.098	2728
276.157	3133
276.217	10958
276.277	4216
276.337	4274
276.397	3554
276.457	2937
276.517	2574
276.576	1772
276.636	2014
276.696	2377
276.756	6572
276.815	4739
276.875	3048
276.935	2341
276.995	3362
277.055	2564
277.114	2073
277.174	2855
277.234	7705
277.293	3990
277.353	3042
277.413	2577
277.472	2155
277.532	2679
277.592	3033
277.651	5030
277.711	10183
277.771	4006
277.830	11407
277.890	10915
277.950	6838
278.009	18046
278.069	7869
278.128	7404
278.188	10730
278.248	4494
278.307	10502
278.367	7353
278.426	3183
278.486	3118
278.545	2602
278.605	2904
278.664	2436
278.724	2437
278.783	5324
278.843	12448
278.902	4833
278.962	2766
279.021	3529
279.081	3840
279.140	3782
279.199	3897
279.259	4231
279.318	3692
279.378	4251
279.437	6345
279.496	17581
279.556	37840
279.615	28841
279.675	9158
279.734	7200
279.793	9903
279.853	14830
279.912	6752
279.971	4701
280.031	4070
280.090	6839
280.149	11115
280.208	7225
280.268	27883
280.327	26722
280.386	7894
280.445	7053
280.505	6741
280.564	3524
280.623	3693
280.682	4329
280.742	7403
280.801	3536
280.860	2818
280.919	2727
280.978	2660
281.037	2433
281.097	1781
281.156	2773
281.215	2865
281.274	2501
281.333	8303
281.392	6478
281.451	2817
281.510	2604
281.569	1715
281.628	2258
281.688	1834
281.747	2735
281.806	2832
281.865	2031
281.924	2645
281.983	1939
282.042	1484
282.101	1122
282.160	2520
282.219	1927
282.278	2085
282.337	5760
282.396	5215
282.454	2864
282.513	2181
282.572	8201
282.631	5451
282.690	2098
282.749	1923
282.808	2244
282.867	2840
282.926	3418
282.985	2169
283.043	2197
283.102	2203
283.161	2438
283.220	4225
283.279	7788
283.338	3744
283.396	2202
283.455	2322
283.514	3198
283.573	3788
283.631	2643
283.690	3011
283.749	2196
283.808	4820
283.866	5111
283.925	3162
283.984	2642
284.043	3309
284.101	3412
284.160	2281
284.219	3412
284.277	2978
284.336	3714
284.395	10506
284.453	9178
284.512	3867
284.570	5544
284.629	4833
284.688	4420
284.746	4141
284.805	4129
284.863	5355
284.922	7546
284.981	7778
285.039	10897
285.098	17102
285.156	33877
285.215	49741
285.273	49137
285.332	37353
285.390	21533
285.449	12860
285.507	10140
285.566	7461
285.624	5754
285.683	5311
285.741	4819
285.799	4212
285.858	3391
285.916	2884
285.975	3256
286.033	3042
286.091	2733
286.150	2450
286.208	2776
286.267	2552
286.325	3367
286.383	4311
286.442	3688
286.500	2595
286.558	2480
286.616	2363
286.675	2871
286.733	2742
286.791	2432
286.850	3327
286.908	2817
286.966	5218
287.024	2287
287.083	2437
287.141	2099
287.199	2418
287.257	3853
287.315	2712
287.374	2860
287.432	5849
287.490	3719
287.548	2762
287.606	3384
287.664	2782
287.723	3477
287.781	4743
287.839	3084
287.897	3278
287.955	4307
288.013	5517
288.071	9970
288.129	29961
288.187	75952
288.245	38291
288.303	13547
288.361	8123
288.419	5680
288.477	4810
288.535	3257
288.593	3164
288.651	3257
288.709	3001
288.767	3282
288.825	1833
288.883	2610
288.941	2302
288.999	2152
289.057	2434
289.115	2333
289.173	2054
289.231	2025
289.289	2356
289.346	2053
289.404	2449
289.462	3418
289.520	3830
289.578	2635
289.636	2016
289.694	2050
289.751	2026
289.809	1837
289.867	1847
289.925	3008
289.983	3155
290.040	2561
290.098	1669
290.156	2896
290.214	2763
290.271	2778
290.329	1851
290.387	1652
290.444	1597
290.502	1782
290.560	2092
290.617	2418
290.675	2329
290.733	1931
290.790	2778
290.848	2005
290.906	2059
290.963	2629
291.021	1630
291.078	2066
291.136	2486
291.194	4687
291.251	10791
291.309	3607
291.366	2478
291.424	2272
291.481	2853
291.539	2154
291.596	2514
291.654	1652
291.711	2220
291.769	2852
291.826	4031
291.884	2462
291.941	2202
291.999	1712
292.056	2325
292.114	3105
292.171	1993
292.228	3178
292.286	2124
292.343	3752
292.401	4278
292.458	3476
292.515	2200
292.573	2938
292.630	2206
292.687	2638
292.745	2479
292.802	3251
292.859	6589
292.917	8890
292.974	6491
293.031	3241
293.089	2314
293.146	2309
293.203	1565
293.260	1776
293.318	2176
293.375	3762
293.432	3026
293.489	2224
293.546	2648
293.604	2646
293.661	6477
293.718	13751
293.775	8197
293.832	4859
293.889	3269
293.947	3585
294.004	3256
294.061	3258
294.118	4618
294.175	9824
294.232	14709
294.289	6127
294.346	3999
294.403	4291
294.460	3427
294.517	2301
294.574	3154
294.631	2682
294.688	3337
294.745	5407
294.802	15789
294.859	20855
294.916	8318
294.973	4570
295.030	4552
295.087	3379
295.144	3167
295.201	3633
295.258	2770
295.315	3026
295.372	7558
295.429	11049
295.486	6750
295.542	5306
295.599	9582
295.656	15809
295.713	10335
295.770	11183
295.827	5622
295.883	3778
295.940	2579
295.997	4138
296.054	4656
296.111	3035
296.167	3022
296.224	2564
296.281	2062
296.338	2712
296.394	3064
296.451	3380
296.508	5862
296.564	9994
296.621	7878
296.678	12294
296.734	17249
296.791	7775
296.848	4924
296.904	4988
296.961	8934
297.018	11858
297.074	10130
297.131	4948
297.187	4161
297.244	4389
297.301	10521
297.357	18757
297.414	8153
297.470	3799
297.527	3248
297.583	3671
297.640	3019
297.696	2915
297.753	2915
297.809	2287
297.866	2051
297.922	2665
297.979	2674
298.035	2436
298.092	3799
298.148	7028
298.204	7588
298.261	4141
298.317	6771
298.374	14499
298.430	9124
298.486	5506
298.543	4294
298.599	3765
298.656	4297
298.712	5921
298.768	13840
298.824	9505
298.881	3769
298.937	3366
298.993	3537
299.050	3289
299.106	3561
299.162	3379
299.218	3120
299.275	3040
299.331	2969
299.387	4671
299.443	12165
299.500	13999
299.556	6216
299.612	4024
299.668	4442
299.724	4412
299.780	4222
299.837	3108
299.893	4066
299.949	11298
300.005	13814
300.061	10989
300.117	18049
300.173	9085
300.229	4827
300.285	6049
300.341	7020
300.397	4319
300.453	3760
300.510	2656
300.566	2527
300.622	3416
300.678	6846
300.734	12003
300.790	10676
300.845	11942
300.901	8570
300.957	11595
301.013	9949
301.069	4427
301.125	3433
301.181	3903
301.237	2377
301.293	2458
301.349	2600
301.405	2524
301.461	2589
301.516	4051
301.572	3520
301.628	5629
301.684	4588
301.740	5575
301.796	9801
301.851	7169
301.907	10835
301.963	10201
302.019	11793
302.074	28533
302.130	31880
302.186	16520
302.242	8694
302.297	5606
302.353	5559
302.409	8161
302.464	8155
302.520	6242
302.576	13270
302.631	16164
302.687	10424
302.743	4954
302.798	4029
302.854	3507
302.910	3934
302.965	3582
303.021	6557
303.076	6846
303.132	7195
303.187	7513
303.243	5363
303.299	3147
303.354	3612
303.410	3412
303.465	2948
303.521	3033
303.576	3554
303.632	2930
303.687	5188
303.743	11812
303.798	11044
303.853	5358
303.909	3941
303.964	3257
304.020	4298
304.075	6612
304.130	5941
304.186	9544
304.241	10825
304.297	8703
304.352	5092
304.358	4969
304.407	3974
304.449	3948
304.463	3940
304.518	3703
304.539	3474
304.573	3119
304.629	3573
304.630	3587
304.684	4396
304.720	7616
304.739	9164
304.794	13584
304.811	11899
304.850	7871
304.902	4217
304.905	3988
304.960	3533
304.992	3625
305.015	3669
305.071	4019
305.083	3926
305.126	3578
305.173	2567
305.181	2417
305.236	2524
305.264	2856
305.292	3152
305.347	3012
305.354	2979
305.402	2910
305.445	3682
305.457	3857
305.512	4907
305.535	4740
305.567	4542
305.622	3635
305.626	3706
305.678	6139
305.716	11940
305.733	13753
305.788	14251
305.807	12473
305.843	9930
305.897	12178
305.898	12191
305.953	12839
305.988	8975
306.008	7004
306.063	5198
306.078	4623
306.118	3266
306.168	2639
306.173	2576
306.228	2726
306.259	2715
306.283	2915
306.338	2881
306.349	3068
306.393	3487
306.440	3649
306.448	3703
306.503	3842
306.530	3764
306.558	4355
306.613	7241
306.620	7748
306.668	10789
306.711	13879
306.723	14003
306.778	10981
306.801	8374
306.833	5807
306.888	3609
306.892	3502
306.943	2804
306.982	2783
306.997	2760
307.052	2912
307.072	2747
307.107	2838
307.162	4117
307.163	4121
307.217	4776
307.253	5303
307.272	5247
307.327	5857
307.343	5540
307.381	5241
307.434	5401
307.436	5544
307.491	9536
307.524	13111
307.546	13542
307.600	12680
307.614	11504
307.655	8236
307.704	5470
307.710	5453
307.765	6267
307.795	7411
307.819	8275
307.874	11621
307.885	11764
307.929	10971
307.975	10231
307.984	10857
308.038	16346
308.065	20080
308.093	31956
308.148	60725
308.156	66230
308.202	85757
308.246	96189
308.257	93388
308.312	58612
308.336	44184
308.366	34621
308.421	21345
308.426	20168
308.475	13920
308.517	10301
308.530	9701
308.585	8207
308.607	7646
308.639	7459
308.694	7818
308.697	7866
308.748	11789
308.787	15743
308.803	15611
308.857	12456
308.877	11197
308.912	11120
308.967	12379
308.967	12390
309.021	17474
309.058	21636
309.076	27463
309.130	46559
309.148	53924
309.185	78911
309.238	119577
309.239	119893
309.293	120561
309.328	113444
309.348	101132
309.402	59047
309.418	47663
309.457	35269
309.508	22768
309.511	22453
309.566	18545
309.598	16778
309.620	17459
309.674	19962
309.688	20733
309.729	19176
309.778	16102
309.783	15860
309.837	12814
309.868	11274
309.892	14236
309.946	21651
309.959	23909
310.001	28321
310.049	31644
310.055	30498
310.109	17585
310.139	10620
310.163	8863
310.218	5897
310.229	5317
310.272	4999
310.319	5154
310.326	5031
310.381	3947
310.409	3578
310.435	3618
310.489	3464
310.499	3451
310.543	3404
310.589	3411
310.598	3444
310.652	3693
310.679	3706
310.706	3486
310.760	3120
310.769	3084
310.814	3425
310.859	3640
310.868	3571
310.923	3097
310.948	2922
310.977	3565
311.031	4753
311.038	4926
311.085	4196
311.128	3283
311.139	3362
311.193	4003
311.218	4147
311.247	3999
311.301	3943
311.308	3928
311.356	3745
311.398	3506
311.410	3524
311.464	3584
311.488	3637
311.518	3685
311.572	3704
311.578	3710
311.626	5087
311.668	6258
311.680	6181
311.734	5727
311.758	5547
311.788	5072
311.842	4136
311.847	4035
311.896	6177
311.937	8063
311.950	7884
312.004	7013
312.027	6599
312.058	5876
312.112	4586
312.117	4450
312.165	4288
312.207	4138
312.297	6375
312.386	4519
312.476	4948
312.566	8310
312.656	3994
312.745	3593
312.835	4505
312.925	4618
313.015	3932
313.104	3969
313.194	4130
313.284	3373
313.374	6102
313.463	4764
313.553	3928
313.643	3208
313.732	3575
313.822	3871
313.912	4038
314.001	4609
314.091	4922
314.180	5955
314.270	5348
314.360	5880
314.449	5477
314.539	2960
314.628	3418
314.718	4324
314.808	5680
314.897	4125
314.987	4180
315.076	4367
315.166	5649
315.255	4834
315.345	5878
315.434	4279
315.524	5056
315.613	5365
315.703	6874
315.792	6642
315.881	8079
315.971	5335
316.060	7846
316.150	10012
316.239	9880
316.328	3421
316.418	4077
316.507	4391
316.597	5669
316.686	4344
316.775	6455
316.865	9544
316.954	3439
317.043	3138
317.133	3229
317.222	3087
317.311	3576
317.400	3039
317.490	5711
317.579	5178
317.668	4434
317.757	5015
317.847	8343
317.936	13166
318.025	12449
318.114	5958
318.203	5974
318.293	9322
318.382	16260
318.471	13244
318.560	18371
318.649	33450
318.738	6327
318.828	6274
318.917	6260
319.006	6632
319.095	14516
319.184	44273
319.273	22975
319.362	11845
319.451	5525
319.540	5289
319.629	11860
319.718	15931
319.807	8014
319.896	16381
319.985	52165
320.074	16392
320.163	6259
320.252	7530
320.341	9165
320.430	7317
320.519	9498
320.608	5793
320.697	5242
320.786	5258
320.875	6755
320.964	7342
321.053	11211
321.142	17190
321.230	15316
321.319	12730
321.408	29363
321.497	10839
321.586	12182
321.675	12187
321.764	13074
321.852	8744
321.941	17647
322.030	10087
322.119	13095
322.207	28676
322.296	15862
322.385	9007
322.474	12269
322.562	35049
322.651	15650
322.740	13857
322.829	16731
322.917	13669
323.006	9904
323.095	9846
323.183	6393
323.272	10760
323.361	17814
323.449	37386
323.538	12683
323.626	28993
323.715	14222
323.804	8421
323.892	25143
323.981	13244
324.069	6066
324.158	14266
324.246	11234
324.335	8161
324.424	11226
324.512	4968
324.601	7218
324.689	11125
324.778	15473
324.866	10506
324.954	4418
325.043	4634
325.131	7409
325.220	11227
325.308	11155
325.397	10418
325.485	5532
325.574	3584
325.662	3881
325.750	4987
325.839	4365
325.927	3589
326.015	5330
326.104	5984
326.192	5503
326.280	3714
326.369	4069
326.457	5305
326.545	10398
326.634	5310
326.722	3126
326.810	4421
326.898	3298
326.987	4082
327.075	9458
327.163	7716
327.251	3912
327.340	7388
327.428	8646
327.516	3266
327.604	4052
327.692	3298
327.781	4324
327.869	5293
327.957	5204
328.045	4414
328.133	4187
328.221	3407
328.309	3722
328.397	4457
328.485	4949
328.574	6868
328.662	19946
328.750	8544
328.838	4159
328.926	3767
329.014	3626
329.102	5723
329.190	13681
329.278	7661
329.366	3671
329.454	4047
329.542	4377
329.630	3835
329.718	4397
329.806	4984
329.893	6261
329.981	7233
330.069	13425
330.157	41474
330.245	81063
330.333	44987
330.421	12535
330.509	10123
330.597	25984
330.684	14246
330.772	7332
330.860	7900
330.948	10963
331.036	4787
331.123	3599
331.211	3520
331.299	4277
331.387	11499
331.475	15359
331.562	5221
331.650	3647
331.738	3990
331.825	4729
331.913	3357
332.001	2944
332.089	4546
332.176	7257
332.264	14125
332.352	9650
332.439	4615
332.527	4584
332.614	3620
332.702	5024
332.790	3953
332.877	8246
332.965	11014
333.052	4198
333.140	5020
333.228	9281
333.315	3611
333.403	4410
333.490	8397
333.578	6599
333.665	9786
333.753	6011
333.840	3085
333.928	5317
334.015	10036
334.103	16693
334.190	46998
334.278	10833
334.365	6501
334.452	4794
334.540	3545
334.627	4512
334.715	6690
334.802	10517
334.889	45377
334.977	34246
335.064	6823
335.151	4702
335.239	5512
335.326	6563
335.413	28673
335.501	31589
335.588	5737
335.675	4299
335.762	6955
335.850	9490
335.937	6508
336.024	15401
336.111	50034
336.199	17524
336.286	5047
336.373	4257
336.460	3237
336.547	4040
336.635	4401
336.722	5443
336.809	3610
336.896	6119
336.983	19439
337.070	41854
337.157	49545
337.245	31299
337.332	16860
337.419	4442
337.506	3843
337.593	5871
337.680	16653
337.767	39900
337.854	12472
337.941	13741
338.028	11453
338.115	5307
338.202	7625
338.289	10868
338.376	29386
338.463	10158
338.550	26475
338.637	22589
338.724	8589
338.811	9617
338.898	3393
338.984	3989
339.071	5149
339.158	5653
339.245	12573
339.332	7356
339.419	8489
339.506	7138
339.593	2276
339.679	3766
339.766	3134
339.853	5641
339.940	9058
340.027	3978
340.113	4117
340.200	6342
340.287	4294
340.374	6210
340.460	8576
340.547	3944
340.634	7652
340.720	22903
340.807	10691
340.894	3893
340.980	3419
341.067	3577
341.154	4319
341.240	6762
341.327	11485
341.414	4904
341.500	5357
341.587	4828
341.674	4759
341.760	8436
341.847	9489
341.933	4061
342.020	2431
342.106	2855
342.193	4549
342.279	6812
342.366	5631
342.452	9133
342.539	5857
342.625	12062
342.712	22424
342.798	10334
342.885	4331
342.971	2079
343.058	2717
343.144	3202
343.230	3213
343.317	3430
343.403	2578
343.490	3138
343.576	2506
343.662	4082
343.749	4402
343.835	4853
343.921	8358
344.008	37379
344.094	62651
344.180	15610
344.267	8749
344.353	22391
344.439	20274
344.525	13284
344.612	13878
344.698	13968
344.784	7502
344.870	4634
344.957	4454
345.043	6874
345.129	4191
345.215	8592
345.301	5527
345.387	4136
345.474	2941
345.560	3137
345.646	3993
345.732	4068
345.818	4289
345.904	3792
345.990	3925
346.076	4471
346.162	5827
346.249	4543
346.335	2981
346.421	4822
346.507	10772
346.593	26191
346.679	6861
346.765	4901
346.851	4143
346.937	3519
347.023	4028
347.108	4429
347.194	3302
347.280	3842
347.366	4968
347.452	11539
347.538	31688
347.624	26194
347.710	19397
347.796	4598
347.882	4190
347.967	3797
348.053	4730
348.139	3779
348.225	3567
348.311	3786
348.397	3176
348.482	5731
348.568	4898
348.654	2722
348.740	2737
348.825	2955
348.911	6804
348.997	18775
349.083	28298
349.168	5821
349.254	4256
349.340	4878
349.425	3505
349.511	5561
349.597	4851
349.682	9457
349.768	23229
349.854	10583
349.939	4821
350.025	3994
350.110	4297
350.196	3615
350.282	2326
350.367	3137
350.453	4509
350.538	4767
350.624	5503
350.709	5262
350.795	3371
350.880	2943
350.966	5058
351.051	5678
351.137	4056
351.222	4037
351.308	10573
351.393	22272
351.479	5980
351.564	3447
351.649	4111
351.735	3987
351.820	3413
351.906	4108
351.991	4983
352.076	16225
352.162	19559
352.247	4927
352.332	5249
352.418	8242
352.503	10351
352.588	35308
352.673	24345
352.759	7375
352.844	4451
352.929	5270
353.014	5558
353.100	5916
353.185	7652
353.270	10019
353.355	9570
353.441	5111
353.526	4806
353.611	9506
353.696	9701
353.781	7540
353.866	3285
353.952	5259
354.037	9568
354.122	18845
354.207	15637
354.292	7060
354.377	4095
354.462	4818
354.547	4970
354.632	5105
354.717	7912
354.802	8450
354.887	4198
354.972	4128
355.057	3787
355.142	3312
355.227	5283
355.312	7218
355.397	13902
355.482	28299
355.567	13575
355.652	12633
355.737	11470
355.822	28335
355.907	19283
355.991	6149
356.076	2963
356.161	4211
356.246	3921
356.331	5174
356.416	8373
356.501	40743
356.585	34061
356.670	7797
356.755	7308
356.840	10431
356.924	35632
357.009	88411
357.094	34500
357.179	10474
357.263	8543
357.348	8865
357.433	8096
357.517	7734
357.602	6416
357.687	5779
357.771	11155
357.856	25362
357.941	15247
358.025	28677
358.110	85743
358.195	40390
358.279	9779
358.364	8725
358.448	23516
358.533	53407
358.617	38876
358.702	35581
358.787	13960
358.871	11034
358.956	9130
359.040	5029
359.125	4635
359.209	5334
359.294	14499
359.378	19194
359.462	9594
359.547	5894
359.631	4132
359.716	3903
359.800	5263
359.885	7077
359.969	4242
360.053	5474
360.138	5405
360.222	6859
360.306	9353
360.391	9137
360.475	16814
360.559	29176
360.644	24408
360.728	15165
360.812	27010
360.896	53236
360.981	27370
361.065	16355
361.149	7189
361.233	6332
361.318	4867
361.402	5162
361.486	5583
361.570	4600
361.654	5640
361.739	12764
361.823	41434
361.907	51608
361.991	12169
362.075	10138
362.159	16368
362.243	13027
362.327	10158
362.411	10306
362.495	7026
362.580	5324
362.664	4435
362.748	3851
362.832	6032
362.916	7078
363.000	18344
363.084	46647
363.168	59311
363.252	17008
363.336	9052
363.420	11932
363.503	40187
363.587	39960
363.671	9707
363.755	7337
363.839	10816
363.923	6271
364.007	11055
364.091	11247
364.175	16581
364.258	57749
364.342	32732
364.426	26929
364.510	14430
364.594	13036
364.677	16563
364.761	48666
364.845	32282
364.929	17494
365.013	13916
365.096	12505
365.180	12206
365.264	20500
365.347	57768
365.431	24741
365.515	8782
365.598	5753
365.682	6309
365.766	8735
365.849	10387
365.933	5894
366.017	8523
366.100	6507
366.184	4092
366.267	5853
366.351	5088
366.435	4519
366.518	3375
366.602	4313
366.685	5187
366.769	6130
366.852	8207
366.936	13244
367.019	7445
367.103	7323
367.186	12190
367.270	5226
367.353	3813
367.436	5654
367.520	4543
367.603	6188
367.687	6249
367.770	10690
367.853	7489
367.937	18805
368.020	24223
368.104	8293
368.187	10038
368.270	14182
368.353	11527
368.437	12696
368.520	20737
368.603	15378
368.687	22837
368.770	34168
368.853	10822
368.936	13183
369.020	12411
369.103	5538
369.186	4475
369.269	5023
369.352	9306
369.436	10324
369.519	7512
369.602	3882
369.685	6324
369.768	5931
369.851	5550
369.934	3775
370.018	5940
370.101	9910
370.184	9423
370.267	7421
370.350	9696
370.433	14686
370.516	28254
370.599	27666
370.682	11481
370.765	26481
370.848	29158
370.931	40343
371.014	18041
371.097	5667
371.180	5377
371.263	3774
371.346	2804
371.429	4825
371.511	4001
371.594	7690
371.677	11697
371.760	13520
371.843	10742
371.926	41445
372.009	71415
372.091	29436
372.174	20319
372.257	36208
372.340	16142
372.423	17081
372.505	18366
372.588	9720
372.671	19047
372.754	41035
372.836	20815
372.919	22966
373.002	37019
373.085	11438
373.167	11696
373.250	23143
373.332	38704
373.415	57245
373.498	92813
373.580	39758
373.663	48629
373.746	56919
373.828	17912
373.911	10645
373.993	11581
374.076	37456
374.159	30875
374.241	16265
374.324	38435
374.406	26505
374.489	35209
374.571	74562
374.654	32052
374.736	21744
374.819	50629
374.901	74410
374.983	65541
375.066	15539
375.148	9311
375.231	32068
375.313	51745
375.395	19091
375.478	6711
375.560	6039
375.643	6617
375.725	20539
375.807	61027
375.890	45101
375.972	18853
376.054	14047
376.136	16992
376.219	9171
376.301	23629
376.383	49292
376.465	21010
376.548	17420
376.630	21398
376.712	45683
376.794	20438
376.877	5877
376.959	4952
377.041	5346
377.123	10631
377.205	11577
377.287	3656
377.369	4903
377.452	4909
377.534	4793
377.616	5161
377.698	4459
377.780	3743
377.862	4333
377.944	5726
378.026	3469
378.108	4697
378.190	4055
378.272	4472
378.354	4372
378.436	4087
378.518	7824
378.600	19133
378.682	17616
378.764	28910
378.846	21053
378.928	8671
379.010	11596
379.091	7595
379.173	4913
379.255	4391
379.337	7040
379.419	16877
379.501	37549
379.583	15451
379.664	6627
379.746	12868
379.828	31241
379.910	37087
379.991	29580
380.073	6854
380.155	6572
380.237	5513
380.318	4487
380.400	4750
380.482	9288
380.564	12441
380.645	12487
380.727	11292
380.809	8645
380.890	6185
380.972	4559
381.053	4730
381.135	6300
381.217	13633
381.298	30643
381.380	15498
381.461	15273
381.543	49736
381.624	53327
381.706	12889
381.787	8845
381.869	9382
381.951	26772
382.032	71308
382.113	47372
382.195	13345
382.276	11734
382.358	19929
382.439	42466
382.521	49451
382.602	66221
382.684	36381
382.765	63138
382.846	61754
382.928	70370
383.009	38631
383.090	35798
383.172	110721
383.253	140827
383.334	57942
383.416	61346
383.497	33299
383.578	17882
383.659	33552
383.741	107272
383.822	213884
383.903	105643
383.984	49854
384.066	79771
384.147	48966
384.228	13280
384.309	11118
384.390	8271
384.471	6922
384.553	8538
384.634	10456
384.715	10432
384.796	6292
384.877	8875
384.958	27506
385.039	30269
385.120	13355
385.201	8550
385.282	9215
385.363	9103
385.444	7615
385.525	14154
385.606	33605
385.687	27312
385.768	10407
385.849	13638
385.930	43920
386.011	62339
386.092	19176
386.173	8058
386.254	7179
386.335	7531
386.416	8098
386.496	21057
386.577	29607
386.658	13224
386.739	8553
386.820	9460
386.901	6159
386.981	6549
387.062	5837
387.143	9075
387.224	28578
387.304	26914
387.385	10425
387.466	6948
387.547	9270
387.627	6804
387.708	14259
387.789	47263
387.869	48765
387.950	14961
388.031	5721
388.111	5030
388.192	12957
388.273	16377
388.353	10123
388.434	7045
388.514	14053
388.595	40860
388.676	51206
388.756	29441
388.837	29556
388.917	17947
388.998	5758
389.078	6562
389.159	5929
389.239	4705
389.320	9371
389.400	6054
389.480	13754
389.561	27994
389.641	15012
389.722	8037
389.802	10873
389.883	15502
389.963	30705
390.043	19509
390.124	8250
390.204	15745
390.284	34811
390.365	22268
390.445	29870
390.525	58945
390.605	47401
390.686	17946
390.766	9012
390.846	6845
390.927	5281
391.007	5098
391.087	6414
391.167	6522
391.247	4322
391.328	7706
391.408	11273
391.488	8964
391.568	4180
391.648	7331
391.728	9595
391.808	9467
391.888	8727
391.969	18441
392.049	24409
392.129	13921
392.209	15744
392.289	30387
392.369	18220
392.449	19195
392.529	12262
392.609	9995
392.689	12232
392.769	28709
392.849	23714
392.929	21860
393.009	40947
393.089	27367
393.169	20262
393.248	61653
393.328	206147
393.408	197439
393.488	47238
393.568	16610
393.648	10741
393.728	8591
393.807	6725
393.887	8573
393.967	9364
394.047	10557
394.127	13978
394.206	25346
394.286	80162
394.366	230292
394.446	226668
394.525	75812
394.605	25036
394.685	19091
394.764	31861
394.844	43106
394.924	27645
395.003	12253
395.083	8831
395.163	9148
395.242	8324
395.322	8294
395.402	6279
395.481	10712
395.561	21944
395.640	46543
395.720	37094
395.799	51315
395.879	43998
395.958	39989
396.038	118336
396.117	284577
396.197	286277
396.276	127181
396.356	49755
396.435	31072
396.515	19692
396.594	18375
396.673	23941
396.753	73399
396.832	192410
396.912	141406
396.991	38538
397.070	13492
397.150	8388
397.229	8861
397.308	8573
397.388	11963
397.467	8653
397.546	5778
397.625	4470
397.705	8494
397.784	8006
397.863	4886
397.942	5029
398.022	6212
398.101	17243
398.180	41088
398.259	21792
398.338	9403
398.417	5740
398.497	5140
398.576	6654
398.655	5068
398.734	5284
398.813	5723
398.892	17259
398.971	43732
399.050	21174
399.129	5670
399.208	4383
399.287	5544
399.366	4244
399.445	5628
399.524	4759
399.603	3701
399.682	7498
399.761	17345
399.840	46396
399.919	33072
399.998	7863
400.077	4255
400.156	4009
400.235	6915
400.313	4584
400.392	5713
400.471	18879
400.550	26756
400.629	8630
400.708	6523
400.786	6412
400.865	13594
400.944	12666
401.023	8297
401.102	4427
401.180	4454
401.259	5132
401.338	5208
401.416	6957
401.495	5127
401.574	6062
401.652	5039
401.731	6545
401.810	5438
401.888	4710
401.967	4221
402.046	4654
402.124	6373
402.203	6141
402.281	6203
402.360	7354
402.438	16557
402.517	10803
402.596	6187
402.674	5194
402.753	4716
402.831	5064
402.910	5743
402.988	14664
403.066	34540
403.145	20696
403.223	17312
403.302	31439
403.380	26569
403.459	24599
403.537	11681
403.615	6568
403.694	3965
403.772	4743
403.850	4570
403.929	4127
404.007	4608
404.085	9722
404.164	8875
404.242	8069
404.320	21998
404.398	52268
404.477	54940
404.555	71614
404.633	60632
404.711	43475
404.789	29685
404.868	10568
404.946	5629
405.024	4896
405.102	4180
405.180	3796
405.258	3367
405.336	5388
405.415	4891
405.493	8355
405.571	8029
405.649	3625
405.727	3386
405.805	5987
405.883	6289
405.961	6414
406.039	6295
406.117	4686
406.195	7686
406.273	19359
406.351	54509
406.429	31894
406.507	8536
406.585	4619
406.663	5529
406.740	6768
406.818	5519
406.896	4438
406.974	6112
407.052	8777
407.130	36010
407.208	44115
407.285	11874
407.363	4555
407.441	4886
407.519	4349
407.596	5741
407.674	9937
407.752	21139
407.830	21138
407.907	10607
407.985	5829
408.063	5602
408.141	3519
408.218	7578
408.296	6273
408.373	5236
408.451	5713
408.529	5659
408.606	4610
408.684	4055
408.762	3659
408.839	3835
408.917	3216
408.994	4098
409.072	3940
409.149	4054
409.227	5740
409.304	4923
409.382	4234
409.459	4561
409.537	5776
409.614	6423
409.692	4755
409.769	4929
409.846	5995
409.924	6398
410.001	4596
410.079	5704
410.156	5590
410.233	5785
410.311	4217
410.388	4489
410.465	4633
410.543	4720
410.620	5178
410.697	5362
410.775	4748
410.852	3219
410.929	5043
411.006	6230
411.083	4375
411.161	7550
411.238	8654
411.315	5500
411.392	4801
411.469	6290
411.547	5625
411.624	3104
411.701	4090
411.778	5510
411.855	7991
411.932	5652
412.009	4048
412.086	4562
412.163	4571
412.240	4878
412.317	6228
412.394	5180
412.471	4283
412.548	4166
412.625	4330
412.702	5265
412.779	8127
412.856	6236
412.933	4289
413.010	4750
413.087	7578
413.164	19105
413.241	23976
413.318	7320
413.395	6945
413.471	7766
413.548	5952
413.625	4799
413.702	4413
413.779	5132
413.855	4192
413.932	3743
414.009	2583
414.086	4094
414.162	4204
414.239	7091
414.316	19679
414.393	33561
414.469	12684
414.546	4729
414.623	4509
414.699	4692
414.776	4973
414.853	3969
414.929	5475
415.006	4659
415.082	4737
415.159	4433
415.236	5331
415.312	4981
415.389	6422
415.465	7143
415.542	5182
415.618	4609
415.695	7074
415.771	5119
415.848	4740
415.924	5491
416.000	4122
416.077	5378
416.153	2988
416.230	3809
416.306	3415
416.383	3779
416.459	4077
416.535	3353
416.612	3912
416.688	3747
416.764	3993
416.841	3603
416.917	3871
416.993	4051
417.069	5120
417.146	7435
417.222	9964
417.298	6212
417.374	4374
417.451	5352
417.527	4962
417.603	5894
417.679	4722
417.755	4765
417.831	2578
417.908	3614
417.984	3488
418.060	3204
418.136	7557
418.212	8223
418.288	5566
418.364	5575
418.440	4351
418.516	6184
418.592	6553
418.668	10379
418.744	12996
418.820	10235
418.896	4844
418.972	3373
419.048	4902
419.124	8095
419.200	5673
419.276	4297
419.352	2783
419.428	4264
419.504	4435
419.579	5155
419.655	4300
419.731	5127
419.807	10500
419.883	15040
419.959	10289
420.034	5711
420.110	9775
420.186	23647
420.262	18107
420.337	5587
420.413	5659
420.489	3693
420.565	4742
420.640	4472
420.716	5116
420.792	3564
420.867	5383
420.943	3880
421.019	6743
421.094	5476
421.170	4209
421.245	4085
421.321	4615
421.397	4089
421.472	7080
421.548	13519
421.623	10675
421.699	6210
421.774	5834
421.850	5415
421.925	7723
422.001	6247
422.076	6465
422.152	6897
422.227	10114
422.302	11456
422.378	12428
422.453	21941
422.529	50438
422.604	130663
422.679	191002
422.755	127372
422.830	47820
422.905	21503
422.981	12990
423.056	9483
423.131	8070
423.207	7031
423.282	7051
423.357	10879
423.432	7736
423.508	8911
423.583	12938
423.658	11006
423.733	5875
423.808	6707
423.883	7764
423.959	6378
424.034	4828
424.109	5176
424.184	4021
424.259	4490
424.334	5120
424.409	3745
424.484	4556
424.559	4484
424.634	4095
424.709	5874
424.784	5832
424.859	5650
424.934	5949
425.009	18930
425.084	26346
425.159	10901
425.234	4988
425.309	4497
425.384	11163
425.459	14900
425.534	6753
425.609	4212
425.683	3836
425.758	4229
425.833	4408
425.908	6099
425.983	13367
426.058	27161
426.132	12205
426.207	6127
426.282	7069
426.357	6009
426.431	4643
426.506	4656
426.581	5164
426.655	4803
426.730	4077
426.805	4189
426.879	4857
426.954	5108
427.029	7339
427.103	26591
427.178	47841
427.253	21030
427.327	5939
427.402	8969
427.476	17477
427.551	9184
427.625	5379
427.700	5808
427.774	4033
427.849	4867
427.923	3343
427.998	4323
428.072	4623
428.147	8112
428.221	19824
428.296	37913
428.370	18320
428.444	6178
428.519	7641
428.593	12920
428.667	11087
428.742	12659
428.816	12428
428.890	31778
428.965	40829
429.039	17753
429.113	13880
429.188	6846
429.262	4505
429.336	7974
429.410	14886
429.485	10451
429.559	10426
429.633	9053
429.707	4861
429.781	10246
429.855	34506
429.930	44175
430.004	29569
430.078	44291
430.152	38721
430.226	54397
430.300	47182
430.374	9565
430.448	7425
430.522	18608
430.596	42243
430.670	26630
430.744	47793
430.818	58890
430.892	14713
430.966	5795
431.040	4317
431.114	3961
431.188	3583
431.262	3534
431.336	4767
431.410	8189
431.484	14982
431.557	10455
431.631	4042
431.705	4740
431.779	10993
431.853	31447
431.927	21178
432.000	6043
432.074	4543
432.148	5169
432.222	4325
432.295	4802
432.369	4596
432.443	6204
432.516	24500
432.590	45881
432.664	18098
432.737	4875
432.811	3899
432.885	3388
432.958	4271
433.032	3455
433.106	3493
433.179	3563
433.253	3396
433.326	4145
433.400	3161
433.473	4334
433.547	3123
433.620	4059
433.694	5089
433.767	5780
433.841	3697
433.914	3980
433.988	4136
434.061	3740
434.134	3663
434.208	3640
434.281	3299
434.355	3416
434.428	4203
434.501	4209
434.575	3283
434.648	3753
434.721	3644
434.795	3295
434.868	2794
434.941	2919
435.014	3081
435.088	2999
435.161	4641
435.234	6021
435.307	6654
435.381	4238
435.454	4013
435.527	4548
435.600	4351
435.673	4328
435.746	3088
435.819	4367
435.892	3352
435.966	4572
436.039	3660
436.112	4401
436.185	3708
436.258	3233
436.331	3456
436.404	3229
436.477	3188
436.550	3546
436.623	3809
436.696	3416
436.769	4119
436.842	4035
436.915	3812
436.987	4884
437.060	3629
437.133	3775
437.206	2698
437.279	5234
437.352	3137
437.425	3455
437.498	4397
437.570	7323
437.643	6922
437.716	3760
437.789	4247
437.861	5374
437.934	8444
438.007	5862
438.080	3534
438.152	4245
438.225	7381
438.298	28923
438.370	58946
438.443	25117
438.516	9001
438.588	4800
438.661	3741
438.734	4108
438.806	4337
438.879	4336
438.951	4231
439.024	6196
439.096	4008
439.169	3055
439.241	3912
439.314	4012
439.386	4719
439.459	6315
439.531	6153
439.604	3992
439.676	4045
439.749	3616
439.821	2872
439.893	4324
439.966	3596
440.038	3825
440.110	4439
440.183	3459
440.255	2619
440.327	5496
440.400	16090
440.472	42528
440.544	24704
440.617	6292
440.689	6251
440.761	6831
440.833	7781
440.905	6071
440.978	3603
441.050	3876
441.122	4050
441.194	3638
441.266	4067
441.338	3856
441.411	6231
441.483	18692
441.555	21087
441.627	6934
441.699	6002
441.771	5032
441.843	3955
441.915	4186
441.987	3138
442.059	3878
442.131	4079
442.203	5795
442.275	5878
442.347	5640
442.419	6814
442.491	16777
442.563	29471
442.635	15598
442.706	14628
442.778	11404
442.850	4286
442.922	3729
442.994	4394
443.066	5300
443.137	5044
443.209	4768
443.281	5037
443.353	8666
443.425	23136
443.496	57611
443.568	46993
443.640	16910
443.711	5820
443.783	5682
443.855	3883
443.926	3734
443.998	4344
444.070	5016
444.141	4808
444.213	6109
444.285	6456
444.356	5220
444.428	4267
444.499	3292
444.571	3319
444.642	3573
444.714	4332
444.785	4745
444.857	6138
444.928	9893
445.000	6869
445.071	8003
445.143	8274
445.214	6505
445.285	9072
445.357	19966
445.428	49688
445.500	88711
445.571	50337
445.642	24268
445.714	14999
445.785	15004
445.856	6333
445.928	6759
445.999	6091
446.070	4293
446.141	6048
446.213	7231
446.284	4635
446.355	5311
446.426	4182
446.497	4620
446.569	5811
446.640	6810
446.711	5420
446.782	3625
446.853	4548
446.924	4299
446.995	4466
447.066	4796
447.138	5678
447.209	5017
447.280	3725
447.351	3534
447.422	2812
447.493	4115
447.564	4286
447.635	5703
447.706	3838
447.777	3791
447.847	3631
447.918	3972
447.989	4414
448.060	5084
448.131	8939
448.202	7085
448.273	5917
448.344	4547
448.414	3993
448.485	3942
448.556	3776
448.627	3363
448.698	5040
448.768	3116
448.839	3686
448.910	5431
448.981	5360
449.051	4211
449.122	3329
449.193	3322
449.263	3750
449.334	3640
449.405	5059
449.475	6713
449.546	5570
449.616	6096
449.687	5626
449.758	4414
449.828	3836
449.899	3867
449.969	3281
450.040	4048
450.110	3348
450.181	4281
450.251	2805
450.322	4807
450.392	4022
450.463	4380
450.533	3681
450.604	4162
450.674	3177
450.744	2959
450.815	3320
450.885	3920
450.955	4104
451.026	2858
451.096	3203
451.166	3560
451.237	6216
451.307	10749
451.377	5115
451.447	3170
451.518	4060
451.588	3553
451.658	4100
451.728	5723
451.799	11448
451.869	10636
451.939	3988
452.009	3244
452.079	3289
452.149	4401
452.219	6144
452.289	13401
452.360	8587
452.430	3968
452.500	4222
452.570	4503
452.640	6010
452.710	9965
452.780	12025
452.850	9953
452.920	8260
452.990	5575
453.060	4514
453.129	5087
453.199	5421
453.269	16120
453.339	24113
453.409	32159
453.479	38556
453.549	51409
453.619	50340
453.688	16674
453.758	4843
453.828	4081
453.898	3959
453.968	4249
454.037	4314
454.087	3766
454.107	3547
454.168	3817
454.177	3857
454.247	3783
454.249	3785
454.316	3966
454.330	4021
454.386	4195
454.411	5302
454.456	7129
454.492	8063
454.525	8911
454.574	6201
454.595	5041
454.655	4557
454.665	4499
454.734	3549
454.736	3609
454.804	5392
454.817	6704
454.873	12079
454.898	11836
454.943	11394
454.979	7967
455.013	4944
455.060	4396
455.082	4213
455.141	4595
455.152	4674
455.221	10363
455.222	10448
455.291	15029
455.303	15456
455.360	16872
455.384	22303
455.430	31379
455.465	23256
455.499	15827
455.546	12304
455.569	10685
455.627	7774
455.638	7286
455.707	3905
455.708	3904
455.777	3774
455.789	3756
455.846	3573
455.869	3355
455.916	3012
455.950	3374
455.985	3740
456.031	3386
456.054	3183
456.112	3301
456.124	3321
456.193	2658
456.193	2656
456.262	3792
456.274	3949
456.332	4285
456.355	3943
456.401	3330
456.436	3174
456.470	3129
456.516	3194
456.540	3178
456.597	3152
456.609	3141
456.678	2701
456.678	2699
456.747	3217
456.759	3139
456.817	2920
456.840	2892
456.886	2608
456.920	2840
456.955	3205
457.001	3274
457.024	3268
457.082	3477
457.093	3553
457.162	3587
457.163	3590
457.232	4035
457.243	3922
457.301	3513
457.324	3290
457.370	2791
457.405	3096
457.439	3451
457.485	2972
457.508	2730
457.566	3272
457.577	3412
457.646	3979
457.647	3985
457.715	4788
457.727	4729
457.784	4422
457.808	4923
457.853	5705
457.889	5951
457.922	5956
457.969	5335
457.991	5231
458.050	5418
458.060	5467
458.129	7214
458.130	7253
458.198	7462
458.211	7058
458.267	5336
458.292	4523
458.336	3756
458.372	3657
458.405	4029
458.453	5137
458.474	5438
458.533	7079
458.543	7351
458.611	10288
458.614	10328
458.680	7984
458.694	6850
458.749	3973
458.775	3621
458.818	3541
458.855	3711
458.887	3611
458.936	3128
458.955	3107
459.016	3558
459.024	3591
459.093	3850
459.097	3815
459.162	2849
459.177	2965
459.230	3750
459.257	3857
459.299	3858
459.338	3973
459.368	4122
459.418	4371
459.437	4370
459.499	3704
459.505	3642
459.574	3377
459.579	3387
459.643	3739
459.659	3631
459.711	3280
459.740	3318
459.780	3389
459.820	3489
459.849	3355
459.900	3457
459.917	3684
459.981	4325
459.986	4342
460.054	3798
460.061	3816
460.123	4026
460.141	3979
460.191	3908
460.222	4127
460.260	4578
460.302	5036
460.328	5140
460.382	5178
460.397	5185
460.462	4322
460.465	4376
460.534	6750
460.543	7028
460.602	13510
460.623	16356
460.671	22845
460.703	30553
460.739	29222
460.783	21012
460.808	18281
460.864	6674
460.876	5284
460.944	4053
460.945	4033
461.013	4058
461.024	3928
461.081	3398
461.104	3491
461.150	3567
461.184	3263
461.218	2966
461.264	2854
461.286	3070
461.345	3358
461.355	3316
461.423	3277
461.425	3274
461.491	3523
461.505	3578
461.559	4972
461.585	5761
461.628	7237
461.665	9061
461.696	9941
461.745	11530
461.764	10618
461.825	4368
461.832	4165
461.901	3680
461.905	3715
461.969	3123
461.985	2909
462.037	3254
462.065	3524
462.105	3813
462.145	3963
462.173	4662
462.225	6089
462.241	6423
462.305	8621
462.310	8477
462.378	5247
462.385	4742
462.446	3052
462.465	2889
462.514	3149
462.545	3278
462.582	3291
462.625	3486
462.650	3635
462.705	3793
462.718	3796
462.785	3613
462.786	3616
462.854	4067
462.865	4140
462.922	5072
462.945	5545
462.990	4693
463.025	3570
463.058	3317
463.104	3354
463.126	3241
463.184	2705
463.194	2732
463.262	3103
463.264	3120
463.330	3645
463.344	3708
463.398	3862
463.424	3978
463.466	3514
463.504	3210
463.533	3367
463.583	3408
463.601	3474
463.663	3614
463.669	3631
463.737	4183
463.743	4218
463.805	6485
463.823	7135
463.873	9178
463.903	10773
463.940	11012
463.982	11298
464.008	9841
464.062	5183
464.076	4839
464.142	3716
464.144	3688
464.211	3040
464.221	3002
464.279	3647
464.301	3760
464.347	4024
464.381	4361
464.414	4223
464.461	4055
464.482	4373
464.540	5276
464.550	5288
464.617	4913
464.620	4914
464.685	5046
464.699	4992
464.753	5912
464.779	6493
464.820	7022
464.859	7567
464.888	7231
464.938	6375
464.956	6536
465.018	7112
465.023	7088
465.091	6789
465.098	6746
465.158	5427
465.177	5092
465.226	5700
465.257	5976
465.293	6054
465.336	6125
465.361	6428
465.416	7173
465.428	7489
465.495	9332
465.496	9362
465.563	12512
465.575	13130
465.631	14214
465.654	14734
465.698	10783
465.734	6964
465.765	6210
465.813	5297
465.833	5512
465.893	6251
465.900	6189
465.968	5785
465.972	5746
466.035	5798
466.052	5823
466.102	5750
466.131	5688
466.170	5743
466.210	5856
466.237	6271
466.290	6996
466.304	6765
466.369	5738
466.372	5760
466.439	6380
466.449	6455
466.506	6552
466.528	6607
466.573	10002
466.607	12479
466.641	14336
466.687	17030
466.708	18053
466.766	20918
466.775	19633
466.842	9539
466.845	9055
466.909	7451
466.925	7110
466.977	7251
467.004	7336
467.044	8028
467.083	8708
467.111	9463
467.163	10886
467.178	11075
467.242	11810
467.245	11732
467.312	9937
467.321	9694
467.379	8627
467.400	8223
467.446	9154
467.480	9815
467.559	9928
467.638	7806
467.717	7338
467.796	8806
467.875	8194
467.955	9009
468.034	12467
468.113	20433
468.192	26405
468.271	8853
468.350	7262
468.429	8229
468.508	7623
468.588	7494
468.667	6713
468.746	6994
468.825	6767
468.904	7301
468.983	7671
469.062	9344
469.141	11238
469.220	7784
469.299	7026
469.378	7465
469.456	9414
469.535	8707
469.614	7341
469.693	7978
469.772	9208
469.851	10910
469.930	8671
470.009	7557
470.088	6810
470.166	7601
470.245	8009
470.324	8573
470.403	7647
470.482	7196
470.560	6120
470.639	6465
470.718	7874
470.797	7512
470.875	8684
470.954	9048
471.033	9743
471.111	6190
471.190	6241
471.269	6494
471.347	6635
471.426	6229
471.505	7224
471.583	7956
471.662	7280
471.740	6666
471.819	5959
471.898	6767
471.976	7805
472.055	6010
472.133	8057
472.212	9290
472.290	8368
472.369	6549
472.447	6325
472.526	5993
472.604	7454
472.683	7247
472.761	6644
472.839	6473
472.918	6248
472.996	6340
473.075	7012
473.153	6749
473.231	5363
473.310	7118
473.388	6600
473.466	6215
473.545	7494
473.623	8254
473.701	8068
473.780	7328
473.858	5925
473.936	7452
474.014	6949
474.093	7577
474.171	9076
474.249	10940
474.327	7910
474.405	5193
474.484	6194
474.562	5792
474.640	5900
474.718	6271
474.796	6568
474.874	6786
474.952	5744
475.030	5653
475.108	5722
475.187	6887
475.265	8125
475.343	9575
475.421	9452
475.499	6499
475.577	6626
475.655	8723
475.733	11906
475.811	18389
475.889	15669
475.966	12028
476.044	7040
476.122	7142
476.200	8353
476.278	6981
476.356	5686
476.434	6286
476.512	5713
476.590	8827
476.667	7854
476.745	5500
476.823	5757
476.901	5114
476.979	6095
477.056	6604
477.134	5968
477.212	6497
477.290	5652
477.367	5970
477.445	4872
477.523	5018
477.601	4699
477.678	6017
477.756	6202
477.834	6738
477.911	4598
477.989	5908
478.066	5579
478.144	5836
478.222	6815
478.299	9412
478.377	8083
478.454	4802
478.532	4575
478.609	5685
478.687	6316
478.764	4878
478.842	4905
478.919	5637
478.997	5357
479.074	5049
479.152	6320
479.229	6909
479.307	5116
479.384	5252
479.461	4849
479.539	4444
479.616	6120
479.694	5763
479.771	4580
479.848	5871
479.926	5560
480.003	8154
480.080	4920
480.157	5080
480.235	4790
480.312	5497
480.389	5299
480.467	7850
480.544	8321
480.621	5468
480.698	4706
480.775	5467
480.853	5734
480.930	5769
481.007	6132
481.084	6507
481.161	7759
481.238	6639
481.315	5377
481.392	4467
481.470	5299
481.547	5182
481.624	4854
481.701	4753
481.778	4800
481.855	5403
481.932	8417
482.009	9994
482.086	7968
482.163	5683
482.240	7689
482.317	10434
482.393	8085
482.470	5793
482.547	5577
482.624	5246
482.701	4332
482.778	4384
482.855	5033
482.932	4368
483.009	4083
483.085	5969
483.162	5199
483.239	5306
483.316	4866
483.393	4861
483.469	4871
483.546	5112
483.623	5229
483.699	4563
483.776	5536
483.853	6137
483.930	9380
484.006	18465
484.083	27251
484.160	22263
484.236	33338
484.313	25164
484.389	18334
484.466	17634
484.543	16098
484.619	15869
484.696	17788
484.772	17049
484.849	18028
484.925	15438
485.002	15886
485.078	17137
485.155	15100
485.231	14701
485.308	14997
485.384	14395
485.461	17377
485.537	21549
485.614	24644
485.690	15172
485.766	14235
485.843	14522
485.919	17136
485.995	16708
486.072	12480
486.148	12759
486.224	12749
486.301	13412
486.377	14937
486.453	14294
486.530	16084
486.606	20611
486.682	22134
486.758	22670
486.835	22715
486.911	19748
486.987	27561
487.063	27616
487.139	30783
487.215	24293
487.292	16070
487.368	15418
487.444	15325
487.520	16643
487.596	15575
487.672	20034
487.748	31095
487.824	36672
487.900	21018
487.976	15165
488.052	14443
488.128	17176
488.204	13053
488.280	13273
488.356	16187
488.432	23947
488.508	31523
488.584	14133
488.660	12358
488.736	13696
488.812	12708
488.888	16299
488.964	19589
489.039	30650
489.115	39169
489.191	25836
489.267	13402
489.343	13056
489.418	10727
489.494	11526
489.570	9699
489.646	12647
489.722	12012
489.797	11857
489.873	15461
489.949	23983
490.024	20226
490.100	10757
490.176	11135
490.251	11261
490.327	13320
490.403	9904
490.478	10750
490.554	8956
490.629	9748
490.705	9861
490.781	10063
490.856	9964
490.932	11671
491.007	10440
491.083	9850
491.158	9519
491.234	12788
491.309	19879
491.385	19883
491.460	9867
491.536	10469
491.611	9788
491.686	9768
491.762	12951
491.837	19647
491.913	30746
491.988	38076
492.063	45522
492.139	16210
492.214	12549
492.289	8891
492.365	8038
492.440	9256
492.515	9567
492.590	8603
492.666	8200
492.741	10519
492.816	13419
492.891	8363
492.967	8510
493.042	7503
493.117	8704
493.192	9893
493.267	20124
493.342	49468
493.418	59675
493.493	11446
493.568	6965
493.643	6618
493.718	9574
493.793	10839
493.868	12200
493.943	9292
494.018	7941
494.093	6644
494.168	8011
494.243	7160
494.318	6723
494.393	6391
494.468	6231
494.543	7392
494.618	8476
494.693	6643
494.768	7028
494.842	7462
494.917	6784
494.992	7121
495.067	6853
495.142	6009
495.217	7864
495.292	6822
495.366	6843
495.441	8721
495.516	10573
495.591	14271
495.665	40087
495.740	74485
495.815	31062
495.890	10148
495.964	6720
496.039	10515
496.114	8792
496.188	9804
496.263	8864
496.338	7127
496.412	9037
496.487	11019
496.561	9818
496.636	10264
496.710	9382
496.785	9820
496.860	11034
496.934	8908
497.009	10141
497.083	9578
497.158	10596
497.232	11457
497.307	12879
497.381	12373
497.455	13374
497.530	15830
497.604	13912
497.679	14056
497.753	19701
497.827	21659
497.902	20438
497.976	25018
498.050	56310
498.125	148710
498.199	137390
498.273	29146
498.348	24660
498.422	22443
498.496	20037
498.570	18945
498.645	16046
498.719	14113
498.793	16365
498.867	18977
498.941	27608
499.016	71932
499.090	148212
499.164	50280
499.238	11748
499.312	10371
499.386	11202
499.460	11510
499.534	9841
499.609	11690
499.683	13884
499.757	15089
499.831	34847
499.905	105483
499.979	90719
500.053	16006
500.127	16218
500.201	12214
500.275	10122
500.349	8757
500.422	9217
500.496	12950
500.570	26564
500.644	65452
500.718	102614
500.792	22287
500.866	10137
500.940	11414
501.013	10063
501.087	9325
501.161	14717
501.235	18267
501.309	42207
501.382	95197
501.456	80188
501.530	20994
501.603	31069
501.677	13300
501.751	6332
501.825	10240
501.898	17185
501.972	38930
502.046	23376
502.119	9267
502.193	20062
502.266	41116
502.340	21405
502.413	21176
502.487	35354
502.561	18737
502.634	8485
502.708	7651
502.781	6554
502.855	6939
502.928	5571
503.002	5519
503.075	5042
503.149	5896
503.222	6129
503.295	5845
503.369	7859
503.442	10626
503.516	32274
503.589	69251
503.662	44567
503.736	15749
503.809	32095
503.882	29421
503.956	39555
504.029	35439
504.102	20265
504.175	20513
504.249	9766
504.322	9688
504.395	7190
504.468	6789
504.542	6007
504.615	5102
504.688	5518
504.761	4228
504.834	7405
504.907	7974
504.980	9440
505.053	6700
505.127	5832
505.200	11043
505.273	7670
505.346	4896
505.419	4509
505.492	5859
505.565	4103
505.638	4663
505.711	4987
505.784	5135
505.857	4290
505.930	6446
506.003	3904
506.076	6750
506.149	6336
506.221	5959
506.294	8584
506.367	19156
506.440	52080
506.513	27151
506.586	8083
506.659	5446
506.731	4841
506.804	4924
506.877	6665
506.950	6157
507.022	5201
507.095	5490
507.168	6956
507.241	5915
507.313	3835
507.386	4643
507.459	7200
507.531	4872
507.604	4208
507.677	4235
507.749	3721
507.822	8098
507.894	12659
507.967	17315
508.040	9322
508.112	10040
508.185	8468
508.257	7205
508.330	11061
508.402	7658
508.475	8582
508.547	7857
508.620	8164
508.692	10626
508.765	7960
508.837	5681
508.909	7656
508.982	6568
509.054	7686
509.127	6706
509.199	6190
509.271	5732
509.344	5892
509.416	6779
509.488	6253
509.560	7395
509.633	6681
509.705	7782
509.777	7848
509.849	10264
509.922	8260
509.994	6941
510.066	9180
510.138	8527
510.210	18345
510.283	14261
510.355	12146
510.427	10780
510.499	9943
510.571	9569
510.643	9668
510.715	12573
510.787	10381
510.859	9847
510.931	10227
511.003	12258
511.076	12066
511.148	8374
511.219	9313
511.291	12822
511.363	13200
511.435	9268
511.507	7679
511.579	9396
511.651	10105
511.723	8082
511.795	6803
511.867	7254
511.939	9404
512.010	13336
512.082	12607
512.154	6460
512.226	7995
512.298	12799
512.369	17063
512.441	14292
512.513	12075
512.585	9256
512.656	10568
512.728	9904
512.800	9136
512.871	9517
512.943	9491
513.015	7716
513.086	9346
513.158	8559
513.230	8294
513.301	10852
513.373	12244
513.444	8810
513.516	7649
513.588	8188
513.659	9098
513.731	8975
513.802	7396
513.874	16767
513.945	19208
514.016	9362
514.088	8495
514.159	7758
514.231	11209
514.302	15118
514.374	12403
514.445	11098
514.516	18148
514.588	12799
514.659	10970
514.730	14777
514.802	13829
514.873	10761
514.944	14080
515.016	11721
515.087	11174
515.158	13715
515.229	17481
515.301	11613
515.372	16315
515.443	11798
515.514	9396
515.585	8621
515.656	9215
515.728	8487
515.799	6910
515.870	8488
515.941	8958
516.012	7862
516.083	12185
516.154	10277
516.225	12931
516.296	13656
516.367	10363
516.438	9546
516.509	11660
516.580	15569
516.651	44978
516.722	112160
516.793	53855
516.864	15526
516.935	16007
517.006	15906
517.077	20358
517.148	43621
517.219	122324
517.289	164918
517.360	69316
517.431	27336
517.502	10972
517.573	10969
517.643	11072
517.714	12526
517.785	14274
517.856	10978
517.926	14133
517.997	13388
518.068	12887
518.138	17541
518.209	24855
518.280	92859
518.350	258765
518.421	93747
518.492	16222
518.562	12784
518.633	12435
518.703	10517
518.774	18211
518.845	25931
518.915	23976
518.986	12581
519.056	14229
519.127	20254
519.197	32527
519.268	64407
519.338	40600
519.408	12771
519.479	14516
519.549	11229
519.620	9994
519.690	8027
519.760	9054
519.831	8777
519.901	8093
519.971	8085
520.042	7664
520.112	8236
520.182	10917
520.253	9940
520.323	8830
520.393	11697
520.463	18062
520.534	11675
520.604	22827
520.674	12639
520.744	11159
520.814	24355
520.885	20859
520.955	28045
521.025	72942
521.095	27382
521.165	8858
521.235	7176
521.305	7104
521.375	7858
521.445	8103
521.515	8354
521.585	10988
521.655	7910
521.725	10043
521.795	8893
521.865	5675
521.935	11201
522.005	8831
522.075	5846
522.145	7897
522.215	7206
522.285	10503
522.355	12551
522.424	20381
522.494	16749
522.564	11094
522.634	20422
522.704	46104
522.774	17941
522.843	8691
522.913	7515
522.983	7636
523.053	7321
523.122	8003
523.192	9502
523.262	25032
523.331	21478
523.401	8180
523.471	6263
523.540	6289
523.610	5792
523.680	5977
523.749	6150
523.819	8250
523.888	6505
523.958	5644
524.027	7181
524.097	7424
524.166	6630
524.236	5424
524.305	7856
524.375	5454
524.444	5400
524.514	9146
524.583	5929
524.653	6797
524.722	8765
524.791	5608
524.861	6460
524.930	5579
524.999	6302
525.069	8696
525.138	7085
525.207	7513
525.277	7030
525.346	6839
525.415	6771
525.484	6423
525.554	6302
525.623	7668
525.692	7641
525.761	7034
525.830	7859
525.900	6591
525.969	8599
526.038	12379
526.107	19498
526.176	48110
526.245	34982
526.314	18448
526.383	29986
526.452	33807
526.522	63443
526.591	57953
526.660	24137
526.729	12736
526.797	15277
526.867	37649
526.935	138093
527.004	160186
527.073	69918
527.142	11364
527.211	7465
527.280	8081
527.349	8216
527.418	4327
527.487	6274
527.555	4063
527.624	5570
527.693	3474
527.762	6076
527.831	3599
527.899	5173
527.968	5110
528.037	4532
528.106	7164
528.174	9273
528.243	8702
528.312	11325
528.380	12079
528.449	5810
528.518	6672
528.586	4254
528.655	5564
528.723	5388
528.792	4970
528.861	4819
528.929	4027
528.998	5992
529.066	5030
529.135	6252
529.203	6307
529.272	6048
529.340	7578
529.409	8824
529.477	6269
529.545	7106
529.614	11068
529.682	8390
529.751	10091
529.819	12370
529.887	10137
529.956	7855
530.024	8618
530.092	6532
530.161	8675
530.229	11179
530.297	7967
530.365	8794
530.434	8110
530.502	7449
530.570	9240
530.638	6962
530.707	8246
530.775	8727
530.843	7199
530.911	7476
530.979	8372
531.047	7301
531.115	8267
531.183	7760
531.252	7690
531.320	7927
531.388	5686
531.456	8461
531.524	7061
531.592	9738
531.660	10617
531.728	7830
531.796	6962
531.864	8182
531.932	9260
532.000	8129
532.067	8935
532.135	9889
532.203	11474
532.271	9806
532.339	16348
532.407	25481
532.475	16372
532.542	11645
532.610	11912
532.678	15253
532.746	51920
532.814	95767
532.881	26127
532.949	11038
533.017	9799
533.084	9327
533.152	9115
533.220	9020
533.287	7993
533.355	9710
533.423	8959
533.490	8724
533.558	9176
533.625	9432
533.693	8934
533.761	10060
533.828	9522
533.896	8906
533.963	16787
534.031	18756
534.098	21510
534.166	12408
534.233	9996
534.300	12932
534.368	10283
534.435	9769
534.503	9501
534.570	10481
534.637	8862
534.705	9258
534.772	10343
534.840	11190
534.907	30542
534.974	28678
535.041	10011
535.109	9174
535.176	6843
535.243	7901
535.310	8757
535.378	7691
535.445	8088
535.512	6963
535.579	8257
535.646	6480
535.714	8699
535.781	10139
535.848	9968
535.915	11314
535.982	11438
536.049	12055
536.116	11416
536.183	9388
536.250	9785
536.317	7757
536.384	10739
536.451	11196
536.518	11728
536.585	7673
536.652	11612
536.719	12185
536.786	9276
536.853	8623
536.920	11580
536.987	14629
537.053	17569
537.120	57067
537.187	41019
537.254	8577
537.321	7155
537.388	9260
537.454	6216
537.521	5952
537.588	6367
537.654	8755
537.721	9069
537.788	9184
537.855	7914
537.921	8446
537.988	7680
538.055	8577
538.121	7313
538.188	7530
538.254	10422
538.321	15256
538.388	9782
538.454	7734
538.521	7353
538.587	6978
538.654	6345
538.720	6929
538.787	6843
538.853	7556
538.920	7888
538.986	8702
539.053	6442
539.119	7642
539.185	7982
539.252	8942
539.318	10332
539.385	10094
539.451	9365
539.517	8838
539.583	11406
539.650	21027
539.716	41748
539.782	11950
539.849	7541
539.915	9227
539.981	7468
540.047	8665
540.114	8760
540.180	9681
540.246	6652
540.312	10258
540.378	14450
540.444	15018
540.510	21681
540.576	44667
540.643	14273
540.709	6967
540.775	7455
540.841	7715
540.907	10206
540.973	14505
541.039	12837
541.105	10621
541.171	8137
541.237	7503
541.303	9261
541.369	9956
541.435	10773
541.500	13119
541.566	8250
541.632	7622
541.698	7028
541.764	8723
541.830	7072
541.896	6587
541.961	8370
542.027	7664
542.093	8046
542.159	8357
542.224	8315
542.290	12037
542.356	14072
542.421	14263
542.487	11045
542.553	8562
542.618	8495
542.684	7689
542.750	7437
542.815	9768
542.881	14819
542.947	42985
543.012	27339
543.078	8526
543.143	8154
543.209	9540
543.274	8195
543.340	10166
543.405	19820
543.471	24221
543.536	8122
543.602	8754
543.667	7734
543.732	8850
543.798	6382
543.863	8853
543.928	6837
543.994	6337
544.059	7577
544.124	7525
544.190	7620
544.255	7920
544.320	7779
544.386	7253
544.451	10476
544.516	10824
544.581	11606
544.646	30144
544.712	38700
544.777	11117
544.842	9021
544.907	9671
544.972	9327
545.037	9051
545.102	10076
545.168	9489
545.233	9831
545.298	11722
545.363	10956
545.428	12548
545.493	20535
545.558	33217
545.623	15396
545.688	9056
545.753	9331
545.818	9922
545.883	10247
545.947	9180
546.012	11286
546.077	10623
546.142	10445
546.207	9426
546.272	12074
546.337	11558
546.401	11247
546.466	11259
546.531	9928
546.596	11581
546.661	11527
546.725	11823
546.790	9502
546.855	10200
546.919	9076
546.984	10850
547.049	11833
547.113	12072
547.178	12249
547.243	12739
547.307	15250
547.372	16254
547.436	15423
547.501	13989
547.565	14776
547.630	15935
547.695	14804
547.759	16940
547.823	14802
547.888	14714
547.952	14437
548.017	15119
548.081	16935
548.146	17430
548.210	18326
548.274	15290
548.339	14994
548.403	14561
548.468	13370
548.532	13563
548.596	13960
548.660	14155
548.725	15811
548.789	16210
548.853	17399
548.917	15720
548.982	18905
549.046	17589
549.110	13560
549.174	13941
549.238	14700
549.303	14699
549.367	16092
549.431	15498
549.495	14884
549.559	14736
549.623	16668
549.687	18080
549.751	21013
549.815	19154
549.879	19385
549.943	17926
550.007	20028
550.071	19504
550.135	20987
550.199	18587
550.263	18007
550.327	18984
550.391	19664
550.455	18729
550.519	18747
550.582	19743
550.646	25418
550.710	23986
550.774	22192
550.838	21321
550.901	22556
550.965	22819
551.029	23121
551.093	24075
551.156	29932
551.220	39605
551.284	37522
551.347	27458
551.411	42765
551.475	38232
551.538	24292
551.602	20728
551.666	20186
551.729	18994
551.793	19438
551.856	20619
551.920	21284
551.983	19566
552.047	19878
552.110	19388
552.174	18844
552.237	19598
552.301	19387
552.364	17866
552.428	17725
552.491	17818
552.554	18364
552.618	18623
552.681	20168
552.745	19711
552.808	22279
552.871	24245
552.934	21771
552.998	20716
553.061	20211
553.124	21057
553.187	19845
553.251	21456
553.314	22467
553.377	23179
553.440	35202
553.503	94085
553.567	116809
553.630	29921
553.693	21862
553.756	21017
553.819	20544
553.882	18890
553.945	20453
554.008	19677
554.071	19283
554.134	19876
554.197	18683
554.260	18336
554.323	20971
554.386	19954
554.449	19425
554.512	20209
554.575	18752
554.638	20170
554.701	19155
554.764	19465
554.827	18663
554.889	17811
554.952	16951
555.015	17532
555.078	17186
555.141	17349
555.203	17110
555.266	16555
555.329	16867
555.391	16616
555.454	16350
555.517	16730
555.580	16281
555.642	14502
555.705	15454
555.768	16202
555.830	15114
555.893	14009
555.955	15379
556.018	14344
556.080	12885
556.143	14166
556.206	14414
556.268	14135
556.330	15399
556.393	12908
556.455	14786
556.518	16969
556.580	16399
556.643	12424
556.705	12719
556.767	12721
556.830	13178
556.892	14484
556.955	15868
557.017	13459
557.079	12975
557.142	12658
557.204	13151
557.266	18710
557.328	16548
557.391	11243
557.453	11447
557.515	11754
557.577	13137
557.639	13483
557.701	11960
557.764	11281
557.826	11746
557.888	12445
557.950	11936
558.012	12657
558.074	14253
558.136	25283
558.198	43707
558.260	19250
558.322	12914
558.384	13696
558.446	13896
558.508	13925
558.570	16923
558.632	24570
558.694	31049
558.756	36371
558.818	107128
558.880	196893
558.942	55743
559.003	46835
559.065	23657
559.127	14555
559.189	14856
559.251	15618
559.312	21452
559.374	49466
559.436	127853
559.498	52096
559.559	15071
559.621	13940
559.683	16312
559.744	26996
559.806	71819
559.868	77018
559.929	19266
559.991	16199
560.052	21765
560.114	43905
560.176	27253
560.237	31853
560.299	37981
560.360	14232
560.422	11457
560.483	11301
560.545	10774
560.606	10306
560.667	10318
560.729	9391
560.790	9838
560.852	10587
560.913	10172
560.974	10176
561.036	10315
561.097	9914
561.158	10414
561.220	10533
561.281	10513
561.342	9875
561.403	12114
561.465	14154
561.526	25281
561.587	26505
561.648	11131
561.709	10232
561.771	11773
561.832	10701
561.893	11801
561.954	10266
562.015	11340
562.076	10408
562.137	11107
562.198	10094
562.259	10888
562.320	11553
562.381	11723
562.442	14445
562.503	12259
562.564	10615
562.625	10764
562.686	9704
562.747	11310
562.808	11104
562.869	10931
562.930	12088
562.991	11440
563.051	10814
563.112	11045
563.173	11075
563.234	10632
563.294	10558
563.355	10098
563.416	10842
563.477	11764
563.537	10889
563.598	11393
563.659	11911
563.720	10722
563.780	11732
563.841	10919
563.901	11503
563.962	11332
564.023	11488
564.083	11608
564.144	10511
564.204	10816
564.265	11057
564.325	11747
564.386	18020
564.446	15440
564.507	10684
564.567	9831
564.628	11434
564.688	11888
564.749	10285
564.809	12521
564.869	13122
564.930	11176
564.990	11060
565.050	11904
565.111	11360
565.171	11633
565.231	10202
565.292	11333
565.352	10906
565.412	12254
565.472	10702
565.532	11867
565.593	11450
565.653	10893
565.713	10915
565.773	11532
565.833	12266
565.893	13392
565.953	11141
566.013	11687
566.074	11925
566.134	14908
566.194	18437
566.254	17300
566.314	14856
566.374	12859
566.434	14065
566.494	13516
566.554	13645
566.614	14212
566.673	14494
566.733	15819
566.793	15198
566.853	17078
566.913	16257
566.973	17584
567.033	16643
567.092	16257
567.152	16042
567.212	17630
567.272	16922
567.331	17626
567.391	17826
567.451	19278
567.511	22133
567.570	20158
567.630	17649
567.690	17163
567.749	16932
567.809	18177
567.868	20197
567.928	21278
567.988	23713
568.047	26569
568.107	33203
568.166	43645
568.226	61489
568.285	77667
568.345	70292
568.404	62157
568.464	54385
568.523	51196
568.582	52178
568.642	56105
568.701	67625
568.761	93705
568.820	127902
568.879	127077
568.939	105740
568.998	82859
569.057	67033
569.116	55011
569.176	45455
569.235	38229
569.294	33735
569.353	29727
569.413	27320
569.472	24431
569.531	22571
569.590	20303
569.649	19450
569.708	18381
569.767	18195
569.827	17811
569.886	15554
569.945	15813
570.004	15048
570.063	14290
570.122	15020
570.181	14993
570.240	14186
570.299	14368
570.358	14247
570.417	12852
570.475	12053
570.534	13069
570.593	12499
570.652	12843
570.711	12702
570.770	11725
570.829	11339
570.887	11528
570.946	12526
571.005	11149
571.064	11343
571.122	11512
571.181	11484
571.240	10249
571.299	11066
571.357	11287
571.416	11604
571.475	13096
571.533	11835
571.592	11483
571.650	10929
571.709	10669
571.768	9514
571.826	10885
571.885	11570
571.943	9857
572.002	10372
572.060	10443
572.119	10175
572.177	10295
572.236	10508
572.294	9877
572.352	9822
572.411	10175
572.469	9632
572.528	9269
572.586	8947
572.644	10370
572.703	10878
572.761	9579
572.819	9229
572.877	9614
572.936	8922
572.994	9537
573.052	8196
573.110	8779
573.169	9074
573.227	9160
573.285	9524
573.343	9626
573.401	9607
573.459	10066
573.517	7804
573.576	9205
573.634	9374
573.692	9252
573.750	8536
573.808	9520
573.866	9705
573.924	11287
573.982	9988
574.040	10017
574.098	9120
574.155	7529
574.213	8224
574.271	9131
574.329	8963
574.387	8228
574.445	8974
574.503	8785
574.560	8556
574.618	9257
574.676	8444
574.734	8495
574.792	8267
574.849	8515
574.907	8379
574.965	8109
575.022	7882
575.080	7909
575.138	9234
575.195	8514
575.253	7991
575.311	8965
575.368	9080
575.426	8198
575.483	8544
575.541	8060
575.598	8321
575.656	8457
575.713	8042
575.771	8935
575.828	8275
575.886	8982
575.943	9030
576.001	8714
576.058	8277
576.115	9952
576.173	9523
576.230	9871
576.287	10780
576.345	9753
576.402	8748
576.459	9341
576.517	9757
576.574	10148
576.631	10253
576.688	9190
576.746	8976
576.803	8215
576.860	9070
576.917	9582
576.974	9511
577.031	8951
577.089	9007
577.146	9395
577.203	9450
577.260	9782
577.317	9252
577.374	9685
577.431	8956
577.488	9445
577.545	8789
577.602	10353
577.659	9896
577.716	10930
577.773	11085
577.830	9619
577.886	10313
577.943	9520
578.000	9261
578.057	10621
578.114	11141
578.171	12863
578.227	17521
578.284	16020
578.341	12934
578.398	12015
578.454	11436
578.511	11194
578.568	10994
578.625	9154
578.681	8863
578.738	9750
578.794	9961
578.851	9926
578.908	10506
578.964	11286
579.021	10437
579.077	11056
579.134	10172
579.190	10682
579.247	10329
579.303	9671
579.360	9034
579.416	9753
579.473	10083
579.529	10230
579.586	10644
579.642	9815
579.698	10385
579.755	10451
579.811	11218
579.867	10565
579.924	11318
579.980	11691
580.036	14776
580.093	17134
580.149	24525
580.205	26084
580.261	18960
580.317	15747
580.374	14003
580.430	13984
580.486	12338
580.542	11290
580.598	11371
580.619	11412
580.654	11488
580.692	11516
580.710	11540
580.765	11203
580.767	11196
580.823	11972
580.838	11745
580.879	11154
580.911	11504
580.935	11769
580.984	12399
580.991	12492
581.047	11907
581.057	11833
581.103	11544
581.130	12461
581.159	13426
581.203	14920
581.215	15299
581.270	14706
581.276	14514
581.326	12763
581.349	12647
581.382	12452
581.422	12196
581.438	12088
581.494	12229
581.494	12222
581.550	11505
581.567	11686
581.606	12026
581.640	12094
581.661	12139
581.713	12196
581.717	12212
581.773	12207
581.786	12232
581.829	12203
581.859	12228
581.885	12290
581.932	12513
581.940	12533
581.996	12571
582.004	12599
582.052	12906
582.077	12818
582.107	12617
582.150	13061
582.163	13194
582.219	13315
582.223	13321
582.274	13395
582.296	13711
582.330	14244
582.368	13674
582.386	13438
582.441	13590
582.441	13587
582.497	14121
582.514	14443
582.552	15446
582.587	15635
582.608	15560
582.659	14841
582.663	14788
582.719	14869
582.732	14845
582.774	14935
582.805	15262
582.830	15445
582.877	15561
582.885	15614
582.941	15688
582.950	16033
582.996	17661
583.023	17951
583.052	18514
583.095	20049
583.107	20505
583.162	23524
583.168	23613
583.218	23459
583.240	22708
583.273	21581
583.313	20817
583.328	20538
583.384	19850
583.385	19783
583.439	17717
583.458	17760
583.494	18010
583.531	17784
583.549	17834
583.603	17793
583.605	17779
583.660	18209
583.676	18115
583.715	17920
583.748	18146
583.770	18391
583.820	17785
583.825	17723
583.881	18838
583.893	18726
583.936	18389
583.965	18508
583.991	18681
584.038	19306
584.046	19386
584.101	19148
584.110	19175
584.156	19426
584.183	19685
584.211	19886
584.255	20144
584.266	20292
584.321	20896
584.328	20946
584.376	21178
584.400	21318
584.431	21873
584.472	21759
584.486	21488
584.541	22262
584.545	22215
584.596	22431
584.617	22782
584.651	23289
584.689	23588
584.706	23610
584.761	23759
584.762	23744
584.816	24148
584.834	24304
584.871	24656
584.906	25204
584.926	25416
584.978	25350
584.980	25395
585.035	26639
585.051	26803
585.090	26915
585.123	27256
585.145	27579
585.195	28410
585.200	28590
585.254	30618
585.267	31021
585.309	31796
585.340	32535
585.364	32913
585.412	32164
585.419	32128
585.473	33389
585.484	33340
585.528	34239
585.556	36611
585.583	40102
585.628	47199
585.637	49780
585.692	71923
585.700	74752
585.747	84722
585.772	78172
585.801	61125
585.845	43796
585.856	41958
585.910	38969
585.917	38476
585.965	37980
585.989	38122
586.019	38216
586.061	38717
586.074	39183
586.128	40347
586.133	40409
586.183	40845
586.205	41037
586.237	41864
586.277	42372
586.292	42744
586.346	44113
586.349	44126
586.401	44795
586.421	44972
586.455	45421
586.493	46144
586.509	47516
586.564	52294
586.565	52381
586.618	59489
586.637	59603
586.672	56372
586.709	53961
586.727	53809
586.781	55440
586.781	55539
586.835	56832
586.853	57339
586.889	57961
586.925	58459
586.944	59305
586.996	61609
586.998	61800
587.052	64574
587.068	65306
587.106	67287
587.140	68780
587.161	69691
587.212	71839
587.215	72152
587.269	76101
587.284	77081
587.323	79972
587.356	81982
587.377	83684
587.427	87942
587.431	88421
587.485	92541
587.499	93349
587.539	97723
587.571	101608
587.593	104460
587.643	109903
587.648	110709
587.702	116909
587.715	118611
587.755	126143
587.786	130556
587.810	134407
587.858	143295
587.864	144786
587.917	156586
587.930	159186
587.971	170945
588.001	178938
588.025	186315
588.073	200561
588.079	203360
588.133	225457
588.145	230370
588.187	250942
588.217	264047
588.241	278644
588.288	307419
588.295	312602
588.348	353113
588.360	361342
588.402	402193
588.431	430153
588.456	461814
588.503	522842
588.510	534731
588.564	626506
588.575	644952
588.617	740810
588.646	807167
588.671	877115
588.718	1009266
588.725	1029536
588.778	1168322
588.789	1192147
588.832	1210115
588.861	1204178
588.886	1118970
588.932	919117
588.939	906514
588.993	830778
589.004	826706
589.047	1080769
589.075	1230424
589.100	1263380
589.147	1289365
589.154	1279328
589.207	1171822
589.218	1148534
589.261	1094773
589.290	1060233
589.314	1072161
589.361	1096424
589.368	1108973
589.421	1200205
589.433	1215498
589.475	1198956
589.504	1165846
589.528	1081783
589.576	902312
589.582	920442
589.635	1120390
589.647	1154565
589.689	1176639
589.718	1172781
589.742	1087436
589.790	908050
589.795	892620
589.849	730747
589.861	692356
589.902	608895
589.932	545080
589.955	511880
590.004	439862
590.009	436051
590.062	383480
590.075	369601
590.115	338764
590.146	313892
590.168	303365
590.218	277350
590.222	276283
590.275	252588
590.289	245745
590.328	231902
590.360	219495
590.381	214700
590.431	201616
590.435	201381
590.488	187287
590.503	182777
590.541	176375
590.574	170129
590.594	167095
590.645	157326
590.647	157482
590.700	148821
590.716	145735
590.753	141958
590.787	137837
590.806	136337
590.859	130517
590.859	130832
590.912	124227
590.930	121679
590.965	119943
591.001	117494
591.018	116693
591.071	113168
591.072	112764
591.124	109439
591.143	107824
591.177	107209
591.214	105909
591.230	105654
591.283	103713
591.285	103277
591.336	99259
591.356	97259
591.389	96229
591.427	94208
591.442	93626
591.495	90290
591.498	89744
591.547	89307
591.569	88740
591.600	87799
591.640	85567
591.653	85306
591.706	83221
591.711	82713
591.759	83379
591.782	83243
591.811	83582
591.853	83405
591.864	83342
591.917	81430
591.924	80891
591.969	79201
591.995	77692
592.022	78400
592.066	78954
592.075	78995
592.127	77481
592.137	76933
592.180	77395
592.208	77207
592.233	76115
592.279	73245
592.285	73412
592.338	72672
592.350	72234
592.390	71026
592.421	69696
592.443	70081
592.491	70120
592.495	70311
592.548	69464
592.562	68984
592.600	68627
592.633	67860
592.653	67869
592.704	66887
592.705	67239
592.775	65412
592.846	64541
592.916	64623
592.987	64791
593.058	63609
593.128	60916
593.199	60295
593.270	60341
593.341	60009
593.411	57612
593.482	57812
593.553	58544
593.623	56895
593.694	57420
593.764	56499
593.835	55523
593.906	54949
593.976	54571
594.047	54081
594.117	56391
594.188	55324
594.258	53779
594.329	52628
594.399	52587
594.470	52315
594.540	51605
594.611	51472
594.681	51321
594.751	51040
594.822	50924
594.892	52567
594.963	50613
595.033	50645
595.103	52265
595.174	51911
595.244	55352
595.314	59157
595.384	50256
595.455	49965
595.525	50574
595.595	50324
595.665	51264
595.736	50401
595.806	49870
595.876	50761
595.946	49315
596.016	49390
596.087	51137
596.157	50689
596.227	50442
596.297	51847
596.367	51748
596.437	53230
596.507	56269
596.577	58311
596.647	53746
596.717	52968
596.787	53153
596.857	52852
596.927	53407
596.997	53647
597.067	53633
597.137	57006
597.207	55243
597.277	54419
597.347	53252
597.417	52569
597.487	54948
597.557	56142
597.626	53990
597.696	55826
597.766	57458
597.836	60018
597.906	53977
597.975	52372
598.045	51766
598.115	51647
598.185	53144
598.254	56191
598.324	58300
598.394	58772
598.464	56981
598.533	56948
598.603	55765
598.672	55785
598.742	55162
598.812	56070
598.881	56916
598.951	56452
599.020	55861
599.090	57460
599.159	58625
599.229	56568
599.299	55908
599.368	57980
599.437	57235
599.507	56112
599.576	56684
599.646	58860
599.715	59192
599.785	57313
599.854	56119
599.924	57456
599.993	57560
600.062	57042
600.132	58207
600.201	59348
600.270	64290
600.340	65191
600.409	65161
600.478	65122
600.547	64839
600.617	65404
600.686	62183
600.755	60499
600.824	61154
600.894	60589
600.963	60387
601.032	60844
601.101	61352
601.170	62795
601.239	62266
601.308	64267
601.378	65073
601.447	65028
601.516	66695
601.585	68017
601.654	69983
601.723	69914
601.792	71136
601.861	73468
601.930	79531
601.999	78598
602.068	76714
602.137	77129
602.206	78549
602.275	77972
602.343	79152
602.412	79000
602.481	78204
602.550	78968
602.619	79315
602.688	78868
602.756	81030
602.825	79595
602.894	81442
602.963	79394
603.032	81166
603.100	81300
603.169	80957
603.238	83281
603.307	80419
603.375	80943
603.444	83475
603.513	77292
603.581	80220
603.650	82618
603.719	71063
603.787	68324
603.856	69259
603.924	70513
603.993	72140
604.061	73514
604.130	74379
604.198	76942
604.267	76230
604.335	78672
604.404	77602
604.472	79508
604.541	81361
604.609	81670
604.678	83247
604.746	84469
604.815	87865
604.883	85782
604.951	82850
605.020	84515
605.088	79927
605.156	74363
605.225	75075
605.293	75110
605.361	75283
605.429	74580
605.498	75740
605.566	75999
605.634	77996
605.702	77268
605.771	77204
605.839	78891
605.907	73620
605.975	76952
606.043	74233
606.111	73484
606.180	81017
606.248	76440
606.316	75857
606.384	77457
606.452	65933
606.520	56984
606.588	54565
606.656	52731
606.724	52064
606.792	51425
606.860	48390
606.928	44529
606.996	44334
607.064	43480
607.132	45074
607.200	46036
607.267	46729
607.335	47435
607.403	48634
607.471	47210
607.539	46350
607.607	47186
607.674	44397
607.742	44933
607.810	43041
607.878	43932
607.946	43111
608.013	44753
608.081	45676
608.149	46002
608.216	46424
608.284	48340
608.352	45615
608.419	46085
608.487	50257
608.555	46518
608.622	46025
608.690	46502
608.757	47957
608.825	47971
608.893	50284
608.960	48803
609.028	48615
609.095	49694
609.163	47367
609.230	43443
609.298	43233
609.365	42501
609.432	45470
609.500	48104
609.567	51928
609.635	57423
609.702	58197
609.769	58616
609.837	49315
609.904	45871
609.971	45745
610.039	52711
610.106	63388
610.173	99947
610.241	196687
610.308	209136
610.375	125384
610.442	61584
610.509	50024
610.577	47612
610.644	46706
610.711	47036
610.778	49189
610.845	50156
610.912	51485
610.980	55247
611.047	61743
611.114	54653
611.181	48477
611.248	48340
611.315	51412
611.382	49914
611.449	51157
611.516	52078
611.583	51357
611.650	51960
611.717	51740
611.784	51906
611.851	54951
611.918	58053
611.984	63874
612.051	81184
612.118	138154
612.185	299926
612.252	208777
612.319	74996
612.386	63451
612.452	59402
612.519	57787
612.586	60098
612.653	57526
612.719	58607
612.786	55873
612.853	53101
612.919	52089
612.986	54318
613.053	51567
613.120	49137
613.186	47830
613.253	50207
613.319	48695
613.386	49237
613.453	49560
613.519	50795
613.586	52621
613.652	60058
613.719	54711
613.785	53056
613.852	50963
613.918	50245
613.985	53223
614.051	61213
614.118	78466
614.184	74030
614.250	52069
614.317	50687
614.383	50916
614.449	49831
614.516	49250
614.582	50824
614.648	48378
614.715	49484
614.781	49246
614.847	49855
614.914	49617
614.980	49502
615.046	50582
615.112	50364
615.179	52038
615.245	55839
615.311	61787
615.377	80008
615.443	89065
615.509	66844
615.575	58605
615.642	55305
615.708	57298
615.774	58841
615.840	63926
615.906	73482
615.972	97755
616.038	159380
616.104	240107
616.170	404202
616.236	345116
616.302	106937
616.368	77539
616.434	65444
616.500	62353
616.565	62879
616.631	66888
616.697	61379
616.763	62483
616.829	74432
616.895	105140
616.961	103357
617.026	67157
617.092	55888
617.158	54196
617.224	52978
617.289	52231
617.355	51286
617.421	49916
617.487	51894
617.552	49601
617.618	48893
617.684	48666
617.749	50754
617.815	47319
617.880	47162
617.946	48984
618.012	49276
618.077	50168
618.143	49474
618.208	48912
618.274	51910
618.339	52501
618.405	46400
618.470	48181
618.536	48556
618.601	49361
618.667	47455
618.732	46461
618.798	46142
618.863	46526
618.928	45119
618.994	46947
619.059	47585
619.124	52654
619.190	47901
619.255	46536
619.320	45764
619.386	45640
619.451	44003
619.516	44016
619.581	43936
619.647	44974
619.712	45190
619.777	44931
619.842	46806
619.907	47149
619.972	45657
620.038	46181
620.103	45704
620.168	45017
620.233	46611
620.298	45383
620.363	45778
620.428	47493
620.493	46467
620.558	47117
620.623	47456
620.688	47607
620.753	47450
620.818	47521
620.883	47991
620.948	48756
621.013	47096
621.078	47201
621.143	46802
621.207	49563
621.272	48718
621.337	47735
621.402	48742
621.467	52377
621.532	53081
621.596	50796
621.661	48798
621.726	49603
621.791	48507
621.855	51472
621.920	51832
621.985	49413
622.049	52771
622.114	51608
622.179	50263
622.243	52289
622.308	51606
622.373	54682
622.437	54503
622.502	52130
622.566	52224
622.631	49671
622.695	53327
622.760	51869
622.824	52753
622.889	52195
622.953	53608
623.018	61818
623.082	59985
623.147	53604
623.211	51797
623.276	52890
623.340	51163
623.404	50690
623.469	48819
623.533	51340
623.597	49068
623.662	49500
623.726	48854
623.790	47325
623.854	47060
623.919	47968
623.983	47588
624.047	46552
624.111	47031
624.176	48991
624.240	47808
624.304	50886
624.368	47313
624.432	46921
624.496	47986
624.560	50076
624.625	48913
624.689	48205
624.753	48597
624.817	48121
624.881	46329
624.945	45311
625.009	45896
625.073	46175
625.137	45848
625.201	49853
625.265	49460
625.329	45096
625.393	45671
625.456	46340
625.520	46475
625.584	46801
625.648	49948
625.712	55167
625.776	76264
625.839	79811
625.903	49750
625.967	43127
626.031	50920
626.095	59653
626.158	44385
626.222	38166
626.286	38464
626.349	36882
626.413	35849
626.477	37106
626.540	35455
626.604	33767
626.668	36625
626.731	36254
626.795	34900
626.858	34632
626.922	33581
626.986	33898
627.049	31902
627.113	34706
627.176	34151
627.240	32105
627.303	33303
627.366	31935
627.430	32701
627.493	32677
627.557	32272
627.620	34048
627.684	32079
627.747	31555
627.810	30119
627.874	30158
627.937	28615
628.000	32370
628.064	30321
628.127	27475
628.190	29795
628.253	27891
628.317	26811
628.380	27064
628.443	26618
628.506	27515
628.569	26957
628.632	24719
628.696	25249
628.759	26048
628.822	25132
628.885	25026
628.948	25381
629.011	25285
629.074	24262
629.137	24149
629.200	24429
629.263	25745
629.326	23402
629.389	23825
629.452	24109
629.515	22872
629.578	23607
629.641	24890
629.704	23204
629.767	23937
629.830	24297
629.892	23958
629.955	22541
630.018	24679
630.081	22884
630.144	26203
630.207	22299
630.269	25503
630.332	23561
630.395	22651
630.458	23110
630.520	21772
630.583	21870
630.646	21637
630.708	21799
630.771	20474
630.834	21840
630.896	21616
630.959	21426
631.021	21045
631.084	21820
631.146	22138
631.209	22391
631.272	20746
631.334	21014
631.397	21012
631.459	20138
631.522	21106
631.584	20894
631.646	21815
631.709	21252
631.771	23340
631.834	22229
631.896	21189
631.958	18891
632.021	21355
632.083	19123
632.145	20162
632.208	20273
632.270	20919
632.332	19646
632.395	19609
632.457	20708
632.519	19614
632.581	20752
632.643	18992
632.706	19972
632.768	17965
632.830	20036
632.892	19560
632.954	18902
633.016	20889
633.078	19696
633.141	18482
633.203	18628
633.265	19379
633.327	18959
633.389	18252
633.451	20800
633.513	20917
633.575	20966
633.637	20342
633.698	18526
633.760	19160
633.822	19713
633.884	19546
633.946	20167
634.008	19316
634.070	19580
634.132	22421
634.193	20426
634.255	19314
634.317	18291
634.379	19709
634.441	18170
634.502	18290
634.564	18815
634.626	17461
634.687	18579
634.749	17314
634.811	19697
634.873	16674
634.934	17760
634.996	18010
635.057	18151
635.119	16582
635.181	17779
635.242	17730
635.304	16587
635.365	20099
635.427	17588
635.488	17436
635.550	16986
635.611	17444
635.673	15702
635.734	19241
635.796	18064
635.857	19999
635.918	18520
635.980	19111
636.041	17105
636.102	19895
636.164	18508
636.225	18497
636.286	16732
636.348	17673
636.409	17153
636.470	16220
636.531	18347
636.593	18397
636.654	18765
636.715	17048
636.776	16860
636.838	15871
636.899	17101
636.960	16930
637.021	15870
637.082	16015
637.143	16086
637.204	14667
637.265	15283
637.326	16037
637.387	16532
637.448	14179
637.509	16519
637.570	15278
637.631	16841
637.692	15551
637.753	14500
637.814	16246
637.875	15546
637.936	16296
637.997	14869
638.058	16039
638.119	16003
638.179	16086
638.240	14471
638.301	15216
638.362	14487
638.423	15292
638.483	16548
638.544	14023
638.605	15732
638.666	15091
638.726	15339
638.787	15992
638.848	14276
638.908	15720
638.969	15250
639.030	15360
639.090	13768
639.151	14413
639.211	16517
639.272	18006
639.332	19835
639.393	15711
639.453	13737
639.514	15591
639.574	14954
639.635	14159
639.695	15259
639.756	14387
639.816	15296
639.877	15200
639.937	18298
639.997	20465
640.058	14004
640.118	13214
640.178	15365
640.239	14875
640.299	14250
640.359	14482
640.420	13762
640.480	14971
640.540	13481
640.600	15166
640.661	15032
640.721	13728
640.781	16445
640.841	14530
640.901	14531
640.961	14954
641.021	14598
641.082	13849
641.142	16941
641.202	16015
641.262	12243
641.322	14289
641.382	12838
641.442	14410
641.502	13692
641.562	14879
641.622	13622
641.682	14073
641.742	13949
641.802	14535
641.861	13675
641.921	13670
641.981	14725
642.041	13719
642.101	15081
642.161	12210
642.221	13425
642.280	13233
642.340	12868
642.400	12154
642.460	14799
642.519	13803
642.579	12702
642.639	14668
642.698	11481
642.758	14375
642.818	13325
642.877	13137
642.937	14198
642.997	15087
643.056	15602
643.116	13221
643.175	15286
643.235	13433
643.294	13906
643.354	13508
643.414	14325
643.473	14863
643.532	14772
643.592	16952
643.651	21852
643.711	32185
643.770	53016
643.830	114463
643.889	229220
643.948	59377
644.008	18866
644.067	15409
644.126	13075
644.186	13740
644.245	13209
644.304	11308
644.363	15111
644.423	11463
644.482	12811
644.541	12631
644.600	10585
644.659	13778
644.719	13822
644.778	15293
644.837	18670
644.896	29945
644.955	55095
645.014	25893
645.073	16322
645.132	13341
645.191	13147
645.250	12195
645.309	13405
645.368	12725
645.427	13966
645.486	14096
645.545	18894
645.604	12487
645.663	12195
645.722	12010
645.781	12189
645.840	12386
645.898	14146
645.957	17285
646.016	18437
646.075	28648
646.134	47886
646.192	113191
646.251	157460
646.310	29805
646.369	14847
646.427	13658
646.486	11616
646.545	12139
646.603	12656
646.662	12054
646.721	11519
646.779	10589
646.838	10995
646.896	12445
646.955	12165
647.014	14756
647.072	19802
647.131	37657
647.189	22442
647.248	10674
647.306	11569
647.365	11894
647.423	9175
647.481	12130
647.540	9146
647.598	10933
647.657	9590
647.715	11042
647.773	9881
647.832	11122
647.890	9322
647.948	9056
648.007	10710
648.065	9453
648.123	10539
648.181	11916
648.240	12522
648.298	11429
648.356	10607
648.414	10088
648.472	10512
648.531	10406
648.589	9084
648.647	9768
648.705	10255
648.763	9967
648.821	10550
648.879	10064
648.937	10192
648.995	11144
649.053	11872
649.111	12896
649.169	16454
649.227	22717
649.285	38384
649.343	94691
649.401	49399
649.459	23304
649.516	17929
649.574	14036
649.632	23499
649.690	26170
649.748	16587
649.806	18375
649.863	27496
649.921	29910
649.979	19881
650.037	10617
650.094	8746
650.152	9907
650.210	8447
650.268	9692
650.325	9990
650.383	9414
650.440	8404
650.498	9731
650.556	8910
650.613	8275
650.671	8520
650.728	8714
650.786	9260
650.843	8627
650.901	7989
650.958	9517
651.016	8307
651.073	8396
651.131	7360
651.188	8611
651.246	9016
651.303	7613
651.360	8302
651.418	7558
651.475	8320
651.532	7488
651.590	9121
651.647	7605
651.704	7968
651.762	7307
651.819	8442
651.876	8065
651.933	7349
651.990	8984
652.048	6765
652.105	7035
652.162	8885
652.219	7085
652.276	7818
652.333	7809
652.390	7687
652.448	8432
652.505	8376
652.562	8281
652.619	10087
652.676	12050
652.733	13481
652.790	7566
652.847	6703
652.904	7441
652.961	7276
653.017	7372
653.074	7855
653.131	7357
653.188	6596
653.245	7182
653.302	7476
653.359	7972
653.415	7847
653.472	6980
653.529	8185
653.586	6140
653.642	7152
653.699	7782
653.756	6489
653.813	7212
653.869	8571
653.926	7120
653.983	6086
654.039	7313
654.096	7631
654.152	8198
654.209	6254
654.266	7273
654.322	6450
654.379	7509
654.435	7620
654.492	7689
654.548	8749
654.605	10028
654.661	8955
654.717	6708
654.774	8229
654.830	7905
654.887	7618
654.943	7485
655.000	7107
655.056	7822
655.112	7117
655.168	6325
655.225	6552
655.281	8020
655.337	7769
655.394	9378
655.450	8671
655.506	7750
655.562	9068
655.618	9809
655.675	6517
655.731	7857
655.787	6168
655.843	8044
655.899	5982
655.955	6891
656.011	7479
656.067	6304
656.123	7436
656.179	6694
656.235	8328
656.291	5508
656.347	6918
656.403	6754
656.459	7360
656.515	7495
656.571	7336
656.627	7186
656.683	7547
656.739	7599
656.795	7026
656.850	7242
656.906	7863
656.962	7701
657.018	6181
657.074	7581
657.129	7989
657.185	8017
657.241	9613
657.297	7410
657.352	7293
657.408	6371
657.464	7684
657.519	6814
657.575	6568
657.630	7558
657.686	7102
657.742	6623
657.797	6516
657.853	6344
657.908	7406
657.964	5857
658.019	7572
658.075	7413
658.130	7428
658.186	5781
658.241	7331
658.297	6510
658.352	6586
658.407	6982
658.463	6388
658.518	6491
658.573	6778
658.629	6168
658.684	6240
658.739	7387
658.795	6521
658.850	7040
658.905	6506
658.960	7081
659.016	7206
659.071	6312
659.126	7443
659.181	6899
659.236	9088
659.291	9539
659.346	8059
659.401	7167
659.457	8580
659.512	9976
659.567	8403
659.622	7465
659.677	6454
659.732	5757
659.787	6458
659.842	7006
659.897	7357
659.952	6867
660.007	6889
660.061	6994
660.116	5497
660.171	6276
660.226	6344
660.281	6636
660.336	6424
660.391	6503
660.445	6034
660.500	6492
660.555	6900
660.610	6267
660.664	6675
660.719	6241
660.774	6688
660.828	6501
660.883	6766
660.938	7196
660.992	5703
661.047	7552
661.101	6758
661.156	6135
661.211	6337
661.265	6011
661.320	5502
661.374	6491
661.429	5644
661.483	7653
661.538	6442
661.592	6459
661.647	5996
661.701	7250
661.755	6391
661.810	6737
661.864	6221
661.919	6245
661.973	6841
662.027	6526
662.081	6077
662.136	6088
662.190	7440
662.244	6628
662.299	6360
662.353	6026
662.407	5751
662.461	6761
662.515	6799
662.569	6454
662.624	6117
662.678	6081
662.732	5927
662.786	6003
662.840	5819
662.894	6076
662.948	5850
663.002	6477
663.056	5783
663.110	5970
663.164	5832
663.218	5893
663.272	5978
663.326	6949
663.380	5786
663.434	6631
663.488	5420
663.542	5518
663.595	6563
663.649	5739
663.703	6295
663.757	6385
663.811	6100
663.864	5214
663.918	6141
663.972	6210
664.026	5668
664.079	6105
664.133	5969
664.187	5074
664.240	5561
664.294	6384
664.348	6769
664.401	6576
664.455	5010
664.508	5863
664.562	6175
664.615	5939
664.669	5945
664.722	5810
664.776	5380
664.829	5465
664.883	5759
664.936	5314
664.990	5811
665.043	5753
665.097	6084
665.150	6980
665.203	6198
665.257	5802
665.310	6151
665.363	6188
665.417	6334
665.470	6393
665.523	6263
665.576	5915
665.630	6194
665.683	6718
665.736	5819
665.789	5701
665.842	5114
665.895	6133
665.949	5207
666.002	5846
666.055	5521
666.108	6690
666.161	6394
666.214	6520
666.267	6946
666.320	7031
666.373	6199
666.426	6296
666.479	6171
666.532	6256
666.585	5562
666.638	6478
666.691	5395
666.744	6281
666.796	5807
666.849	5901
666.902	6412
666.955	4439
667.008	5760
667.060	5790
667.113	5628
667.166	6016
667.219	5764
667.271	4989
667.324	5134
667.377	6019
667.430	5808
667.482	7443
667.535	6475
667.587	5968
667.640	5346
667.693	6179
667.745	7668
667.798	7849
667.850	5727
667.903	5579
667.955	5743
668.008	5592
668.060	6079
668.113	5942
668.165	6089
668.218	6832
668.270	5675
668.322	5656
668.375	5696
668.427	6229
668.479	5606
668.532	5937
668.584	5547
668.636	5871
668.689	6420
668.741	6496
668.793	5315
668.845	5156
668.898	5696
668.950	6549
669.002	5350
669.054	5493
669.106	5666
669.158	6807
669.211	5784
669.263	6395
669.315	6327
669.367	7357
669.419	6649
669.471	7265
669.523	7404
669.575	7270
669.627	6874
669.679	5803
669.731	6566
669.783	6549
669.835	7687
669.886	6001
669.938	7086
669.990	6532
670.042	7096
670.094	8224
670.146	7716
670.197	9151
670.249	10827
670.301	12499
670.353	15835
670.404	20845
670.456	29986
670.508	45545
670.560	68054
670.611	111436
670.663	189823
670.715	378355
670.766	483489
670.818	221111
670.869	61936
670.921	30643
670.972	22150
671.024	15695
671.075	13067
671.127	11337
671.178	9471
671.230	9430
671.281	8304
671.333	8329
671.384	7659
671.436	7453
671.487	8012
671.538	8014
671.590	8553
671.641	10300
671.692	11621
671.744	16108
671.795	14286
671.846	9025
671.897	7571
671.949	6646
672.000	6001
672.051	6264
672.102	6365
672.153	5853
672.204	5756
672.256	5929
672.307	6126
672.358	6117
672.409	5745
672.460	5942
672.511	5925
672.562	5467
672.613	5341
672.664	5317
672.715	5854
672.766	4874
672.817	4933
672.868	5579
672.919	5266
672.970	4482
673.021	5411
673.071	5068
673.122	5206
673.173	4917
673.224	4543
673.275	4818
673.326	5206
673.376	4292
673.427	4759
673.478	5323
673.528	5124
673.579	4498
673.630	5024
673.680	4998
673.731	4441
673.782	4078
673.832	4663
673.883	4759
673.934	4962
673.984	4975
674.035	4214
674.085	4721
674.136	5156
674.186	4060
674.237	5360
674.287	5914
674.338	4573
674.388	4664
674.438	4501
674.489	4371
674.539	5315
674.589	4521
674.640	4196
674.690	4489
674.740	4845
674.791	4548
674.841	4325
674.891	4940
674.942	4221
674.992	4588
675.042	4478
675.092	4014
675.142	4531
675.193	4379
675.243	4033
675.293	4722
675.343	4529
675.393	4120
675.443	4779
675.493	4394
675.543	3153
675.593	4194
675.643	4273
675.693	4932
675.743	4103
675.793	4818
675.843	4994
675.893	4204
675.943	4504
675.993	4557
676.043	3907
676.093	5207
676.142	4774
676.192	4545
676.242	4117
676.292	4511
676.341	3563
676.391	5093
676.441	3780
676.491	4409
676.540	3863
676.590	3537
676.640	5093
676.689	4133
676.739	3035
676.789	4087
676.838	3527
676.888	4319
676.937	4158
676.987	4263
677.037	3546
677.086	3497
677.136	3821
677.185	3509
677.235	3407
677.284	3628
677.333	3404
677.383	2935
677.432	3252
677.482	3956
677.531	3635
677.580	3484
677.630	3898
677.679	3577
677.728	3526
677.778	4554
677.827	3166
677.876	4286
677.925	3544
677.975	4000
678.024	3243
678.073	4362
678.122	4605
678.171	2963
678.220	3534
678.269	4469
678.319	4020
678.368	4279
678.417	3675
678.466	3388
678.515	4242
678.564	4142
678.613	3062
678.662	3478
678.711	3406
678.760	3296
678.809	3516
678.857	3966
678.906	3661
678.955	3956
679.004	4426
679.053	3686
679.102	3491
679.151	3674
679.199	2847
679.248	3614
679.297	3456
679.346	3506
679.394	3841
679.443	4005
679.492	3418
679.540	4732
679.589	3737
679.638	3705
679.686	4040
679.735	4140
679.784	3058
679.832	3818
679.881	4062
679.929	3480
679.978	2703
680.026	3430
680.075	3542
680.123	3295
680.172	3083
680.220	3442
680.268	3693
680.317	3291
680.365	3768
680.414	3517
680.462	3597
680.510	3951
680.559	2942
680.607	3263
680.655	2826
680.703	2967
680.752	2804
680.800	3405
680.848	3697
680.896	2642
680.945	3352
680.993	2568
681.041	2969
681.089	3372
681.137	2600
681.185	2912
681.233	2837
681.258	3095
681.281	3319
681.329	3157
681.377	3836
681.380	3842
681.425	3514
681.473	3225
681.502	3240
681.521	3210
681.569	4287
681.617	3209
681.624	3258
681.665	3429
681.713	4503
681.745	3780
681.761	3401
681.809	3136
681.857	4046
681.867	3905
681.904	3338
681.952	4260
681.989	4115
682.000	4041
682.048	2770
682.096	3536
682.111	3741
682.143	4102
682.191	4126
682.233	4552
682.239	4598
682.286	3936
682.334	3434
682.354	3544
682.382	3633
682.430	4228
682.476	3798
682.477	3770
682.525	3811
682.572	4151
682.598	4148
682.620	4100
682.667	3675
682.715	4532
682.720	4557
682.763	4617
682.810	4184
682.841	4235
682.857	4233
682.905	4243
682.952	4862
682.963	4892
683.000	4902
683.047	4508
683.085	5172
683.095	5334
683.142	5357
683.190	5297
683.206	4925
683.237	4208
683.284	4706
683.328	4747
683.332	4730
683.379	5364
683.426	4602
683.449	4631
683.473	4664
683.521	4998
683.568	4797
683.571	4830
683.615	4954
683.662	5689
683.693	5307
683.709	5067
683.757	5167
683.804	5356
683.814	5364
683.851	5358
683.898	4880
683.936	5304
683.945	5394
683.992	5626
684.039	5719
684.057	5466
684.086	4969
684.133	5894
684.179	5488
684.180	5467
684.227	5475
684.274	5771
684.300	6298
684.321	6647
684.368	5355
684.415	6252
684.422	6211
684.462	5925
684.509	5710
684.543	5684
684.556	5644
684.603	5863
684.649	5415
684.665	5684
684.696	6263
684.743	5903
684.786	6003
684.790	5991
684.837	6224
684.883	6624
684.908	6569
684.930	6508
684.977	6633
685.023	6564
685.029	6555
685.070	6498
685.117	7053
685.150	6744
685.164	6590
685.210	7236
685.257	7136
685.272	7061
685.303	6865
685.350	6786
685.393	7074
685.396	7083
685.443	7507
685.490	7214
685.514	6864
685.536	6604
685.583	7247
685.629	7234
685.636	7222
685.675	6988
685.722	7188
685.757	6969
685.768	6926
685.815	6823
685.861	8049
685.878	7760
685.908	7251
685.954	7496
686.000	8110
686.000	8112
686.047	7676
686.093	8234
686.121	8142
686.139	8013
686.185	7603
686.232	6729
686.242	6801
686.278	7252
686.324	7448
686.363	7387
686.370	7353
686.416	7315
686.463	8227
686.484	8101
686.509	7959
686.555	7430
686.601	7679
686.606	7725
686.647	8087
686.693	8191
686.727	7838
686.739	7721
686.785	7666
686.831	7979
686.848	8076
686.877	8165
686.923	7749
686.969	8094
686.969	8095
687.015	7720
687.061	7966
687.090	8317
687.107	8430
687.153	8202
687.199	7843
687.211	7866
687.245	8135
687.291	8517
687.332	8210
687.336	8180
687.382	8756
687.428	8696
687.453	8780
687.474	8743
687.520	8814
687.565	8474
687.574	8382
687.611	8067
687.657	8230
687.695	8470
687.702	8575
687.748	9072
687.794	9688
687.816	9652
687.839	9333
687.885	9474
687.931	8473
687.937	8514
687.976	8896
688.022	8581
688.058	8788
688.067	8904
688.113	9264
688.158	8858
688.179	9056
688.204	9081
688.249	9433
688.295	9079
688.300	9027
688.340	9047
688.386	9660
688.421	9544
688.431	9415
688.477	9070
688.522	9405
688.542	9439
688.567	9712
688.613	9729
688.658	9268
688.663	9310
688.703	9639
688.749	9993
688.784	9908
688.794	9881
688.839	9681
688.884	10195
688.905	10006
688.930	9617
688.975	9781
689.020	9573
689.026	9500
689.065	9468
689.110	9692
689.146	9801
689.155	9782
689.201	9853
689.246	9394
689.267	9486
689.291	9693
689.336	9972
689.381	9903
689.388	9967
689.426	10256
689.471	9823
689.509	9761
689.516	9792
689.561	9820
689.606	9914
689.630	10215
689.651	10352
689.696	9918
689.741	9770
689.750	9771
689.785	10147
689.830	10646
689.871	10473
689.875	10426
689.920	10497
689.965	10336
689.992	10104
690.010	10171
690.054	10723
690.099	10829
690.112	10930
690.144	10987
690.189	11184
690.233	10685
690.233	10696
690.278	11027
690.323	10897
690.354	10977
690.367	11113
690.412	11095
690.457	11236
690.474	11503
690.501	12058
690.546	12233
690.590	12092
690.595	12153
690.635	12980
690.680	13783
690.716	14050
690.724	14251
690.769	15768
690.813	17232
690.836	17955
690.857	20076
690.902	24810
690.946	30446
690.957	31725
690.991	42202
691.035	58138
691.077	72463
691.080	72415
691.124	63400
691.168	54610
691.198	49688
691.213	45824
691.257	35605
691.301	24988
691.318	20985
691.346	19552
691.390	17153
691.434	15294
691.439	15027
691.478	14656
691.522	14116
691.559	13837
691.567	13820
691.611	13231
691.655	12869
691.680	12783
691.699	12851
691.743	12850
691.787	12614
691.800	12462
691.831	12271
691.875	12372
691.919	12572
691.921	12551
691.964	12597
692.008	12877
692.041	13004
692.052	13081
692.096	12967
692.139	13496
692.162	13502
692.183	13254
692.227	12765
692.271	12307
692.282	12172
692.315	12365
692.359	12343
692.402	13109
692.403	13135
692.447	13096
692.490	12890
692.523	12958
692.534	13011
692.578	12806
692.622	12794
692.643	12766
692.666	12766
692.709	12924
692.753	12644
692.763	12625
692.797	12939
692.840	13365
692.884	13677
692.884	13703
692.928	13887
692.971	13943
693.004	14230
693.015	14300
693.059	14139
693.102	14082
693.124	14086
693.146	14499
693.189	15048
693.233	15821
693.245	15953
693.276	16244
693.320	16898
693.363	17391
693.365	17372
693.407	18656
693.450	20276
693.485	21381
693.493	22044
693.537	25431
693.580	28868
693.605	31286
693.624	36026
693.667	46118
693.710	57548
693.725	61614
693.753	81292
693.797	113473
693.840	145438
693.845	148369
693.883	134372
693.926	117445
693.966	103584
693.970	101326
694.013	76662
694.056	52480
694.086	35905
694.099	34416
694.142	29499
694.185	24317
694.206	22034
694.229	21380
694.272	19922
694.315	18479
694.326	18083
694.358	17754
694.401	16874
694.444	16435
694.446	16372
694.487	16201
694.530	15966
694.566	15774
694.573	15736
694.616	15339
694.659	14941
694.686	14706
694.702	14835
694.745	14840
694.787	14996
694.806	15044
694.830	14996
694.873	14787
694.916	14619
694.926	14521
694.959	14380
695.002	14330
695.044	14233
695.046	14201
695.087	14599
695.130	14689
695.166	14982
695.172	15008
695.215	14783
695.258	14799
695.286	14745
695.301	14885
695.343	15000
695.386	15263
695.406	15314
695.428	15253
695.471	15072
695.514	15021
695.526	14917
695.556	14881
695.599	15058
695.641	14841
695.646	14821
695.684	14787
695.726	14511
695.766	14437
695.769	14495
695.811	14687
695.854	14697
695.886	15080
695.896	15178
695.938	14789
695.981	14912
696.005	14829
696.023	14897
696.065	15005
696.108	15235
696.125	15234
696.150	15358
696.192	15604
696.235	15684
696.245	15682
696.277	15737
696.319	15911
696.361	15911
696.365	15883
696.404	16201
696.446	16601
696.485	16652
696.488	16685
696.530	16718
696.572	16720
696.604	16797
696.614	16793
696.656	16467
696.698	16122
696.724	15946
696.740	15871
696.783	15562
696.825	15154
696.844	14962
696.867	15109
696.909	15425
696.951	15448
696.964	15514
696.992	15647
697.034	15532
697.076	15549
697.083	15501
697.118	15621
697.160	15819
697.202	15986
697.203	15951
697.244	15675
697.286	15381
697.323	15021
697.327	15080
697.369	15375
697.411	15618
697.442	15750
697.453	15761
697.494	15608
697.536	15593
697.562	15425
697.578	15431
697.620	15508
697.661	15497
697.682	15476
697.703	15713
697.744	16093
697.786	16497
697.801	16579
697.828	16730
697.869	16887
697.911	17112
697.921	17127
697.952	16878
697.994	16457
698.035	16076
698.040	15980
698.077	15852
698.118	15725
698.160	15595
698.160	15556
698.201	15875
698.243	16084
698.279	16316
698.284	16360
698.325	16381
698.367	16356
698.399	16278
698.408	16275
698.449	16107
698.491	15963
698.518	15793
698.532	15887
698.573	16086
698.614	16273
698.638	16346
698.656	16452
698.697	16585
698.738	16737
698.757	16760
698.779	16610
698.820	16251
698.862	15889
698.877	15721
698.903	16241
698.944	16998
698.985	17757
698.996	17924
699.026	17590
699.067	17070
699.116	16408
699.235	16753
699.354	16597
699.474	15194
699.593	16718
699.713	17069
699.832	16378
699.951	16528
700.070	16651
700.190	15952
700.309	16216
700.428	16016
700.547	15184
700.667	15994
700.786	16299
700.905	16654
701.024	15895
701.143	16341
701.262	15072
701.381	15354
701.500	15356
701.619	15337
701.738	15084
701.857	15593
701.976	16454
702.095	15023
702.214	15878
702.333	15943
702.452	14747
702.571	15555
702.690	16035
702.809	15203
702.928	15349
703.047	15560
703.165	15037
703.284	14745
703.403	14956
703.522	14741
703.640	14652
703.759	15733
703.878	15805
703.997	15196
704.115	15202
704.234	14892
704.353	14705
704.471	14032
704.590	14384
704.708	15446
704.827	15304
704.946	15160
705.064	14951
705.183	14806
705.301	14813
705.420	17641
705.538	17131
705.656	15586
705.775	17443
705.893	22705
706.012	23665
706.130	15171
706.249	16526
706.367	15374
706.485	16343
706.604	15085
706.722	15570
706.840	15662
706.958	17434
707.077	16301
707.195	14873
707.313	15184
707.431	14805
707.549	15289
707.668	14850
707.786	15757
707.904	15036
708.022	13789
708.140	14786
708.258	14876
708.376	15485
708.494	14545
708.612	15408
708.730	18347
708.848	16830
708.966	15542
709.084	15187
709.202	14718
709.320	15629
709.438	15954
709.556	15122
709.674	15356
709.791	15660
709.909	15683
710.027	15931
710.145	16227
710.263	15361
710.380	15645
710.498	14932
710.616	15056
710.733	14430
710.851	15001
710.969	15129
711.086	13772
711.204	14391
711.322	14837
711.439	13978
711.557	14753
711.674	14329
711.792	13827
711.909	15014
712.027	15586
712.144	13633
712.262	14394
712.379	14329
712.497	17098
712.614	17316
712.732	16258
712.849	16111
712.966	15309
713.084	16422
713.201	15420
713.318	15708
713.436	15910
713.553	16028
713.670	15293
713.787	15703
713.905	15507
714.022	15159
714.139	14713
714.256	15811
714.373	15548
714.490	17734
714.608	24544
714.725	64139
714.842	59671
714.959	16538
715.076	14716
715.193	14817
715.310	15070
715.427	14684
715.544	14354
715.661	14101
715.778	14230
715.895	14684
716.011	15377
716.128	14171
716.245	14450
716.362	14848
716.479	14336
716.596	13987
716.713	13725
716.829	13807
716.946	14004
717.063	13614
717.180	14798
717.296	12874
717.413	13134
717.530	13295
717.646	13138
717.763	13401
717.880	12941
717.996	13223
718.113	12856
718.229	13182
718.346	12751
718.462	12959
718.579	13059
718.695	14244
718.812	14867
718.928	13176
719.045	12216
719.161	12934
719.277	11966
719.394	13158
719.510	13530
719.626	12660
719.743	14290
719.859	13677
719.975	14971
720.092	23966
720.208	38677
720.324	15132
720.440	12903
720.557	12658
720.673	13444
720.789	14376
720.905	18045
721.021	13058
721.137	12958
721.253	12744
721.369	11405
721.486	12120
721.602	13377
721.718	11984
721.834	11719
721.950	11651
722.066	11331
722.181	11495
722.297	11801
722.413	12826
722.529	12636
722.645	12071
722.761	11671
722.877	11196
722.993	12020
723.108	10886
723.224	11137
723.340	11256
723.456	11710
723.571	11819
723.687	10749
723.803	11896
723.918	10866
724.034	11663
724.150	11364
724.265	11012
724.381	13104
724.497	12101
724.612	11562
724.728	10775
724.843	10735
724.959	11268
725.074	12200
725.190	12491
725.305	10816
725.421	11131
725.536	10760
725.651	11080
725.767	11192
725.882	10873
725.997	10585
726.113	10613
726.228	11074
726.343	10377
726.459	10226
726.574	10305
726.689	10027
726.804	10561
726.920	10482
727.035	9970
727.150	10027
727.265	10510
727.380	9785
727.495	10947
727.610	10524
727.725	10877
727.841	11399
727.956	14890
728.071	12446
728.186	10297
728.301	8912
728.416	10172
728.531	10124
728.645	9928
728.760	10548
728.875	10557
728.990	10004
729.105	10466
729.220	9545
729.335	9974
729.449	9888
729.564	9334
729.679	9233
729.794	10171
729.908	9990
730.023	10379
730.138	9959
730.253	9829
730.367	9419
730.482	9595
730.596	10528
730.711	9873
730.826	9481
730.940	10067
731.055	9384
731.169	8789
731.284	9493
731.398	9432
731.513	10419
731.627	9357
731.742	9515
731.856	9867
731.970	10099
732.085	9264
732.199	10216
732.313	9868
732.428	13609
732.542	22567
732.656	15879
732.771	10106
732.885	9755
732.999	10059
733.113	10560
733.227	10709
733.342	10147
733.456	9590
733.570	9972
733.684	8903
733.798	9683
733.912	9791
734.026	9247
734.140	9349
734.254	9708
734.368	10553
734.482	10419
734.596	9906
734.710	8952
734.824	9568
734.938	8756
735.052	9236
735.166	9588
735.280	10660
735.393	9945
735.507	9971
735.621	9839
735.735	10457
735.849	8957
735.962	9771
736.076	9346
736.190	8807
736.303	10190
736.417	10194
736.531	9001
736.644	9173
736.758	9212
736.872	8759
736.985	8513
737.099	9477
737.212	8632
737.326	9042
737.439	9123
737.553	8609
737.666	8585
737.780	9047
737.893	9314
738.007	9572
738.120	9098
738.233	9433
738.347	8503
738.460	9459
738.573	8900
738.687	8323
738.800	9022
738.913	9039
739.026	9199
739.140	9786
739.253	9313
739.366	8303
739.479	8199
739.592	8198
739.705	9210
739.818	8418
739.932	8915
740.045	9084
740.158	8244
740.271	8933
740.384	8996
740.497	8846
740.610	8464
740.723	8346
740.836	8640
740.949	9188
741.062	9104
741.174	8487
741.287	8352
741.400	8296
741.513	8297
741.626	8661
741.739	8765
741.851	8935
741.964	8886
742.077	7996
742.189	7990
742.302	8102
742.415	8768
742.527	7781
742.640	9047
742.753	8477
742.865	8393
742.978	8117
743.090	8462
743.203	7777
743.316	7985
743.428	8679
743.541	9093
743.653	8084
743.766	8079
743.878	8799
743.990	8553
744.103	9328
744.215	8276
744.327	8411
744.440	8548
744.552	9386
744.664	8426
744.777	8075
744.889	8351
745.001	8924
745.113	8074
745.226	8610
745.338	9145
745.450	7845
745.562	8172
745.674	8673
745.786	8007
745.898	8296
746.010	9119
746.122	7916
746.234	8685
746.347	8191
746.459	8592
746.570	8606
746.682	8014
746.794	8377
746.906	8675
747.018	8681
747.130	8116
747.242	8300
747.354	8424
747.466	9093
747.577	9182
747.689	8144
747.801	8624
747.913	8264
748.024	7639
748.136	9075
748.248	8161
748.359	8461
748.471	9073
748.583	8696
748.694	8960
748.806	9635
748.918	8929
749.029	8358
749.141	8834
749.252	8958
749.364	9356
749.475	8982
749.587	8864
749.698	9156
749.809	9146
749.921	8724
750.032	8911
750.144	8397
750.255	8504
750.366	8779
750.478	8808
750.589	8336
750.700	8774
750.811	9955
750.923	8713
751.034	9424
751.145	9812
751.256	8513
751.367	9000
751.479	8545
751.590	8354
751.701	8430
751.812	8921
751.923	8265
752.034	8559
752.145	8411
752.256	9133
752.367	9423
752.478	8258
752.589	9268
752.700	8585
752.811	9087
752.922	8586
753.032	8805
753.143	9184
753.254	8272
753.365	9376
753.476	8301
753.586	8492
753.697	9261
753.808	8627
753.919	8924
754.029	8506
754.140	9157
754.251	9155
754.361	8874
754.472	9256
754.582	9763
754.693	9513
754.804	9345
754.914	9276
755.025	8992
755.135	9327
755.246	9070
755.356	9317
755.466	9657
755.577	8532
755.687	9569
755.798	9886
755.908	10116
756.018	9945
756.129	9962
756.239	9429
756.349	10377
756.460	9862
756.570	10473
756.680	9956
756.790	10171
756.900	10532
757.011	10295
757.121	10534
757.231	10010
757.341	10606
757.451	10348
757.561	10709
757.671	10765
757.781	10924
757.891	11453
758.001	11749
758.111	11773
758.221	10938
758.331	11581
758.441	12037
758.551	11491
758.661	12198
758.771	12725
758.880	11159
758.990	11205
759.100	12806
759.210	11278
759.320	11756
759.429	14112
759.539	13418
759.649	12983
759.758	13682
759.868	13743
759.978	14224
760.087	13126
760.197	13657
760.307	13851
760.416	15113
760.526	14148
760.635	16648
760.745	14697
760.854	15553
760.964	16086
761.073	16566
761.182	15595
761.292	16983
761.401	16998
761.511	16858
761.620	17266
761.729	18734
761.839	19007
761.948	20095
762.057	19838
762.166	20409
762.276	20488
762.385	21548
762.494	21523
762.603	22159
762.712	24028
762.822	23752
762.931	25152
763.040	25574
763.149	26593
763.258	28944
763.367	28687
763.476	29992
763.585	32131
763.694	33948
763.803	34587
763.912	36554
764.021	38778
764.130	42451
764.238	44070
764.347	47398
764.456	50629
764.565	56223
764.674	60074
764.783	65669
764.891	71557
765.000	82242
765.109	92435
765.217	103894
765.326	121072
765.435	143337
765.543	172368
765.652	213727
765.761	267530
765.869	347240
765.978	462030
766.086	618950
766.195	796312
766.303	864222
766.412	595365
766.520	700487
766.629	828113
766.737	703627
766.846	543131
766.954	409064
767.062	316147
767.171	247169
767.279	199759
767.387	162881
767.496	136187
767.604	117786
767.712	103221
767.820	94489
767.928	85619
768.037	80642
768.145	75534
768.253	72091
768.361	69836
768.469	69903
768.577	72295
768.685	75167
768.793	79076
768.901	88398
769.009	101950
769.117	121763
769.225	154949
769.333	208774
769.441	299325
769.549	452553
769.657	677798
769.765	770865
769.873	613279
769.981	728018
770.088	586185
770.196	407677
770.304	287916
770.412	212020
770.519	165818
770.627	134801
770.735	111157
770.842	94556
770.950	81685
771.058	71168
771.165	64032
771.273	56734
771.380	52152
771.488	48506
771.595	43284
771.703	41387
771.810	38819
771.918	35915
772.025	34151
772.133	32091
772.240	29609
772.348	29321
772.455	27459
772.562	27241
772.670	25525
772.777	24762
772.884	23144
772.991	22256
773.099	21050
773.206	20877
773.313	20735
773.420	19122
773.528	18731
773.635	18254
773.742	17993
773.849	17611
773.956	16553
774.063	16648
774.170	16036
774.277	16682
774.384	15491
774.491	15223
774.598	15241
774.705	14847
774.812	14475
774.919	14191
775.026	13257
775.133	13706
775.239	12626
775.346	12672
775.453	12137
775.560	12492
775.667	12994
775.773	12173
775.880	12583
775.987	12290
776.093	12170
776.200	10989
776.307	11192
776.413	11516
776.520	11576
776.627	11180
776.733	11418
776.840	9242
776.946	11746
777.053	10537
777.159	10685
777.266	8745
777.372	11221
777.478	9966
777.585	9446
777.691	9402
777.798	9148
777.904	9673
778.010	9967
778.117	10213
778.223	9304
778.329	8269
778.435	8674
778.542	8869
778.648	9223
778.754	8351
778.860	8872
778.966	8999
779.072	8433
779.178	8925
779.284	9369
779.391	9378
779.497	10254
779.603	16204
779.708	22377
779.815	54712
779.920	182106
780.026	232814
780.132	48731
780.238	15844
780.344	11654
780.450	10806
780.556	8942
780.661	7359
780.767	7592
780.873	7598
780.979	8079
781.085	7332
781.190	7376
781.296	6717
781.402	6895
781.507	6256
781.613	7039
781.719	6816
781.824	6018
781.930	7554
782.035	6520
782.141	7971
782.246	5989
782.352	6350
782.457	6122
782.563	6505
782.668	5903
782.773	6522
782.879	6557
782.984	7034
783.090	6725
783.195	6209
783.300	6045
783.405	6131
783.511	5497
783.616	5923
783.721	5758
783.826	5263
783.932	6315
784.037	5668
784.142	5387
784.247	5292
784.352	5635
784.457	6002
784.562	5786
784.667	5741
784.772	5376
784.877	5461
784.982	5644
785.087	5581
785.192	5311
785.297	5338
785.402	5736
785.507	5521
785.611	5074
785.716	5007
785.821	5545
785.926	4741
786.031	5232
786.135	4835
786.240	5077
786.345	4757
786.450	5497
786.554	5616
786.659	4614
786.763	3750
786.868	5815
786.973	4467
787.077	5561
787.182	4576
787.286	4952
787.391	5308
787.495	4817
787.600	5143
787.704	4668
787.809	4383
787.913	5445
788.017	4934
788.122	5073
788.226	5478
788.330	3910
788.435	4729
788.539	5205
788.643	4754
788.747	3931
788.852	4732
788.956	4224
789.060	4980
789.164	4528
789.268	4626
789.372	4646
789.476	5056
789.580	4506
789.684	3414
789.788	4636
789.892	3490
789.996	3995
790.100	4127
790.204	4111
790.308	4369
790.412	3407
790.516	4778
790.620	4005
790.724	5141
790.828	3986
790.931	3349
791.035	5905
791.139	4380
791.242	2965
791.346	4326
791.450	3887
791.554	3719
791.657	2639
791.761	5083
791.864	5037
791.968	4659
792.072	4383
792.175	3149
792.279	3780
792.382	4170
792.486	4286
792.589	4389
792.693	4879
792.796	3462
792.899	4931
793.003	4495
793.106	3181
793.209	4329
793.313	4911
793.416	2635
793.519	4033
793.623	4658
793.726	3580
793.829	4151
793.932	4394
794.035	3157
794.138	5947
794.242	5691
794.345	7205
794.448	13535
794.551	30160
794.654	106660
794.757	153676
794.860	28126
794.963	7878
795.066	5739
795.169	6829
795.272	3593
795.375	5412
795.477	3365
795.580	4693
795.683	2669
795.786	4489
795.889	3210
795.991	4250
796.094	4645
796.197	2979
796.300	4738
796.402	3367
796.505	2850
796.608	3927
796.710	4653
796.813	3814
796.915	3488
797.018	4666
797.120	3595
797.223	2379
797.326	4244
797.428	2570
797.530	2756
797.633	2948
797.735	4311
797.838	3785
797.940	3690
798.042	2825
798.145	3390
798.247	4296
798.349	2107
798.452	3848
798.554	2121
798.656	2233
798.758	4084
798.860	2992
798.962	3465
799.065	2641
799.167	2534
799.269	4388
799.371	3898
799.473	3400
799.575	2411
799.677	2780
799.779	4316
799.881	2289
799.983	2738
800.085	3430
800.187	3003
800.289	2057
800.390	3452
800.492	3689
800.594	4225
800.696	3473
800.798	3936
800.899	2989
801.001	2233
801.103	3500
801.205	1875
801.306	2642
801.408	2085
801.509	2408
801.611	3042
801.713	3449
801.814	2422
801.916	2375
802.017	2579
802.119	2361
802.220	3365
802.322	923
802.423	4481
802.525	2200
802.626	3233
802.727	2967
802.829	2961
802.930	604
803.031	4628
803.133	2233
803.234	2161
803.335	2825
803.436	1681
803.538	3106
803.639	1604
803.740	3312
803.841	2355
803.942	2885
804.043	3907
804.144	2306
804.245	2609
804.346	2434
804.447	2603
804.548	3067
804.649	3125
804.750	3208
804.851	2661
804.952	2475
805.053	3130
805.154	1444
805.255	3886
805.355	2427
805.456	2002
805.557	2754
805.658	1647
805.758	4274
805.859	2446
805.960	2512
806.061	1422
806.161	2298
806.262	2714
806.362	2252
806.463	2387
806.564	3114
806.664	2520
806.765	1889
806.865	2868
806.966	2102
807.066	1743
807.166	2189
807.267	2401
807.367	1904
807.468	2720
807.568	974
807.668	3301
807.769	2865
807.869	2615
807.969	1869
808.069	2765
808.170	2868
808.270	1811
808.370	2457
808.470	2017
808.570	1553
808.670	2098
808.770	2339
808.870	2041
808.970	3025
809.070	1713
809.170	1693
809.271	2431
809.370	2276
809.470	1932
809.570	1878
809.670	1288
809.770	2998
809.870	3258
809.970	2940
810.070	2198
810.169	1871
810.269	1225
810.369	3360
810.469	2197
810.568	2309
810.668	1690
810.768	1583
810.867	2772
810.967	1649
811.066	2057
811.166	2138
811.265	3089
811.365	1495
811.464	2845
811.564	2074
811.663	2742
811.763	798
811.862	2129
811.962	2217
812.061	2005
812.160	1239
812.260	2145
812.359	2738
812.458	2560
812.557	5527
812.657	5905
812.756	3333
812.855	2241
812.954	1975
813.053	3110
813.153	2354
813.252	1499
813.351	1849
813.450	2185
813.549	2171
813.648	2484
813.747	1526
813.846	2630
813.945	1684
814.044	2592
814.143	2644
814.242	2410
814.341	1949
814.439	2021
814.538	1990
814.637	2126
814.736	1833
814.835	2854
814.933	1936
815.032	2399
815.131	1929
815.229	2328
815.328	3288
815.427	2747
815.525	3352
815.624	2946
815.722	1729
815.821	2556
815.919	2974
816.018	2354
816.116	3283
816.215	2151
816.313	1971
816.412	3023
816.510	2286
816.609	4026
816.707	3639
816.805	2786
816.904	2115
817.002	3783
817.100	4439
817.198	4891
817.296	4048
817.395	3841
817.493	5122
817.591	4889
817.689	6419
817.787	8475
817.885	12785
817.983	22133
818.081	46089
818.179	104520
818.277	219064
818.375	162212
818.473	56236
818.571	24757
818.669	16948
818.767	15164
818.865	15439
818.963	17833
819.061	23936
819.158	41029
819.256	83770
819.354	179499
819.452	292884
819.549	179487
819.647	73320
819.745	34006
819.842	20859
819.940	14946
820.038	11859
820.135	8899
820.233	8901
820.330	6920
820.428	5600
820.525	5558
820.623	4871
820.720	3838
820.818	3679
820.915	3161
821.012	3837
821.110	2220
821.207	3565
821.304	3187
821.402	2630
821.499	3842
821.596	3602
821.693	3034
821.791	3218
821.888	3311
821.985	2819
822.082	1957
822.179	3050
822.276	1739
822.373	2872
822.470	3010
822.567	2696
822.664	1934
822.761	3420
822.858	1107
822.955	2646
823.052	2887
823.149	1756
823.246	1940
823.343	1783
823.440	2529
823.536	1543
823.633	1846
823.730	1474
823.827	1975
823.923	1019
824.020	3056
824.117	1074
824.213	1398
824.310	3222
824.407	2091
824.503	2138
824.600	2315
824.696	1466
824.793	2921
824.889	1015
824.986	1914
825.082	1879
825.179	2170
825.275	2522
825.371	1175
825.468	1739
825.564	796
825.660	2262
825.757	2882
825.853	2728
825.949	1277
826.045	1658
826.142	1739
826.238	1370
826.334	2884
826.430	1547
826.526	1506
826.622	2247
826.718	1664
826.814	1692
826.910	2618
827.006	1811
827.102	883
827.198	2535
827.294	910
827.390	2293
827.486	1641
827.582	384
827.678	465
827.774	1958
827.869	592
827.965	2499
828.061	698
828.157	1973
828.252	1634
828.348	1008
828.444	2243
828.539	1423
828.635	1353
828.731	2518
828.826	1028
828.922	1259
829.017	1178
829.113	1748
829.208	802
829.304	654
829.399	1708
829.495	1343
829.590	2495
829.685	1351
829.781	1587
829.876	964
829.971	1531
830.066	1351
830.162	1195
830.257	1328
830.352	1526
830.447	2109
830.543	1647
830.638	786
830.733	2324
830.828	568
830.923	2088
831.018	1865
831.113	1729
831.208	811
831.303	646
831.398	1389
831.493	623
831.588	2502
831.683	392
831.778	1778
831.873	955
831.967	2260
832.062	1177
832.157	277
832.252	2482
832.346	592
832.441	1386
832.536	1519
832.631	2930
832.725	2463
832.820	1546
832.914	1294
833.009	1165
833.104	1106
833.198	1734
833.293	1606
833.387	1336
833.482	2089
833.576	555
833.670	2805
833.765	926
833.859	900
833.954	2150
834.048	1157
834.142	1844
834.237	1503
834.331	1357
834.425	756
834.519	280
834.613	2004
834.708	1047
834.802	2164
834.896	1020
834.990	459
835.084	1477
835.178	1417
835.272	1467
835.366	1114
835.460	1563
835.554	1044
835.648	1150
835.742	1144
835.836	1650
835.930	-842
836.024	1532
836.117	1770
836.211	731
836.305	1832
836.399	1297
836.493	-277
836.586	2260
836.680	902
836.774	398
836.867	1975
836.961	889
837.055	299
837.148	686
837.242	1156
837.335	1567
837.429	1166
837.522	593
837.616	1766
837.709	963
837.803	790
837.896	1291
837.989	691
838.083	1979
838.176	1587
838.269	152
838.363	1499
838.456	626
838.549	1697
838.642	589
838.735	1772
838.829	1910
838.922	908
839.015	1942
839.108	526
839.201	516
839.294	1508
839.387	1633
839.480	-5
839.573	944
839.666	694
839.759	1062
839.852	474
839.945	550
840.038	533
840.131	1456
840.223	1033
840.316	2228
840.409	417
840.502	566
840.594	2014
840.687	541
840.780	829
840.873	454
840.965	1388
841.058	1139
841.150	1333
841.243	387
841.336	1431
841.428	872
841.521	1070
841.613	413
841.706	1496
841.798	1472
841.890	933
841.983	-303
842.075	992
842.167	-21
842.260	1258
842.352	1464
842.444	574
842.537	962
842.629	2629
842.721	63
842.813	384
842.905	-297
842.997	842
843.090	885
843.182	1418
843.274	1174
843.366	2823
843.458	2868
843.550	2774
843.642	-105
843.734	853
843.826	245
843.918	1515
844.009	1234
844.101	563
844.193	675
844.285	1088
844.377	939
844.469	1344
844.560	971
844.652	1056
844.744	802
844.835	983
844.927	473
845.019	392
845.110	968
845.202	1454
845.293	293
845.385	779
845.476	1245
845.568	1549
845.659	707
845.751	878
845.842	986
845.934	23
846.025	680
846.116	1013
846.208	857
846.299	337
846.390	1577
846.482	1466
846.573	1522
846.664	1030
846.755	487
846.846	1677
846.937	-292
847.029	801
847.120	108
847.211	272
847.302	1768
847.393	-192
847.484	1584
847.575	723
847.666	493
847.757	792
847.847	1000
847.938	1453
848.029	119
848.120	450
848.211	1083
848.302	434
848.392	507
848.483	1508
848.574	334
848.664	250
848.755	884
848.846	876
848.936	401
849.027	1161
849.118	1296
849.208	259
849.299	1066
849.389	1803
849.480	977
849.570	1468
849.661	2078
849.751	1725
849.841	980
849.932	705
850.022	618
850.112	1319
850.203	1227
850.293	-42
850.383	18
850.474	248
850.564	1095
850.654	878
850.744	827
850.834	1275
850.924	932
851.014	696
851.104	367
851.194	325
851.284	684
851.374	866
851.464	867
851.554	1081
851.644	642
851.734	1435
851.824	2689
851.914	2886
852.004	8050
852.094	7838
852.183	1401
852.273	1345
852.363	868
852.452	796
852.542	1796
852.632	971
852.721	1190
852.811	529
852.901	1339
852.990	232
853.080	377
853.169	398
853.259	763
853.348	272
853.438	851
853.527	930
853.617	-135
853.706	1501
853.795	1549
853.885	3615
853.974	4490
854.063	8708
854.152	11418
854.242	3286
854.331	789
854.420	626
854.509	562
854.598	52
854.687	641
854.777	432
854.866	539
854.955	619
855.044	-49
855.133	888
855.222	1130
855.311	-878
855.400	840
855.488	768
855.577	120
855.666	1349
855.755	880
855.844	617
855.933	624
856.021	624
856.110	778
856.199	707
856.288	1014
856.376	1367
856.465	-259
856.554	1034
856.642	242
856.731	577
856.819	904
856.908	185
856.996	1276
857.085	448
857.173	540
857.262	994
857.350	809
857.438	887
857.527	61
857.615	242
857.703	1133
857.792	-8
857.880	50
857.968	333
858.056	482
858.145	552
858.233	471
858.321	248
858.409	1077
858.497	533
858.585	346
858.673	1077
858.761	565
858.849	428
858.937	1212
859.025	751
859.113	1142
859.201	361
859.289	512
859.377	442
859.465	1254
859.552	78
859.640	307
859.728	1030
859.816	781
859.903	767
859.991	545
860.079	929
860.166	647
860.254	163
860.342	560
860.429	101
860.517	253
860.604	783
860.692	1063
860.779	-35
860.867	1008
860.954	551
861.042	345
861.129	392
861.216	652
861.304	759
861.391	236
861.478	405
861.565	1458
861.653	605
861.740	-284
861.827	49
861.914	702
862.001	563
862.089	131
862.176	-101
862.263	550
862.350	607
862.437	609
862.524	-8
862.611	687
862.698	831
862.785	862
862.871	153
862.958	-265
863.045	751
863.132	692
863.219	453
863.306	123
863.392	966
863.479	808
863.566	-78
863.652	740
863.739	726
863.826	1172
863.912	624
863.999	-333
864.086	294
864.172	714
864.259	249
864.345	173
864.432	513
864.518	771
864.604	685
864.691	403
864.777	911
864.863	803
864.950	924
865.036	-84
865.122	665
865.209	1301
865.295	75
865.381	726
865.467	1076
865.553	803
865.639	-121
865.726	361
865.812	1853
865.898	2526
865.984	2449
866.070	6375
866.156	5751
866.242	972
866.328	1680
866.414	853
866.499	1253
866.585	1079
866.671	257
866.757	793
866.843	1440
866.928	232
867.014	-113
867.100	1156
867.186	-6
867.271	470
867.357	1336
867.442	1287
867.528	842
867.614	848
867.699	617
867.785	568
867.870	835
867.956	377
868.041	496
868.127	978
868.212	766
868.297	1163
868.383	1276
868.468	1362
868.553	2195
868.639	1309
868.724	1398
868.809	1220
868.894	537
868.979	163
869.065	617
869.150	-526
869.235	479
869.320	258
869.405	707
869.490	181
869.575	-361
869.660	401
869.745	732
869.830	741
869.915	473
870.000	238
870.085	330
870.169	514
870.254	941
870.339	279
870.424	119
870.509	1020
870.593	647
870.678	1182
870.763	297
870.847	292
870.932	68
871.016	594
871.101	-197
871.186	328
871.270	32
871.355	-229
871.439	354
871.523	1003
871.608	50
871.692	397
871.777	583
871.861	1185
871.945	328
872.030	556
872.114	-338
872.198	-450
872.282	704
872.367	796
872.451	131
872.535	500
872.619	-72
872.703	730
872.787	1105
872.871	852
872.955	310
873.039	235
873.123	487
873.207	677
873.291	461
873.375	100
873.459	-590
873.543	-26
873.627	-3
873.711	676
873.794	102
873.878	-62
873.962	370
874.045	-335
874.129	427
874.137	398
874.213	114
874.245	-125
874.296	-512
874.352	-473
874.380	-457
874.460	175
874.464	201
874.547	702
874.568	486
874.631	-152
874.676	-28
874.714	61
874.784	447
874.798	531
874.881	694
874.892	582
874.965	-214
874.999	9
875.048	324
875.107	16
875.131	-120
875.215	81
875.215	81
875.298	67
875.323	73
875.381	2
875.430	310
875.465	578
875.538	247
875.548	184
875.631	414
875.646	302
875.714	-100
875.753	144
875.798	379
875.861	85
875.881	-9
875.964	189
875.968	192
876.047	209
876.076	89
876.130	-52
876.183	168
876.213	234
876.291	370
876.296	386
876.379	799
876.398	545
876.462	-357
876.506	-525
876.545	-631
876.613	158
876.628	287
876.711	161
876.721	118
876.794	118
876.828	224
876.877	262
876.935	235
876.960	219
877.043	-143
877.043	-143
877.125	-190
877.150	-177
877.208	-146
877.258	-20
877.291	72
877.365	-143
877.374	-142
877.456	553
877.472	475
877.539	-131
877.579	-15
877.622	208
877.687	550
877.704	603
877.787	-79
877.794	-102
877.869	-153
877.901	72
877.952	301
878.008	-109
878.034	-216
878.115	299
878.117	306
878.199	-346
878.222	-125
878.282	544
878.329	419
878.364	275
878.437	257
878.447	260
878.529	-326
878.544	-277
878.611	-92
878.651	-151
878.694	-38
878.758	322
878.776	299
878.858	532
878.865	429
878.941	-505
878.972	-211
879.023	215
879.078	-221
879.105	-293
879.185	567
879.187	574
879.269	32
879.292	1
879.351	275
879.399	277
879.433	122
879.506	148
879.516	158
879.598	-101
879.613	-12
879.680	353
879.720	40
879.762	-40
879.827	434
879.844	368
879.926	91
879.933	18
880.007	240
880.040	376
880.089	219
880.147	124
880.171	126
880.253	218
880.254	217
880.335	34
880.360	166
880.417	854
880.467	1179
880.499	1275
880.574	1345
880.580	1344
880.662	1218
880.680	1137
880.744	469
880.787	278
880.825	352
880.893	398
880.907	388
880.989	418
881.000	376
881.070	263
881.106	564
881.152	835
881.213	728
881.233	754
881.315	719
881.319	720
881.396	206
881.426	-93
881.478	22
881.532	704
881.559	701
881.639	296
881.641	301
881.722	596
881.745	556
881.803	357
881.852	143
881.885	30
881.958	419
881.966	428
882.047	-134
882.064	-102
882.129	287
882.171	327
882.210	290
882.277	132
882.291	201
882.372	902
882.383	906
882.454	82
882.489	-44
882.535	286
882.596	792
882.616	814
882.697	455
882.702	421
882.778	172
882.808	89
882.859	-230
882.914	-62
882.940	108
883.020	277
883.021	279
883.102	128
883.127	203
883.183	199
883.233	90
883.264	16
883.339	-74
883.345	-39
883.426	96
883.445	253
883.507	465
883.551	314
883.587	133
883.657	291
883.668	337
883.749	258
883.763	325
883.830	581
883.869	413
883.910	127
883.975	-128
883.991	-27
884.072	542
884.081	589
884.152	693
884.187	760
884.233	510
884.292	295
884.314	334
884.394	284
884.398	276
884.475	282
884.504	487
884.555	633
884.610	43
884.636	-168
884.716	205
884.716	207
884.797	20
884.821	-18
884.877	609
884.927	876
884.958	592
885.033	131
885.038	150
885.118	582
885.139	696
885.199	283
885.244	-216
885.279	-71
885.350	587
885.359	593
885.439	578
885.456	470
885.520	283
885.561	356
885.600	459
885.667	548
885.680	538
885.760	442
885.773	482
885.840	456
885.878	296
885.920	347
885.984	272
886.000	236
886.080	261
886.089	260
886.160	116
886.195	110
886.240	269
886.300	305
886.320	341
886.400	689
886.406	695
886.480	-69
886.511	-359
886.560	277
886.616	1028
886.640	818
886.720	188
886.722	171
886.800	554
886.827	666
886.879	464
886.932	253
886.959	516
887.038	1362
887.039	1356
887.119	316
887.143	73
887.198	642
887.248	1044
887.278	778
887.354	-103
887.358	-86
887.437	436
887.459	561
887.517	287
887.564	36
887.596	112
887.669	429
887.676	450
887.755	581
887.774	584
887.835	245
887.880	100
887.914	177
887.985	197
887.994	239
888.073	655
888.090	750
888.153	711
888.195	647
888.232	633
888.300	693
888.311	689
888.391	531
888.405	495
888.470	442
888.510	457
888.549	644
888.615	1034
888.628	1070
888.708	1102
888.720	1125
888.787	854
888.825	638
888.866	830
888.930	1182
888.945	1059
889.024	395
889.035	303
889.103	541
889.140	679
889.182	639
889.245	573
889.261	507
889.340	217
889.349	181
889.419	325
889.454	412
889.498	470
889.559	550
889.577	506
889.656	317
889.664	302
889.735	696
889.768	880
889.814	588
889.873	204
889.978	531
890.083	844
890.187	439
890.292	440
890.397	558
890.501	454
890.606	484
890.710	629
890.815	695
890.919	719
891.024	783
891.128	-176
891.233	1436
891.337	36
891.442	1066
891.546	1
891.650	963
891.755	385
891.859	2093
891.963	941
892.068	706
892.172	160
892.276	621
892.380	-179
892.484	526
892.589	1159
892.693	681
892.797	411
892.901	735
893.005	573
893.109	850
893.213	581
893.317	63
893.421	203
893.525	416
893.629	143
893.733	71
893.837	407
893.941	582
894.045	843
894.148	1621
894.252	2742
894.356	1248
894.460	319
894.564	323
894.667	721
894.771	329
894.875	-106
894.978	809
895.082	-745
895.186	717
895.289	508
895.393	668
895.496	880
895.600	189
895.703	-619
895.807	708
895.910	382
896.014	217
896.117	575
896.221	-82
896.324	212
896.427	239
896.531	600
896.634	820
896.737	120
896.840	258
896.944	89
897.047	425
897.150	105
897.253	295
897.356	648
897.460	-56
897.563	-509
897.666	478
897.769	187
897.872	1162
897.975	507
898.078	847
898.181	485
898.284	633
898.387	391
898.490	655
898.593	1091
898.695	81
898.798	154
898.901	443
899.004	3
899.107	79
899.209	-317
899.312	262
899.415	471
899.518	613
899.620	265
899.723	744
899.826	392
899.928	1059
900.031	105
900.133	160
900.236	213
900.338	879
900.441	-109
900.543	515
900.646	148
900.748	675
900.851	-60
900.953	-43
901.055	333
901.158	281
901.260	-318
901.362	-282
901.465	116
901.567	488
901.669	170
901.771	579
901.873	515
901.976	568
902.078	67
902.180	167
902.282	-865
902.384	309
902.486	222
902.588	819
902.690	-15
902.792	-429
902.894	225
902.996	1101
903.098	-269
903.200	538
903.302	-40
903.404	800
903.505	-241
903.607	1284
903.709	819
903.811	383
903.913	-742
904.014	-714
904.116	-23
904.218	1005
904.319	-112
904.421	935
904.523	-271
904.624	577
904.726	-589
904.827	-71
904.929	-56
905.030	606
905.132	308
905.233	79
905.335	-516
905.436	490
905.537	-51
905.639	592
905.740	-323
905.841	631
905.943	5
906.044	63
906.145	118
906.247	380
906.348	310
906.449	824
906.550	-320
906.651	75
906.752	384
906.854	560
906.955	-44
907.056	487
907.157	-417
907.258	622
907.359	191
907.460	1068
907.561	62
907.662	361
907.762	338
907.863	955
907.964	-261
908.065	837
908.166	-5
908.267	879
908.367	63
908.468	204
908.569	549
908.670	1319
908.770	536
908.871	428
908.971	-448
909.072	315
909.173	-123
909.273	342
909.374	217
909.474	151
909.575	-180
909.675	522
909.776	988
909.876	-239
909.977	-54
910.077	620
910.177	712
910.278	412
910.378	-448
910.478	297
910.579	132
910.679	596
910.779	-678
910.879	381
910.980	-30
911.080	520
911.180	-643
911.280	586
911.380	457
911.480	821
911.580	-30
911.680	123
911.780	-508
911.880	554
911.980	-15
912.080	30
912.180	-344
912.280	325
912.380	579
912.480	141
912.580	122
912.679	160
912.779	-240
912.879	389
912.979	-583
913.078	386
913.178	-350
913.278	443
913.377	-36
913.477	387
913.577	-203
913.676	505
913.776	236
913.875	153
913.975	495
914.074	267
914.174	-396
914.273	-445
914.373	384
914.472	875
914.572	-677
914.671	-48
914.770	-389
914.870	256
914.969	273
915.068	216
915.167	695
915.267	225
915.366	491
915.465	627
915.564	-272
915.663	354
915.763	-624
915.862	348
915.961	-73
916.060	37
916.159	596
916.258	-320
916.357	149
916.456	71
916.555	-289
916.654	144
916.752	-2
916.851	115
916.950	256
917.049	530
917.148	-173
917.247	812
917.345	71
917.444	423
917.543	-381
917.642	863
917.740	-653
917.839	-18
917.937	323
918.036	687
918.135	-293
918.233	122
918.332	-344
918.430	-302
918.529	204
918.627	20
918.726	-323
918.824	638
918.923	-403
919.021	501
919.119	-118
919.218	779
919.316	42
919.414	25
919.512	-83
919.611	673
919.709	-41
919.807	265
919.905	582
920.003	674
920.102	332
920.200	239
920.298	-291
920.396	250
920.494	513
920.592	-232
920.690	-218
920.788	661
920.886	-233
920.984	859
921.082	17
921.180	469
921.277	-162
921.375	495
921.473	-567
921.571	-352
921.669	34
921.766	454
921.864	-98
921.962	739
922.060	-525
922.157	628
922.255	27
922.352	984
922.450	-87
922.548	783
922.645	356
922.743	102
922.840	238
922.938	619
923.035	7
923.133	-224
923.230	-326
923.327	331
923.425	841
923.522	419
923.619	134
923.717	665
923.814	381
923.911	754
924.008	800
924.106	258
924.203	7
924.300	495
924.397	-140
924.494	862
924.591	-5
924.688	219
924.786	-310
924.883	228
924.979	-615
925.077	974
925.173	731
925.270	879
925.367	-819
925.464	833
925.561	-49
925.658	196
925.755	-521
925.852	-117
925.948	-176
926.045	-29
926.142	539
926.239	-514
926.335	615
926.432	1098
926.529	-918
926.625	58
926.722	94
926.818	72
926.915	-380
927.011	190
927.108	214
927.204	-189
927.301	357
927.397	525
927.494	-1
927.590	165
927.687	-288
927.783	-8
927.879	-536
927.976	69
928.072	24
928.168	577
928.264	-158
928.361	-155
928.457	382
928.553	54
928.649	586
928.745	412
928.841	-326
928.937	133
929.033	392
929.129	179
929.225	234
929.321	1030
929.417	295
929.513	534
929.609	-192
929.705	109
929.801	143
929.897	104
929.993	-357
930.089	426
930.184	-188
930.280	184
930.376	297
930.471	728
930.567	-561
930.663	697
930.758	-407
930.854	17
930.950	-720
931.045	-652
931.141	-362
931.236	-194
931.332	441
931.427	17
931.523	-96
931.618	355
931.714	-524
931.809	-97
931.905	655
932.000	129
932.095	-560
932.191	648
932.286	-176
932.381	416
932.476	-373
932.572	1071
932.667	-449
932.762	563
932.857	221
932.952	-455
933.047	165
933.142	148
933.237	-1005
933.332	23
933.427	-309
933.522	-124
933.617	-580
933.712	-59
933.807	-61
933.902	364
933.997	90
934.092	-490
934.187	87
934.282	394
934.376	-577
934.471	71
934.566	-889
934.661	-276
934.755	-495
934.850	193
934.945	-510
935.039	285
935.134	278
935.228	116
935.323	78
935.417	-781
935.512	93
935.606	-312
935.701	-251
935.795	-45
935.890	-497
935.984	-367
936.079	-789
936.173	-708
936.267	-131
936.362	-103
936.456	11
936.550	-237
936.644	-789
936.738	-256
936.833	-1030
936.927	127
937.021	-58
937.115	-257
937.209	-1225
937.303	-491
937.397	-369
937.491	502
937.585	377
937.679	13
937.773	-608
937.867	801
937.961	-499
938.055	-387
938.149	422
938.243	78
938.337	150
938.430	331
938.524	-665
938.618	99
938.712	-558
938.805	148
938.899	-473
938.993	621
939.086	-10
939.180	-230
939.274	-800
939.367	570
939.461	-248
939.554	210
939.648	-408
939.741	-1085
939.835	-282
939.928	411
940.022	-252
940.115	-650
940.208	-435
940.302	334
940.395	-509
940.488	-864
940.582	33
940.675	-868
940.768	-195
940.861	-694
940.954	-432
941.048	-468
941.141	-578
941.234	-340
941.327	-307
941.420	607
941.513	-240
941.606	-485
941.699	6
941.792	2
941.885	-1042
941.978	-238
942.071	-975
942.164	101
942.257	-1078
942.349	-375
942.442	-689
942.535	-232
942.628	-311
942.721	830
942.813	-183
942.906	346
942.999	-850
943.091	-644
943.184	-412
943.277	-387
943.369	-321
943.462	176
943.554	14
943.647	-1303
943.739	7
943.832	253
943.924	-597
944.017	173
944.109	-1509
944.201	-20
944.294	-354
944.386	303
944.478	-246
944.571	95
944.663	-752
944.755	-306
944.847	-753
944.940	112
945.032	-1084
945.124	-170
945.216	618
945.308	90
945.400	-289
945.492	91
945.584	-523
945.676	-53
945.768	-529
945.860	-226
945.952	-910
946.044	-189
946.136	-992
946.228	-1316
946.320	-481
946.412	-641
946.503	-408
946.595	700
946.687	-657
946.779	251
946.870	0
946.962	-21
947.054	-784
947.145	108
947.237	-774
947.329	-291
947.420	-589
947.512	-20
947.603	-483
947.695	-721
947.786	-1142
947.878	112
947.969	-61
948.061	-773
948.152	-344
948.243	-65
948.335	-392
948.426	-718
948.517	-1658
948.609	96
948.700	-312
948.791	194
948.882	-590
948.973	11
949.065	-595
949.156	163
949.247	63
949.338	-492
949.429	-661
949.520	213
949.611	-1066
949.702	477
949.793	-582
949.884	-120
949.975	-460
950.066	-680
950.157	-1104
950.247	143
950.338	-519
950.429	49
950.520	587
950.611	-445
950.701	96
950.792	257
950.883	-14
950.973	492
951.064	-521
951.155	-764
951.245	-286
951.336	-554
951.427	-988
951.517	327
951.608	-964
951.698	-101
951.788	-113
951.879	-651
951.969	-609
952.060	-137
952.150	-626
952.240	308
952.331	-1629
952.421	590
952.511	-644
952.602	-185
952.692	-661
952.782	193
952.872	-887
952.962	-171
953.052	-558
953.143	-793
953.233	-40
953.323	-90
953.413	-1518
953.503	226
953.593	-264
953.683	-530
953.773	-1766
953.863	-542
953.953	-646
954.042	-287
954.132	-1327
954.222	-16
954.312	-762
954.402	147
954.492	518
954.581	157
954.671	-1249
954.761	-114
954.850	116
954.940	-201
955.030	-969
955.119	159
955.209	-203
955.298	-443
955.388	-813
955.477	503
955.567	-1114
955.656	-61
955.746	-1138
955.835	-861
955.925	-1224
956.014	460
956.103	-691
956.193	-333
956.282	-1107
956.371	175
956.461	-812
956.550	-330
956.639	-776
956.728	-903
956.817	-211
956.906	-771
956.995	-859
957.085	-1074
957.174	-166
957.263	-363
957.352	178
957.441	-493
957.530	-525
957.619	-77
957.708	-769
957.796	-922
957.885	-525
957.974	-297
958.063	-274
958.152	-884
958.241	-109
958.329	-281
958.418	-1343
958.507	-244
958.596	-405
958.684	-1286
958.773	127
958.861	576
958.950	-506
959.039	812
959.127	-567
959.216	-87
959.304	-654
959.393	-652
959.481	158
959.570	1030
959.658	-774
959.746	-202
959.835	52
959.923	-1215
960.011	-194
960.100	-396
960.188	-764
960.276	-260
960.365	-857
960.453	-428
960.541	-1480
960.629	914
960.717	-545
960.805	-316
960.893	-772
960.981	-1090
961.069	-323
961.158	-1204
961.245	-94
961.333	340
961.421	-1351
961.509	-531
961.597	-1048
961.685	-175
961.773	-1572
961.861	-1266
961.949	-256
962.036	-1207
962.124	-815
962.212	-707
962.299	-1721
962.387	-415
962.475	-1066
962.562	-1586
962.650	-803
962.738	-705
962.825	-1312
962.913	240
963.000	-1449
963.088	413
963.175	-396
963.263	308
963.350	-1305
963.438	-416
963.525	-1188
963.612	35
963.700	195
963.787	2003
963.874	-743
963.962	-72
964.049	-177
964.136	-1012
964.223	-894
964.310	-831
964.398	-523
964.485	-570
964.572	-1302
964.659	230
964.746	-346
964.833	-874
964.920	-1460
965.007	-640
965.094	-1748
965.181	-1010
965.268	-1042
965.355	-759
965.441	-1320
965.528	-1187
965.615	-199
965.702	-930
965.789	-1048
965.875	-436
965.962	-1120
966.049	-1268
966.136	-488
966.222	-1303
966.309	-709
966.395	-1297
966.482	-383
966.569	-784
966.655	-1024
966.742	-837
966.828	-110
966.915	-407
967.001	-1036
967.087	-1305
967.174	-1154
967.260	218
967.347	-748
967.433	88
967.519	626
967.605	-995
967.692	-1233
967.778	-142
967.864	-884
967.950	-779
968.036	-2054
968.123	-1288
968.209	-775
968.295	-1500
968.381	-92
968.467	-752
968.553	-1913
968.639	-513
968.725	-1986
968.811	-582
968.897	-997
968.983	-604
969.069	-2285
969.154	-121
969.240	-161
969.326	-1211
969.412	-1614
969.497	-876
969.583	-1451
969.669	-263
969.755	-1167
969.840	-1031
969.926	-1506
970.012	-1443
970.097	-526
970.183	-1457
970.268	-962
970.354	-984
970.439	-299
970.525	976
970.610	-1272
970.696	-280
970.781	-872
970.866	-1681
970.952	-1123
971.037	-1081
971.122	-1711
971.208	-1229
971.293	-1141
971.378	-1976
971.463	-1626
971.549	-708
971.634	-2005
971.719	-655
971.804	-1413
971.889	61
971.974	-731
972.059	-1022
972.144	-1943
972.229	-517
972.314	-1730
972.399	-649
972.484	-1238
972.569	-660
972.654	-2012
972.739	510
972.824	-769
972.908	-830
972.993	-1138
973.078	-1183
973.163	-1740
973.247	-678
973.332	-3055
973.417	46
973.501	-1793
973.586	-1058
973.671	-967
973.755	-807
973.840	-1142
973.924	-1034
974.009	-1814
974.093	-639
974.178	-602
974.262	-1077
974.346	-1275
974.431	-745
974.515	-1347
974.600	-867
974.684	-1433
974.768	-1465
974.852	-1144
974.937	-2183
975.021	-1470
975.105	-1127
975.189	-1288
975.273	-617
975.358	-2069
975.442	-798
975.526	-1201
975.610	-1897
975.694	-1724
975.778	412
975.862	-1395
975.946	-2208
976.030	692
976.114	-1458
976.198	-690
976.281	-1302
976.365	-1124
976.449	-867
976.533	-552
976.617	-1649
976.700	-1683
976.784	-1207
976.868	-1757
976.951	-492
977.035	-1167
977.119	-998
977.202	-894
977.286	-587
977.369	-1718
977.453	-945
977.536	-1854
977.620	-1014
977.703	-840
977.787	-825
977.870	-874
977.953	-662
978.037	-2586
978.120	-231
978.203	-1604
978.287	-582
978.370	-746
978.453	-1056
978.536	-930
978.620	-200
978.703	-1528
978.786	-1512
978.869	-1572
978.952	-1196
979.035	-418
979.118	-651
979.201	-2136
979.284	-912
979.367	-1667
979.450	-759
979.533	-2187
979.616	-1400
979.699	-1992
979.782	-687
979.865	-1461
979.948	-736
980.030	-1686
980.113	-1251
980.196	-2339
980.279	-413
980.361	-1288
980.444	-1469
980.526	-976
980.609	-1089
980.692	-1618
980.774	-1287
980.857	-1924
980.939	-220
981.022	-1910
981.104	-1241
981.187	-1146
981.269	-1252
981.352	-1267
981.434	-2030
981.516	-2457
981.599	-1125
981.681	-1467
981.763	-705
981.846	-1603
981.928	-1747
982.010	-2663
982.092	-1352
982.174	-903
982.256	-1485
982.339	-2023
982.421	-1142
982.503	-871
982.585	-2000
982.667	-1281
982.749	-955
982.831	-831
982.913	-1636
982.995	-820
983.077	-1757
983.158	-634
983.240	-2569
983.322	-1271
983.404	-1477
983.486	-1421
983.568	-881
983.649	-1230
983.731	-1211
983.813	-1604
983.894	-712
983.976	-3168
984.058	-1511
984.139	-527
984.221	-2148
984.302	-1422
984.384	-1242
984.465	-1471
984.547	-655
984.628	-2633
984.710	-154
984.791	-773
984.872	-1601
984.954	-2112
985.035	-1792
985.116	-1890
985.198	-2300
985.279	-926
985.360	-2511
985.441	-1331
985.522	-213
985.604	-2187
985.685	-2917
985.766	-267
985.847	-1058
985.928	-1721
986.009	-525
986.090	-1509
986.171	-454
986.252	-1957
986.333	-634
986.414	-1805
986.495	-1016
986.576	-2282
986.656	-1757
986.737	-1228
986.818	-1450
986.899	-2163
986.980	-699
987.060	-688
987.141	-1854
987.222	-1791
987.302	-218
987.383	-1356
987.464	-1311
987.544	-1978
987.625	-1538
987.705	-1542
987.786	-1377
987.866	-2181
987.947	-1932
988.027	-1582
988.108	-2044
988.188	-1229
988.268	-1146
988.349	-1544
988.429	-1385
988.509	-1000
988.589	-1131
988.670	-2738
988.750	-68
988.830	-2324
988.910	-928
988.990	-1846
989.070	-1391
989.151	-1534
989.231	-1543
989.311	-1402
989.391	-1081
989.471	-1711
989.551	-1624
989.631	-1641
989.711	-1339
989.791	-2057
989.870	-1836
989.950	-941
990.030	-1987
990.110	-2076
990.190	-1785
990.269	-1312
990.349	-1278
990.429	-1271
990.509	-847
990.588	-1769
990.668	-1113
990.747	-2528
990.827	-1906
990.907	-980
990.986	-1318
991.066	-1329
991.145	-926
991.225	-1916
991.304	-1571
991.383	-782
991.463	-1939
991.542	-1403
991.622	-1710
991.701	-1984
991.780	-1371
991.859	-1780
991.939	-1897
992.018	-1623
992.097	-1057
992.176	-1224
992.256	-1772
992.335	-2493
992.414	-837
992.493	-1599
992.572	-1170
992.651	-1057
992.730	-1629
992.809	-1835
992.888	-2013
992.967	-1710
993.046	-1065
993.125	-2554
993.203	-1510
993.282	-1270
993.361	-1179
993.440	-1277
993.519	-1681
993.597	-1560
993.676	-1986
993.755	-590
993.834	-1546
993.912	-2259
993.991	-664
994.069	-1822
994.148	-1118
994.226	-1411
994.305	-840
994.384	-1812
994.462	-705
994.540	-2727
994.619	-1253
994.697	-1273
994.776	-1933
994.854	-1319
994.932	-1585
995.011	-2021
995.089	-1250
995.167	-947
995.245	-1950
995.324	-2191
995.402	-1360
995.480	-2315
995.558	-1747
995.636	-2013
995.714	-1609
995.792	-464
995.870	-1646
995.948	-1371
996.026	-783
996.104	-2958
996.182	-587
996.260	-1985
996.338	-1222
996.416	-1220
996.494	-2307
996.572	-1224
996.649	-1945
996.727	-2408
996.805	-628
996.883	-1202
996.960	-1902
997.038	-403
997.116	-868
997.193	-2725
997.271	-967
997.348	-2021
997.426	-1371
997.504	-1659
997.581	-1194
997.658	-1150
997.736	-1964
997.813	-1700
997.891	-655
997.968	-2302
998.046	-1569
998.123	-2197
998.200	-1343
998.277	-2098
998.355	-186
998.432	-2127
998.509	-999
998.586	-1177
998.663	-1327
998.741	-1785
998.818	-1039
998.895	-2787
998.972	-981
999.049	-1599
999.126	-1651
999.203	-1336
999.280	-1354
999.357	-2011
999.434	-1784
999.511	-1148
999.587	-934
999.664	-2556
999.741	-858
999.818	-1708
999.895	-1100
999.971	-2555
1000.048	-820
1000.125	-1858
1000.202	-2436
1000.278	-2445
1000.355	-1191
1000.431	-2242
1000.508	-1775
1000.584	-1958
1000.661	-683
1000.738	-1960
1000.814	-1125
1000.890	-1317
1000.967	-1406
1001.043	-1232
1001.120	-1929
1001.196	-2180
1001.272	-2028
1001.349	-1102
1001.425	-815
1001.501	-1888
1001.577	-2691
1001.654	-1885
1001.730	-1145
1001.806	-2146
1001.882	-1976
1001.958	-1183
1002.034	-986
1002.110	-2426
1002.186	-1727
1002.262	-1887
1002.338	-2492
1002.414	-1619
1002.490	-1274
1002.566	-1416
1002.642	-2773
1002.718	-957
1002.794	-2717
1002.870	-1776
1002.945	-1709
1003.021	-1817
1003.097	-1728
1003.173	-834
1003.248	-1820
1003.324	-1770
1003.400	-1770
1003.475	-1689
1003.551	-1110
1003.626	-1828
1003.702	-1549
1003.777	-1798
1003.853	-1667
1003.928	-2005
1004.004	-1411
1004.079	-1282
1004.155	-1630
1004.230	-2742
1004.305	41
1004.381	-2327
1004.456	-1308
1004.531	-2125
1004.607	-1967
1004.682	-2116
1004.757	-1119
1004.832	-1531
1004.907	-1380
1004.982	-1390
1005.057	-977
1005.133	-2293
1005.208	-1819
1005.283	-1984
1005.358	-1389
1005.433	-1864
1005.508	-934
1005.583	-2222
1005.657	-1236
1005.732	-1507
1005.807	-2438
1005.882	-2985
1005.957	-1098
1006.032	-1683
1006.106	-2051
1006.181	-988
1006.256	-1137
1006.331	-2186
1006.405	-1813
1006.480	-1556
1006.554	-1623
1006.629	-1253
1006.704	-1297
1006.778	-2203
1006.853	-2078
1006.927	-2015
1007.002	-1337
1007.076	-1667
1007.150	-1353
1007.225	-1389
1007.299	-629
1007.373	-2305
1007.448	-1389
1007.522	-1923
1007.596	-1438
1007.671	-1659
1007.745	-1989
1007.819	-2080
1007.893	-1593
1007.967	-2129
1008.041	-1856
1008.115	-1875
1008.190	-1352
1008.264	-1324
1008.338	-2494
1008.412	-1700
1008.486	-1528
1008.560	-2174
1008.633	-1867
1008.707	-2123
1008.781	-1647
1008.855	-2330
1008.929	-1659
1009.003	-1792
1009.076	-1263
1009.150	-968
1009.224	-1568
1009.298	-1906
1009.371	-1583
1009.445	-930
1009.519	-943
1009.592	-2000
1009.666	-1619
1009.739	-904
1009.813	-2016
1009.886	-966
1009.960	-1870
1010.033	-1074
1010.107	-1135
1010.180	-2086
1010.253	-1188
1010.327	-1859
1010.400	-1168
1010.473	-1721
1010.547	-255
1010.620	-1747
1010.693	-1462
1010.766	-2247
1010.840	-985
1010.913	-1579
1010.986	-2162
1011.059	-1494
1011.132	-1536
1011.205	-1325
1011.278	-1190
1011.351	-2451
1011.424	-1277
1011.497	-2095
1011.570	-1519
1011.643	-1300
1011.716	-922
1011.789	-1574
1011.862	-1019
1011.934	-1128
1012.007	-2457
1012.080	-1505
1012.153	-1323
1012.225	-525
1012.298	-1426
1012.371	-1970
1012.443	-1277
1012.516	-2561
1012.588	-1716
1012.661	-1639
1012.733	-2514
1012.806	-1115
1012.879	-1063
1012.951	-1125
1013.023	-895
1013.096	-1253
1013.168	-1781
1013.241	-1527
1013.313	-1166
1013.385	-2601
1013.458	-1488
1013.530	-1696
1013.602	-2120
1013.674	-2040
1013.746	-2216
1013.819	-1560
1013.891	-1092
1013.963	-1837
1014.035	-1413
1014.107	-1543
1014.179	-1537
1014.251	-2480
1014.323	-1174
1014.395	-1909
1014.467	-615
1014.539	-2857
1014.611	-1949
1014.683	-1504
1014.754	-1353
1014.826	-1702
1014.898	-1072
1014.970	-2936
1015.042	-1798
1015.113	-1480
1015.185	-952
1015.257	-2384
1015.328	-1093
1015.400	-1632
1015.471	-1089
1015.543	-2535
1015.615	-910
1015.686	-2451
1015.757	-1347
1015.829	-1211
1015.901	-1952
1015.972	-2128
1016.043	-1690
1016.115	-857
1016.186	-1759
1016.257	-2109
1016.328	-1341
1016.400	-1153
1016.471	-1695
1016.542	-1483
1016.613	-967
1016.685	-1390
1016.756	-783
1016.827	-2672
1016.898	-1626
1016.969	-1332
1017.040	-1322
1017.111	-2662
1017.182	-1549
1017.253	-1846
1017.324	-1655
1017.395	-1501
1017.466	-872
1017.537	-1843
1017.608	-1392
1017.678	-1259
1017.749	-1732
1017.820	-1669
1017.891	-1949
1017.961	-2770
1018.032	-1081
1018.103	-2118
1018.173	-1543
1018.244	-1793
1018.315	-1313
1018.385	-1427
1018.456	-925
1018.526	-1913
1018.597	-1547
1018.667	-1678
1018.738	-2258
1018.808	-2074
1018.878	-1370
1018.949	-1510
1019.019	-1511
1019.089	-1438
1019.160	-1614
1019.230	-2097
1019.300	-1398
1019.371	-1891
1019.441	-1197
1019.511	-1558
1019.581	-1635
1019.651	-1813
1019.721	-1522
1019.791	-2040
1019.861	-1070
1019.931	-1918
1020.001	-1347
1020.071	-1654
1020.141	-1467
1020.211	-2389
1020.281	-1686
1020.351	-2113
1020.421	-741
1020.491	-1726
1020.560	-1362
1020.630	-1766
1020.700	-1573
1020.770	-1574
1020.839	-1325
1020.909	-1793
1020.979	-831
1021.048	-1194
1021.118	-1841
1021.187	-2358
1021.257	-1501
1021.326	-1809
1021.396	-1380
1021.465	-586
1021.535	-1728
1021.604	-2056
1021.674	-1808
1021.743	-1506
1021.812	-1237
1021.882	-1770
1021.951	-1153
1022.020	-1784
1022.089	-2060
1022.159	-2327
1022.228	-1102
1022.297	-1984
1022.366	-1680
1022.435	-1076
1022.504	-1562
1022.573	-2483
1022.642	-1411
1022.711	-2393
1022.781	-1352
1022.849	-1506
1022.918	-1139
1022.987	-1049
1023.056	-1334
1023.125	-2578
1023.194	-1597
1023.263	-1830
1023.331	-964
1023.400	-2380
1023.469	-1714
1023.538	-1875
1023.606	-1239
1023.675	-976
1023.744	-1711
1023.812	-1892
1023.881	-1204
1023.949	-1870
1024.018	-1555
1024.086	-1945
1024.155	-658
1024.223	-1933
1024.292	-1306
1024.360	-1753
1024.429	-583
1024.497	-2491
1024.565	-1281
1024.634	-2279
1024.702	-1671
1024.770	-1932
1024.838	-2159
1024.907	-1269
1024.975	-1601
1025.043	-1713
1025.111	-1836
1025.179	-1754
1025.247	-1223
1025.315	-1967
1025.383	-985
1025.451	-2215
1025.519	-1994
1025.587	-2089
1025.655	-1373
1025.723	-2204
1025.791	-1538
1025.859	-1145
1025.927	-1383
1025.995	-2351
1026.062	-2259
1026.130	-1608
1026.198	-1121
1026.266	-2635
1026.333	-1479
1026.401	-1390
1026.469	-1366
1026.536	-1906
1026.604	-1338
1026.671	-1643
1026.739	-769
1026.806	-2063
1026.874	-2030
1026.941	-1660
1027.009	-1602
1027.076	-1966
1027.144	-965
1027.211	-2934
1027.278	-1986
1027.345	-2402
1027.413	-1280
1027.480	-2601
1027.547	-731
1027.614	-1899
1027.682	-2069
1027.749	-2486
1027.816	-1036
1027.883	-2225
1027.950	-1270
1028.017	-2265
1028.084	-1553
1028.151	-2421
1028.218	-1704
1028.285	-2573
1028.352	-1720
1028.419	-2807
1028.486	-1868
1028.553	-2260
1028.619	-1622
1028.686	-2156
1028.753	-1761
1028.820	-2391
1028.886	-2009
1028.953	-1429
1029.020	-1390
1029.086	-2423
1029.153	-1767
1029.220	-3007
1029.286	-1250
1029.353	-1864
1029.419	-1029
1029.486	-1913
1029.552	-1811
1029.619	-1737
1029.685	-1588
1029.751	-2066
1029.818	-752
1029.884	-1689
1029.951	-390
1030.017	-1886
1030.083	-1546
1030.149	-1764
1030.216	-2024
1030.282	-1359
1030.348	-1452
1030.414	-2322
1030.480	-1716
1030.546	-2162
1030.612	-1321
1030.678	-2123
1030.744	-584
1030.810	-2147
1030.876	-1501
1030.942	-1985
1031.008	-1376
1031.074	-1628
1031.140	-1608
1031.206	-2037
1031.272	-1960
1031.337	-2071
1031.403	-1943
1031.469	-2392
1031.534	-1750
1031.600	-1064
1031.666	-1067
1031.731	-2487
1031.797	-2171
1031.863	-2578
1031.928	-1064
1031.994	-2144
1032.059	-1818
1032.125	-2137
1032.190	-2035
1032.256	-2082
1032.321	-1653
1032.386	-1821
1032.452	-1820
1032.517	-2127
1032.582	-1436
1032.647	-1723
1032.713	-1165
1032.778	-2489
1032.843	-2269
1032.908	-2016
1032.974	-1786
1033.039	-1997
1033.104	-1050
1033.169	-2645
1033.234	-1790
1033.299	-985
1033.364	-1720
1033.429	-2375
1033.494	-1043
1033.559	-2997
1033.624	-1470
1033.688	-2342
1033.753	-1563
1033.818	-2192
1033.883	-2203
1033.948	-2334
1034.013	-2128
1034.077	-2157
1034.142	-1277
1034.207	-1755
1034.271	-1319
1034.336	-2497
1034.400	-1444
1034.465	-2462
1034.530	-2109
1034.594	-2301
1034.658	-1868
1034.723	-3401
1034.787	-1060
1034.852	-1871
1034.916	-1451
1034.981	-2249
1035.045	-1378
1035.109	-1453
1035.173	-2189
1035.238	-2564
1035.302	-1500
1035.366	-2143
1035.430	-1171
1035.495	-1196
1035.559	-1592
1035.623	-2599
1035.687	-1567
1035.751	-1684
1035.815	-2486
1035.879	-2087
1035.943	-2093
1036.007	-2559
1036.071	-2597
1036.135	-1546
1036.198	-1440
1036.262	-1931
1036.326	-2303
1036.390	-1605
1036.454	-1450
1036.517	-1816
1036.581	-1369
1036.645	-1870
1036.709	-2154
1036.772	-1940
1036.836	-1324
1036.900	-1788
1036.963	-1518
1037.026	-2162
1037.090	-1456
1037.154	-1536
1037.217	-2118
1037.280	-1810
1037.344	-1272
1037.407	-3217
1037.471	-2355
1037.534	-2737
1037.597	-2186
1037.661	-2686
1037.724	-1736
1037.787	-2505
1037.850	-1480
1037.913	-2485
1037.977	-1277
1038.040	-2382
1038.103	-1911
1038.166	-2435
1038.229	-1217
1038.292	-2464
1038.355	-1937
1038.418	-2458
1038.481	-861
1038.544	-2122
1038.607	-1665
1038.670	-1842
1038.732	-1581
1038.795	-2233
1038.858	-2340
1038.921	-1947
1038.984	-2076
1039.046	-2253
1039.109	-1352
1039.172	-1297
1039.234	-2829
1039.297	-2075
1039.360	-1067
1039.422	-1478
1039.485	-1617
1039.547	-1802
1039.610	-1186
1039.672	-2943
1039.734	-1495
1039.797	-1841
1039.859	-2080
1039.922	-2001
1039.984	-1750
1040.046	-2175
1040.109	-1728
1040.171	-2904
1040.233	-1767
1040.295	-3212
1040.358	-1830
1040.420	-1095
1040.482	-1954
1040.544	-1649
1040.606	-773
1040.668	-2539
1040.730	-1561
1040.792	-1919
1040.854	-665
1040.916	-2359
1040.978	-1981
1041.040	-1806
1041.102	-1464
1041.164	-2251
1041.225	-870
1041.287	-2614
1041.349	-2164
1041.411	-1927
1041.472	-1128
1041.534	-2620
1041.596	-2013
1041.657	-1868
1041.719	-1247
1041.781	-1104
1041.842	-1607
1041.904	-1947
1041.965	-1931
1042.027	-1927
1042.088	-573
1042.150	-1924
1042.211	-1245
1042.272	-1004
1042.334	-1601
1042.395	-1527
1042.456	-1314
1042.518	-2192
1042.579	-1141
1042.640	-1784
1042.701	-930
1042.763	-1975
1042.824	-1689
1042.885	-2400
1042.946	-1805
1043.007	-1664
1043.068	-2294
1043.129	-1587
1043.190	-2096
1043.251	-1482
1043.312	-1442
1043.373	-2224
1043.434	-2539
1043.495	-1721
1043.556	-1035
1043.616	-1795
1043.677	-2370
1043.738	-1392
1043.799	-1669
1043.859	-2027
1043.920	-993
1043.981	-1572
1044.041	-1241
1044.102	-2544
1044.162	-1804
1044.223	-2292
1044.284	-2431
1044.344	-2049
1044.405	-891
1044.465	-1768
1044.525	-2189
1044.586	-1664
1044.646	-1244
1044.707	-1242
1044.767	-890
1044.827	-1555
1044.887	-1346
1044.948	-1740
1045.008	-754
1045.068	-1501
1045.128	-1227
1045.188	-2431
1045.249	-552
1045.309	-2931
1045.369	-1779
1045.429	-1795
1045.489	-1515
1045.549	-1897
1045.609	-2612
1045.669	-2307
1045.729	-1364
1045.789	-1883
1045.848	-2331
1045.908	-1753
1045.968	-833
1046.028	-973
1046.088	-1193
1046.147	-1217
1046.207	-857
1046.267	-1904
1046.326	-1018
1046.386	-1481
1046.446	-830
1046.505	-1767
1046.565	62
1046.624	-780
1046.684	-383
1046.743	-915
1046.803	-845
1046.862	-1046
1046.922	0
