'Start Wavelength	183.907
'End Wavelength	1046.922
'Gate Delay	5.000
'Gate Width (ms)	1.050
'Laser Output Level	0.000
'X Position	0.000
'Y Position	0.000
'Z Position	0.000
'Grid Point Number	1.000
'Shot Number	100.000
183.907	11.000
183.977	27.000
184.047	352
184.116	694
184.186	640
184.256	351
184.325	-684
184.395	-718
184.465	658
184.534	45
184.604	-323
184.674	305
184.743	393
184.813	171
184.883	113
184.952	276
185.022	299
185.092	-105
185.161	-133
185.231	-34
185.301	89
185.370	743
185.440	28
185.509	500
185.579	63
185.649	320
185.718	-79
185.788	606
185.857	-454
185.927	703
185.996	299
186.066	296
186.136	-15
186.205	130
186.275	272
186.344	-319
186.414	204
186.483	-208
186.553	826
186.622	-243
186.692	-75
186.761	30
186.831	84
186.900	-659
186.970	-710
187.039	292
187.109	128
187.178	293
187.248	223
187.317	-674
187.387	-244
187.456	515
187.526	-5
187.595	561
187.664	22
187.734	566
187.803	50
187.873	805
187.942	102
188.012	535
188.081	-409
188.150	-368
188.220	-449
188.289	-109
188.358	-425
188.428	523
188.497	198
188.567	299
188.636	-753
188.705	294
188.775	-645
188.844	115
188.913	-249
188.983	129
189.052	-161
189.121	402
189.191	125
189.260	706
189.329	247
189.399	-24
189.468	-546
189.537	-488
189.606	16
189.676	11
189.745	-534
189.814	767
189.883	-85
189.953	419
190.022	-483
190.091	883
190.161	118
190.230	431
190.299	-460
190.368	-161
190.437	67
190.507	-59
190.576	-762
190.645	680
190.714	-228
190.783	678
190.853	401
190.922	566
190.991	72
191.060	-36
191.129	-846
191.198	408
191.268	-256
191.337	1370
191.406	378
191.475	80
191.544	490
191.613	131
191.682	-721
191.752	1071
191.821	105
191.890	-108
191.959	308
192.028	-52
192.097	-239
192.166	1056
192.235	-143
192.304	861
192.373	-353
192.442	317
192.511	898
192.580	-230
192.650	312
192.719	743
192.788	-112
192.857	665
192.926	266
192.995	941
193.064	-478
193.133	32
193.202	379
193.271	528
193.340	146
193.409	336
193.478	989
193.547	524
193.615	-323
193.684	1421
193.753	535
193.822	735
193.891	519
193.960	629
194.029	-121
194.098	580
194.167	-549
194.236	156
194.305	454
194.374	332
194.443	-85
194.512	-8
194.580	-163
194.649	1033
194.718	380
194.787	395
194.856	686
194.925	708
194.994	-235
195.062	967
195.131	-305
195.200	-183
195.269	407
195.338	461
195.407	104
195.475	563
195.544	474
195.613	250
195.682	-472
195.751	604
195.819	-104
195.888	702
195.957	845
196.026	445
196.094	921
196.163	-189
196.232	456
196.301	317
196.369	83
196.438	827
196.507	58
196.576	110
196.644	129
196.713	305
196.782	184
196.850	713
196.919	449
196.988	661
197.056	-121
197.125	-165
197.194	269
197.262	251
197.331	76
197.400	-273
197.468	479
197.537	1070
197.606	765
197.674	587
197.743	281
197.812	-345
197.880	610
197.949	584
198.017	877
198.086	922
198.155	1038
198.223	604
198.292	166
198.360	457
198.429	322
198.497	552
198.566	526
198.635	1843
198.703	526
198.772	627
198.840	1299
198.909	519
198.977	416
199.046	591
199.114	372
199.183	679
199.251	507
199.320	323
199.388	545
199.457	-146
199.525	130
199.594	413
199.662	576
199.731	216
199.799	1008
199.867	214
199.936	40
200.004	343
200.073	-3
200.141	678
200.210	304
200.278	16
200.346	182
200.415	768
200.483	-9
200.552	421
200.620	485
200.688	1230
200.757	450
200.825	346
200.893	204
200.962	522
201.030	741
201.098	103
201.167	-442
201.235	751
201.303	473
201.372	933
201.440	842
201.508	1664
201.577	565
201.645	461
201.713	123
201.781	440
201.850	318
201.918	1109
201.986	99
202.055	762
202.123	191
202.191	142
202.259	451
202.327	334
202.396	306
202.464	707
202.532	731
202.600	1090
202.669	790
202.737	437
202.805	52
202.873	428
202.941	977
203.009	522
203.078	298
203.146	1014
203.214	337
203.282	-442
203.350	419
203.418	741
203.487	385
203.555	1209
203.623	246
203.691	668
203.759	-25
203.827	328
203.895	236
203.963	739
204.031	-93
204.099	609
204.168	733
204.236	315
204.304	388
204.372	1057
204.440	884
204.508	739
204.576	664
204.644	470
204.712	393
204.780	1037
204.848	743
204.916	273
204.984	77
205.052	667
205.120	-479
205.188	642
205.256	628
205.324	645
205.392	-460
205.460	1593
205.528	355
205.596	532
205.664	224
205.732	725
205.799	325
205.867	1671
205.935	567
206.003	1166
206.071	353
206.139	177
206.207	102
206.275	750
206.343	299
206.411	1029
206.478	692
206.546	603
206.614	176
206.682	108
206.750	633
206.818	1915
206.885	1714
206.953	-270
207.021	1018
207.089	429
207.157	-299
207.225	11
207.292	597
207.360	592
207.428	-84
207.496	240
207.563	1054
207.631	919
207.699	450
207.767	1054
207.834	260
207.902	752
207.970	368
208.038	797
208.105	739
208.173	1337
208.241	558
208.309	1320
208.376	598
208.444	898
208.512	629
208.579	-28
208.647	795
208.715	1026
208.782	-308
208.850	1178
208.918	287
208.985	1304
209.053	786
209.120	1162
209.188	96
209.256	831
209.323	-767
209.391	841
209.459	2088
209.526	1330
209.594	-625
209.661	98
209.729	543
209.796	628
209.864	275
209.932	-67
209.999	1413
210.067	677
210.134	663
210.202	636
210.269	468
210.337	1440
210.404	-117
210.472	1115
210.539	1286
210.607	746
210.674	384
210.742	34
210.809	511
210.877	614
210.944	1389
211.012	48
211.079	1444
211.146	895
211.214	249
211.281	914
211.349	281
211.416	1313
211.484	907
211.551	627
211.618	1142
211.686	1292
211.753	-375
211.821	1104
211.888	293
211.955	1220
212.023	964
212.090	732
212.157	437
212.225	827
212.292	1669
212.359	1823
212.427	2857
212.494	2524
212.561	1560
212.629	995
212.696	591
212.763	1223
212.831	666
212.898	1373
212.965	589
213.032	1413
213.100	911
213.167	526
213.234	924
213.301	729
213.369	1079
213.436	754
213.503	328
213.570	1204
213.638	789
213.705	364
213.772	809
213.839	499
213.906	548
213.973	216
214.041	453
214.108	1135
214.175	797
214.242	324
214.309	671
214.376	959
214.444	626
214.511	1028
214.578	282
214.645	1480
214.712	801
214.779	1281
214.846	131
214.913	1913
214.980	1695
215.048	718
215.115	891
215.182	1437
215.249	1361
215.316	1041
215.383	1218
215.450	1624
215.517	1566
215.584	1222
215.651	891
215.718	1150
215.785	406
215.852	1211
215.919	1706
215.986	1520
216.053	719
216.120	353
216.187	1239
216.254	958
216.321	277
216.388	1163
216.455	1294
216.522	1190
216.589	1064
216.656	2813
216.722	1337
216.789	1471
216.856	869
216.923	1814
216.990	1329
217.057	1243
217.124	1847
217.191	1623
217.258	1616
217.324	2197
217.391	1360
217.458	2291
217.525	1446
217.592	1488
217.659	539
217.725	1534
217.792	518
217.859	1641
217.926	-140
217.993	1214
218.059	665
218.126	1268
218.193	609
218.260	712
218.327	596
218.393	1356
218.460	508
218.527	1109
218.594	547
218.660	1475
218.727	1717
218.794	639
218.860	1209
218.927	1248
218.994	555
219.061	529
219.127	868
219.194	1221
219.261	730
219.327	925
219.394	976
219.461	-217
219.527	1082
219.594	1517
219.661	693
219.727	712
219.794	1606
219.860	140
219.927	654
219.994	1070
220.060	1365
220.127	1526
220.193	1758
220.260	1391
220.326	2430
220.393	2836
220.460	2436
220.526	1727
220.593	1706
220.659	3273
220.726	1171
220.792	2788
220.859	1751
220.925	3414
220.992	4763
221.058	4288
221.125	4162
221.191	2897
221.258	931
221.324	1196
221.391	66
221.457	1309
221.524	855
221.590	1791
221.657	1814
221.723	2373
221.789	1078
221.856	1913
221.922	521
221.989	2168
222.055	1118
222.121	494
222.188	1464
222.254	1473
222.321	332
222.387	632
222.453	553
222.520	552
222.586	402
222.652	1463
222.719	-471
222.785	1659
222.851	103
222.918	253
222.984	485
223.050	698
223.116	-391
223.183	1909
223.249	221
223.315	506
223.382	1060
223.448	1479
223.514	-419
223.580	1124
223.647	-460
223.713	230
223.779	432
223.845	735
223.911	292
223.978	-167
224.044	1268
224.110	771
224.176	657
224.242	1424
224.309	-252
224.375	1269
224.441	-2
224.507	242
224.573	-572
224.639	1321
224.705	305
224.772	1028
224.838	671
224.904	1051
224.970	107
225.036	335
225.102	-427
225.168	1140
225.234	552
225.300	114
225.366	968
225.432	588
225.499	433
225.565	700
225.631	-354
225.697	1077
225.763	695
225.829	475
225.895	774
225.961	1013
226.027	595
226.093	1064
226.159	2281
226.225	2821
226.291	5398
226.357	7617
226.423	4181
226.489	2413
226.554	1638
226.620	1916
226.686	1707
226.752	3256
226.818	5252
226.884	8011
226.950	8061
227.016	3917
227.082	2258
227.148	2145
227.214	1299
227.279	1904
227.345	901
227.411	1803
227.477	854
227.543	1889
227.609	1572
227.674	2147
227.740	1360
227.806	1771
227.872	544
227.938	1290
228.003	1367
228.069	800
228.135	304
228.201	1667
228.267	-72
228.332	1057
228.398	-277
228.464	1670
228.530	-401
228.595	1439
228.661	-576
228.727	629
228.792	1124
228.858	809
228.924	-360
228.990	2607
229.055	-197
229.121	706
229.187	577
229.252	192
229.318	141
229.384	1497
229.449	964
229.515	-521
229.581	-252
229.646	2347
229.712	26
229.777	1032
229.843	554
229.909	1863
229.974	2042
230.040	1651
230.105	1196
230.171	1087
230.236	1719
230.302	1634
230.368	493
230.433	736
230.499	604
230.564	2147
230.630	62
230.695	842
230.761	1619
230.826	239
230.892	1518
230.957	177
231.023	-17
231.088	966
231.154	267
231.219	1187
231.284	113
231.350	1658
231.415	364
231.481	1076
231.546	347
231.612	670
231.677	502
231.742	403
231.808	1716
231.873	588
231.939	-766
232.004	2043
232.069	2308
232.135	817
232.200	-110
232.265	996
232.331	380
232.396	783
232.461	670
232.527	345
232.592	148
232.657	1179
232.723	891
232.788	828
232.853	1185
232.918	996
232.984	385
233.049	815
233.114	-280
233.179	1285
233.245	1416
233.310	2021
233.375	-657
233.440	1560
233.506	166
233.571	782
233.636	781
233.701	895
233.766	965
233.832	1022
233.897	612
233.962	-508
234.027	1989
234.092	1382
234.157	1284
234.222	1523
234.288	942
234.353	3016
234.418	2113
234.483	2935
234.548	1244
234.613	1447
234.678	1057
234.743	1146
234.808	4100
234.873	2137
234.938	1851
235.004	730
235.069	621
235.134	874
235.199	609
235.264	1178
235.329	-77
235.394	1788
235.459	1317
235.524	549
235.589	1726
235.654	1407
235.719	-594
235.784	1331
235.849	974
235.913	1460
235.978	1332
236.043	2071
236.108	1184
236.173	953
236.238	1891
236.303	807
236.368	1453
236.433	1999
236.498	1966
236.563	2938
236.627	3907
236.692	10896
236.757	9769
236.822	5282
236.887	2835
236.952	3311
237.017	958
237.081	3597
237.146	2517
237.211	6778
237.276	10835
237.341	14615
237.405	8775
237.470	4506
237.535	2588
237.600	3004
237.664	2226
237.729	206
237.794	1496
237.859	5559
237.923	2633
237.988	2028
238.053	1950
238.118	1505
238.182	2611
238.247	4828
238.312	1201
238.376	2073
238.441	-308
238.506	2341
238.570	-228
238.635	2907
238.700	1078
238.764	1395
238.829	1983
238.893	1736
238.958	985
239.023	1592
239.087	880
239.152	1053
239.216	282
239.281	2138
239.346	1377
239.410	1287
239.475	641
239.539	3745
239.604	3041
239.668	2321
239.733	1304
239.797	795
239.862	2864
239.926	3303
239.991	1743
240.055	2030
240.120	1659
240.184	1526
240.249	194
240.313	1425
240.378	636
240.442	2634
240.507	2828
240.571	2241
240.635	1062
240.700	1979
240.764	140
240.829	1002
240.893	-511
240.957	1191
241.022	1664
241.086	3955
241.151	-39
241.215	5
241.279	2383
241.344	1426
241.408	2282
241.472	1267
241.537	2016
241.601	2160
241.665	584
241.730	1357
241.794	2058
241.858	1117
241.922	1187
241.987	2034
242.051	866
242.115	566
242.179	1185
242.244	791
242.308	2024
242.372	1008
242.436	760
242.501	1797
242.565	0
242.629	786
242.693	1574
242.757	1066
242.822	421
242.886	1801
242.950	1232
243.014	579
243.078	737
243.142	1484
243.206	682
243.271	1548
243.335	1130
243.399	2675
243.463	5223
243.527	13180
243.591	4087
243.655	1724
243.719	508
243.783	2332
243.847	2241
243.911	3926
243.975	2312
244.040	2209
244.104	2913
244.168	1911
244.232	697
244.296	2474
244.360	3002
244.424	491
244.488	818
244.552	2015
244.615	-311
244.679	1742
244.743	726
244.807	320
244.871	1091
244.935	971
244.999	-140
245.063	1450
245.127	1590
245.191	1806
245.255	1845
245.319	1713
245.383	510
245.446	2923
245.510	317
245.574	1972
245.638	1414
245.702	-28
245.766	1977
245.829	2931
245.893	586
245.957	1384
246.021	1864
246.085	1341
246.149	751
246.212	4298
246.276	4339
246.340	2392
246.404	1940
246.467	2074
246.531	391
246.595	2537
246.659	3043
246.722	1816
246.786	2150
246.850	1987
246.913	1842
246.977	509
247.041	1771
247.104	830
247.168	2063
247.232	3210
247.295	5562
247.359	3364
247.423	1301
247.486	3038
247.550	2113
247.614	2021
247.677	1474
247.741	1538
247.804	1174
247.868	1840
247.932	1817
247.995	5998
248.059	1327
248.122	1190
248.186	2629
248.249	3353
248.313	8506
248.376	9986
248.440	5670
248.503	1905
248.567	3758
248.630	3060
248.694	4600
248.757	5968
248.821	8379
248.884	6447
248.948	5401
249.011	7869
249.075	10280
249.138	10022
249.202	4955
249.265	2973
249.328	3765
249.392	2511
249.455	2767
249.519	2416
249.582	1909
249.645	4593
249.709	3890
249.772	2226
249.835	3041
249.899	2572
249.962	2658
250.025	2765
250.089	4679
250.152	5965
250.215	3433
250.279	2920
250.342	2915
250.405	2467
250.468	2429
250.532	2902
250.595	5208
250.658	11548
250.721	20187
250.785	7837
250.848	5272
250.911	2728
250.974	2784
251.038	3787
251.101	6472
251.164	3600
251.227	4618
251.290	3533
251.354	5710
251.417	17441
251.480	17367
251.543	11834
251.606	29940
251.669	23870
251.732	10260
251.795	9867
251.859	9781
251.922	20034
251.985	12455
252.048	5786
252.111	3923
252.174	3740
252.237	6776
252.300	11822
252.363	12031
252.426	25254
252.489	10748
252.552	6501
252.615	3409
252.678	5074
252.741	9326
252.804	10780
252.867	25050
252.930	15471
252.993	7429
253.056	6368
253.119	3208
253.182	3188
253.245	3849
253.308	4895
253.371	3216
253.434	3888
253.497	3513
253.559	6046
253.622	3734
253.685	4670
253.748	5313
253.811	3087
253.874	4092
253.937	2979
254.000	2761
254.062	4095
254.125	6561
254.188	6726
254.251	4548
254.314	2818
254.376	3593
254.439	5721
254.502	3707
254.565	3790
254.628	7069
254.690	4522
254.753	2396
254.816	2210
254.878	2346
254.941	3933
255.004	4142
255.067	2930
255.129	2243
255.192	2006
255.255	642
255.317	2885
255.380	1844
255.443	1556
255.505	1048
255.568	942
255.631	1135
255.693	2304
255.756	1139
255.819	2690
255.881	897
255.944	1348
256.006	1068
256.069	1272
256.132	592
256.194	2658
256.257	3366
256.319	2514
256.382	1348
256.444	2893
256.507	2088
256.569	1845
256.632	2294
256.694	2941
256.757	7614
256.819	20779
256.882	9169
256.944	4239
257.007	3419
257.069	2413
257.132	1897
257.194	3324
257.257	1831
257.319	2510
257.381	1622
257.444	6902
257.506	20820
257.569	25903
257.631	11024
257.693	6713
257.756	3620
257.818	2586
257.880	1708
257.943	3116
258.005	1961
258.067	1516
258.130	2713
258.192	2290
258.254	2432
258.317	2242
258.379	2350
258.441	3347
258.503	3808
258.566	3900
258.628	5544
258.690	1308
258.753	3158
258.815	3636
258.877	1380
258.939	2118
259.001	2542
259.064	1280
259.126	1127
259.188	2257
259.250	2721
259.312	3195
259.375	3867
259.437	3231
259.499	2101
259.561	2094
259.623	1574
259.685	1896
259.747	1906
259.809	3976
259.872	7096
259.934	9689
259.996	10431
260.058	4611
260.120	1594
260.182	1403
260.244	1662
260.306	2091
260.368	2014
260.430	1379
260.492	3681
260.554	6270
260.616	2793
260.678	5167
260.740	5528
260.802	2333
260.864	1864
260.926	1402
260.988	2725
261.050	2324
261.112	3324
261.174	9493
261.236	5612
261.298	3128
261.359	2437
261.421	4506
261.483	1837
261.545	3321
261.607	895
261.669	1752
261.731	2819
261.793	5396
261.854	1902
261.916	2755
261.978	1612
262.040	2641
262.102	2384
262.164	2147
262.225	899
262.287	2057
262.349	3230
262.411	3229
262.472	2076
262.534	2115
262.596	3874
262.658	2401
262.719	358
262.781	2421
262.843	3811
262.904	2515
262.966	2071
263.028	3302
263.090	6480
263.151	19842
263.213	7536
263.275	4529
263.336	2598
263.398	2594
263.459	1361
263.521	1918
263.583	3658
263.644	3348
263.706	615
263.767	1269
263.829	1133
263.891	1576
263.952	1365
264.014	920
264.075	1475
264.137	5310
264.198	2538
264.260	1664
264.321	1008
264.383	3544
264.444	8645
264.506	3634
264.567	2000
264.629	3424
264.690	6266
264.752	3193
264.813	2382
264.875	1277
264.936	1830
264.998	1478
265.059	755
265.120	2680
265.182	2785
265.243	12120
265.305	13280
265.366	3630
265.427	1927
265.489	2866
265.550	-198
265.611	2166
265.673	1514
265.734	1913
265.795	2711
265.857	1545
265.918	840
265.979	4216
266.040	17994
266.102	17054
266.163	4878
266.224	4484
266.286	1849
266.347	1509
266.408	1598
266.469	2423
266.530	2171
266.592	1604
266.653	2768
266.714	4062
266.775	1717
266.836	1245
266.898	624
266.959	1990
267.020	1802
267.081	2454
267.142	1769
267.203	1398
267.264	549
267.326	2656
267.387	1009
267.448	1159
267.509	1688
267.570	1447
267.631	1167
267.692	866
267.753	814
267.814	1383
267.875	2408
267.936	4773
267.997	2987
268.058	3470
268.119	1537
268.180	1728
268.241	1444
268.302	1308
268.363	899
268.424	2237
268.485	1867
268.546	1583
268.607	741
268.668	1426
268.729	693
268.790	1223
268.851	1708
268.912	2697
268.972	3582
269.033	2043
269.094	859
269.155	1477
269.216	1658
269.277	2424
269.338	1384
269.398	1491
269.459	1322
269.520	2368
269.581	3104
269.642	2842
269.702	1511
269.763	2468
269.824	1437
269.885	2377
269.945	2824
270.006	2068
270.067	840
270.128	1715
270.188	728
270.249	1095
270.310	1035
270.370	1736
270.431	1262
270.492	1336
270.553	1279
270.613	3150
270.674	4549
270.734	2434
270.795	2192
270.856	1959
270.916	1609
270.977	1035
271.038	1891
271.098	2159
271.159	2369
271.219	2317
271.280	1716
271.340	1894
271.401	861
271.462	2468
271.522	1748
271.583	2226
271.643	1678
271.704	1853
271.764	1545
271.825	4276
271.885	9067
271.946	12587
272.006	4745
272.066	5578
272.127	9566
272.187	4149
272.248	2279
272.308	3260
272.369	6654
272.429	4215
272.489	2932
272.550	3559
272.610	4217
272.671	3858
272.731	3196
272.791	3633
272.852	2302
272.912	2550
272.972	2042
273.033	2052
273.093	3011
273.153	2679
273.214	1914
273.274	2543
273.334	5405
273.394	9284
273.455	4609
273.515	4589
273.575	7887
273.635	4939
273.696	4597
273.756	8571
273.816	4480
273.876	3160
273.936	4118
273.997	7791
274.057	2527
274.117	2261
274.177	3434
274.237	11985
274.297	9997
274.358	6521
274.418	6727
274.478	7206
274.538	3262
274.598	2051
274.658	5726
274.718	6779
274.778	3280
274.838	2219
274.898	3713
274.958	7485
275.018	7668
275.078	6893
275.138	3391
275.198	2124
275.258	2253
275.318	2542
275.378	3899
275.438	4510
275.498	2977
275.558	4047
275.618	8638
275.678	6046
275.738	4778
275.798	4874
275.858	2131
275.918	1501
275.978	2594
276.038	2280
276.098	2017
276.157	2522
276.217	8166
276.277	3538
276.337	3567
276.397	1325
276.457	2170
276.517	1871
276.576	1744
276.636	1580
276.696	1985
276.756	5256
276.815	3429
276.875	2697
276.935	2248
276.995	2000
277.055	1349
277.114	1963
277.174	2125
277.234	6244
277.293	2674
277.353	2006
277.413	1486
277.472	1585
277.532	1904
277.592	1838
277.651	4583
277.711	8602
277.771	3140
277.830	9285
277.890	7463
277.950	5261
278.009	14194
278.069	5733
278.128	5881
278.188	7987
278.248	4266
278.307	8098
278.367	5796
278.426	2976
278.486	2453
278.545	1632
278.605	2019
278.664	1524
278.724	1778
278.783	4092
278.843	9350
278.902	3673
278.962	1856
279.021	3111
279.081	3074
279.140	3477
279.199	2621
279.259	2974
279.318	3515
279.378	4113
279.437	5300
279.496	14308
279.556	37311
279.615	28624
279.675	8421
279.734	5821
279.793	6493
279.853	12175
279.912	5271
279.971	4254
280.031	3934
280.090	5266
280.149	8962
280.208	6314
280.268	25208
280.327	26018
280.386	6281
280.445	6146
280.505	5672
280.564	3495
280.623	2650
280.682	4103
280.742	5716
280.801	3066
280.860	1832
280.919	1983
280.978	1225
281.037	1997
281.097	2257
281.156	2957
281.215	1410
281.274	2518
281.333	5819
281.392	4820
281.451	2388
281.510	1671
281.569	1070
281.628	2173
281.688	1467
281.747	2557
281.806	1266
281.865	1937
281.924	844
281.983	1876
282.042	869
282.101	1737
282.160	1801
282.219	1312
282.278	1281
282.337	4638
282.396	3356
282.454	1833
282.513	1147
282.572	6504
282.631	4350
282.690	1773
282.749	1284
282.808	2185
282.867	1656
282.926	2326
282.985	1402
283.043	1546
283.102	1279
283.161	1681
283.220	3357
283.279	7125
283.338	2874
283.396	2466
283.455	911
283.514	1956
283.573	1852
283.631	2794
283.690	2582
283.749	1979
283.808	2187
283.866	4023
283.925	1355
283.984	1805
284.043	2296
284.101	2660
284.160	1779
284.219	2227
284.277	2699
284.336	2053
284.395	7789
284.453	7270
284.512	3257
284.570	3511
284.629	2513
284.688	2594
284.746	2350
284.805	3883
284.863	4296
284.922	4810
284.981	6016
285.039	8602
285.098	12159
285.156	26636
285.215	45350
285.273	44815
285.332	29837
285.390	16674
285.449	10358
285.507	7038
285.566	5325
285.624	4841
285.683	4032
285.741	3530
285.799	3590
285.858	2925
285.916	3291
285.975	2384
286.033	2171
286.091	2927
286.150	1440
286.208	2013
286.267	2331
286.325	1745
286.383	2935
286.442	2923
286.500	1164
286.558	1957
286.616	813
286.675	3255
286.733	2103
286.791	1776
286.850	2685
286.908	2098
286.966	3714
287.024	2930
287.083	1009
287.141	820
287.199	1683
287.257	2861
287.315	2988
287.374	1661
287.432	4858
287.490	3165
287.548	1324
287.606	1826
287.664	2366
287.723	2493
287.781	2907
287.839	2427
287.897	2384
287.955	3908
288.013	3998
288.071	7500
288.129	24344
288.187	65880
288.245	32080
288.303	11014
288.361	6509
288.419	5349
288.477	2649
288.535	2123
288.593	2620
288.651	1779
288.709	2037
288.767	2356
288.825	2079
288.883	1467
288.941	1891
288.999	1980
289.057	2083
289.115	1558
289.173	763
289.231	2582
289.289	803
289.346	1659
289.404	1084
289.462	1941
289.520	2658
289.578	2037
289.636	1339
289.694	796
289.751	1255
289.809	1867
289.867	1369
289.925	2581
289.983	1346
290.040	1849
290.098	1464
290.156	1673
290.214	1341
290.271	1298
290.329	1628
290.387	1554
290.444	1287
290.502	1142
290.560	911
290.617	1001
290.675	526
290.733	1073
290.790	1705
290.848	1558
290.906	1254
290.963	2241
291.021	1574
291.078	1251
291.136	1205
291.194	4007
291.251	7939
291.309	2809
291.366	1733
291.424	1764
291.481	1246
291.539	739
291.596	1415
291.654	1420
291.711	1191
291.769	1569
291.826	1713
291.884	2143
291.941	1238
291.999	1237
292.056	1200
292.114	2013
292.171	1011
292.228	1287
292.286	1354
292.343	2630
292.401	2180
292.458	2980
292.515	1232
292.573	3071
292.630	1878
292.687	2514
292.745	1535
292.802	2035
292.859	5049
292.917	7489
292.974	4642
293.031	1449
293.089	1723
293.146	1453
293.203	1327
293.260	317
293.318	1657
293.375	3398
293.432	1066
293.489	1948
293.546	1429
293.604	2140
293.661	4085
293.718	10467
293.775	5920
293.832	3310
293.889	2472
293.947	2987
294.004	1866
294.061	2448
294.118	3351
294.175	7557
294.232	10393
294.289	4699
294.346	2102
294.403	3396
294.460	1562
294.517	2377
294.574	1154
294.631	906
294.688	1385
294.745	3730
294.802	11735
294.859	17101
294.916	6649
294.973	3465
295.030	2434
295.087	2766
295.144	2167
295.201	2500
295.258	1502
295.315	1787
295.372	4662
295.429	8578
295.486	4981
295.542	3805
295.599	7229
295.656	12974
295.713	7631
295.770	8346
295.827	3522
295.883	2379
295.940	1884
295.997	3195
296.054	3271
296.111	2101
296.167	1955
296.224	1595
296.281	845
296.338	1600
296.394	1878
296.451	2609
296.508	3616
296.564	8395
296.621	5728
296.678	9263
296.734	13416
296.791	6570
296.848	3595
296.904	3732
296.961	7016
297.018	9798
297.074	7206
297.131	3755
297.187	2718
297.244	3828
297.301	7436
297.357	15102
297.414	6184
297.470	2795
297.527	1850
297.583	2486
297.640	1971
297.696	2283
297.753	1736
297.809	1462
297.866	1069
297.922	2540
297.979	1195
298.035	2377
298.092	2242
298.148	5755
298.204	5296
298.261	3332
298.317	4542
298.374	11090
298.430	8160
298.486	3621
298.543	2613
298.599	3097
298.656	2852
298.712	5140
298.768	10070
298.824	8043
298.881	2690
298.937	2756
298.993	2118
299.050	2388
299.106	3064
299.162	1907
299.218	1411
299.275	1747
299.331	1656
299.387	2951
299.443	9551
299.500	11093
299.556	5113
299.612	2517
299.668	1894
299.724	2622
299.780	3281
299.837	1960
299.893	2917
299.949	9056
300.005	10701
300.061	8832
300.117	13528
300.173	7903
300.229	3557
300.285	4511
300.341	5678
300.397	3582
300.453	2361
300.510	2358
300.566	1583
300.622	2379
300.678	4044
300.734	9398
300.790	8614
300.845	8989
300.901	6169
300.957	9916
301.013	7400
301.069	3363
301.125	2829
301.181	2894
301.237	1953
301.293	2340
301.349	978
301.405	1561
301.461	2189
301.516	3248
301.572	2537
301.628	3310
301.684	3052
301.740	4523
301.796	6963
301.851	5433
301.907	6858
301.963	7958
302.019	9179
302.074	24230
302.130	25687
302.186	12595
302.242	5757
302.297	3445
302.353	3581
302.409	7227
302.464	5240
302.520	3932
302.576	10036
302.631	12195
302.687	7831
302.743	4129
302.798	2724
302.854	2712
302.910	2864
302.965	2983
303.021	4161
303.076	5040
303.132	4993
303.187	5698
303.243	3486
303.299	2313
303.354	1361
303.410	2439
303.465	2113
303.521	1785
303.576	1138
303.632	2197
303.687	3511
303.743	9434
303.798	8323
303.853	4628
303.909	2551
303.964	3106
304.020	2727
304.075	5762
304.130	4097
304.186	7856
304.241	7827
304.297	7257
304.352	2840
304.358	2860
304.407	3022
304.449	2367
304.463	2144
304.518	2737
304.539	2532
304.573	2210
304.629	2083
304.630	2107
304.684	3200
304.720	5604
304.739	6782
304.794	10662
304.811	9438
304.850	6489
304.902	3094
304.905	2882
304.960	2107
304.992	2407
305.015	2582
305.071	2750
305.083	2757
305.126	2780
305.173	2170
305.181	2085
305.236	1252
305.264	1704
305.292	2100
305.347	1903
305.354	1986
305.402	2672
305.445	2948
305.457	2993
305.512	3779
305.535	3546
305.567	3261
305.622	3457
305.626	3464
305.678	4364
305.716	9147
305.733	10754
305.788	10864
305.807	9601
305.843	7819
305.897	9463
305.898	9472
305.953	9048
305.988	6270
306.008	4769
306.063	3212
306.078	2998
306.118	2740
306.168	2588
306.173	2558
306.228	2270
306.259	2004
306.283	1866
306.338	1479
306.349	1625
306.393	2120
306.440	2408
306.448	2503
306.503	3040
306.530	3031
306.558	3413
306.613	5997
306.620	6445
306.668	9151
306.711	11272
306.723	11361
306.778	9256
306.801	7484
306.833	5626
306.888	2638
306.892	2616
306.943	2800
306.982	2214
306.997	2042
307.052	2281
307.072	2371
307.107	2716
307.162	3386
307.163	3388
307.217	3957
307.253	5005
307.272	5159
307.327	4825
307.343	4503
307.381	4315
307.434	3585
307.436	3627
307.491	6863
307.524	9111
307.546	9460
307.600	10049
307.614	8978
307.655	5824
307.704	3980
307.710	3971
307.765	4584
307.795	5743
307.819	6721
307.874	9470
307.885	9515
307.929	8676
307.975	8142
307.984	8489
308.038	11674
308.065	14078
308.093	22410
308.148	42834
308.156	47197
308.202	63597
308.246	72502
308.257	70965
308.312	44169
308.336	33345
308.366	25593
308.421	15109
308.426	14235
308.475	9869
308.517	7492
308.530	7061
308.585	6324
308.607	6098
308.639	6043
308.694	6347
308.697	6374
308.748	9230
308.787	12416
308.803	12363
308.857	10004
308.877	8983
308.912	8612
308.967	8604
308.967	8617
309.021	12534
309.058	15207
309.076	18919
309.130	32262
309.148	37285
309.185	56078
309.238	89023
309.239	89252
309.293	90752
309.328	84217
309.348	75057
309.402	42898
309.418	34586
309.457	25307
309.508	16649
309.511	16412
309.566	13848
309.598	12509
309.620	12544
309.674	13849
309.688	14204
309.729	13159
309.778	11173
309.783	11042
309.837	9065
309.868	8339
309.892	10194
309.946	14612
309.959	16078
310.001	19314
310.049	22041
310.055	21334
310.109	12926
310.139	8131
310.163	6787
310.218	4937
310.229	4584
310.272	4093
310.319	3800
310.326	3712
310.381	3183
310.409	2865
310.435	2681
310.489	2401
310.499	2371
310.543	2752
310.589	3088
310.598	3099
310.652	3298
310.679	3212
310.706	2993
310.760	2792
310.769	2748
310.814	2733
310.859	2761
310.868	2741
310.923	2440
310.948	2416
310.977	2917
311.031	3786
311.038	3911
311.085	3349
311.128	2520
311.139	2489
311.193	2780
311.218	2761
311.247	2666
311.301	2625
311.308	2607
311.356	2397
311.398	2304
311.410	2355
311.464	2405
311.488	2524
311.518	2576
311.572	2522
311.578	2528
311.626	3714
311.668	4727
311.680	4657
311.734	4216
311.758	4031
311.788	3972
311.842	3869
311.847	3849
311.896	4979
311.937	5996
311.950	5837
312.004	5049
312.027	4693
312.058	4247
312.112	3445
312.117	3361
312.165	3548
312.207	3702
312.297	4981
312.386	3500
312.476	3733
312.566	6142
312.656	3434
312.745	2911
312.835	3973
312.925	3451
313.015	3726
313.104	3456
313.194	3644
313.284	3217
313.374	3902
313.463	3997
313.553	3609
313.643	2146
313.732	2105
313.822	2605
313.912	4417
314.001	3604
314.091	4362
314.180	5088
314.270	4210
314.360	4409
314.449	3667
314.539	3032
314.628	2646
314.718	3635
314.808	3539
314.897	2868
314.987	3201
315.076	4102
315.166	3733
315.255	4352
315.345	4246
315.434	3262
315.524	4364
315.613	3679
315.703	4632
315.792	5141
315.881	6481
315.971	3924
316.060	6597
316.150	8256
316.239	8148
316.328	2884
316.418	3283
316.507	3367
316.597	3569
316.686	3927
316.775	4415
316.865	7397
316.954	3558
317.043	3030
317.133	3139
317.222	3190
317.311	2496
317.400	2056
317.490	4846
317.579	4476
317.668	3682
317.757	4136
317.847	6250
317.936	11095
318.025	8414
318.114	5336
318.203	4618
318.293	8010
318.382	11957
318.471	10176
318.560	15357
318.649	27217
318.738	5760
318.828	4767
318.917	4897
319.006	5164
319.095	11218
319.184	33463
319.273	17240
319.362	8584
319.451	4006
319.540	4427
319.629	7336
319.718	11393
319.807	6038
319.896	12492
319.985	40878
320.074	11573
320.163	5111
320.252	5621
320.341	7009
320.430	5467
320.519	7111
320.608	4973
320.697	4578
320.786	3975
320.875	4416
320.964	5771
321.053	7983
321.142	11305
321.230	10418
321.319	10103
321.408	19795
321.497	8092
321.586	9392
321.675	9686
321.764	9709
321.852	7651
321.941	12223
322.030	7408
322.119	9605
322.207	18792
322.296	11192
322.385	7361
322.474	8672
322.562	23475
322.651	11205
322.740	10017
322.829	12145
322.917	10232
323.006	7656
323.095	6816
323.183	5511
323.272	8169
323.361	13136
323.449	27389
323.538	9607
323.626	20392
323.715	11157
323.804	6856
323.892	18473
323.981	9666
324.069	4870
324.158	11614
324.246	9128
324.335	6199
324.424	7832
324.512	5338
324.601	5626
324.689	8712
324.778	11406
324.866	8202
324.954	3275
325.043	4298
325.131	6151
325.220	8660
325.308	8644
325.397	8161
325.485	5020
325.574	3759
325.662	3304
325.750	2858
325.839	3809
325.927	3666
326.015	3762
326.104	5112
326.192	5822
326.280	3936
326.369	3326
326.457	4487
326.545	7849
326.634	3853
326.722	3742
326.810	3193
326.898	2457
326.987	3837
327.075	6619
327.163	6654
327.251	4108
327.340	6873
327.428	6698
327.516	3066
327.604	3953
327.692	3025
327.781	3020
327.869	4359
327.957	3870
328.045	3554
328.133	3312
328.221	3413
328.309	3846
328.397	3626
328.485	4151
328.574	4522
328.662	13361
328.750	6787
328.838	3688
328.926	3168
329.014	3076
329.102	4662
329.190	10343
329.278	6179
329.366	2924
329.454	3273
329.542	3798
329.630	2526
329.718	4442
329.806	4531
329.893	5309
329.981	6185
330.069	12493
330.157	38022
330.245	71312
330.333	39071
330.421	12490
330.509	8193
330.597	18047
330.684	10941
330.772	6016
330.860	7006
330.948	9175
331.036	4575
331.123	3793
331.211	3682
331.299	3580
331.387	8929
331.475	11969
331.562	4925
331.650	3781
331.738	3794
331.825	3713
331.913	3220
332.001	3396
332.089	3152
332.176	5505
332.264	10995
332.352	7518
332.439	4810
332.527	3602
332.614	2900
332.702	4099
332.790	3680
332.877	6784
332.965	9684
333.052	4267
333.140	4210
333.228	6443
333.315	3417
333.403	2931
333.490	6670
333.578	5388
333.665	7720
333.753	4542
333.840	3626
333.928	4900
334.015	8170
334.103	13421
334.190	36096
334.278	10036
334.365	5664
334.452	4293
334.540	4055
334.627	4391
334.715	5779
334.802	8896
334.889	34346
334.977	27021
335.064	6533
335.151	4557
335.239	5535
335.326	6541
335.413	22762
335.501	25369
335.588	4928
335.675	4144
335.762	5479
335.850	8442
335.937	5985
336.024	13005
336.111	38199
336.199	14638
336.286	5474
336.373	3695
336.460	3354
336.547	3823
336.635	4369
336.722	4113
336.809	3314
336.896	6064
336.983	14708
337.070	32969
337.157	38735
337.245	23470
337.332	12526
337.419	4114
337.506	3768
337.593	4584
337.680	13473
337.767	32010
337.854	9286
337.941	10712
338.028	9622
338.115	3403
338.202	6540
338.289	9582
338.376	21187
338.463	8685
338.550	21201
338.637	18237
338.724	6608
338.811	7337
338.898	4104
338.984	3697
339.071	4476
339.158	4902
339.245	9390
339.332	5695
339.419	6845
339.506	5160
339.593	2616
339.679	3516
339.766	3103
339.853	4137
339.940	6815
340.027	4077
340.113	4687
340.200	4418
340.287	3903
340.374	4455
340.460	6616
340.547	3444
340.634	5872
340.720	15322
340.807	8216
340.894	4061
340.980	3960
341.067	3304
341.154	3920
341.240	5527
341.327	8146
341.414	3540
341.500	4960
341.587	4475
341.674	4038
341.760	7195
341.847	6628
341.933	3490
342.020	1793
342.106	3309
342.193	4087
342.279	5092
342.366	5079
342.452	6901
342.539	4034
342.625	7860
342.712	15929
342.798	7443
342.885	3711
342.971	2164
343.058	2318
343.144	2535
343.230	3167
343.317	3756
343.403	3396
343.490	3831
343.576	3037
343.662	3439
343.749	2712
343.835	4434
343.921	7069
344.008	25011
344.094	43960
344.180	11605
344.267	6565
344.353	15978
344.439	14719
344.525	9293
344.612	9965
344.698	10753
344.784	6586
344.870	4725
344.957	3812
345.043	6484
345.129	4034
345.215	7306
345.301	4110
345.387	3330
345.474	2886
345.560	2811
345.646	2792
345.732	3771
345.818	3851
345.904	3205
345.990	3777
346.076	3508
346.162	5293
346.249	3734
346.335	2729
346.421	3678
346.507	8070
346.593	18608
346.679	5294
346.765	4192
346.851	3352
346.937	2700
347.023	4592
347.108	4022
347.194	3547
347.280	4232
347.366	4355
347.452	9153
347.538	22197
347.624	19981
347.710	13941
347.796	4487
347.882	4193
347.967	3069
348.053	4331
348.139	3481
348.225	3078
348.311	3259
348.397	2689
348.482	4533
348.568	5007
348.654	3410
348.740	4425
348.825	2582
348.911	5291
348.997	13448
349.083	20484
349.168	4648
349.254	3400
349.340	4082
349.425	3640
349.511	4478
349.597	3857
349.682	7038
349.768	16657
349.854	7704
349.939	4397
350.025	3980
350.110	4170
350.196	3412
350.282	2533
350.367	3553
350.453	4137
350.538	4857
350.624	4701
350.709	3995
350.795	2960
350.880	3195
350.966	4705
351.051	5333
351.137	3207
351.222	4260
351.308	8095
351.393	15664
351.479	5198
351.564	4380
351.649	3366
351.735	3513
351.820	3086
351.906	3695
351.991	3993
352.076	11589
352.162	15256
352.247	5331
352.332	4424
352.418	6490
352.503	7711
352.588	23618
352.673	16988
352.759	5684
352.844	3773
352.929	4537
353.014	4509
353.100	4337
353.185	7121
353.270	7603
353.355	7599
353.441	4123
353.526	4519
353.611	7321
353.696	6507
353.781	6481
353.866	2553
353.952	4595
354.037	6442
354.122	12026
354.207	11246
354.292	5426
354.377	3619
354.462	3532
354.547	3901
354.632	5165
354.717	6672
354.802	7519
354.887	3934
354.972	3720
355.057	3715
355.142	3438
355.227	4367
355.312	5314
355.397	9823
355.482	18130
355.567	9307
355.652	9174
355.737	8285
355.822	19864
355.907	13542
355.991	4489
356.076	3260
356.161	4012
356.246	4032
356.331	4684
356.416	6338
356.501	28422
356.585	23923
356.670	5712
356.755	7308
356.840	6906
356.924	25235
357.009	60042
357.094	23560
357.179	8065
357.263	6134
357.348	6885
357.433	6212
357.517	6951
357.602	5552
357.687	5467
357.771	8425
357.856	18806
357.941	11501
358.025	21870
358.110	59308
358.195	27436
358.279	7663
358.364	6970
358.448	16008
358.533	35854
358.617	26489
358.702	25331
358.787	9888
358.871	8002
358.956	6921
359.040	3710
359.125	3885
359.209	4303
359.294	11012
359.378	15011
359.462	6916
359.547	4743
359.631	3579
359.716	3374
359.800	3549
359.885	6081
359.969	3215
360.053	4471
360.138	4182
360.222	4808
360.306	6699
360.391	6791
360.475	11860
360.559	20095
360.644	16549
360.728	10729
360.812	19631
360.896	37294
360.981	19298
361.065	11496
361.149	5947
361.233	5080
361.318	4168
361.402	3997
361.486	5293
361.570	4072
361.654	4701
361.739	8750
361.823	29590
361.907	36000
361.991	9372
362.075	7409
362.159	11361
362.243	10211
362.327	8599
362.411	11092
362.495	6117
362.580	4379
362.664	4171
362.748	4223
362.832	5640
362.916	6463
363.000	18328
363.084	37414
363.168	42223
363.252	13040
363.336	8016
363.420	10006
363.503	31307
363.587	30839
363.671	7455
363.755	5567
363.839	9141
363.923	4755
364.007	8822
364.091	8547
364.175	14621
364.258	48295
364.342	30605
364.426	28062
364.510	14738
364.594	12044
364.677	13612
364.761	34842
364.845	23426
364.929	11596
365.013	9471
365.096	8342
365.180	9549
365.264	16161
365.347	45866
365.431	20047
365.515	6152
365.598	4514
365.682	5263
365.766	7872
365.849	9176
365.933	5140
366.017	7609
366.100	5637
366.184	3703
366.267	5445
366.351	4534
366.435	3923
366.518	3247
366.602	4538
366.685	4311
366.769	4752
366.852	7544
366.936	9506
367.019	6252
367.103	5786
367.186	10347
367.270	3846
367.353	3090
367.436	3890
367.520	3661
367.603	3918
367.687	4811
367.770	7505
367.853	5492
367.937	13897
368.020	16654
368.104	5158
368.187	7450
368.270	9490
368.353	8149
368.437	9708
368.520	15173
368.603	11493
368.687	14925
368.770	23649
368.853	7503
368.936	9210
369.020	9286
369.103	4702
369.186	3421
369.269	3757
369.352	7318
369.436	7372
369.519	6360
369.602	3062
369.685	5827
369.768	3960
369.851	4738
369.934	3364
370.018	3968
370.101	6250
370.184	8516
370.267	5594
370.350	7816
370.433	10194
370.516	20402
370.599	20030
370.682	7913
370.765	18083
370.848	20362
370.931	28283
371.014	13732
371.097	4387
371.180	5531
371.263	4461
371.346	3248
371.429	4392
371.511	3042
371.594	5868
371.677	8019
371.760	11153
371.843	9295
371.926	30326
372.009	49343
372.091	21094
372.174	14343
372.257	26202
372.340	11319
372.423	12810
372.505	14580
372.588	7091
372.671	13043
372.754	27526
372.836	15106
372.919	17317
373.002	28507
373.085	9097
373.167	8694
373.250	15833
373.332	26946
373.415	41434
373.498	63832
373.580	28183
373.663	36008
373.746	41177
373.828	12773
373.911	8561
373.993	8832
374.076	29177
374.159	24550
374.241	11653
374.324	27079
374.406	18590
374.489	25052
374.571	52766
374.654	22430
374.736	15650
374.819	36110
374.901	51169
374.983	45638
375.066	11606
375.148	7178
375.231	24200
375.313	41140
375.395	15761
375.478	4877
375.560	4475
375.643	6225
375.725	14963
375.807	42856
375.890	32156
375.972	13240
376.054	11153
376.136	13233
376.219	7140
376.301	16138
376.383	34563
376.465	14937
376.548	10976
376.630	14133
376.712	32193
376.794	14597
376.877	5152
376.959	3680
377.041	4912
377.123	8057
377.205	9483
377.287	2844
377.369	4295
377.452	3717
377.534	3738
377.616	3862
377.698	3645
377.780	2708
377.862	3981
377.944	4600
378.026	2380
378.108	4076
378.190	3182
378.272	4408
378.354	3758
378.436	2893
378.518	6060
378.600	13416
378.682	11857
378.764	19842
378.846	15587
378.928	7528
379.010	8409
379.091	6483
379.173	4074
379.255	2917
379.337	4578
379.419	12098
379.501	25652
379.583	11581
379.664	4983
379.746	7824
379.828	21382
379.910	24690
379.991	21814
380.073	5387
380.155	4918
380.237	4694
380.318	3394
380.400	3739
380.482	6834
380.564	8269
380.645	8149
380.727	8240
380.809	5809
380.890	4545
380.972	3246
381.053	4397
381.135	5175
381.217	9223
381.298	20891
381.380	11158
381.461	11187
381.543	34259
381.624	37599
381.706	8818
381.787	6726
381.869	7410
381.951	18912
382.032	51377
382.113	33155
382.195	8538
382.276	9610
382.358	15034
382.439	30200
382.521	35057
382.602	45940
382.684	24841
382.765	42186
382.846	40625
382.928	45318
383.009	24842
383.090	22732
383.172	70880
383.253	91178
383.334	38927
383.416	43375
383.497	22714
383.578	11551
383.659	21738
383.741	68346
383.822	138756
383.903	67843
383.984	34511
384.066	55449
384.147	33628
384.228	9354
384.309	8106
384.390	7474
384.471	5530
384.553	5775
384.634	7234
384.715	8145
384.796	4725
384.877	6171
384.958	18977
385.039	21500
385.120	9548
385.201	6557
385.282	6685
385.363	7074
385.444	5954
385.525	10300
385.606	23484
385.687	19095
385.768	7836
385.849	10171
385.930	32162
386.011	42541
386.092	13966
386.173	6152
386.254	5883
386.335	6229
386.416	5449
386.496	14203
386.577	21207
386.658	8937
386.739	5815
386.820	7081
386.901	5328
386.981	5816
387.062	4342
387.143	6432
387.224	19294
387.304	17801
387.385	8669
387.466	5621
387.547	7783
387.627	4951
387.708	11224
387.789	32977
387.869	33960
387.950	11098
388.031	4695
388.111	4223
388.192	10008
388.273	13724
388.353	8157
388.434	5566
388.514	10255
388.595	29690
388.676	34244
388.756	19487
388.837	20446
388.917	12812
388.998	3539
389.078	5365
389.159	4390
389.239	2885
389.320	6381
389.400	4626
389.480	10492
389.561	19276
389.641	10794
389.722	6156
389.802	7253
389.883	11387
389.963	23713
390.043	14505
390.124	6387
390.204	10696
390.284	23222
390.365	15363
390.445	21927
390.525	40794
390.605	32665
390.686	13524
390.766	7359
390.846	5487
390.927	3717
391.007	3898
391.087	5337
391.167	5128
391.247	3622
391.328	6405
391.408	8797
391.488	7368
391.568	2880
391.648	4665
391.728	7136
391.808	6800
391.888	6307
391.969	13737
392.049	17838
392.129	10666
392.209	11544
392.289	21834
392.369	13765
392.449	14527
392.529	9144
392.609	7628
392.689	9486
392.769	20669
392.849	17949
392.929	17311
393.009	31813
393.089	20532
393.169	17924
393.248	55040
393.328	182842
393.408	172428
393.488	45183
393.568	15416
393.648	9991
393.728	7303
393.807	5977
393.887	6977
393.967	7030
394.047	8026
394.127	9916
394.206	16951
394.286	55725
394.366	165105
394.446	160572
394.525	52089
394.605	17638
394.685	13523
394.764	22937
394.844	32983
394.924	22098
395.003	9639
395.083	7985
395.163	6908
395.242	6382
395.322	6780
395.402	4868
395.481	7974
395.561	15494
395.640	34824
395.720	28626
395.799	40593
395.879	32114
395.958	27343
396.038	82146
396.117	206579
396.197	205364
396.276	86662
396.356	34186
396.435	23075
396.515	15347
396.594	13389
396.673	20116
396.753	64338
396.832	166009
396.912	118172
396.991	30992
397.070	11671
397.150	6651
397.229	7076
397.308	7719
397.388	11216
397.467	8903
397.546	6135
397.625	2981
397.705	6571
397.784	6062
397.863	4093
397.942	3592
398.022	4820
398.101	13744
398.180	31573
398.259	17220
398.338	7411
398.417	3708
398.497	4049
398.576	5393
398.655	3544
398.734	4231
398.813	4924
398.892	13798
398.971	34778
399.050	17135
399.129	3759
399.208	3570
399.287	5164
399.366	2434
399.445	3854
399.524	4082
399.603	2526
399.682	5348
399.761	13436
399.840	36888
399.919	27033
399.998	5607
400.077	3847
400.156	2868
400.235	6079
400.313	3379
400.392	4316
400.471	13461
400.550	17957
400.629	6087
400.708	4841
400.786	4674
400.865	10269
400.944	9805
401.023	7359
401.102	3204
401.180	3712
401.259	3911
401.338	4118
401.416	5633
401.495	4444
401.574	4791
401.652	3395
401.731	5852
401.810	3663
401.888	3658
401.967	2580
402.046	4259
402.124	5498
402.203	4227
402.281	4430
402.360	5426
402.438	12704
402.517	7616
402.596	5476
402.674	3961
402.753	3733
402.831	3556
402.910	5097
402.988	11679
403.066	26418
403.145	16208
403.223	12971
403.302	24934
403.380	21398
403.459	19757
403.537	9256
403.615	4774
403.694	3186
403.772	4915
403.850	3352
403.929	3614
404.007	3783
404.085	7955
404.164	6905
404.242	6117
404.320	17032
404.398	40234
404.477	40335
404.555	50381
404.633	43256
404.711	33539
404.789	22188
404.868	8458
404.946	4428
405.024	3911
405.102	3826
405.180	3443
405.258	2364
405.336	3895
405.415	3359
405.493	6418
405.571	6620
405.649	3535
405.727	2398
405.805	5802
405.883	4925
405.961	4959
406.039	5031
406.117	3320
406.195	5918
406.273	13480
406.351	37646
406.429	23471
406.507	6539
406.585	4189
406.663	4107
406.740	3956
406.818	3964
406.896	3020
406.974	3975
407.052	6046
407.130	24782
407.208	29573
407.285	9177
407.363	2993
407.441	3446
407.519	3793
407.596	4520
407.674	9030
407.752	19191
407.830	18474
407.907	9337
407.985	4124
408.063	3414
408.141	2236
408.218	6037
408.296	4892
408.373	4086
408.451	4610
408.529	3449
408.606	2566
408.684	3517
408.762	3517
408.839	3198
408.917	3423
408.994	3735
409.072	1674
409.149	2847
409.227	4157
409.304	4053
409.382	4189
409.459	3302
409.537	4623
409.614	5197
409.692	3538
409.769	4284
409.846	4970
409.924	6065
410.001	3831
410.079	4590
410.156	4496
410.233	4757
410.311	3467
410.388	2973
410.465	4123
410.543	2958
410.620	4037
410.697	4070
410.775	2939
410.852	2120
410.929	4263
411.006	4277
411.083	3095
411.161	5991
411.238	5795
411.315	4218
411.392	2781
411.469	4609
411.547	4422
411.624	1981
411.701	3430
411.778	4178
411.855	5264
411.932	3958
412.009	3130
412.086	3617
412.163	2999
412.240	3869
412.317	4865
412.394	4601
412.471	3428
412.548	2953
412.625	2958
412.702	4878
412.779	5120
412.856	4614
412.933	2901
413.010	2997
413.087	4629
413.164	12358
413.241	16011
413.318	4966
413.395	5286
413.471	5694
413.548	3278
413.625	3768
413.702	2825
413.779	3181
413.855	2576
413.932	2421
414.009	2649
414.086	3710
414.162	3830
414.239	4462
414.316	12368
414.393	24232
414.469	8608
414.546	3204
414.623	2568
414.699	3223
414.776	2986
414.853	2921
414.929	3719
415.006	3339
415.082	4061
415.159	3925
415.236	3475
415.312	3834
415.389	4600
415.465	4929
415.542	3241
415.618	2258
415.695	4535
415.771	3272
415.848	3668
415.924	3785
416.000	3275
416.077	3978
416.153	2533
416.230	2650
416.306	2387
416.383	2567
416.459	3317
416.535	2659
416.612	2535
416.688	3185
416.764	3281
416.841	2464
416.917	2611
416.993	4057
417.069	3882
417.146	4292
417.222	7180
417.298	4312
417.374	2489
417.451	3381
417.527	3477
417.603	3202
417.679	3240
417.755	3108
417.831	2023
417.908	2989
417.984	2760
418.060	2070
418.136	4722
418.212	5416
418.288	3621
418.364	3522
418.440	2449
418.516	4619
418.592	5551
418.668	7990
418.744	8385
418.820	7465
418.896	2966
418.972	2386
419.048	3304
419.124	5841
419.200	3760
419.276	2943
419.352	1712
419.428	2717
419.504	2018
419.579	3099
419.655	2793
419.731	3757
419.807	5972
419.883	8552
419.959	7362
420.034	4726
420.110	5990
420.186	16378
420.262	12828
420.337	4597
420.413	2839
420.489	2734
420.565	4403
420.640	2759
420.716	4420
420.792	2321
420.867	3721
420.943	3475
421.019	4232
421.094	3753
421.170	3464
421.245	3099
421.321	3811
421.397	3643
421.472	6162
421.548	12005
421.623	9298
421.699	4682
421.774	4683
421.850	3700
421.925	4999
422.001	6157
422.076	5596
422.152	5776
422.227	7975
422.302	9950
422.378	12919
422.453	22586
422.529	51567
422.604	121277
422.679	164132
422.755	116242
422.830	49540
422.905	22705
422.981	12791
423.056	9139
423.131	7898
423.207	6712
423.282	6568
423.357	8148
423.432	6175
423.508	6740
423.583	8570
423.658	8744
423.733	4475
423.808	4653
423.883	4687
423.959	3910
424.034	3530
424.109	4649
424.184	3134
424.259	3378
424.334	3099
424.409	2961
424.484	2606
424.559	3261
424.634	2866
424.709	3349
424.784	4144
424.859	3919
424.934	4178
425.009	11946
425.084	17172
425.159	8028
425.234	3567
425.309	2787
425.384	8084
425.459	10287
425.534	5222
425.609	3015
425.683	3208
425.758	3224
425.833	3775
425.908	3914
425.983	8705
426.058	17767
426.132	8595
426.207	3512
426.282	5498
426.357	3795
426.431	3060
426.506	2767
426.581	3198
426.655	3434
426.730	2760
426.805	2356
426.879	3906
426.954	2859
427.029	5495
427.103	17624
427.178	33614
427.253	15863
427.327	5368
427.402	6256
427.476	12223
427.551	6756
427.625	3466
427.700	4210
427.774	2262
427.849	4261
427.923	3004
427.998	3112
428.072	3217
428.147	6295
428.221	15842
428.296	35216
428.370	17760
428.444	5274
428.519	5593
428.593	9001
428.667	9112
428.742	10196
428.816	11024
428.890	27360
428.965	37809
429.039	14812
429.113	10959
429.188	4900
429.262	3197
429.336	5535
429.410	9571
429.485	7727
429.559	8715
429.633	7180
429.707	4457
429.781	7683
429.855	29367
429.930	38171
430.004	24142
430.078	35186
430.152	31126
430.226	48487
430.300	43629
430.374	8057
430.448	5860
430.522	14586
430.596	32844
430.670	21400
430.744	39948
430.818	49631
430.892	11686
430.966	4138
431.040	4132
431.114	1626
431.188	2647
431.262	2497
431.336	2377
431.410	5650
431.484	10882
431.557	7770
431.631	2822
431.705	3843
431.779	9886
431.853	30479
431.927	20532
432.000	4449
432.074	3294
432.148	3667
432.222	3444
432.295	3274
432.369	3113
432.443	3711
432.516	16495
432.590	32784
432.664	13442
432.737	3836
432.811	2430
432.885	3003
432.958	2826
433.032	2425
433.106	2052
433.179	2509
433.253	2281
433.326	2401
433.400	2603
433.473	2757
433.547	1918
433.620	2571
433.694	4060
433.767	3779
433.841	2824
433.914	2344
433.988	2843
434.061	2741
434.134	3010
434.208	2539
434.281	1586
434.355	2315
434.428	3269
434.501	2959
434.575	2273
434.648	2365
434.721	1654
434.795	1723
434.868	1691
434.941	1845
435.014	2667
435.088	2178
435.161	3090
435.234	3534
435.307	3872
435.381	2021
435.454	2472
435.527	2916
435.600	2915
435.673	3493
435.746	2559
435.819	2452
435.892	2328
435.966	2057
436.039	2117
436.112	2897
436.185	2177
436.258	1770
436.331	1856
436.404	2138
436.477	2275
436.550	2415
436.623	1959
436.696	2183
436.769	2658
436.842	2359
436.915	2459
436.987	2513
437.060	2991
437.133	2066
437.206	2331
437.279	2307
437.352	2226
437.425	2243
437.498	3442
437.570	4366
437.643	4128
437.716	3117
437.789	1753
437.861	3489
437.934	6146
438.007	3383
438.080	1794
438.152	3241
438.225	5384
438.298	20734
438.370	42916
438.443	18972
438.516	6043
438.588	3021
438.661	2031
438.734	1879
438.806	2127
438.879	2604
438.951	2773
439.024	3518
439.096	2232
439.169	2246
439.241	2332
439.314	2027
439.386	2688
439.459	3529
439.531	4196
439.604	2506
439.676	2098
439.749	2399
439.821	2104
439.893	2290
439.966	2012
440.038	3230
440.110	2158
440.183	2231
440.255	1622
440.327	2892
440.400	10225
440.472	30299
440.544	18721
440.617	4469
440.689	4401
440.761	4693
440.833	4823
440.905	3821
440.978	1593
441.050	1955
441.122	2012
441.194	1314
441.266	2480
441.338	1905
441.411	3913
441.483	12908
441.555	16076
441.627	4556
441.699	3695
441.771	3843
441.843	2645
441.915	1684
441.987	1957
442.059	2579
442.131	2416
442.203	3474
442.275	3787
442.347	3728
442.419	4945
442.491	17206
442.563	32763
442.635	15602
442.706	11542
442.778	8475
442.850	3094
442.922	2333
442.994	2992
443.066	4088
443.137	3340
443.209	3349
443.281	4210
443.353	7799
443.425	22926
443.496	62381
443.568	54373
443.640	19444
443.711	5409
443.783	3267
443.855	3225
443.926	2776
443.998	2422
444.070	3793
444.141	2608
444.213	3087
444.285	4339
444.356	3190
444.428	2411
444.499	1941
444.571	2032
444.642	1456
444.714	2506
444.785	2665
444.857	4305
444.928	7179
445.000	5710
445.071	6317
445.143	6833
445.214	4064
445.285	7485
445.357	17398
445.428	48528
445.500	94787
445.571	57112
445.642	28144
445.714	13157
445.785	11781
445.856	4425
445.928	4422
445.999	4099
446.070	2912
446.141	3285
446.213	5181
446.284	2356
446.355	3005
446.426	2876
446.497	2565
446.569	3662
446.640	4742
446.711	2969
446.782	1898
446.853	2107
446.924	3199
446.995	2861
447.066	2834
447.138	3337
447.209	2736
447.280	1567
447.351	1695
447.422	1158
447.493	2631
447.564	2673
447.635	3123
447.706	1448
447.777	1680
447.847	1907
447.918	1652
447.989	2200
448.060	2989
448.131	5128
448.202	5316
448.273	4199
448.344	2976
448.414	2066
448.485	1610
448.556	2008
448.627	2141
448.698	2559
448.768	1673
448.839	2326
448.910	3586
448.981	2703
449.051	2050
449.122	2217
449.193	1187
449.263	2186
449.334	2251
449.405	2351
449.475	4722
449.546	3449
449.616	3532
449.687	3329
449.758	2910
449.828	1805
449.899	2082
449.969	2667
450.040	1931
450.110	2379
450.181	2013
450.251	1780
450.322	2575
450.392	2564
450.463	2707
450.533	1343
450.604	1862
450.674	980
450.744	2368
450.815	1547
450.885	2534
450.955	2359
451.026	1972
451.096	1585
451.166	1729
451.237	3702
451.307	8221
451.377	4094
451.447	1935
451.518	1000
451.588	1746
451.658	2064
451.728	2970
451.799	8792
451.869	8930
451.939	2922
452.009	2087
452.079	2031
452.149	2848
452.219	2864
452.289	9581
452.360	7142
452.430	2376
452.500	2194
452.570	2981
452.640	3660
452.710	6752
452.780	10325
452.850	6528
452.920	6446
452.990	3299
453.060	2896
453.129	3188
453.199	4186
453.269	12032
453.339	20540
453.409	29090
453.479	32281
453.549	44993
453.619	45184
453.688	16492
453.758	3472
453.828	1960
453.898	2299
453.968	1928
454.037	1672
454.087	2276
454.107	2523
454.168	2566
454.177	2572
454.247	2025
454.249	2025
454.316	1976
454.330	2029
454.386	2119
454.411	3331
454.456	5308
454.492	6620
454.525	7806
454.574	4569
454.595	3189
454.655	2237
454.665	2094
454.734	2432
454.736	2484
454.804	3571
454.817	4553
454.873	8224
454.898	8587
454.943	9335
454.979	6366
455.013	3742
455.060	3013
455.082	2762
455.141	2779
455.152	2778
455.221	7738
455.222	7840
455.291	12322
455.303	12596
455.360	13217
455.384	16765
455.430	22154
455.465	17092
455.499	12709
455.546	9641
455.569	8100
455.627	5651
455.638	5267
455.707	2146
455.708	2148
455.777	1658
455.789	1794
455.846	2323
455.869	2093
455.916	1826
455.950	1756
455.985	1570
456.031	1630
456.054	1641
456.112	1428
456.124	1428
456.193	1940
456.193	1936
456.262	1883
456.274	2077
456.332	2763
456.355	2493
456.401	2031
456.436	1805
456.470	1586
456.516	1450
456.540	1387
456.597	828
456.609	715
456.678	1576
456.678	1572
456.747	1174
456.759	1141
456.817	1180
456.840	1143
456.886	1079
456.920	1518
456.955	1869
457.001	1743
457.024	1765
457.082	1804
457.093	1804
457.162	2316
457.163	2325
457.232	3026
457.243	2846
457.301	1973
457.324	1661
457.370	1188
457.405	1619
457.439	2091
457.485	1881
457.508	1746
457.566	2125
457.577	2222
457.646	2211
457.647	2218
457.715	2808
457.727	3045
457.784	3977
457.808	4367
457.853	4824
457.889	5792
457.922	6275
457.969	5202
457.991	5159
458.050	5673
458.060	5728
458.129	8019
458.130	8077
458.198	8052
458.211	7481
458.267	5228
458.292	4159
458.336	3287
458.372	3334
458.405	3759
458.453	4833
458.474	5496
458.533	8543
458.543	8844
458.611	12011
458.614	12063
458.680	8519
458.694	7233
458.749	4344
458.775	3462
458.818	2431
458.855	2482
458.887	2723
458.936	2507
458.955	2291
459.016	2141
459.024	2161
459.093	1970
459.097	1971
459.162	2163
459.177	2176
459.230	2065
459.257	2367
459.299	3021
459.338	3196
459.368	2942
459.418	2673
459.437	2562
459.499	2316
459.505	2331
459.574	2009
459.579	2003
459.643	1966
459.659	1957
459.711	2157
459.740	2573
459.780	2790
459.820	2336
459.849	2244
459.900	2387
459.917	2384
459.981	2927
459.986	2903
460.054	2048
460.061	1957
460.123	2708
460.141	2984
460.191	3064
460.222	3135
460.260	3304
460.302	3787
460.328	3836
460.382	3248
460.397	3188
460.462	3237
460.465	3367
460.534	6141
460.543	6591
460.602	14216
460.623	17254
460.671	24460
460.703	33051
460.739	30881
460.783	21951
460.808	19241
460.864	5897
460.876	4256
460.944	3022
460.945	3007
461.013	2645
461.024	2572
461.081	2511
461.104	2660
461.150	2361
461.184	1998
461.218	2093
461.264	2489
461.286	2624
461.345	2747
461.355	2746
461.423	2591
461.425	2585
461.491	1974
461.505	1938
461.559	4727
461.585	5949
461.628	7843
461.665	10027
461.696	10552
461.745	12106
461.764	10890
461.825	4084
461.832	3983
461.901	3116
461.905	3105
461.969	1650
461.985	1476
462.037	2704
462.065	3378
462.105	3446
462.145	3229
462.173	4010
462.225	5731
462.241	6149
462.305	8490
462.310	8309
462.378	4903
462.385	4375
462.446	2522
462.465	2238
462.514	2803
462.545	3013
462.582	2489
462.625	2156
462.650	2367
462.705	2706
462.718	2732
462.785	2676
462.786	2685
462.854	3491
462.865	3623
462.922	4234
462.945	4579
462.990	3946
463.025	2961
463.058	2508
463.104	2162
463.126	2267
463.184	2614
463.194	2602
463.262	2344
463.264	2335
463.330	2352
463.344	2461
463.398	2989
463.424	3056
463.466	2546
463.504	2329
463.533	2645
463.583	2816
463.601	2864
463.663	3145
463.669	3177
463.737	3663
463.743	3699
463.805	6136
463.823	6903
463.873	10252
463.903	12356
463.940	11903
463.982	11649
464.008	9635
464.062	4142
464.076	3881
464.142	2705
464.144	2686
464.211	2494
464.221	2445
464.279	2738
464.301	2955
464.347	3428
464.381	3695
464.414	3772
464.461	4020
464.482	4003
464.540	3915
464.550	3942
464.617	3910
464.620	3909
464.685	4803
464.699	4964
464.753	5440
464.779	5822
464.820	6051
464.859	6172
464.888	5748
464.938	4953
464.956	5221
465.018	6119
465.023	6063
465.091	5293
465.098	5200
465.158	4997
465.177	4991
465.226	4991
465.257	4938
465.293	4834
465.336	4695
465.361	5034
465.416	5794
465.428	6286
465.495	8932
465.496	8968
465.563	12982
465.575	13718
465.631	15221
465.654	15957
465.698	10780
465.734	5857
465.765	5278
465.813	4606
465.833	4707
465.893	5386
465.900	5345
465.968	4753
465.972	4708
466.035	4731
466.052	4772
466.102	4735
466.131	4646
466.170	4639
466.210	4721
466.237	4988
466.290	5407
466.304	5426
466.369	5482
466.372	5488
466.439	5500
466.449	5498
466.506	6368
466.528	6693
466.573	9314
466.607	11244
466.641	14063
466.687	18012
466.708	19249
466.766	22725
466.775	21184
466.842	9202
466.845	8622
466.909	6686
466.925	6265
466.977	6445
467.004	6559
467.044	7067
467.083	7569
467.111	8131
467.163	9161
467.178	9284
467.242	9757
467.245	9708
467.312	8486
467.321	8318
467.379	8269
467.400	8233
467.446	8824
467.480	9236
467.559	8094
467.638	6581
467.717	6619
467.796	8091
467.875	7460
467.955	7382
468.034	12763
468.113	21996
468.192	29267
468.271	7969
468.350	6628
468.429	7828
468.508	6827
468.588	6247
468.667	6722
468.746	6726
468.825	6077
468.904	5718
468.983	6431
469.062	9883
469.141	9766
469.220	6568
469.299	6421
469.378	5953
469.456	8228
469.535	6743
469.614	6248
469.693	6505
469.772	8033
469.851	10858
469.930	6872
470.009	6294
470.088	6097
470.166	6613
470.245	6501
470.324	7873
470.403	5811
470.482	4793
470.560	5861
470.639	5786
470.718	6878
470.797	5684
470.875	6585
470.954	8419
471.033	8823
471.111	4741
471.190	4623
471.269	4916
471.347	4838
471.426	5557
471.505	6133
471.583	6404
471.662	6352
471.740	4893
471.819	4692
471.898	5789
471.976	5054
472.055	5978
472.133	6961
472.212	8416
472.290	7909
472.369	5101
472.447	5238
472.526	4133
472.604	6680
472.683	5815
472.761	4736
472.839	4858
472.918	5093
472.996	4473
473.075	6030
473.153	5718
473.231	4450
473.310	5754
473.388	5370
473.466	6102
473.545	5957
473.623	7669
473.701	6546
473.780	6296
473.858	4355
473.936	6718
474.014	4642
474.093	6494
474.171	8801
474.249	10998
474.327	6608
474.405	4787
474.484	4068
474.562	3964
474.640	5615
474.718	5355
474.796	4343
474.874	5773
474.952	4660
475.030	4936
475.108	5067
475.187	6070
475.265	5670
475.343	8889
475.421	7699
475.499	5891
475.577	5571
475.655	7960
475.733	12103
475.811	20111
475.889	16824
475.966	10306
476.044	5155
476.122	6616
476.200	6165
476.278	5848
476.356	4123
476.434	5407
476.512	6470
476.590	7510
476.667	6356
476.745	4143
476.823	4911
476.901	4646
476.979	5139
477.056	5212
477.134	5066
477.212	5527
477.290	3681
477.367	3313
477.445	3915
477.523	3706
477.601	3375
477.678	4019
477.756	5261
477.834	5876
477.911	3310
477.989	4331
478.066	3968
478.144	5060
478.222	5641
478.299	8193
478.377	7036
478.454	5013
478.532	3450
478.609	4722
478.687	4457
478.764	3633
478.842	3385
478.919	3960
478.997	4512
479.074	3995
479.152	4431
479.229	5639
479.307	4031
479.384	3726
479.461	3814
479.539	4395
479.616	3766
479.694	4926
479.771	5645
479.848	4848
479.926	5193
480.003	7127
480.080	3769
480.157	3872
480.235	2296
480.312	4486
480.389	4487
480.467	6939
480.544	7588
480.621	5175
480.698	4344
480.775	5252
480.853	4952
480.930	4545
481.007	4543
481.084	5853
481.161	6498
481.238	5708
481.315	3499
481.392	4092
481.470	4353
481.547	3940
481.624	3196
481.701	4002
481.778	3948
481.855	3791
481.932	7870
482.009	11025
482.086	5570
482.163	4937
482.240	6259
482.317	10134
482.393	6928
482.470	3070
482.547	3722
482.624	3587
482.701	4424
482.778	3933
482.855	2844
482.932	3249
483.009	3439
483.085	4300
483.162	4056
483.239	4867
483.316	3055
483.393	3213
483.469	3769
483.546	4507
483.623	4951
483.699	3865
483.776	3514
483.853	4745
483.930	8395
484.006	18172
484.083	28876
484.160	17369
484.236	26645
484.313	18929
484.389	14279
484.466	14149
484.543	12438
484.619	13255
484.696	13335
484.772	13732
484.849	14002
484.925	11744
485.002	11774
485.078	12709
485.155	11721
485.231	11284
485.308	10829
485.384	12230
485.461	14272
485.537	19564
485.614	22335
485.690	10976
485.766	10386
485.843	11426
485.919	13484
485.995	13015
486.072	9775
486.148	9750
486.224	9696
486.301	10346
486.377	10883
486.453	9998
486.530	12190
486.606	17175
486.682	17515
486.758	19045
486.835	20408
486.911	16816
486.987	25561
487.063	23817
487.139	25469
487.215	18837
487.292	12228
487.368	12064
487.444	12537
487.520	14291
487.596	13481
487.672	18813
487.748	33466
487.824	42940
487.900	19616
487.976	12659
488.052	11390
488.128	13634
488.204	10835
488.280	10586
488.356	13270
488.432	24373
488.508	30816
488.584	11131
488.660	8357
488.736	9715
488.812	9540
488.888	12474
488.964	15114
489.039	25567
489.115	33167
489.191	19923
489.267	9766
489.343	9876
489.418	9092
489.494	8957
489.570	7116
489.646	9931
489.722	8843
489.797	9094
489.873	14255
489.949	25370
490.024	18141
490.100	8488
490.176	8647
490.251	9367
490.327	9795
490.403	7691
490.478	8024
490.554	6807
490.629	8122
490.705	6807
490.781	7592
490.856	7479
490.932	7692
491.007	7601
491.083	7104
491.158	7675
491.234	10567
491.309	19089
491.385	17461
491.460	7766
491.536	9021
491.611	6607
491.686	7736
491.762	9391
491.837	16878
491.913	26272
491.988	34140
492.063	37846
492.139	13506
492.214	10260
492.289	6052
492.365	6001
492.440	7148
492.515	7203
492.590	7016
492.666	6391
492.741	8880
492.816	11733
492.891	6839
492.967	6393
493.042	5845
493.117	6787
493.192	7035
493.267	17134
493.342	46153
493.418	53668
493.493	8338
493.568	5658
493.643	5284
493.718	7580
493.793	9723
493.868	8890
493.943	6319
494.018	5707
494.093	5347
494.168	5521
494.243	4662
494.318	5371
494.393	4722
494.468	3771
494.543	4663
494.618	6313
494.693	4557
494.768	4692
494.842	5249
494.917	4763
494.992	5155
495.067	5269
495.142	4721
495.217	5097
495.292	5207
495.366	6088
495.441	5846
495.516	8770
495.591	12822
495.665	34976
495.740	64356
495.815	22420
495.890	7316
495.964	6186
496.039	8632
496.114	6947
496.188	7947
496.263	7435
496.338	6121
496.412	7037
496.487	8753
496.561	8078
496.636	8146
496.710	7492
496.785	8225
496.860	9304
496.934	7529
497.009	7987
497.083	7214
497.158	9327
497.232	9939
497.307	11164
497.381	9389
497.455	12612
497.530	14835
497.604	12174
497.679	13493
497.753	17727
497.827	21414
497.902	18631
497.976	24909
498.050	58114
498.125	160433
498.199	134395
498.273	26332
498.348	22973
498.422	20068
498.496	18916
498.570	15756
498.645	14300
498.719	12901
498.793	14290
498.867	18613
498.941	27522
499.016	77871
499.090	156261
499.164	44980
499.238	10705
499.312	9268
499.386	10038
499.460	9319
499.534	7864
499.609	11181
499.683	13344
499.757	14577
499.831	38110
499.905	112395
499.979	86762
500.053	15742
500.127	16818
500.201	8580
500.275	7852
500.349	6606
500.422	8076
500.496	11356
500.570	25259
500.644	68682
500.718	103734
500.792	19743
500.866	8966
500.940	10540
501.013	8718
501.087	7535
501.161	12894
501.235	16548
501.309	45211
501.382	103586
501.456	75649
501.530	20970
501.603	33181
501.677	11887
501.751	5335
501.825	8585
501.898	17396
501.972	41085
502.046	21384
502.119	7117
502.193	21735
502.266	42195
502.340	19556
502.413	23623
502.487	38134
502.561	18503
502.634	7227
502.708	6028
502.781	4852
502.855	5331
502.928	4444
503.002	4755
503.075	4147
503.149	4634
503.222	4955
503.295	4923
503.369	6457
503.442	10027
503.516	36517
503.589	76913
503.662	43073
503.736	16632
503.809	35408
503.882	29520
503.956	45085
504.029	34493
504.102	20357
504.175	21856
504.249	8968
504.322	8461
504.395	6725
504.468	5049
504.542	4754
504.615	3606
504.688	4360
504.761	2367
504.834	6650
504.907	5137
504.980	8855
505.053	5143
505.127	4940
505.200	8999
505.273	6982
505.346	4086
505.419	4237
505.492	4110
505.565	3089
505.638	3694
505.711	2637
505.784	3192
505.857	3321
505.930	4469
506.003	3119
506.076	6350
506.149	5469
506.221	5082
506.294	7253
506.367	20036
506.440	56258
506.513	24342
506.586	7200
506.659	3286
506.731	3479
506.804	4111
506.877	5917
506.950	4317
507.022	4178
507.095	4235
507.168	6153
507.241	4704
507.313	2655
507.386	3154
507.459	6065
507.531	3135
507.604	3205
507.677	4222
507.749	1488
507.822	6048
507.894	9625
507.967	11872
508.040	6488
508.112	6282
508.185	5730
508.257	4439
508.330	7999
508.402	4926
508.475	5743
508.547	5943
508.620	7191
508.692	8467
508.765	6322
508.837	4795
508.909	5658
508.982	3516
509.054	5721
509.127	4573
509.199	4053
509.271	3938
509.344	4299
509.416	4510
509.488	4629
509.560	4687
509.633	4692
509.705	4914
509.777	6010
509.849	7638
509.922	5025
509.994	4887
510.066	5748
510.138	5441
510.210	13699
510.283	9355
510.355	8819
510.427	7569
510.499	7057
510.571	6287
510.643	7104
510.715	9566
510.787	6999
510.859	7906
510.931	7974
511.003	7870
511.076	8031
511.148	5407
511.219	6754
511.291	10038
511.363	10117
511.435	6329
511.507	4063
511.579	6988
511.651	7072
511.723	5193
511.795	5036
511.867	5324
511.939	7698
512.010	11855
512.082	9568
512.154	4145
512.226	5779
512.298	9734
512.369	11752
512.441	10535
512.513	9022
512.585	5698
512.656	7669
512.728	6578
512.800	6432
512.871	6852
512.943	6078
513.015	4404
513.086	6443
513.158	6476
513.230	5855
513.301	7075
513.373	8270
513.444	5733
513.516	5201
513.588	5146
513.659	5904
513.731	6210
513.802	4942
513.874	12355
513.945	15673
514.016	6381
514.088	5618
514.159	5021
514.231	8984
514.302	9929
514.374	7762
514.445	6942
514.516	15840
514.588	8777
514.659	8363
514.730	12795
514.802	10845
514.873	7491
514.944	11876
515.016	8839
515.087	7914
515.158	11425
515.229	14225
515.301	9392
515.372	13428
515.443	8812
515.514	7111
515.585	5072
515.656	6137
515.728	6147
515.799	5243
515.870	5766
515.941	5565
516.012	4215
516.083	8709
516.154	6766
516.225	9233
516.296	8608
516.367	6674
516.438	8333
516.509	8187
516.580	12519
516.651	39721
516.722	97152
516.793	39370
516.864	12453
516.935	13137
517.006	12564
517.077	16519
517.148	39107
517.219	116653
517.289	139807
517.360	63459
517.431	21962
517.502	8358
517.573	8987
517.643	8275
517.714	8050
517.785	9852
517.856	8314
517.926	10116
517.997	10807
518.068	10331
518.138	14328
518.209	22350
518.280	89932
518.350	233445
518.421	69863
518.492	13569
518.562	10899
518.633	10386
518.703	8377
518.774	18239
518.845	28363
518.915	24358
518.986	11388
519.056	11697
519.127	16929
519.197	29473
519.268	62821
519.338	35395
519.408	10396
519.479	11396
519.549	6460
519.620	7899
519.690	5953
519.760	6127
519.831	5722
519.901	5285
519.971	5242
520.042	5625
520.112	5701
520.182	8277
520.253	7071
520.323	6340
520.393	8406
520.463	13735
520.534	8326
520.604	18464
520.674	8908
520.744	8467
520.814	17475
520.885	15634
520.955	27726
521.025	74057
521.095	22474
521.165	8491
521.235	5338
521.305	5705
521.375	4908
521.445	6500
521.515	4996
521.585	7969
521.655	4989
521.725	6901
521.795	6451
521.865	3431
521.935	10044
522.005	6448
522.075	3963
522.145	6664
522.215	5318
522.285	8179
522.355	11654
522.424	20408
522.494	13234
522.564	9100
522.634	16601
522.704	36159
522.774	11350
522.843	6885
522.913	4760
522.983	5912
523.053	4070
523.122	6255
523.192	7544
523.262	20237
523.331	13995
523.401	6272
523.471	4616
523.540	5141
523.610	3119
523.680	4764
523.749	3861
523.819	6310
523.888	5327
523.958	4694
524.027	4414
524.097	5306
524.166	4040
524.236	3907
524.305	5671
524.375	3556
524.444	3432
524.514	6518
524.583	3812
524.653	4259
524.722	6959
524.791	4029
524.861	5457
524.930	3384
524.999	3738
525.069	6588
525.138	4986
525.207	6072
525.277	6311
525.346	4695
525.415	4608
525.484	5015
525.554	5513
525.623	6203
525.692	6081
525.761	5119
525.830	6672
525.900	5882
525.969	8476
526.038	12997
526.107	24135
526.176	57751
526.245	37484
526.314	18939
526.383	35651
526.452	37983
526.522	74754
526.591	58735
526.660	20587
526.729	11028
526.797	13962
526.867	34379
526.935	128859
527.004	162606
527.073	64717
527.142	9561
527.211	6867
527.280	6938
527.349	5478
527.418	3299
527.487	5024
527.555	3527
527.624	3138
527.693	2991
527.762	4624
527.831	2648
527.899	3551
527.968	3947
528.037	2180
528.106	5926
528.174	6581
528.243	7554
528.312	8830
528.380	8588
528.449	3528
528.518	4708
528.586	2167
528.655	4366
528.723	2574
528.792	2501
528.861	1804
528.929	2900
528.998	4277
529.066	3497
529.135	4156
529.203	3273
529.272	2810
529.340	5852
529.409	7027
529.477	3941
529.545	5401
529.614	7931
529.682	6805
529.751	8010
529.819	10493
529.887	6055
529.956	5175
530.024	6708
530.092	3870
530.161	7074
530.229	6523
530.297	5180
530.365	5871
530.434	5816
530.502	3931
530.570	6141
530.638	4085
530.707	5570
530.775	5884
530.843	4058
530.911	5785
530.979	5425
531.047	5368
531.115	5332
531.183	5469
531.252	5949
531.320	4061
531.388	4714
531.456	5344
531.524	4069
531.592	6424
531.660	8049
531.728	5224
531.796	4660
531.864	5650
531.932	6669
532.000	5018
532.067	5702
532.135	6288
532.203	8377
532.271	6858
532.339	11793
532.407	18912
532.475	11811
532.542	8061
532.610	9487
532.678	11393
532.746	42937
532.814	71618
532.881	17577
532.949	7922
533.017	6854
533.084	7031
533.152	6667
533.220	6730
533.287	6170
533.355	6390
533.423	6101
533.490	5335
533.558	6990
533.625	6464
533.693	6367
533.761	6453
533.828	8057
533.896	5414
533.963	11911
534.031	12645
534.098	15375
534.166	7825
534.233	6544
534.300	8810
534.368	7230
534.435	7294
534.503	6288
534.570	7419
534.637	6029
534.705	6737
534.772	6763
534.840	10202
534.907	34421
534.974	27628
535.041	7122
535.109	6836
535.176	4992
535.243	6164
535.310	5041
535.378	4518
535.445	5818
535.512	4975
535.579	5401
535.646	3663
535.714	5839
535.781	6958
535.848	6893
535.915	8489
535.982	7416
536.049	7492
536.116	8193
536.183	6106
536.250	6330
536.317	4824
536.384	5806
536.451	7550
536.518	7050
536.585	4758
536.652	9168
536.719	9075
536.786	6227
536.853	5915
536.920	9738
536.987	10887
537.053	12039
537.120	44870
537.187	27540
537.254	5522
537.321	4680
537.388	6113
537.454	4028
537.521	4226
537.588	4952
537.654	5951
537.721	6128
537.788	6592
537.855	4618
537.921	4605
537.988	5066
538.055	5485
538.121	4346
538.188	5824
538.254	7513
538.321	10128
538.388	7141
538.454	4435
538.521	5810
538.587	4321
538.654	4715
538.720	4954
538.787	5798
538.853	5170
538.920	7100
538.986	5153
539.053	4269
539.119	5518
539.185	5096
539.252	6599
539.318	7473
539.385	7894
539.451	5670
539.517	6622
539.583	8437
539.650	16131
539.716	29662
539.782	8571
539.849	5165
539.915	6153
539.981	4908
540.047	5067
540.114	5248
540.180	6953
540.246	3985
540.312	6764
540.378	10186
540.444	10900
540.510	16519
540.576	32057
540.643	9445
540.709	4201
540.775	4681
540.841	4139
540.907	8039
540.973	10984
541.039	7857
541.105	7654
541.171	5166
541.237	4235
541.303	5858
541.369	6744
541.435	7893
541.500	9953
541.566	4985
541.632	4324
541.698	4600
541.764	5133
541.830	4469
541.896	3678
541.961	5715
542.027	3958
542.093	4899
542.159	5771
542.224	5700
542.290	8975
542.356	9542
542.421	10308
542.487	7674
542.553	5812
542.618	5614
542.684	4583
542.750	5158
542.815	6077
542.881	11776
542.947	32530
543.012	18085
543.078	3932
543.143	4583
543.209	6113
543.274	4365
543.340	6397
543.405	15222
543.471	16268
543.536	5977
543.602	5593
543.667	4090
543.732	6097
543.798	4467
543.863	5463
543.928	4717
543.994	4545
544.059	5534
544.124	4544
544.190	4962
544.255	5358
544.320	5847
544.386	4415
544.451	7270
544.516	6965
544.581	7713
544.646	21747
544.712	25881
544.777	7413
544.842	6361
544.907	6960
544.972	5532
545.037	6022
545.102	6904
545.168	6041
545.233	6876
545.298	6384
545.363	7790
545.428	8303
545.493	15031
545.558	22798
545.623	9151
545.688	5991
545.753	6451
545.818	5524
545.883	6560
545.947	5543
546.012	8080
546.077	6142
546.142	7172
546.207	5915
546.272	8328
546.337	7316
546.401	7271
546.466	7536
546.531	5910
546.596	6632
546.661	7166
546.725	7321
546.790	5917
546.855	8752
546.919	6041
546.984	8057
547.049	7854
547.113	9921
547.178	8187
547.243	10834
547.307	11997
547.372	11903
547.436	12058
547.501	10217
547.565	12147
547.630	11652
547.695	11358
547.759	12667
547.823	11472
547.888	11201
547.952	10854
548.017	11608
548.081	12798
548.146	14692
548.210	13147
548.274	11693
548.339	11878
548.403	10671
548.468	10252
548.532	9625
548.596	11516
548.660	10151
548.725	12186
548.789	11871
548.853	13588
548.917	11785
548.982	14862
549.046	13157
549.110	10115
549.174	9443
549.238	10286
549.303	10686
549.367	12847
549.431	10027
549.495	10911
549.559	10505
549.623	12237
549.687	14682
549.751	16276
549.815	14821
549.879	14303
549.943	12198
550.007	16089
550.071	13728
550.135	15955
550.199	13092
550.263	13987
550.327	13932
550.391	16559
550.455	14464
550.519	14600
550.582	15948
550.646	19557
550.710	18342
550.774	16308
550.838	16084
550.901	16899
550.965	17809
551.029	18274
551.093	19960
551.156	24857
551.220	36363
551.284	32061
551.347	23595
551.411	37048
551.475	32592
551.538	18209
551.602	15450
551.666	15991
551.729	13722
551.793	14553
551.856	15392
551.920	15216
551.983	14530
552.047	14645
552.110	15125
552.174	14764
552.237	14910
552.301	14865
552.364	14334
552.428	13354
552.491	13808
552.554	14300
552.618	14126
552.681	15065
552.745	14043
552.808	18365
552.871	18596
552.934	15868
552.998	13873
553.061	15805
553.124	15014
553.187	15431
553.251	15498
553.314	17144
553.377	17802
553.440	26735
553.503	71996
553.567	83514
553.630	20376
553.693	16374
553.756	14733
553.819	14180
553.882	14718
553.945	14972
554.008	14009
554.071	14623
554.134	14130
554.197	13777
554.260	14144
554.323	15705
554.386	14585
554.449	14585
554.512	14593
554.575	14868
554.638	13708
554.701	13966
554.764	13578
554.827	13721
554.889	13841
554.952	12430
555.015	12224
555.078	11738
555.141	12728
555.203	12456
555.266	11827
555.329	12447
555.391	10602
555.454	12231
555.517	11129
555.580	10368
555.642	10324
555.705	10091
555.768	10959
555.830	11483
555.893	9825
555.955	10845
556.018	10152
556.080	10419
556.143	9953
556.206	10135
556.268	10114
556.330	10444
556.393	9738
556.455	9963
556.518	13221
556.580	11620
556.643	9002
556.705	9089
556.767	7527
556.830	9372
556.892	9687
556.955	11558
557.017	9304
557.079	8564
557.142	7996
557.204	10069
557.266	13857
557.328	10852
557.391	7780
557.453	7686
557.515	7785
557.577	9607
557.639	9452
557.701	8411
557.764	8154
557.826	8583
557.888	8432
557.950	9308
558.012	9102
558.074	12670
558.136	24524
558.198	41250
558.260	14753
558.322	9365
558.384	9955
558.446	10749
558.508	11187
558.570	14005
558.632	20036
558.694	24400
558.756	35556
558.818	110849
558.880	183820
558.942	50193
559.003	46019
559.065	18440
559.127	11570
559.189	10931
559.251	12998
559.312	19628
559.374	53584
559.436	126262
559.498	43395
559.559	13268
559.621	11426
559.683	14005
559.744	26230
559.806	73896
559.868	71925
559.929	15902
559.991	14308
560.052	21711
560.114	43652
560.176	22973
560.237	30383
560.299	34117
560.360	9911
560.422	7598
560.483	7674
560.545	7918
560.606	6979
560.667	6940
560.729	6520
560.790	6928
560.852	7594
560.913	6816
560.974	6999
561.036	6846
561.097	7333
561.158	6770
561.220	7347
561.281	7340
561.342	6873
561.403	8530
561.465	9347
561.526	18385
561.587	16179
561.648	8105
561.709	6839
561.771	7215
561.832	7562
561.893	6493
561.954	6802
562.015	6488
562.076	6647
562.137	6623
562.198	6509
562.259	7290
562.320	6010
562.381	7982
562.442	8760
562.503	7589
562.564	6880
562.625	6701
562.686	6892
562.747	8263
562.808	6658
562.869	6958
562.930	8702
562.991	8184
563.051	7213
563.112	6858
563.173	7398
563.234	7074
563.294	6460
563.355	6730
563.416	6681
563.477	6371
563.537	6196
563.598	7223
563.659	7126
563.720	6971
563.780	6453
563.841	6945
563.901	7005
563.962	7461
564.023	7020
564.083	7269
564.144	6868
564.204	6852
564.265	6400
564.325	9326
564.386	14908
564.446	12266
564.507	6771
564.567	7125
564.628	7171
564.688	7594
564.749	7418
564.809	8971
564.869	8725
564.930	7556
564.990	8200
565.050	6989
565.111	7253
565.171	7415
565.231	6069
565.292	7786
565.352	6538
565.412	7858
565.472	6938
565.532	7846
565.593	7488
565.653	7126
565.713	7041
565.773	8674
565.833	8574
565.893	8993
565.953	7872
566.013	8043
566.074	8480
566.134	11398
566.194	14476
566.254	13480
566.314	10656
566.374	8798
566.434	9332
566.494	8799
566.554	8263
566.614	10091
566.673	9266
566.733	10873
566.793	10491
566.853	11454
566.913	10925
566.973	12448
567.033	11454
567.092	11724
567.152	10211
567.212	13104
567.272	12167
567.331	13349
567.391	12554
567.451	14902
567.511	16548
567.570	15044
567.630	12755
567.690	11268
567.749	12629
567.809	12669
567.868	14596
567.928	17261
567.988	17398
568.047	21358
568.107	25521
568.166	36320
568.226	52697
568.285	66683
568.345	59883
568.404	52113
568.464	43736
568.523	40492
568.582	40906
568.642	46306
568.701	56521
568.761	80505
568.820	113498
568.879	108900
568.939	87732
568.998	68112
569.057	52942
569.116	43234
569.176	34779
569.235	29300
569.294	25746
569.353	22894
569.413	20189
569.472	17066
569.531	15236
569.590	14318
569.649	13662
569.708	13196
569.767	13918
569.827	12711
569.886	11762
569.945	10960
570.004	10746
570.063	10025
570.122	9709
570.181	10293
570.240	10532
570.299	10618
570.358	8747
570.417	8302
570.475	7728
570.534	8914
570.593	7729
570.652	9241
570.711	8356
570.770	7502
570.829	8607
570.887	8843
570.946	7395
571.005	6604
571.064	7627
571.122	7487
571.181	7727
571.240	7034
571.299	6798
571.357	7643
571.416	7406
571.475	8927
571.533	8192
571.592	7603
571.650	6963
571.709	6744
571.768	6727
571.826	6267
571.885	6194
571.943	6999
572.002	6213
572.060	6797
572.119	6383
572.177	6199
572.236	5770
572.294	5945
572.352	6569
572.411	5678
572.469	5680
572.528	6325
572.586	5690
572.644	7138
572.703	6369
572.761	5961
572.819	6374
572.877	5621
572.936	5105
572.994	5862
573.052	5313
573.110	5462
573.169	5635
573.227	6046
573.285	5765
573.343	5967
573.401	5397
573.459	6204
573.517	5316
573.576	5740
573.634	6165
573.692	5348
573.750	5922
573.808	5286
573.866	6467
573.924	7050
573.982	6605
574.040	5713
574.098	5341
574.155	4948
574.213	4933
574.271	5940
574.329	5297
574.387	5567
574.445	5664
574.503	5049
574.560	5510
574.618	5508
574.676	4804
574.734	5673
574.792	4972
574.849	5713
574.907	4052
574.965	4166
575.022	5265
575.080	4861
575.138	5100
575.195	5522
575.253	4604
575.311	5894
575.368	5596
575.426	5021
575.483	5211
575.541	5091
575.598	5124
575.656	4530
575.713	4285
575.771	5488
575.828	4754
575.886	5460
575.943	5228
576.001	6115
576.058	4395
576.115	5437
576.173	5198
576.230	7104
576.287	7493
576.345	6029
576.402	5551
576.459	5679
576.517	5540
576.574	6592
576.631	6667
576.688	5491
576.746	5528
576.803	5511
576.860	6230
576.917	5343
576.974	5523
577.031	5204
577.089	5739
577.146	5421
577.203	5047
577.260	5853
577.317	5996
577.374	7365
577.431	5500
577.488	4939
577.545	4703
577.602	6347
577.659	5490
577.716	7000
577.773	6354
577.830	6803
577.886	5937
577.943	5621
578.000	6289
578.057	6152
578.114	6752
578.171	8275
578.227	9999
578.284	9564
578.341	8705
578.398	7454
578.454	7392
578.511	6946
578.568	6432
578.625	5896
578.681	6798
578.738	5727
578.794	6141
578.851	5625
578.908	5574
578.964	6391
579.021	5752
579.077	5673
579.134	6230
579.190	5505
579.247	5499
579.303	5583
579.360	5640
579.416	5682
579.473	4774
579.529	5868
579.586	5623
579.642	6751
579.698	6805
579.755	6767
579.811	6191
579.867	6778
579.924	7099
579.980	7619
580.036	8724
580.093	10653
580.149	15060
580.205	14884
580.261	11310
580.317	9857
580.374	9338
580.430	9109
580.486	8475
580.542	7505
580.598	6624
580.619	6802
580.654	7114
580.692	6675
580.710	6459
580.765	6662
580.767	6669
580.823	8010
580.838	7753
580.879	7068
580.911	6936
580.935	6846
580.984	6606
580.991	6577
581.047	7610
581.057	7506
581.103	7050
581.130	7934
581.159	8848
581.203	8806
581.215	8798
581.270	8539
581.276	8511
581.326	8222
581.349	8304
581.382	8435
581.422	8134
581.438	8008
581.494	6870
581.494	6880
581.550	7864
581.567	7913
581.606	7953
581.640	7537
581.661	7289
581.713	7032
581.717	7016
581.773	7842
581.786	8034
581.829	8598
581.859	8067
581.885	7654
581.932	7944
581.940	7982
581.996	8055
582.004	8084
582.052	8155
582.077	8145
582.107	8203
582.150	8037
582.163	7995
582.219	8982
582.223	8983
582.274	8758
582.296	8791
582.330	9011
582.368	8925
582.386	8868
582.441	8701
582.441	8697
582.497	9702
582.514	9765
582.552	10160
582.587	10499
582.608	10612
582.659	10022
582.663	9957
582.719	10518
582.732	10268
582.774	9761
582.805	9715
582.830	9632
582.877	10288
582.885	10379
582.941	9932
582.950	10197
582.996	11839
583.023	12625
583.052	13456
583.095	13609
583.107	13675
583.162	15590
583.168	15688
583.218	15899
583.240	14890
583.273	13515
583.313	12993
583.328	12828
583.384	12602
583.385	12600
583.439	12372
583.458	12285
583.494	12119
583.531	11934
583.549	11971
583.603	12360
583.605	12363
583.660	11767
583.676	11738
583.715	11900
583.748	12374
583.770	12657
583.820	12582
583.825	12579
583.881	13145
583.893	12961
583.936	12445
583.965	12634
583.991	12667
584.038	13330
584.046	13472
584.101	13025
584.110	13134
584.156	13906
584.183	14106
584.211	14122
584.255	14115
584.266	14164
584.321	14550
584.328	14490
584.376	14343
584.400	14750
584.431	15026
584.472	15116
584.486	15191
584.541	15752
584.545	15695
584.596	14985
584.617	15141
584.651	15776
584.689	16566
584.706	16762
584.761	17815
584.762	17794
584.816	16690
584.834	17095
584.871	18094
584.906	18020
584.926	18004
584.978	18116
584.980	18141
585.035	18961
585.051	19123
585.090	19739
585.123	20315
585.145	20497
585.195	20989
585.200	21126
585.254	21742
585.267	22248
585.309	23872
585.340	24351
585.364	24557
585.412	24373
585.419	24423
585.473	26334
585.484	26566
585.528	28406
585.556	30925
585.583	35218
585.628	44619
585.637	48134
585.692	76594
585.700	80125
585.747	91410
585.772	83974
585.801	61332
585.845	37060
585.856	34643
585.910	29319
585.917	28719
585.965	28142
585.989	28017
586.019	28318
586.061	29155
586.074	29463
586.128	29567
586.133	29569
586.183	30467
586.205	30785
586.237	31028
586.277	31353
586.292	31651
586.346	31802
586.349	31829
586.401	32958
586.421	32920
586.455	33315
586.493	34809
586.509	36062
586.564	39563
586.565	39637
586.618	45573
586.637	45486
586.672	42665
586.709	40702
586.727	40550
586.781	41046
586.781	41121
586.835	42434
586.853	42599
586.889	42795
586.925	43119
586.944	43920
586.996	45363
586.998	45487
587.052	48430
587.068	48888
587.106	50455
587.140	51961
587.161	52776
587.212	54045
587.215	54276
587.269	57480
587.284	58161
587.323	60132
587.356	61613
587.377	63092
587.427	66985
587.431	67360
587.485	70926
587.499	71488
587.539	74527
587.571	77081
587.593	78788
587.643	82365
587.648	83072
587.702	89431
587.715	90836
587.755	96931
587.786	101300
587.810	104601
587.858	111153
587.864	112383
587.917	122328
587.930	124423
587.971	132713
588.001	139182
588.025	145679
588.073	157353
588.079	159494
588.133	176793
588.145	180391
588.187	197188
588.217	208946
588.241	220940
588.288	243306
588.295	247483
588.348	280526
588.360	287127
588.402	320578
588.431	344193
588.456	369892
588.503	418627
588.510	428721
588.564	506796
588.575	522825
588.617	605869
588.646	663052
588.671	725530
588.718	841861
588.725	861066
588.778	999183
588.789	1023622
588.832	1052794
588.861	1056384
588.886	978215
588.932	789724
588.939	778167
588.993	713146
589.004	710913
589.047	947670
589.075	1081690
589.100	1104826
589.147	1116539
589.154	1104620
589.207	989090
589.218	964520
589.261	913233
589.290	879894
589.314	891788
589.361	916696
589.368	929492
589.421	1022928
589.433	1039826
589.475	1037858
589.504	1016464
589.528	939878
589.576	776394
589.582	793306
589.635	978332
589.647	1008766
589.689	1012328
589.718	999893
589.742	916736
589.790	744457
589.795	731067
589.849	590675
589.861	557570
589.902	489119
589.932	436578
589.955	408267
590.004	346838
590.009	343759
590.062	301452
590.075	290297
590.115	266533
590.146	247345
590.168	237991
590.218	215112
590.222	214377
590.275	197199
590.289	192205
590.328	180845
590.360	170521
590.381	166103
590.431	154092
590.435	153918
590.488	143597
590.503	140219
590.541	135550
590.574	130768
590.594	127922
590.645	119443
590.647	119620
590.700	114374
590.716	112457
590.753	109190
590.787	105520
590.806	103882
590.859	98048
590.859	98308
590.912	94913
590.930	93418
590.965	91774
591.001	89703
591.018	89032
591.071	86019
591.072	85706
591.124	83657
591.143	82525
591.177	81173
591.214	79303
591.230	78800
591.283	76189
591.285	75825
591.336	74483
591.356	73621
591.389	72964
591.427	71591
591.442	71490
591.495	70102
591.498	69759
591.547	67663
591.569	66401
591.600	65689
591.640	64158
591.653	64504
591.706	65036
591.711	64865
591.759	63263
591.782	62109
591.811	62789
591.853	63258
591.864	62937
591.917	60061
591.924	59443
591.969	59264
591.995	58830
592.022	58495
592.066	57382
592.075	57579
592.127	57505
592.137	57303
592.180	58671
592.208	59157
592.233	57847
592.279	54750
592.285	54851
592.338	54048
592.350	53666
592.390	53152
592.421	52414
592.443	52384
592.491	51717
592.495	51879
592.548	51484
592.562	51192
592.600	50636
592.633	49807
592.653	49867
592.704	49279
592.705	49536
592.775	48089
592.846	48660
592.916	47506
592.987	47609
593.058	47862
593.128	45055
593.199	46424
593.270	44635
593.341	44364
593.411	43521
593.482	43253
593.553	44143
593.623	42420
593.694	42604
593.764	42893
593.835	43307
593.906	40703
593.976	41583
594.047	41073
594.117	43527
594.188	42704
594.258	39829
594.329	40188
594.399	40486
594.470	39920
594.540	40516
594.611	39424
594.681	39557
594.751	39211
594.822	39701
594.892	40181
594.963	40331
595.033	41310
595.103	41135
595.174	38791
595.244	44377
595.314	46622
595.384	39571
595.455	41033
595.525	40946
595.595	40686
595.665	41256
595.736	39831
595.806	41132
595.876	39795
595.946	39920
596.016	40003
596.087	40852
596.157	40852
596.227	41189
596.297	42497
596.367	43315
596.437	45134
596.507	47178
596.577	49057
596.647	45858
596.717	44416
596.787	46005
596.857	43969
596.927	44048
596.997	44274
597.067	46502
597.137	48355
597.207	46973
597.277	46907
597.347	46234
597.417	46117
597.487	45883
597.557	47167
597.626	46929
597.696	48256
597.766	48828
597.836	50781
597.906	45071
597.975	43931
598.045	44943
598.115	45648
598.185	46770
598.254	49598
598.324	52292
598.394	52313
598.464	52054
598.533	50431
598.603	49271
598.672	49403
598.742	48945
598.812	48561
598.881	51007
598.951	51000
599.020	50074
599.090	52217
599.159	52592
599.229	51991
599.299	51475
599.368	52590
599.437	52021
599.507	50979
599.576	51284
599.646	52525
599.715	53061
599.785	51689
599.854	50296
599.924	52409
599.993	50488
600.062	52321
600.132	53498
600.201	54021
600.270	58998
600.340	61252
600.409	58876
600.478	60197
600.547	61363
600.617	59692
600.686	55726
600.755	54341
600.824	53332
600.894	54016
600.963	54782
601.032	55764
601.101	55918
601.170	56798
601.239	56322
601.308	57459
601.378	59315
601.447	58740
601.516	59967
601.585	61525
601.654	63571
601.723	63439
601.792	65927
601.861	68240
601.930	73159
601.999	72827
602.068	71399
602.137	72850
602.206	73615
602.275	72210
602.343	73830
602.412	73268
602.481	73429
602.550	72664
602.619	75328
602.688	74570
602.756	76494
602.825	74863
602.894	76565
602.963	75918
603.032	76944
603.100	77314
603.169	75639
603.238	78512
603.307	75148
603.375	77161
603.444	78176
603.513	73038
603.581	76019
603.650	80927
603.719	68208
603.787	63883
603.856	65514
603.924	65993
603.993	67559
604.061	69218
604.130	71016
604.198	72163
604.267	73560
604.335	74193
604.404	75951
604.472	75592
604.541	76055
604.609	79057
604.678	81107
604.746	82836
604.815	86294
604.883	82632
604.951	81370
605.020	83204
605.088	77230
605.156	73977
605.225	73650
605.293	72588
605.361	73837
605.429	71635
605.498	75018
605.566	73068
605.634	76875
605.702	76462
605.771	77462
605.839	78863
605.907	73730
605.975	77394
606.043	72962
606.111	70836
606.180	79341
606.248	73305
606.316	73705
606.384	76499
606.452	65096
606.520	55458
606.588	53670
606.656	52189
606.724	50892
606.792	49146
606.860	45782
606.928	42967
606.996	41972
607.064	41985
607.132	41834
607.200	43892
607.267	45010
607.335	46534
607.403	47332
607.471	44048
607.539	45159
607.607	45484
607.674	40749
607.742	40259
607.810	41049
607.878	40630
607.946	41719
608.013	41717
608.081	43519
608.149	43149
608.216	44334
608.284	45488
608.352	44253
608.419	43815
608.487	47304
608.555	42555
608.622	44573
608.690	44254
608.757	47999
608.825	48354
608.893	47780
608.960	46532
609.028	46159
609.095	47798
609.163	43395
609.230	40798
609.298	39747
609.365	39447
609.432	43062
609.500	44994
609.567	51511
609.635	57490
609.702	58665
609.769	56433
609.837	47348
609.904	41917
609.971	43220
610.039	49256
610.106	62436
610.173	106092
610.241	219920
610.308	200465
610.375	107616
610.442	54505
610.509	45657
610.577	43680
610.644	43271
610.711	44077
610.778	45045
610.845	45374
610.912	48278
610.980	52489
611.047	57984
611.114	51174
611.181	47797
611.248	47490
611.315	49380
611.382	48308
611.449	50469
611.516	51754
611.583	51577
611.650	51440
611.717	52594
611.784	52079
611.851	55216
611.918	58531
611.984	66354
612.051	88948
612.118	168548
612.185	379966
612.252	258629
612.319	81439
612.386	66381
612.452	60080
612.519	59618
612.586	61270
612.653	58162
612.719	59362
612.786	56696
612.853	52915
612.919	52919
612.986	53218
613.053	49877
613.120	47679
613.186	46528
613.253	49460
613.319	47614
613.386	47349
613.453	49163
613.519	50408
613.586	50079
613.652	56312
613.719	52141
613.785	51441
613.852	50917
613.918	47893
613.985	52133
614.051	57669
614.118	72498
614.184	68426
614.250	50818
614.317	50371
614.383	49431
614.449	49426
614.516	50044
614.582	49082
614.648	48690
614.715	49455
614.781	47387
614.847	48259
614.914	48889
614.980	47720
615.046	47862
615.112	50527
615.179	49603
615.245	53446
615.311	59841
615.377	78096
615.443	83990
615.509	63886
615.575	57971
615.642	54037
615.708	56137
615.774	58727
615.840	64071
615.906	73928
615.972	99159
616.038	166059
616.104	268192
616.170	491681
616.236	421513
616.302	121817
616.368	83778
616.434	67265
616.500	63381
616.565	64704
616.631	71989
616.697	65480
616.763	65978
616.829	82861
616.895	125596
616.961	125529
617.026	72615
617.092	55821
617.158	53641
617.224	51826
617.289	49698
617.355	48761
617.421	47960
617.487	48344
617.552	46142
617.618	45554
617.684	46520
617.749	47797
617.815	45005
617.880	43192
617.946	45078
618.012	45378
618.077	46888
618.143	44245
618.208	45812
618.274	49692
618.339	47950
618.405	41383
618.470	44242
618.536	43039
618.601	43844
618.667	42011
618.732	41329
618.798	39834
618.863	40248
618.928	38764
618.994	41065
619.059	42270
619.124	44714
619.190	41167
619.255	39513
619.320	39246
619.386	39235
619.451	39147
619.516	38454
619.581	39871
619.647	40920
619.712	41056
619.777	40477
619.842	40241
619.907	40938
619.972	39613
620.038	39699
620.103	38871
620.168	38904
620.233	39988
620.298	39929
620.363	40725
620.428	40943
620.493	41758
620.558	41438
620.623	42452
620.688	43211
620.753	41904
620.818	41874
620.883	42618
620.948	42580
621.013	43306
621.078	42557
621.143	41368
621.207	44396
621.272	42635
621.337	42696
621.402	44900
621.467	44968
621.532	45665
621.596	44527
621.661	42787
621.726	42126
621.791	42049
621.855	43427
621.920	43627
621.985	44075
622.049	46107
622.114	44957
622.179	45020
622.243	46822
622.308	45241
622.373	48602
622.437	46992
622.502	45327
622.566	44936
622.631	43826
622.695	45764
622.760	45594
622.824	45684
622.889	45053
622.953	47405
623.018	53757
623.082	52067
623.147	46379
623.211	46290
623.276	46810
623.340	44173
623.404	42808
623.469	44730
623.533	44518
623.597	42365
623.662	43311
623.726	41764
623.790	40400
623.854	39524
623.919	41062
623.983	40322
624.047	41044
624.111	40289
624.176	41500
624.240	40834
624.304	43113
624.368	40069
624.432	40421
624.496	40854
624.560	42600
624.625	42453
624.689	42121
624.753	41888
624.817	40170
624.881	39438
624.945	38503
625.009	38069
625.073	39179
625.137	38538
625.201	42619
625.265	41581
625.329	39066
625.393	39966
625.456	38578
625.520	39273
625.584	40172
625.648	42664
625.712	48676
625.776	66697
625.839	68595
625.903	42167
625.967	35285
626.031	43838
626.095	52189
626.158	36600
626.222	30269
626.286	30419
626.349	29759
626.413	27879
626.477	30717
626.540	28829
626.604	29366
626.668	29172
626.731	28256
626.795	28003
626.858	27999
626.922	26605
626.986	27998
627.049	26084
627.113	27909
627.176	27623
627.240	25977
627.303	25665
627.366	25752
627.430	25735
627.493	25786
627.557	23925
627.620	28109
627.684	25834
627.747	25981
627.810	23040
627.874	24028
627.937	21756
628.000	25499
628.064	22603
628.127	19469
628.190	21117
628.253	21511
628.317	20941
628.380	20629
628.443	19943
628.506	20270
628.569	19761
628.632	18989
628.696	19668
628.759	18907
628.822	17796
628.885	18611
628.948	18517
629.011	17598
629.074	17574
629.137	17412
629.200	16981
629.263	18338
629.326	16575
629.389	18011
629.452	16811
629.515	17073
629.578	16054
629.641	17906
629.704	17174
629.767	18026
629.830	16940
629.892	16847
629.955	16476
630.018	18528
630.081	16716
630.144	18720
630.207	14943
630.269	17707
630.332	16280
630.395	16124
630.458	16125
630.520	14871
630.583	16463
630.646	16240
630.708	14281
630.771	13488
630.834	15893
630.896	15516
630.959	14305
631.021	14329
631.084	14301
631.146	14820
631.209	15754
631.272	14457
631.334	14446
631.397	14970
631.459	14203
631.522	15388
631.584	13611
631.646	15801
631.709	14452
631.771	16837
631.834	15668
631.896	15761
631.958	13379
632.021	14991
632.083	12812
632.145	14155
632.208	13323
632.270	14767
632.332	12893
632.395	12770
632.457	14757
632.519	13487
632.581	14725
632.643	12732
632.706	13366
632.768	12794
632.830	13932
632.892	14186
632.954	13689
633.016	14458
633.078	13116
633.141	12864
633.203	12863
633.265	14341
633.327	13542
633.389	12975
633.451	14243
633.513	15428
633.575	14990
633.637	14195
633.698	13902
633.760	13823
633.822	13174
633.884	14306
633.946	13417
634.008	13507
634.070	14343
634.132	16949
634.193	15068
634.255	14670
634.317	14007
634.379	15352
634.441	13246
634.502	13667
634.564	13899
634.626	13399
634.687	12820
634.749	12832
634.811	13144
634.873	12204
634.934	12267
634.996	13014
635.057	11656
635.119	11917
635.181	12539
635.242	13338
635.304	10934
635.365	14987
635.427	11587
635.488	13226
635.550	12213
635.611	13023
635.673	10110
635.734	14488
635.796	12666
635.857	13900
635.918	12929
635.980	14895
636.041	12539
636.102	14499
636.164	13259
636.225	14876
636.286	11245
636.348	13538
636.409	12082
636.470	11634
636.531	12917
636.593	12868
636.654	12431
636.715	11832
636.776	10567
636.838	10350
636.899	11716
636.960	11936
637.021	9800
637.082	10869
637.143	11791
637.204	10224
637.265	10277
637.326	11523
637.387	11971
637.448	9514
637.509	10534
637.570	11367
637.631	11868
637.692	10515
637.753	9076
637.814	11287
637.875	10033
637.936	10884
637.997	10035
638.058	11529
638.119	11119
638.179	11589
638.240	10390
638.301	10715
638.362	10160
638.423	10061
638.483	11273
638.544	9522
638.605	10738
638.666	9556
638.726	10673
638.787	10443
638.848	10409
638.908	9716
638.969	10694
639.030	10211
639.090	8907
639.151	9947
639.211	10594
639.272	11662
639.332	13926
639.393	11120
639.453	9527
639.514	10194
639.574	10447
639.635	9240
639.695	9045
639.756	8659
639.816	9870
639.877	11490
639.937	13001
639.997	14909
640.058	9117
640.118	8985
640.178	10017
640.239	8551
640.299	9171
640.359	9308
640.420	9987
640.480	10121
640.540	9371
640.600	9435
640.661	10031
640.721	10312
640.781	12631
640.841	9852
640.901	10631
640.961	10137
641.021	9925
641.082	10222
641.142	11268
641.202	10667
641.262	7494
641.322	9579
641.382	7787
641.442	9694
641.502	8436
641.562	8878
641.622	8578
641.682	9329
641.742	8870
641.802	10466
641.861	9449
641.921	9184
641.981	9990
642.041	9107
642.101	9658
642.161	8253
642.221	7877
642.280	8580
642.340	8839
642.400	7465
642.460	9863
642.519	8990
642.579	8768
642.639	9601
642.698	6610
642.758	11164
642.818	9151
642.877	8445
642.937	9532
642.997	9867
643.056	11716
643.116	8498
643.175	9802
643.235	8324
643.294	9586
643.354	9788
643.414	9830
643.473	11087
643.532	10784
643.592	12488
643.651	19884
643.711	32078
643.770	59797
643.830	137521
643.889	277871
643.948	66918
644.008	16948
644.067	12308
644.126	9166
644.186	9319
644.245	9040
644.304	7826
644.363	10429
644.423	6494
644.482	9089
644.541	8964
644.600	5990
644.659	10240
644.719	9620
644.778	12177
644.837	18622
644.896	33808
644.955	68537
645.014	26168
645.073	11865
645.132	9191
645.191	8591
645.250	7119
645.309	9747
645.368	8841
645.427	10304
645.486	11653
645.545	17632
645.604	8848
645.663	8728
645.722	8030
645.781	8377
645.840	8731
645.898	10454
645.957	13877
646.016	16198
646.075	29463
646.134	53884
646.192	139580
646.251	193776
646.310	31936
646.369	12457
646.427	10946
646.486	8695
646.545	8554
646.603	8652
646.662	7932
646.721	7551
646.779	6582
646.838	6597
646.896	7992
646.955	9041
647.014	12244
647.072	19035
647.131	44211
647.189	22876
647.248	7558
647.306	7447
647.365	6945
647.423	5251
647.481	8024
647.540	5567
647.598	7184
647.657	6519
647.715	7142
647.773	5427
647.832	8057
647.890	4904
647.948	5577
648.007	7567
648.065	4940
648.123	5435
648.181	8433
648.240	8949
648.298	7039
648.356	6679
648.414	7028
648.472	6256
648.531	6443
648.589	5346
648.647	6161
648.705	5185
648.763	6225
648.821	5410
648.879	5909
648.937	6741
648.995	6783
649.053	6849
649.111	10598
649.169	13516
649.227	22282
649.285	43940
649.343	117822
649.401	56840
649.459	17628
649.516	13103
649.574	9398
649.632	16840
649.690	19683
649.748	11529
649.806	13978
649.863	21876
649.921	33111
649.979	21976
650.037	7679
650.094	3969
650.152	5770
650.210	5794
650.268	5725
650.325	6634
650.383	6379
650.440	5211
650.498	5749
650.556	5700
650.613	4808
650.671	5354
650.728	5614
650.786	5091
650.843	5456
650.901	3738
650.958	5304
651.016	4439
651.073	5338
651.131	4399
651.188	3580
651.246	4830
651.303	4305
651.360	5362
651.418	3808
651.475	4471
651.532	3754
651.590	3820
651.647	3617
651.704	4296
651.762	4853
651.819	4625
651.876	4295
651.933	3799
651.990	5062
652.048	3417
652.105	4408
652.162	4110
652.219	3685
652.276	4157
652.333	4428
652.390	2897
652.448	5297
652.505	4366
652.562	4918
652.619	4488
652.676	7756
652.733	7520
652.790	4568
652.847	2830
652.904	3996
652.961	2880
653.017	3791
653.074	4024
653.131	3721
653.188	2398
653.245	3517
653.302	3246
653.359	2921
653.415	4444
653.472	3752
653.529	4293
653.586	2642
653.642	3756
653.699	3856
653.756	2948
653.813	3275
653.869	3897
653.926	2952
653.983	3424
654.039	4296
654.096	3272
654.152	4798
654.209	2452
654.266	3683
654.322	2488
654.379	4301
654.435	4487
654.492	4255
654.548	4927
654.605	6329
654.661	4155
654.717	3768
654.774	3518
654.830	3577
654.887	3656
654.943	3401
655.000	4306
655.056	5201
655.112	3823
655.168	2666
655.225	3527
655.281	4639
655.337	3968
655.394	4896
655.450	5002
655.506	4583
655.562	5874
655.618	6315
655.675	3736
655.731	3795
655.787	2970
655.843	3934
655.899	2422
655.955	4041
656.011	2951
656.067	3265
656.123	3610
656.179	3547
656.235	4276
656.291	2987
656.347	3948
656.403	3498
656.459	3068
656.515	3890
656.571	4334
656.627	3397
656.683	3721
656.739	4397
656.795	4026
656.850	3391
656.906	3415
656.962	4293
657.018	2789
657.074	3966
657.129	3549
657.185	5261
657.241	6463
657.297	4307
657.352	3459
657.408	2774
657.464	2847
657.519	3283
657.575	3119
657.630	3178
657.686	3463
657.742	3350
657.797	3316
657.853	3409
657.908	3405
657.964	2173
658.019	3285
658.075	3672
658.130	4272
658.186	2401
658.241	4370
658.297	3329
658.352	3468
658.407	3558
658.463	2587
658.518	3790
658.573	3278
658.629	2429
658.684	2852
658.739	3048
658.795	1323
658.850	3527
658.905	2300
658.960	3105
659.016	2308
659.071	3284
659.126	3555
659.181	3963
659.236	4990
659.291	6063
659.346	3213
659.401	4608
659.457	4664
659.512	5363
659.567	4429
659.622	3786
659.677	3288
659.732	3028
659.787	3578
659.842	3282
659.897	3150
659.952	3726
660.007	2974
660.061	3693
660.116	3148
660.171	3244
660.226	2649
660.281	4400
660.336	2512
660.391	3721
660.445	2662
660.500	3752
660.555	3168
660.610	2784
660.664	3247
660.719	1972
660.774	3193
660.828	3516
660.883	3221
660.938	3339
660.992	2026
661.047	3182
661.101	3006
661.156	2520
661.211	2348
661.265	3523
661.320	2112
661.374	2220
661.429	2858
661.483	3232
661.538	1938
661.592	2244
661.647	3350
661.701	3596
661.755	2787
661.810	3538
661.864	2637
661.919	3004
661.973	3151
662.027	2965
662.081	2603
662.136	2920
662.190	2778
662.244	2891
662.299	3387
662.353	3646
662.407	2464
662.461	2061
662.515	2752
662.569	3126
662.624	3873
662.678	2952
662.732	3246
662.786	2614
662.840	3146
662.894	2258
662.948	2143
663.002	3234
663.056	2225
663.110	2675
663.164	3083
663.218	2632
663.272	3155
663.326	2475
663.380	2491
663.434	2824
663.488	2491
663.542	3604
663.595	2931
663.649	2162
663.703	2824
663.757	3294
663.811	1920
663.864	2980
663.918	3068
663.972	2099
664.026	1988
664.079	2728
664.133	2383
664.187	2386
664.240	1885
664.294	2976
664.348	3121
664.401	2487
664.455	1806
664.508	2294
664.562	2177
664.615	2913
664.669	2156
664.722	3377
664.776	2553
664.829	2957
664.883	2730
664.936	2719
664.990	1992
665.043	3342
665.097	2076
665.150	3315
665.203	2828
665.257	3146
665.310	2314
665.363	3108
665.417	2843
665.470	3907
665.523	2399
665.576	2534
665.630	2320
665.683	2421
665.736	2252
665.789	2617
665.842	2766
665.895	3492
665.949	2578
666.002	2503
666.055	2321
666.108	3670
666.161	3021
666.214	2708
666.267	2591
666.320	3625
666.373	3046
666.426	3712
666.479	2065
666.532	3086
666.585	3231
666.638	3453
666.691	2583
666.744	3653
666.796	2419
666.849	3614
666.902	4212
666.955	2933
667.008	2319
667.060	2296
667.113	2293
667.166	2429
667.219	2277
667.271	1884
667.324	2248
667.377	3875
667.430	3067
667.482	4442
667.535	2502
667.587	3313
667.640	2218
667.693	3194
667.745	4319
667.798	4374
667.850	2843
667.903	2266
667.955	2640
668.008	2775
668.060	2715
668.113	3396
668.165	3047
668.218	3194
668.270	3104
668.322	2990
668.375	3191
668.427	2735
668.479	2669
668.532	3242
668.584	2469
668.636	2828
668.689	2521
668.741	2760
668.793	2430
668.845	3108
668.898	3518
668.950	2872
669.002	2253
669.054	2633
669.106	2528
669.158	3750
669.211	3479
669.263	3398
669.315	3376
669.367	4447
669.419	2478
669.471	4623
669.523	3453
669.575	4725
669.627	3359
669.679	3693
669.731	3282
669.783	4025
669.835	3119
669.886	2965
669.938	3682
669.990	3539
670.042	3362
670.094	4598
670.146	4657
670.197	5555
670.249	7956
670.301	7959
670.353	10678
670.404	14914
670.456	20686
670.508	31936
670.560	51706
670.611	85449
670.663	148534
670.715	305675
670.766	406568
670.818	166182
670.869	41031
670.921	21142
670.972	13322
671.024	9443
671.075	7835
671.127	6580
671.178	5367
671.230	5412
671.281	4666
671.333	4739
671.384	3450
671.436	4246
671.487	5611
671.538	4934
671.590	5903
671.641	8140
671.692	10446
671.744	17205
671.795	13526
671.846	7245
671.897	4463
671.949	4246
672.000	3808
672.051	3322
672.102	3238
672.153	2996
672.204	2713
672.256	3652
672.307	3108
672.358	3091
672.409	2836
672.460	2994
672.511	1762
672.562	2890
672.613	1848
672.664	2482
672.715	2659
672.766	2499
672.817	2178
672.868	2560
672.919	2332
672.970	2381
673.021	1752
673.071	2378
673.122	2423
673.173	3429
673.224	2290
673.275	2132
673.326	1677
673.376	2218
673.427	1478
673.478	942
673.528	2224
673.579	2610
673.630	1859
673.680	3228
673.731	1988
673.782	2626
673.832	2133
673.883	2255
673.934	1884
673.984	1359
674.035	1243
674.085	2517
674.136	2162
674.186	3162
674.237	1758
674.287	2841
674.338	2348
674.388	2355
674.438	1874
674.489	2704
674.539	1906
674.589	2083
674.640	2152
674.690	2276
674.740	1725
674.791	1836
674.841	2238
674.891	2147
674.942	1535
674.992	1523
675.042	1670
675.092	1408
675.142	1056
675.193	1557
675.243	1189
675.293	2169
675.343	1643
675.393	1971
675.443	1402
675.493	1611
675.543	1693
675.593	2022
675.643	1507
675.693	2241
675.743	1784
675.793	1878
675.843	940
675.893	2298
675.943	1490
675.993	1956
676.043	1835
676.093	1531
676.142	1331
676.192	2011
676.242	1911
676.292	1133
676.341	1655
676.391	2015
676.441	852
676.491	1160
676.540	1877
676.590	1904
676.640	968
676.689	1496
676.739	722
676.789	1804
676.838	1030
676.888	1879
676.937	899
676.987	2080
677.037	1940
677.086	1178
677.136	2307
677.185	985
677.235	825
677.284	1922
677.333	1318
677.383	1492
677.432	188
677.482	806
677.531	1795
677.580	1111
677.630	1522
677.679	1342
677.728	1010
677.778	1269
677.827	1702
677.876	1570
677.925	1266
677.975	1109
678.024	1013
678.073	1598
678.122	1213
678.171	1443
678.220	2043
678.269	2043
678.319	1505
678.368	1809
678.417	1717
678.466	1639
678.515	1278
678.564	2090
678.613	753
678.662	1007
678.711	1234
678.760	765
678.809	1199
678.857	1003
678.906	1140
678.955	1500
679.004	1553
679.053	1789
679.102	687
679.151	1546
679.199	842
679.248	1688
679.297	1051
679.346	1332
679.394	132
679.443	810
679.492	438
679.540	864
679.589	921
679.638	1443
679.686	672
679.735	1139
679.784	768
679.832	1092
679.881	656
679.929	2063
679.978	211
680.026	337
680.075	1372
680.123	541
680.172	421
680.220	1359
680.268	1455
680.317	1031
680.365	1347
680.414	-92
680.462	922
680.510	927
680.559	284
680.607	950
680.655	811
680.703	1765
680.752	576
680.800	1054
680.848	201
680.896	564
680.945	593
680.993	1085
681.041	1063
681.089	943
681.137	725
681.185	1432
681.233	1186
681.258	1162
681.281	1123
681.329	701
681.377	1898
681.380	1898
681.425	1606
681.473	1139
681.502	1154
681.521	1122
681.569	903
681.617	777
681.624	820
681.665	996
681.713	1307
681.745	1385
681.761	1384
681.809	1014
681.857	2485
681.867	2068
681.904	545
681.952	2115
681.989	1689
682.000	1547
682.048	998
682.096	1465
682.111	1399
682.143	1184
682.191	1747
682.233	2479
682.239	2575
682.286	1233
682.334	1851
682.354	1337
682.382	594
682.430	1760
682.476	1723
682.477	1707
682.525	1636
682.572	946
682.598	1637
682.620	2217
682.667	1727
682.715	2186
682.720	2147
682.763	1605
682.810	2093
682.841	2184
682.857	2200
682.905	2040
682.952	2771
682.963	2623
683.000	2073
683.047	2260
683.085	2656
683.095	2745
683.142	2149
683.190	2454
683.206	2209
683.237	1709
683.284	3013
683.328	2387
683.332	2320
683.379	2750
683.426	1709
683.449	1755
683.473	1815
683.521	2184
683.568	2956
683.571	2963
683.615	2783
683.662	2851
683.693	2820
683.709	2803
683.757	2800
683.804	2606
683.814	2635
683.851	2681
683.898	2344
683.936	2705
683.945	2775
683.992	3325
684.039	2840
684.057	2933
684.086	3083
684.133	2731
684.179	2612
684.180	2599
684.227	3640
684.274	3157
684.300	3414
684.321	3490
684.368	2962
684.415	3248
684.422	3114
684.462	2417
684.509	3207
684.543	3411
684.556	3460
684.603	3641
684.649	2837
684.665	3141
684.696	3694
684.743	3028
684.786	3579
684.790	3621
684.837	2830
684.883	3748
684.908	3677
684.930	3592
684.977	3579
685.023	3253
685.029	3275
685.070	3332
685.117	3869
685.150	3807
685.164	3836
685.210	3178
685.257	4776
685.272	4730
685.303	4330
685.350	3394
685.393	3035
685.396	3027
685.443	4028
685.490	4556
685.514	4448
685.536	4249
685.583	3978
685.629	3989
685.636	3944
685.675	3681
685.722	3936
685.757	3964
685.768	3977
685.815	4794
685.861	4886
685.878	4854
685.908	4806
685.954	4614
686.000	4995
686.000	4995
686.047	4222
686.093	4501
686.121	4646
686.139	4740
686.185	4751
686.232	5035
686.242	4872
686.278	4210
686.324	4379
686.363	4041
686.370	4011
686.416	4694
686.463	4902
686.484	4753
686.509	4543
686.555	5442
686.601	4334
686.606	4434
686.647	5223
686.693	4631
686.727	4773
686.739	4838
686.785	4537
686.831	4830
686.848	4973
686.877	5231
686.923	4103
686.969	4697
686.969	4700
687.015	4818
687.061	4976
687.090	5152
687.107	5167
687.153	5140
687.199	4810
687.211	4770
687.245	4792
687.291	5151
687.332	5223
687.336	5224
687.382	5220
687.428	5035
687.453	5106
687.474	5190
687.520	5242
687.565	5169
687.574	5116
687.611	4964
687.657	5180
687.695	5021
687.702	5047
687.748	6438
687.794	7247
687.816	7321
687.839	6937
687.885	6069
687.931	5236
687.937	5182
687.976	5242
688.022	5748
688.058	5549
688.067	5509
688.113	5748
688.158	5734
688.179	5602
688.204	5452
688.249	5615
688.295	5452
688.300	5465
688.340	5724
688.386	6031
688.421	5571
688.431	5375
688.477	5527
688.522	5200
688.542	5432
688.567	5975
688.613	5583
688.658	6172
688.663	6146
688.703	5899
688.749	5870
688.784	6418
688.794	6542
688.839	6146
688.884	6631
688.905	6501
688.930	6293
688.975	6203
689.020	6162
689.026	6152
689.065	6374
689.110	6244
689.146	6702
689.155	6784
689.201	6555
689.246	6400
689.267	6380
689.291	6425
689.336	6379
689.381	6216
689.388	6235
689.426	6268
689.471	6374
689.509	6549
689.516	6606
689.561	6194
689.606	6092
689.630	6327
689.651	6521
689.696	6087
689.741	6156
689.750	6133
689.785	6308
689.830	6705
689.871	6626
689.875	6602
689.920	6704
689.965	6873
689.992	6690
690.010	6621
690.054	6911
690.099	7342
690.112	7232
690.144	6857
690.189	7042
690.233	6104
690.233	6111
690.278	6644
690.323	7114
690.354	7163
690.367	7122
690.412	6979
690.457	7124
690.474	7101
690.501	7211
690.546	7489
690.590	7801
690.595	7785
690.635	8053
690.680	8743
690.716	9059
690.724	9246
690.769	10609
690.813	12372
690.836	12477
690.857	13392
690.902	16790
690.946	20013
690.957	20835
690.991	28078
691.035	38830
691.077	48830
691.080	48808
691.124	42729
691.168	37400
691.198	34260
691.213	31661
691.257	24513
691.301	17309
691.318	14532
691.346	13463
691.390	11138
691.434	9869
691.439	9637
691.478	9162
691.522	9115
691.559	8692
691.567	8681
691.611	8925
691.655	8522
691.680	8597
691.699	8559
691.743	8263
691.787	8246
691.800	8052
691.831	7884
691.875	7879
691.919	8267
691.921	8259
691.964	8448
692.008	8071
692.041	8098
692.052	8136
692.096	8439
692.139	8386
692.162	8351
692.183	8305
692.227	8282
692.271	8191
692.282	8152
692.315	8113
692.359	8148
692.402	8426
692.403	8445
692.447	8283
692.490	8395
692.523	8625
692.534	8706
692.578	8780
692.622	8269
692.643	8379
692.666	8449
692.709	8308
692.753	8156
692.763	8086
692.797	8189
692.840	8409
692.884	8546
692.884	8566
692.928	8904
692.971	8974
693.004	9135
693.015	9198
693.059	9208
693.102	9372
693.124	9363
693.146	9455
693.189	9912
693.233	9849
693.245	9950
693.276	10472
693.320	11032
693.363	11133
693.365	11130
693.407	12197
693.450	13372
693.485	14161
693.493	14656
693.537	17313
693.580	19694
693.605	21251
693.624	24567
693.667	32182
693.710	40143
693.725	43012
693.753	57057
693.797	80338
693.840	102536
693.845	104735
693.883	94904
693.926	82529
693.966	72616
693.970	71031
694.013	53366
694.056	36036
694.086	23834
694.099	22734
694.142	19329
694.185	16015
694.206	14510
694.229	14139
694.272	13269
694.315	12131
694.326	11913
694.358	11793
694.401	11413
694.444	10794
694.446	10763
694.487	10814
694.530	10361
694.566	10217
694.573	10231
694.616	9864
694.659	9647
694.686	9459
694.702	9385
694.745	9205
694.787	9062
694.806	8921
694.830	9039
694.873	9299
694.916	9467
694.926	9513
694.959	9447
695.002	9481
695.044	9215
695.046	9181
695.087	9195
695.130	9190
695.166	9369
695.172	9439
695.215	9640
695.258	9862
695.286	9751
695.301	9716
695.343	10046
695.386	10071
695.406	10123
695.428	9966
695.471	9577
695.514	9168
695.526	8980
695.556	9310
695.599	10057
695.641	10748
695.646	10778
695.684	10393
695.726	9940
695.766	9660
695.769	9699
695.811	9667
695.854	9815
695.886	9918
695.896	9898
695.938	9638
695.981	9237
696.005	9174
696.023	9461
696.065	9828
696.108	10345
696.125	10511
696.150	10543
696.192	10512
696.235	10557
696.245	10525
696.277	10386
696.319	10092
696.361	10081
696.365	10029
696.404	10237
696.446	10532
696.485	10708
696.488	10715
696.530	10623
696.572	10372
696.604	10155
696.614	10173
696.656	10192
696.698	10205
696.724	10206
696.740	10220
696.783	10131
696.825	10085
696.844	10017
696.867	10074
696.909	10058
696.951	10133
696.964	10146
696.992	10238
697.034	10135
697.076	10202
697.083	10182
697.118	10345
697.160	10485
697.202	10630
697.203	10605
697.244	10413
697.286	10164
697.323	9899
697.327	9931
697.369	10006
697.411	10059
697.442	10066
697.453	10129
697.494	10317
697.536	10427
697.562	10486
697.578	10534
697.620	10637
697.661	10689
697.682	10670
697.703	10740
697.744	10849
697.786	11087
697.801	11059
697.828	11073
697.869	11188
697.911	11239
697.921	11224
697.952	11172
697.994	11114
698.035	11014
698.040	10974
698.077	11034
698.118	10986
698.160	11001
698.160	10970
698.201	10917
698.243	10780
698.279	10664
698.284	10707
698.325	10815
698.367	10943
698.399	10945
698.408	10961
698.449	10987
698.491	10956
698.518	10906
698.532	10961
698.573	11054
698.614	11134
698.638	11156
698.656	11293
698.697	11539
698.738	11773
698.757	11851
698.779	11677
698.820	11280
698.862	10888
698.877	10715
698.903	11137
698.944	11750
698.985	12370
698.996	12508
699.026	12251
699.067	11850
699.116	11340
699.235	11910
699.354	10686
699.474	11309
699.593	11801
699.713	10682
699.832	11161
699.951	11311
700.070	11014
700.190	11667
700.309	11913
700.428	11101
700.547	11604
700.667	10794
700.786	11157
700.905	10976
701.024	11048
701.143	10313
701.262	9868
701.381	10084
701.500	10726
701.619	11064
701.738	10503
701.857	9763
701.976	9650
702.095	10406
702.214	11038
702.333	10359
702.452	10343
702.571	11041
702.690	10707
702.809	10001
702.928	10119
703.047	10808
703.165	10522
703.284	10630
703.403	10097
703.522	10773
703.640	10611
703.759	10921
703.878	12259
703.997	9849
704.115	9494
704.234	9879
704.353	9696
704.471	10024
704.590	8903
704.708	9334
704.827	9692
704.946	9722
705.064	9224
705.183	9380
705.301	10851
705.420	13243
705.538	11923
705.656	12292
705.775	12542
705.893	18544
706.012	21770
706.130	12514
706.249	11930
706.367	11597
706.485	12127
706.604	11301
706.722	11394
706.840	12445
706.958	14810
707.077	12791
707.195	10041
707.313	10411
707.431	10691
707.549	9912
707.668	9379
707.786	10987
707.904	10506
708.022	10512
708.140	10002
708.258	9768
708.376	10740
708.494	10848
708.612	10741
708.730	12583
708.848	11781
708.966	12536
709.084	12406
709.202	12316
709.320	11592
709.438	11711
709.556	11418
709.674	11738
709.791	11091
709.909	11154
710.027	11891
710.145	11612
710.263	11731
710.380	9305
710.498	10607
710.616	11678
710.733	10766
710.851	11613
710.969	11549
711.086	10451
711.204	11212
711.322	10194
711.439	10716
711.557	10878
711.674	10296
711.792	10152
711.909	11537
712.027	10938
712.144	10843
712.262	11037
712.379	10931
712.497	13717
712.614	13644
712.732	12916
712.849	11842
712.966	12701
713.084	13032
713.201	11644
713.318	12268
713.436	11447
713.553	11822
713.670	12752
713.787	12706
713.905	12306
714.022	11406
714.139	11853
714.256	12655
714.373	14365
714.490	18718
714.608	34667
714.725	126046
714.842	125293
714.959	16458
715.076	12279
715.193	10738
715.310	12332
715.427	10416
715.544	10126
715.661	10733
715.778	9745
715.895	11590
716.011	11512
716.128	10377
716.245	11021
716.362	11574
716.479	11157
716.596	10913
716.713	10716
716.829	9824
716.946	10592
717.063	9688
717.180	9257
717.296	10178
717.413	10530
717.530	10638
717.646	9138
717.763	10206
717.880	8791
717.996	9796
718.113	9501
718.229	9922
718.346	9238
718.462	8729
718.579	10356
718.695	11915
718.812	11434
718.928	10915
719.045	9877
719.161	9899
719.277	9155
719.394	9484
719.510	9930
719.626	8949
719.743	10648
719.859	11147
719.975	15031
720.092	38326
720.208	76197
720.324	15823
720.440	10150
720.557	9701
720.673	12052
720.789	13494
720.905	19923
721.021	11003
721.137	8387
721.253	8916
721.369	8564
721.486	8650
721.602	11219
721.718	8708
721.834	7851
721.950	9390
722.066	7824
722.181	8265
722.297	8875
722.413	8344
722.529	8287
722.645	9263
722.761	8549
722.877	8037
722.993	7401
723.108	8521
723.224	8394
723.340	8477
723.456	8195
723.571	8232
723.687	7834
723.803	7484
723.918	7756
724.034	8546
724.150	8208
724.265	7527
724.381	11120
724.497	11330
724.612	7129
724.728	7069
724.843	7872
724.959	8341
725.074	10587
725.190	10869
725.305	7900
725.421	7249
725.536	7409
725.651	6731
725.767	7346
725.882	7433
725.997	6409
726.113	7367
726.228	6728
726.343	6916
726.459	7177
726.574	7559
726.689	6893
726.804	6410
726.920	7333
727.035	7103
727.150	7631
727.265	7500
727.380	7857
727.495	7529
727.610	6649
727.725	7004
727.841	7502
727.956	12781
728.071	10963
728.186	6298
728.301	6888
728.416	7467
728.531	7441
728.645	6752
728.760	7758
728.875	6630
728.990	6659
729.105	6390
729.220	7086
729.335	6960
729.449	6803
729.564	5775
729.679	6884
729.794	5988
729.908	7235
730.023	7177
730.138	6588
730.253	6532
730.367	6468
730.482	7731
730.596	6020
730.711	7579
730.826	8176
730.940	6877
731.055	6862
731.169	6451
731.284	5982
731.398	6054
731.513	6818
731.627	6051
731.742	7119
731.856	7032
731.970	7432
732.085	6726
732.199	8031
732.313	9666
732.428	17381
732.542	40252
732.656	24053
732.771	8968
732.885	7162
732.999	6974
733.113	6901
733.227	6692
733.342	6526
733.456	6300
733.570	6922
733.684	6752
733.798	6930
733.912	6099
734.026	6310
734.140	7048
734.254	7070
734.368	7709
734.482	8444
734.596	7166
734.710	7230
734.824	6545
734.938	6242
735.052	6708
735.166	7272
735.280	6622
735.393	6447
735.507	6328
735.621	7164
735.735	8653
735.849	6909
735.962	6714
736.076	6511
736.190	6255
736.303	7481
736.417	7986
736.531	6613
736.644	7051
736.758	5632
736.872	6132
736.985	5115
737.099	6315
737.212	6036
737.326	6112
737.439	6551
737.553	5561
737.666	6780
737.780	5787
737.893	6062
738.007	5723
738.120	6409
738.233	5927
738.347	6670
738.460	6333
738.573	6201
738.687	5635
738.800	6618
738.913	6636
739.026	6005
739.140	6785
739.253	6181
739.366	5662
739.479	5273
739.592	5494
739.705	6329
739.818	6100
739.932	5019
740.045	6392
740.158	5869
740.271	6039
740.384	5992
740.497	5026
740.610	5359
740.723	5176
740.836	6012
740.949	6255
741.062	5465
741.174	6030
741.287	4670
741.400	5624
741.513	5853
741.626	5930
741.739	6342
741.851	6034
741.964	5725
742.077	5366
742.189	6106
742.302	6056
742.415	5376
742.527	5876
742.640	5812
742.753	5691
742.865	5263
742.978	5818
743.090	5827
743.203	5353
743.316	6463
743.428	5537
743.541	5224
743.653	5423
743.766	5400
743.878	6182
743.990	6064
744.103	5861
744.215	5727
744.327	6168
744.440	6226
744.552	7173
744.664	5803
744.777	6158
744.889	4791
745.001	5515
745.113	5729
745.226	5566
745.338	5302
745.450	5581
745.562	5795
745.674	5271
745.786	5194
745.898	6359
746.010	5584
746.122	5637
746.234	5866
746.347	6169
746.459	6120
746.570	5558
746.682	6410
746.794	5821
746.906	5478
747.018	5183
747.130	5706
747.242	5831
747.354	5323
747.466	5127
747.577	5912
747.689	5652
747.801	6156
747.913	5321
748.024	4832
748.136	4958
748.248	6764
748.359	6335
748.471	5618
748.583	5438
748.694	6006
748.806	6938
748.918	5642
749.029	6251
749.141	5584
749.252	5822
749.364	5625
749.475	6884
749.587	6494
749.698	5460
749.809	6433
749.921	5148
750.032	5940
750.144	5514
750.255	5482
750.366	5298
750.478	5679
750.589	5727
750.700	5316
750.811	6528
750.923	5681
751.034	7261
751.145	8438
751.256	5349
751.367	5365
751.479	5672
751.590	5927
751.701	5643
751.812	5463
751.923	5983
752.034	5633
752.145	4824
752.256	5758
752.367	5425
752.478	5413
752.589	5756
752.700	5647
752.811	5861
752.922	5350
753.032	5604
753.143	6311
753.254	5642
753.365	6221
753.476	5378
753.586	5797
753.697	6755
753.808	5703
753.919	6069
754.029	5187
754.140	5343
754.251	5992
754.361	6275
754.472	6231
754.582	5860
754.693	6684
754.804	6003
754.914	6652
755.025	6307
755.135	6313
755.246	6317
755.356	5425
755.466	6546
755.577	7053
755.687	6127
755.798	6510
755.908	6198
756.018	6354
756.129	5683
756.239	6862
756.349	6097
756.460	6961
756.570	6785
756.680	7240
756.790	6101
756.900	8213
757.011	6683
757.121	6772
757.231	7229
757.341	6511
757.451	6162
757.561	6875
757.671	6648
757.781	6403
757.891	7596
758.001	6771
758.111	7665
758.221	7839
758.331	7664
758.441	7774
758.551	7270
758.661	8085
758.771	8174
758.880	7453
758.990	8186
759.100	8488
759.210	8581
759.320	8891
759.429	8744
759.539	9276
759.649	9015
759.758	9021
759.868	9215
759.978	9761
760.087	9990
760.197	10154
760.307	9836
760.416	9350
760.526	9215
760.635	10734
760.745	9390
760.854	10620
760.964	10670
761.073	11498
761.182	11133
761.292	12028
761.401	11602
761.511	11547
761.620	11753
761.729	12216
761.839	12339
761.948	13358
762.057	13409
762.166	13552
762.276	13160
762.385	15599
762.494	15454
762.603	15354
762.712	16002
762.822	16009
762.931	16436
763.040	17329
763.149	17623
763.258	19018
763.367	19615
763.476	21025
763.585	20786
763.694	22957
763.803	23237
763.912	25173
764.021	26796
764.130	28137
764.238	30865
764.347	32086
764.456	33782
764.565	36832
764.674	40183
764.783	44867
764.891	48871
765.000	56619
765.109	63018
765.217	71784
765.326	84301
765.435	101042
765.543	121617
765.652	152101
765.761	196753
765.869	262569
765.978	362353
766.086	508605
766.195	707085
766.303	828618
766.412	618160
766.520	703083
766.629	808223
766.737	622497
766.846	436808
766.954	311296
767.062	233494
767.171	179374
767.279	142184
767.387	115295
767.496	96200
767.604	83336
767.712	73979
767.820	65779
767.928	59700
768.037	55027
768.145	51986
768.253	52045
768.361	49569
768.469	49327
768.577	50115
768.685	53162
768.793	54892
768.901	60061
769.009	72476
769.117	87690
769.225	112540
769.333	155372
769.441	229586
769.549	361563
769.657	586781
769.765	738114
769.873	621081
769.981	703705
770.088	502375
770.196	315434
770.304	212075
770.412	153849
770.519	117144
770.627	94552
770.735	77047
770.842	65140
770.950	56931
771.058	49966
771.165	45242
771.273	39439
771.380	36121
771.488	32743
771.595	30696
771.703	28923
771.810	27237
771.918	24468
772.025	24016
772.133	21911
772.240	20421
772.348	19771
772.455	20148
772.562	18116
772.670	17447
772.777	17285
772.884	16377
772.991	16176
773.099	15761
773.206	14189
773.313	14734
773.420	14564
773.528	12457
773.635	12665
773.742	12938
773.849	12210
773.956	11338
774.063	12305
774.170	10385
774.277	11791
774.384	10030
774.491	10883
774.598	10192
774.705	10270
774.812	10664
774.919	10176
775.026	9845
775.133	9722
775.239	9824
775.346	8956
775.453	8649
775.560	8663
775.667	9081
775.773	8214
775.880	9417
775.987	8590
776.093	8597
776.200	7538
776.307	7398
776.413	8304
776.520	7206
776.627	7710
776.733	7468
776.840	5959
776.946	8546
777.053	7255
777.159	7726
777.266	5621
777.372	8306
777.478	7319
777.585	6825
777.691	7036
777.798	7162
777.904	7510
778.010	7990
778.117	7196
778.223	5945
778.329	6684
778.435	6396
778.542	6300
778.648	5631
778.754	5882
778.860	5761
778.966	5699
779.072	5815
779.178	6142
779.284	6641
779.391	6520
779.497	6564
779.603	12140
779.708	18072
779.815	44006
779.920	153581
780.026	196039
780.132	31428
780.238	11138
780.344	8813
780.450	8155
780.556	6400
780.661	5963
780.767	5481
780.873	5642
780.979	5520
781.085	4583
781.190	4500
781.296	4691
781.402	4740
781.507	3792
781.613	4661
781.719	3048
781.824	5305
781.930	5946
782.035	4981
782.141	4361
782.246	3770
782.352	3802
782.457	4433
782.563	4596
782.668	4263
782.773	3918
782.879	3441
782.984	4747
783.090	4973
783.195	4833
783.300	4060
783.405	4493
783.511	3151
783.616	3758
783.721	3720
783.826	4123
783.932	4187
784.037	3989
784.142	3888
784.247	3672
784.352	3980
784.457	3393
784.562	3477
784.667	3828
784.772	3579
784.877	3261
784.982	3426
785.087	3576
785.192	4242
785.297	3355
785.402	3590
785.507	4179
785.611	3154
785.716	3987
785.821	4083
785.926	3233
786.031	4002
786.135	2877
786.240	3894
786.345	2428
786.450	3020
786.554	3748
786.659	2566
786.763	1796
786.868	4092
786.973	3621
787.077	2851
787.182	4125
787.286	3229
787.391	3380
787.495	3084
787.600	3154
787.704	2555
787.809	3248
787.913	2640
788.017	3044
788.122	3491
788.226	3064
788.330	2108
788.435	2689
788.539	3826
788.643	2281
788.747	3634
788.852	2715
788.956	2447
789.060	3345
789.164	2615
789.268	2856
789.372	2464
789.476	2670
789.580	2835
789.684	2952
789.788	3084
789.892	2132
789.996	3072
790.100	3015
790.204	2777
790.308	2054
790.412	1786
790.516	3171
790.620	2183
790.724	3339
790.828	1563
790.931	2616
791.035	3740
791.139	2810
791.242	2115
791.346	3842
791.450	2339
791.554	3016
791.657	1724
791.761	2940
791.864	3268
791.968	2683
792.072	2945
792.175	2418
792.279	2937
792.382	3128
792.486	2708
792.589	2283
792.693	2826
792.796	2213
792.899	3298
793.003	2818
793.106	1397
793.209	1884
793.313	3048
793.416	1152
793.519	3424
793.623	2787
793.726	2932
793.829	2808
793.932	2367
794.035	1810
794.138	3853
794.242	4012
794.345	6410
794.448	10041
794.551	24459
794.654	89296
794.757	125269
794.860	19601
794.963	5765
795.066	3480
795.169	4004
795.272	2913
795.375	2781
795.477	2371
795.580	2435
795.683	1570
795.786	2109
795.889	1808
795.991	3045
796.094	3229
796.197	943
796.300	2531
796.402	106
796.505	2358
796.608	2513
796.710	3977
796.813	1256
796.915	1423
797.018	1385
797.120	2727
797.223	592
797.326	3546
797.428	1262
797.530	1697
797.633	2736
797.735	2902
797.838	1299
797.940	3162
798.042	1411
798.145	1824
798.247	1912
798.349	177
798.452	2608
798.554	2411
798.656	736
798.758	1962
798.860	1007
798.962	1874
799.065	1063
799.167	1657
799.269	2639
799.371	2060
799.473	2150
799.575	1694
799.677	1454
799.779	3338
799.881	1501
799.983	3175
800.085	1819
800.187	2405
800.289	268
800.390	1100
800.492	1999
800.594	3149
800.696	957
800.798	1784
800.899	1286
801.001	1207
801.103	1465
801.205	883
801.306	1576
801.408	943
801.509	1514
801.611	1460
801.713	1862
801.814	1012
801.916	957
802.017	1633
802.119	1076
802.220	1296
802.322	-566
802.423	3035
802.525	530
802.626	1166
802.727	1663
802.829	2302
802.930	-658
803.031	3728
803.133	654
803.234	1301
803.335	1184
803.436	592
803.538	1252
803.639	895
803.740	2564
803.841	1357
803.942	930
804.043	2015
804.144	158
804.245	1460
804.346	1141
804.447	1212
804.548	1724
804.649	2940
804.750	1587
804.851	1697
804.952	371
805.053	1339
805.154	-311
805.255	1682
805.355	1495
805.456	1432
805.557	1089
805.658	203
805.758	1176
805.859	1180
805.960	977
806.061	900
806.161	308
806.262	2340
806.362	414
806.463	1021
806.564	1769
806.664	1193
806.765	1599
806.865	2360
806.966	802
807.066	1312
807.166	1766
807.267	2041
807.367	391
807.468	1600
807.568	-393
807.668	2136
807.769	2820
807.869	979
807.969	1015
808.069	1890
808.170	1279
808.270	1039
808.370	2011
808.470	2006
808.570	619
808.670	504
808.770	1400
808.870	920
808.970	1097
809.070	1138
809.170	382
809.271	1252
809.370	1039
809.470	1510
809.570	1274
809.670	567
809.770	975
809.870	1624
809.970	1569
810.070	1071
810.169	1552
810.269	-111
810.369	1823
810.469	1939
810.568	382
810.668	334
810.768	923
810.867	1424
810.967	711
811.066	2182
811.166	580
811.265	2221
811.365	927
811.464	430
811.564	938
811.663	2297
811.763	99
811.862	1847
811.962	1104
812.061	901
812.160	167
812.260	1319
812.359	2037
812.458	1789
812.557	4641
812.657	5538
812.756	1756
812.855	1348
812.954	879
813.053	1939
813.153	486
813.252	980
813.351	1377
813.450	1371
813.549	588
813.648	1433
813.747	776
813.846	1613
813.945	228
814.044	1390
814.143	1552
814.242	2209
814.341	267
814.439	1270
814.538	869
814.637	1609
814.736	1413
814.835	2056
814.933	372
815.032	1140
815.131	1610
815.229	1778
815.328	2267
815.427	1028
815.525	2495
815.624	2322
815.722	451
815.821	2589
815.919	1700
816.018	724
816.116	2370
816.215	1359
816.313	1784
816.412	1354
816.510	1938
816.609	3511
816.707	2599
816.805	2283
816.904	1824
817.002	2136
817.100	3260
817.198	4008
817.296	3267
817.395	3257
817.493	4996
817.591	4731
817.689	7000
817.787	9152
817.885	15094
817.983	26939
818.081	54681
818.179	125008
818.277	260446
818.375	206004
818.473	72339
818.571	29697
818.669	20356
818.767	16626
818.865	17182
818.963	20624
819.061	29554
819.158	48586
819.256	100340
819.354	210355
819.452	346096
819.549	229478
819.647	93627
819.745	42883
819.842	25260
819.940	17147
820.038	11648
820.135	9670
820.233	8958
820.330	6019
820.428	5008
820.525	5246
820.623	5250
820.720	3986
820.818	3045
820.915	2842
821.012	3646
821.110	1259
821.207	2841
821.304	2057
821.402	2433
821.499	2392
821.596	2773
821.693	1787
821.791	2295
821.888	2230
821.985	3357
822.082	1621
822.179	2438
822.276	1503
822.373	2170
822.470	1850
822.567	1571
822.664	1535
822.761	1616
822.858	567
822.955	1290
823.052	1339
823.149	945
823.246	1039
823.343	990
823.440	1588
823.536	1071
823.633	864
823.730	1353
823.827	969
823.923	302
824.020	2204
824.117	433
824.213	643
824.310	1527
824.407	1459
824.503	1252
824.600	1321
824.696	779
824.793	1252
824.889	633
824.986	1165
825.082	72
825.179	1286
825.275	1523
825.371	-28
825.468	1560
825.564	-418
825.660	683
825.757	683
825.853	2326
825.949	-341
826.045	915
826.142	52
826.238	1189
826.334	1902
826.430	-396
826.526	975
826.622	272
826.718	309
826.814	1179
826.910	2053
827.006	311
827.102	147
827.198	2277
827.294	502
827.390	435
827.486	1557
827.582	-763
827.678	-700
827.774	1498
827.869	-462
827.965	1343
828.061	-581
828.157	705
828.252	359
828.348	-307
828.444	1240
828.539	-275
828.635	333
828.731	1891
828.826	742
828.922	1031
829.017	662
829.113	1269
829.208	615
829.304	-179
829.399	1628
829.495	629
829.590	1315
829.685	410
829.781	1480
829.876	236
829.971	696
830.066	310
830.162	408
830.257	198
830.352	389
830.447	1131
830.543	1750
830.638	-761
830.733	843
830.828	340
830.923	1252
831.018	1011
831.113	658
831.208	268
831.303	403
831.398	648
831.493	-288
831.588	813
831.683	-327
831.778	845
831.873	288
831.967	796
832.062	77
832.157	-505
832.252	579
832.346	-23
832.441	474
832.536	454
832.631	2087
832.725	1337
832.820	-221
832.914	707
833.009	66
833.104	279
833.198	831
833.293	-481
833.387	1085
833.482	457
833.576	439
833.670	1261
833.765	18
833.859	-352
833.954	1218
834.048	558
834.142	763
834.237	30
834.331	600
834.425	-419
834.519	-340
834.613	1566
834.708	111
834.802	584
834.896	-332
834.990	465
835.084	416
835.178	-131
835.272	965
835.366	-114
835.460	401
835.554	929
835.648	-21
835.742	-563
835.836	482
835.930	-96
836.024	366
836.117	595
836.211	-318
836.305	437
836.399	1429
836.493	-171
836.586	1693
836.680	-561
836.774	-1015
836.867	1585
836.961	-13
837.055	-453
837.148	133
837.242	-478
837.335	219
837.429	1035
837.522	-361
837.616	217
837.709	1492
837.803	-545
837.896	110
837.989	-200
838.083	1088
838.176	418
838.269	479
838.363	-348
838.456	251
838.549	1026
838.642	631
838.735	2657
838.829	1505
838.922	69
839.015	1503
839.108	-437
839.201	1145
839.294	216
839.387	1315
839.480	-849
839.573	786
839.666	255
839.759	100
839.852	63
839.945	438
840.038	481
840.131	408
840.223	465
840.316	402
840.409	-325
840.502	-416
840.594	846
840.687	194
840.780	403
840.873	-36
840.965	69
841.058	305
841.150	893
841.243	-85
841.336	-202
841.428	91
841.521	-681
841.613	-173
841.706	-75
841.798	54
841.890	116
841.983	-984
842.075	704
842.167	346
842.260	258
842.352	920
842.444	232
842.537	880
842.629	1229
842.721	882
842.813	-12
842.905	-163
842.997	484
843.090	433
843.182	512
843.274	1103
843.366	2018
843.458	4155
843.550	2955
843.642	-46
843.734	-225
843.826	-684
843.918	194
844.009	374
844.101	-625
844.193	-309
844.285	-367
844.377	-387
844.469	241
844.560	209
844.652	-414
844.744	419
844.835	-233
844.927	301
845.019	99
845.110	90
845.202	-1104
845.293	-386
845.385	-1156
845.476	-30
845.568	563
845.659	-1099
845.751	109
845.842	72
845.934	49
846.025	-476
846.116	-158
846.208	-390
846.299	-632
846.390	41
846.482	553
846.573	-227
846.664	-82
846.755	353
846.846	1685
846.937	-386
847.029	-747
847.120	-234
847.211	-284
847.302	656
847.393	-835
847.484	261
847.575	-138
847.666	-174
847.757	-966
847.847	110
847.938	-229
848.029	-260
848.120	-675
848.211	638
848.302	-357
848.392	-774
848.483	124
848.574	184
848.664	-746
848.755	381
848.846	753
848.936	-819
849.027	-291
849.118	94
849.208	-731
849.299	76
849.389	-32
849.480	746
849.570	2259
849.661	3824
849.751	5028
849.841	1995
849.932	-98
850.022	251
850.112	-348
850.203	530
850.293	-354
850.383	546
850.474	-673
850.564	476
850.654	-47
850.744	-84
850.834	-710
850.924	-56
851.014	41
851.104	504
851.194	-631
851.284	-372
851.374	295
851.464	120
851.554	276
851.644	-259
851.734	773
851.824	2079
851.914	2849
852.004	6256
852.094	2846
852.183	729
852.273	868
852.363	-11
852.452	-412
852.542	-537
852.632	-478
852.721	120
852.811	-1983
852.901	-136
852.990	98
853.080	509
853.169	370
853.259	40
853.348	-1060
853.438	-232
853.527	-33
853.617	657
853.706	1854
853.795	1740
853.885	5867
853.974	11296
854.063	20170
854.152	32881
854.242	10499
854.331	1138
854.420	-386
854.509	770
854.598	-488
854.687	9
854.777	133
854.866	125
854.955	-279
855.044	85
855.133	251
855.222	-487
855.311	-214
855.400	227
855.488	-448
855.577	-1136
855.666	-707
855.755	142
855.844	-239
855.933	-641
856.021	-315
856.110	319
856.199	-70
856.288	-927
856.376	-304
856.465	-1362
856.554	-319
856.642	-802
856.731	56
856.819	322
856.908	-1223
856.996	-405
857.085	-77
857.173	-29
857.262	-386
857.350	-213
857.438	-192
857.527	161
857.615	-653
857.703	259
857.792	-348
857.880	159
857.968	76
858.056	21
858.145	-530
858.233	-329
858.321	60
858.409	-133
858.497	-1049
858.585	-703
858.673	-661
858.761	-1190
858.849	-954
858.937	-816
859.025	92
859.113	157
859.201	-1484
859.289	-219
859.377	-780
859.465	-144
859.552	-213
859.640	-622
859.728	14
859.816	-451
859.903	-26
859.991	-650
860.079	-664
860.166	-510
860.254	-480
860.342	-818
860.429	-691
860.517	-356
860.604	-19
860.692	-332
860.779	-690
860.867	-22
860.954	-471
861.042	686
861.129	-339
861.216	82
861.304	-832
861.391	-581
861.478	-165
861.565	-155
861.653	-109
861.740	-453
861.827	-431
861.914	273
862.001	-500
862.089	-421
862.176	325
862.263	-441
862.350	-36
862.437	-71
862.524	-588
862.611	-142
862.698	-917
862.785	-420
862.871	-314
862.958	-873
863.045	-130
863.132	-198
863.219	-127
863.306	-1345
863.392	-396
863.479	-362
863.566	-473
863.652	-19
863.739	-973
863.826	-425
863.912	-470
863.999	-857
864.086	-365
864.172	-74
864.259	-508
864.345	-575
864.432	-204
864.518	-587
864.604	51
864.691	-783
864.777	-341
864.863	237
864.950	-213
865.036	-569
865.122	337
865.209	328
865.295	-493
865.381	-100
865.467	459
865.553	756
865.639	-360
865.726	945
865.812	2552
865.898	5417
865.984	7597
866.070	14935
866.156	16732
866.242	3129
866.328	587
866.414	564
866.499	547
866.585	294
866.671	-43
866.757	815
866.843	-63
866.928	-265
867.014	-229
867.100	-124
867.186	129
867.271	-78
867.357	288
867.442	274
867.528	-543
867.614	-931
867.699	149
867.785	162
867.870	229
867.956	576
868.041	-402
868.127	-23
868.212	19
868.297	-81
868.383	323
868.468	474
868.553	184
868.639	1313
868.724	1330
868.809	1837
868.894	369
868.979	-244
869.065	389
869.150	-72
869.235	421
869.320	-214
869.405	-294
869.490	-126
869.575	370
869.660	120
869.745	-241
869.830	-522
869.915	-873
870.000	-493
870.085	-38
870.169	-714
870.254	549
870.339	-576
870.424	-1272
870.509	-1007
870.593	-547
870.678	-28
870.763	-585
870.847	-505
870.932	-675
871.016	-674
871.101	368
871.186	-356
871.270	-169
871.355	-996
871.439	-59
871.523	-63
871.608	-404
871.692	-55
871.777	398
871.861	-131
871.945	-845
872.030	230
872.114	-359
872.198	-949
872.282	-323
872.367	-321
872.451	-1096
872.535	-147
872.619	-645
872.703	73
872.787	-1214
872.871	-786
872.955	-430
873.039	-330
873.123	-710
873.207	443
873.291	-1354
873.375	-907
873.459	-597
873.543	-837
873.627	-1078
873.711	-650
873.794	-441
873.878	-967
873.962	-1179
874.045	-191
874.129	-714
874.137	-742
874.213	-1017
874.245	-943
874.296	-827
874.352	-918
874.380	-962
874.460	-745
874.464	-738
874.547	-753
874.568	-694
874.631	-504
874.676	-467
874.714	-446
874.784	-603
874.798	-625
874.881	934
874.892	771
874.965	-423
874.999	-619
875.048	-857
875.107	-639
875.131	-565
875.215	-683
875.215	-683
875.298	-568
875.323	-767
875.381	-1130
875.430	-793
875.465	-584
875.538	-259
875.548	-215
875.631	-886
875.646	-857
875.714	-754
875.753	-726
875.798	-692
875.861	-456
875.881	-352
875.964	-558
875.968	-570
876.047	-934
876.076	-689
876.130	-183
876.183	-333
876.213	-416
876.291	-180
876.296	-170
876.379	-335
876.398	-536
876.462	-1109
876.506	-914
876.545	-799
876.613	-638
876.628	-573
876.711	-212
876.721	-267
876.794	-831
876.828	-814
876.877	-718
876.935	-384
876.960	-258
877.043	-149
877.043	-151
877.125	-643
877.150	-533
877.208	-331
877.258	-853
877.291	-1182
877.365	-302
877.374	-207
877.456	-296
877.472	-289
877.539	-228
877.579	-197
877.622	-163
877.687	-374
877.704	-427
877.787	-472
877.794	-453
877.869	-229
877.901	-236
877.952	-243
878.008	-171
878.034	-152
878.115	-571
878.117	-577
878.199	-365
878.222	-320
878.282	-229
878.329	85
878.364	356
878.437	-309
878.447	-418
878.529	-535
878.544	-498
878.611	-405
878.651	-531
878.694	-410
878.758	-96
878.776	-117
878.858	72
878.865	34
878.941	-287
878.972	-222
879.023	-242
879.078	-608
879.105	-605
879.185	-72
879.187	-67
879.269	-92
879.292	-312
879.351	-669
879.399	-420
879.433	-468
879.506	-464
879.516	-437
879.598	-480
879.613	-526
879.680	-535
879.720	-621
879.762	-659
879.827	-290
879.844	-244
879.926	-372
879.933	-405
880.007	-714
880.040	-652
880.089	-504
880.147	-597
880.171	-645
880.253	-468
880.254	-466
880.335	25
880.360	-110
880.417	-137
880.467	550
880.499	947
880.574	1199
880.580	1191
880.662	60
880.680	-64
880.744	-361
880.787	-185
880.825	-146
880.893	-328
880.907	-320
880.989	-637
881.000	-635
881.070	-461
881.106	-146
881.152	232
881.213	119
881.233	43
881.315	442
881.319	431
881.396	331
881.426	270
881.478	36
881.532	-53
881.559	-61
881.639	-252
881.641	-253
881.722	-90
881.745	-62
881.803	132
881.852	43
881.885	-301
881.958	-441
881.966	-405
882.047	-29
882.064	-87
882.129	-142
882.171	15
882.210	192
882.277	710
882.291	652
882.372	-392
882.383	-487
882.454	-336
882.489	-382
882.535	-397
882.596	-49
882.616	-99
882.697	-642
882.702	-645
882.778	-115
882.808	-194
882.859	-678
882.914	-752
882.940	-495
883.020	-221
883.021	-221
883.102	-72
883.127	-260
883.183	-464
883.233	-148
883.264	-34
883.339	-50
883.345	-52
883.426	-369
883.445	-420
883.507	-423
883.551	-444
883.587	-627
883.657	-727
883.668	-614
883.749	197
883.763	306
883.830	232
883.869	160
883.910	43
883.975	-314
883.991	-403
884.072	-513
884.081	-558
884.152	-222
884.187	138
884.233	77
884.292	-434
884.314	-363
884.394	373
884.398	400
884.475	180
884.504	30
884.555	83
884.610	254
884.636	125
884.716	-403
884.716	-400
884.797	-89
884.821	-20
884.877	-72
884.927	-138
884.958	-274
885.033	-662
885.038	-646
885.118	-174
885.139	-103
885.199	-215
885.244	-105
885.279	62
885.350	89
885.359	56
885.439	-191
885.456	-294
885.520	-516
885.561	-496
885.600	-317
885.667	13
885.680	-5
885.760	-230
885.773	-282
885.840	-59
885.878	104
885.920	-73
885.984	-339
886.000	-342
886.080	-486
886.089	-472
886.160	-480
886.195	-632
886.240	-434
886.300	-133
886.320	-155
886.400	-30
886.406	-33
886.480	-168
886.511	-190
886.560	-31
886.616	-141
886.640	-195
886.720	11
886.722	7
886.800	-211
886.827	-216
886.879	-121
886.932	-175
886.959	-59
887.038	369
887.039	373
887.119	305
887.143	231
887.198	126
887.248	174
887.278	421
887.354	695
887.358	666
887.437	174
887.459	36
887.517	262
887.564	356
887.596	335
887.669	328
887.676	292
887.755	37
887.774	-117
887.835	110
887.880	398
887.914	320
887.985	67
887.994	85
888.073	221
888.090	244
888.153	115
888.195	20
888.232	-183
888.300	-471
888.311	-444
888.391	-372
888.405	-343
888.470	-669
888.510	-937
888.549	-338
888.615	775
888.628	759
888.708	626
888.720	586
888.787	-34
888.825	-334
888.866	-183
888.930	12
888.945	114
889.024	608
889.035	679
889.103	-102
889.140	-542
889.182	-96
889.245	594
889.261	524
889.340	166
889.349	121
889.419	137
889.454	159
889.498	270
889.559	426
889.577	434
889.656	463
889.664	468
889.735	287
889.768	201
889.814	239
889.873	294
889.978	471
890.083	471
890.187	-110
890.292	-285
890.397	532
890.501	1078
890.606	241
890.710	1104
890.815	1131
890.919	789
891.024	347
891.128	583
891.233	233
891.337	213
891.442	783
891.546	-174
891.650	84
891.755	-122
891.859	977
891.963	-91
892.068	1059
892.172	479
892.276	597
892.380	210
892.484	-401
892.589	815
892.693	-350
892.797	-115
892.901	521
893.005	523
893.109	-644
893.213	-5
893.317	824
893.421	603
893.525	-603
893.629	163
893.733	541
893.837	532
893.941	174
894.045	488
894.148	166
894.252	1128
894.356	398
894.460	-671
894.564	-59
894.667	-366
894.771	-193
894.875	-289
894.978	199
895.082	-61
895.186	465
895.289	640
895.393	924
895.496	865
895.600	110
895.703	138
895.807	-333
895.910	88
896.014	283
896.117	-354
896.221	-194
896.324	-138
896.427	-185
896.531	537
896.634	9
896.737	578
896.840	-652
896.944	-653
897.047	853
897.150	153
897.253	-472
897.356	-141
897.460	-25
897.563	658
897.666	-92
897.769	753
897.872	373
897.975	-579
898.078	-317
898.181	391
898.284	-302
898.387	-96
898.490	147
898.593	-34
898.695	-290
898.798	352
898.901	-74
899.004	450
899.107	-238
899.209	223
899.312	92
899.415	44
899.518	126
899.620	-313
899.723	87
899.826	877
899.928	642
900.031	-295
900.133	-708
900.236	-162
900.338	-127
900.441	-45
900.543	98
900.646	-44
900.748	-69
900.851	-155
900.953	-187
901.055	198
901.158	-349
901.260	463
901.362	145
901.465	-366
901.567	-27
901.669	-397
901.771	-272
901.873	-366
901.976	-62
902.078	-122
902.180	596
902.282	765
902.384	-14
902.486	717
902.588	-357
902.690	-98
902.792	443
902.894	2
902.996	-387
903.098	-842
903.200	-658
903.302	-112
903.404	23
903.505	-343
903.607	-36
903.709	650
903.811	159
903.913	-1039
904.014	-321
904.116	-1200
904.218	-8
904.319	533
904.421	-305
904.523	212
904.624	355
904.726	64
904.827	195
904.929	-123
905.030	697
905.132	448
905.233	400
905.335	42
905.436	269
905.537	100
905.639	128
905.740	214
905.841	-97
905.943	542
906.044	-311
906.145	-462
906.247	-318
906.348	-182
906.449	192
906.550	127
906.651	-358
906.752	-439
906.854	-549
906.955	38
907.056	-168
907.157	339
907.258	-122
907.359	372
907.460	300
907.561	360
907.662	-224
907.762	-621
907.863	-897
907.964	-462
908.065	-92
908.166	97
908.267	-530
908.367	-588
908.468	311
908.569	146
908.670	425
908.770	198
908.871	-103
908.971	-476
909.072	285
909.173	-153
909.273	58
909.374	131
909.474	-285
909.575	-369
909.675	-246
909.776	-439
909.876	-329
909.977	582
910.077	-130
910.177	125
910.278	104
910.378	-455
910.478	-865
910.579	-765
910.679	41
910.779	-17
910.879	354
910.980	-378
911.080	-224
911.180	718
911.280	16
911.380	613
911.480	179
911.580	-351
911.680	-335
911.780	-388
911.880	376
911.980	-249
912.080	-409
912.180	641
912.280	-280
912.380	265
912.480	-597
912.580	962
912.679	109
912.779	48
912.879	-487
912.979	-65
913.078	54
913.178	378
913.278	-386
913.377	-1057
913.477	491
913.577	-78
913.676	646
913.776	-162
913.875	-717
913.975	1188
914.074	128
914.174	-639
914.273	-836
914.373	580
914.472	422
914.572	-581
914.671	179
914.770	-493
914.870	-331
914.969	-100
915.068	52
915.167	-293
915.267	389
915.366	-466
915.465	-360
915.564	250
915.663	110
915.763	-699
915.862	414
915.961	752
916.060	412
916.159	-137
916.258	-751
916.357	211
916.456	531
916.555	-295
916.654	-256
916.752	106
916.851	228
916.950	232
917.049	-565
917.148	-342
917.247	616
917.345	-545
917.444	126
917.543	121
917.642	260
917.740	200
917.839	755
917.937	536
918.036	-521
918.135	363
918.233	-156
918.332	-548
918.430	220
918.529	510
918.627	171
918.726	739
918.824	108
918.923	-180
919.021	282
919.119	541
919.218	-402
919.316	529
919.414	431
919.512	-329
919.611	303
919.709	40
919.807	234
919.905	-371
920.003	291
920.102	-281
920.200	100
920.298	-23
920.396	-571
920.494	74
920.592	-692
920.690	-439
920.788	-260
920.886	586
920.984	55
921.082	336
921.180	632
921.277	214
921.375	271
921.473	-656
921.571	-581
921.669	874
921.766	849
921.864	66
921.962	590
922.060	-37
922.157	-132
922.255	462
922.352	-78
922.450	1131
922.548	-279
922.645	619
922.743	-520
922.840	777
922.938	703
923.035	351
923.133	893
923.230	-139
923.327	227
923.425	330
923.522	474
923.619	131
923.717	-308
923.814	708
923.911	758
924.008	800
924.106	303
924.203	-165
924.300	-655
924.397	-171
924.494	84
924.591	-690
924.688	852
924.786	-362
924.883	-308
924.979	-71
925.077	227
925.173	696
925.270	-273
925.367	-215
925.464	-443
925.561	988
925.658	586
925.755	93
925.852	51
925.948	-5
926.045	716
926.142	909
926.239	430
926.335	1152
926.432	604
926.529	827
926.625	700
926.722	76
926.818	322
926.915	381
927.011	295
927.108	640
927.204	586
927.301	733
927.397	505
927.494	815
927.590	628
927.687	-6
927.783	-546
927.879	455
927.976	144
928.072	526
928.168	138
928.264	-717
928.361	-44
928.457	817
928.553	198
928.649	448
928.745	601
928.841	151
928.937	-40
929.033	-12
929.129	-108
929.225	-269
929.321	732
929.417	529
929.513	630
929.609	-444
929.705	154
929.801	214
929.897	-512
929.993	-150
930.089	-451
930.184	105
930.280	106
930.376	190
930.471	179
930.567	130
930.663	262
930.758	-443
930.854	461
930.950	-268
931.045	313
931.141	300
931.236	-62
931.332	-296
931.427	-5
931.523	622
931.618	-656
931.714	207
931.809	96
931.905	-59
932.000	-337
932.095	-411
932.191	-132
932.286	272
932.381	899
932.476	456
932.572	781
932.667	-389
932.762	-69
932.857	159
932.952	-196
933.047	-149
933.142	-621
933.237	354
933.332	305
933.427	202
933.522	860
933.617	779
933.712	-529
933.807	137
933.902	-455
933.997	312
934.092	147
934.187	268
934.282	-12
934.376	18
934.471	-229
934.566	-55
934.661	-532
934.755	-131
934.850	-6
934.945	93
935.039	4
935.134	-69
935.228	577
935.323	1041
935.417	299
935.512	1176
935.606	-443
935.701	371
935.795	420
935.890	-404
935.984	61
936.079	-718
936.173	113
936.267	-528
936.362	-815
936.456	100
936.550	-764
936.644	-646
936.738	-159
936.833	-109
936.927	-382
937.021	324
937.115	558
937.209	-1074
937.303	189
937.397	-278
937.491	-645
937.585	-226
937.679	339
937.773	-215
937.867	-611
937.961	-500
938.055	-975
938.149	-227
938.243	322
938.337	166
938.430	-358
938.524	432
938.618	-777
938.712	672
938.805	48
938.899	-110
938.993	-455
939.086	-382
939.180	102
939.274	497
939.367	78
939.461	133
939.554	154
939.648	-208
939.741	-658
939.835	-271
939.928	-268
940.022	438
940.115	-517
940.208	-193
940.302	115
940.395	224
940.488	-822
940.582	-17
940.675	-624
940.768	249
940.861	91
940.954	300
941.048	-1010
941.141	-517
941.234	-755
941.327	-313
941.420	185
941.513	66
941.606	72
941.699	229
941.792	-26
941.885	58
941.978	77
942.071	35
942.164	-307
942.257	-86
942.349	238
942.442	126
942.535	-478
942.628	227
942.721	165
942.813	-1814
942.906	489
942.999	-1161
943.091	-750
943.184	-1229
943.277	-810
943.369	-652
943.462	-745
943.554	834
943.647	-672
943.739	455
943.832	-221
943.924	-587
944.017	-289
944.109	-1264
944.201	-284
944.294	-438
944.386	64
944.478	-684
944.571	-511
944.663	-572
944.755	-390
944.847	-353
944.940	245
945.032	-1029
945.124	-861
945.216	831
945.308	-542
945.400	-733
945.492	-473
945.584	-1017
945.676	-795
945.768	79
945.860	-148
945.952	-890
946.044	-103
946.136	-136
946.228	-842
946.320	68
946.412	151
946.503	-979
946.595	138
946.687	-465
946.779	-599
946.870	-1171
946.962	-1396
947.054	-710
947.145	-937
947.237	-493
947.329	-146
947.420	-581
947.512	-273
947.603	-360
947.695	57
947.786	-1327
947.878	-430
947.969	-878
948.061	-945
948.152	-1075
948.243	-93
948.335	-8
948.426	-1044
948.517	-442
948.609	-191
948.700	-873
948.791	-423
948.882	-748
948.973	-1014
949.065	-296
949.156	-89
949.247	-1146
949.338	-219
949.429	51
949.520	63
949.611	-1025
949.702	-219
949.793	-713
949.884	-291
949.975	238
950.066	-473
950.157	-612
950.247	-118
950.338	-758
950.429	-452
950.520	-200
950.611	-926
950.701	-140
950.792	-674
950.883	-432
950.973	-972
951.064	-958
951.155	-858
951.245	-1023
951.336	-648
951.427	-935
951.517	-358
951.608	-903
951.698	-1103
951.788	-403
951.879	-383
951.969	-1104
952.060	-1035
952.150	-602
952.240	77
952.331	-2300
952.421	-351
952.511	-1301
952.602	-77
952.692	593
952.782	-853
952.872	-647
952.962	-557
953.052	-747
953.143	-1345
953.233	486
953.323	-403
953.413	-1052
953.503	-232
953.593	-334
953.683	-303
953.773	-1764
953.863	-613
953.953	-1378
954.042	-841
954.132	-678
954.222	146
954.312	-456
954.402	-730
954.492	-177
954.581	-930
954.671	-615
954.761	-725
954.850	73
954.940	-533
955.030	59
955.119	-1219
955.209	-216
955.298	-1369
955.388	-1162
955.477	-1
955.567	-496
955.656	66
955.746	117
955.835	-1124
955.925	-756
956.014	-728
956.103	-540
956.193	-811
956.282	-248
956.371	-659
956.461	-178
956.550	-1019
956.639	-1174
956.728	-1645
956.817	400
956.906	-525
956.995	-279
957.085	-767
957.174	-788
957.263	-559
957.352	-1212
957.441	-1280
957.530	-82
957.619	-527
957.708	-707
957.796	-1243
957.885	-173
957.974	-1106
958.063	157
958.152	-820
958.241	-199
958.329	-458
958.418	10
958.507	-1176
958.596	-126
958.684	-880
958.773	310
958.861	-748
958.950	233
959.039	10
959.127	264
959.216	-261
959.304	-512
959.393	-1499
959.481	-220
959.570	-738
959.658	-1038
959.746	-810
959.835	163
959.923	-338
960.011	-455
960.100	-220
960.188	-466
960.276	-766
960.365	-681
960.453	-390
960.541	-913
960.629	-1033
960.717	-459
960.805	-717
960.893	-370
960.981	-1609
961.069	689
961.158	-1717
961.245	-681
961.333	-328
961.421	-1928
961.509	-731
961.597	-444
961.685	-899
961.773	-742
961.861	-433
961.949	-30
962.036	-1376
962.124	-223
962.212	-852
962.299	-1120
962.387	-705
962.475	-364
962.562	-731
962.650	-388
962.738	-413
962.825	-462
962.913	67
963.000	-889
963.088	-436
963.175	-583
963.263	-148
963.350	-650
963.438	-703
963.525	-1433
963.612	-278
963.700	-62
963.787	598
963.874	-166
963.962	-1055
964.049	-127
964.136	-1569
964.223	-961
964.310	-927
964.398	-1685
964.485	-474
964.572	-1176
964.659	96
964.746	-696
964.833	-1346
964.920	-427
965.007	-659
965.094	-839
965.181	-1026
965.268	-681
965.355	-761
965.441	-1524
965.528	-935
965.615	-118
965.702	-1150
965.789	-1005
965.875	-952
965.962	-250
966.049	-1804
966.136	-481
966.222	-1201
966.309	-241
966.395	-1108
966.482	-142
966.569	-1500
966.655	-707
966.742	-1249
966.828	-624
966.915	-910
967.001	-336
967.087	-1296
967.174	-199
967.260	-561
967.347	-1199
967.433	-463
967.519	984
967.605	-927
967.692	-1001
967.778	-1159
967.864	-477
967.950	-606
968.036	-1462
968.123	-1496
968.209	-964
968.295	-624
968.381	534
968.467	-640
968.553	-2038
968.639	-240
968.725	-1233
968.811	40
968.897	-836
968.983	-929
969.069	-1236
969.154	-52
969.240	-208
969.326	-1329
969.412	-820
969.497	-1403
969.583	-1279
969.669	-530
969.755	-775
969.840	-1202
969.926	-566
970.012	-1528
970.097	75
970.183	-913
970.268	-1387
970.354	-253
970.439	-795
970.525	1047
970.610	-1652
970.696	-233
970.781	-567
970.866	-1295
970.952	-45
971.037	-1375
971.122	-1402
971.208	-1092
971.293	197
971.378	-1594
971.463	-577
971.549	-657
971.634	-637
971.719	-818
971.804	-963
971.889	160
971.974	-1442
972.059	-572
972.144	-182
972.229	-577
972.314	-1849
972.399	-421
972.484	-998
972.569	-469
972.654	-1641
972.739	690
972.824	-1475
972.908	-547
972.993	-932
973.078	-836
973.163	-409
973.247	-1087
973.332	-2560
973.417	363
973.501	-938
973.586	-1022
973.671	-1113
973.755	-888
973.840	-1177
973.924	-672
974.009	-1197
974.093	-806
974.178	-598
974.262	-762
974.346	-1556
974.431	-517
974.515	-753
974.600	-601
974.684	-257
974.768	-777
974.852	-449
974.937	-1434
975.021	-229
975.105	-636
975.189	-1035
975.273	-733
975.358	-1830
975.442	-1225
975.526	507
975.610	-2093
975.694	-1184
975.778	-150
975.862	-342
975.946	-2850
976.030	-69
976.114	-2272
976.198	-587
976.281	-1472
976.365	146
976.449	-778
976.533	-519
976.617	-1487
976.700	-1263
976.784	-642
976.868	-1327
976.951	-520
977.035	-956
977.119	-1345
977.202	-1019
977.286	-1187
977.369	-1483
977.453	-392
977.536	-1080
977.620	-1624
977.703	-628
977.787	-965
977.870	-106
977.953	-927
978.037	-1640
978.120	-280
978.203	-767
978.287	-1078
978.370	-1258
978.453	-1298
978.536	-774
978.620	-416
978.703	-801
978.786	-1132
978.869	-2751
978.952	-1473
979.035	392
979.118	-734
979.201	-1103
979.284	-1160
979.367	-2094
979.450	-546
979.533	-979
979.616	-1462
979.699	-1465
979.782	-1012
979.865	-924
979.948	-1523
980.030	-1185
980.113	-773
980.196	-1403
980.279	-1612
980.361	-1381
980.444	-1435
980.526	-166
980.609	-1087
980.692	-352
980.774	-967
980.857	-2193
980.939	-848
981.022	-765
981.104	-843
981.187	-1075
981.269	-746
981.352	-948
981.434	-2077
981.516	-1590
981.599	-476
981.681	-527
981.763	-1257
981.846	-890
981.928	-816
982.010	-1163
982.092	-2186
982.174	-183
982.256	-1273
982.339	-619
982.421	-955
982.503	-672
982.585	-1464
982.667	-765
982.749	-1229
982.831	-1275
982.913	-1305
982.995	94
983.077	-1762
983.158	214
983.240	-1761
983.322	-289
983.404	-1517
983.486	-1745
983.568	-1622
983.649	-1573
983.731	-1318
983.813	-2091
983.894	-923
983.976	-1452
984.058	-1225
984.139	-1204
984.221	-1727
984.302	-796
984.384	-854
984.465	-1557
984.547	-842
984.628	-2310
984.710	-795
984.791	-1576
984.872	-1150
984.954	-1628
985.035	-1212
985.116	-1860
985.198	-1948
985.279	-571
985.360	-1604
985.441	-513
985.522	-1000
985.604	-1530
985.685	-2635
985.766	-131
985.847	-467
985.928	-2090
986.009	-1350
986.090	-1660
986.171	-1511
986.252	-1971
986.333	-1751
986.414	-1413
986.495	-865
986.576	-523
986.656	-1619
986.737	-1308
986.818	-867
986.899	-1063
986.980	-1931
987.060	-684
987.141	-1815
987.222	-1822
987.302	-2258
987.383	-1007
987.464	-1537
987.544	-1360
987.625	-1712
987.705	-1466
987.786	-770
987.866	-1566
987.947	-1952
988.027	-1868
988.108	-1760
988.188	-925
988.268	-1967
988.349	-1345
988.429	-1287
988.509	-826
988.589	-1887
988.670	-2717
988.750	-164
988.830	-1812
988.910	-1023
988.990	-1506
989.070	-1469
989.151	-977
989.231	-2604
989.311	-1545
989.391	-1612
989.471	-1034
989.551	-1655
989.631	-1781
989.711	-897
989.791	-1957
989.870	-1817
989.950	-428
990.030	-1322
990.110	-1218
990.190	-2061
990.269	-1164
990.349	-1729
990.429	-1367
990.509	-1785
990.588	-1592
990.668	-1747
990.747	-2355
990.827	-1708
990.907	-1663
990.986	-1149
991.066	-1259
991.145	-1716
991.225	-643
991.304	-783
991.383	-1014
991.463	-1224
991.542	-1041
991.622	-1955
991.701	-1512
991.780	-2324
991.859	-630
991.939	-1848
992.018	-1501
992.097	-1804
992.176	-989
992.256	-1288
992.335	-2466
992.414	-1137
992.493	-1851
992.572	-2109
992.651	-921
992.730	-1947
992.809	-1326
992.888	-2590
992.967	-1485
993.046	-1363
993.125	-2115
993.203	-2120
993.282	-875
993.361	-1912
993.440	-1175
993.519	-2752
993.597	-1926
993.676	-2281
993.755	-1050
993.834	-1351
993.912	-2204
993.991	-790
994.069	-2685
994.148	-1993
994.226	-1644
994.305	-1652
994.384	-2689
994.462	-957
994.540	-2552
994.619	-2168
994.697	-1709
994.776	-2036
994.854	-1198
994.932	-2242
995.011	-1763
995.089	-2012
995.167	-1450
995.245	-1458
995.324	-1859
995.402	-1845
995.480	-1637
995.558	-2452
995.636	-1546
995.714	-2181
995.792	-925
995.870	-2312
995.948	-2113
996.026	-1906
996.104	-2453
996.182	-994
996.260	-2097
996.338	-1092
996.416	-2417
996.494	-1305
996.572	-347
996.649	-1880
996.727	-2588
996.805	-1541
996.883	-1937
996.960	-1806
997.038	-1136
997.116	-1374
997.193	-1904
997.271	-1624
997.348	-1998
997.426	-1469
997.504	-1766
997.581	-1057
997.658	-1527
997.736	-2840
997.813	-1828
997.891	-1096
997.968	-1724
998.046	-1508
998.123	-2952
998.200	-1963
998.277	-1956
998.355	-1288
998.432	-2972
998.509	-1193
998.586	-1304
998.663	-1117
998.741	-1604
998.818	-910
998.895	-2823
998.972	-1011
999.049	-2093
999.126	-2108
999.203	-689
999.280	-2026
999.357	-1339
999.434	-2081
999.511	-2266
999.587	-1210
999.664	-2091
999.741	-1281
999.818	-1805
999.895	-1530
999.971	-2257
1000.048	-1839
1000.125	-670
1000.202	-2346
1000.278	-1597
1000.355	-1320
1000.431	-1850
1000.508	-2381
1000.584	-1173
1000.661	-1132
1000.738	-2520
1000.814	-1192
1000.890	-1407
1000.967	-1944
1001.043	-1920
1001.120	-2267
1001.196	-1621
1001.272	-2684
1001.349	-1737
1001.425	-1672
1001.501	-1588
1001.577	-1638
1001.654	-2127
1001.730	-1939
1001.806	-1565
1001.882	-2170
1001.958	-2193
1002.034	-1061
1002.110	-2447
1002.186	-2559
1002.262	-1804
1002.338	-2667
1002.414	-1348
1002.490	-1102
1002.566	-1570
1002.642	-2007
1002.718	-915
1002.794	-2449
1002.870	-2096
1002.945	-1597
1003.021	-1823
1003.097	-2090
1003.173	-1123
1003.248	-2616
1003.324	-2014
1003.400	-1270
1003.475	-2260
1003.551	-1580
1003.626	-1919
1003.702	-2453
1003.777	-1766
1003.853	-2485
1003.928	-1378
1004.004	-1685
1004.079	-1130
1004.155	-1905
1004.230	-2112
1004.305	-1290
1004.381	-1924
1004.456	-1472
1004.531	-664
1004.607	-2047
1004.682	-1973
1004.757	-1413
1004.832	-1943
1004.907	-1628
1004.982	-1389
1005.057	-1328
1005.133	-1377
1005.208	-1619
1005.283	-2078
1005.358	-826
1005.433	-2237
1005.508	-1151
1005.583	-2588
1005.657	-2008
1005.732	-702
1005.807	-1644
1005.882	-1478
1005.957	-2083
1006.032	-1386
1006.106	-2309
1006.181	-1475
1006.256	-1938
1006.331	-2432
1006.405	-2014
1006.480	-1471
1006.554	-1470
1006.629	-1353
1006.704	-1556
1006.778	-1588
1006.853	-1213
1006.927	-1561
1007.002	-1478
1007.076	-1579
1007.150	-1608
1007.225	-1335
1007.299	-1822
1007.373	-2612
1007.448	-901
1007.522	-1393
1007.596	-1550
1007.671	-1575
1007.745	-652
1007.819	-2209
1007.893	-1705
1007.967	-1050
1008.041	-2796
1008.115	-806
1008.190	-2139
1008.264	-1412
1008.338	-2682
1008.412	-1811
1008.486	-2109
1008.560	-1632
1008.633	-1605
1008.707	-1973
1008.781	-1342
1008.855	-1116
1008.929	-1412
1009.003	-1407
1009.076	-1495
1009.150	-1396
1009.224	-2501
1009.298	-1441
1009.371	-1378
1009.445	-1626
1009.519	-715
1009.592	-2265
1009.666	-1932
1009.739	-1566
1009.813	-2568
1009.886	-587
1009.960	-2763
1010.033	-1233
1010.107	-1784
1010.180	-1711
1010.253	-1697
1010.327	-1525
1010.400	-1721
1010.473	-1632
1010.547	100
1010.620	-1498
1010.693	-878
1010.766	-1993
1010.840	-1715
1010.913	-1093
1010.986	-2505
1011.059	-1612
1011.132	-2311
1011.205	-1140
1011.278	-1383
1011.351	-1830
1011.424	-1236
1011.497	-2618
1011.570	-1306
1011.643	-1712
1011.716	-1978
1011.789	-2185
1011.862	-1329
1011.934	-1628
1012.007	-1767
1012.080	-2218
1012.153	-1634
1012.225	-1088
1012.298	-1569
1012.371	-1406
1012.443	-1862
1012.516	-1976
1012.588	-1477
1012.661	-668
1012.733	-1899
1012.806	-940
1012.879	-2150
1012.951	-1534
1013.023	-1517
1013.096	-1548
1013.168	-1975
1013.241	-1299
1013.313	-1815
1013.385	-1662
1013.458	-2250
1013.530	-889
1013.602	-2559
1013.674	-1166
1013.746	-1825
1013.819	-2116
1013.891	-1444
1013.963	-2039
1014.035	-1221
1014.107	-1888
1014.179	-1602
1014.251	-2437
1014.323	-1900
1014.395	-1828
1014.467	-2073
1014.539	-1534
1014.611	-2064
1014.683	-2195
1014.754	-1552
1014.826	-2511
1014.898	-1810
1014.970	-1532
1015.042	-1382
1015.113	-1389
1015.185	-1984
1015.257	-2197
1015.328	-1193
1015.400	-2312
1015.471	-1645
1015.543	-2145
1015.615	-1568
1015.686	-1617
1015.757	-1180
1015.829	-1697
1015.901	-1547
1015.972	-1779
1016.043	-1543
1016.115	-1311
1016.186	-1329
1016.257	-2587
1016.328	-1515
1016.400	-694
1016.471	-1142
1016.542	-1609
1016.613	-1726
1016.685	-1730
1016.756	-883
1016.827	-1534
1016.898	-2179
1016.969	-1333
1017.040	-2363
1017.111	-1383
1017.182	-1629
1017.253	-457
1017.324	-1700
1017.395	-1736
1017.466	-1097
1017.537	-2394
1017.608	-1971
1017.678	-1401
1017.749	-2011
1017.820	-1827
1017.891	-1561
1017.961	-1726
1018.032	-1844
1018.103	-1279
1018.173	-1529
1018.244	-2067
1018.315	-1331
1018.385	-1897
1018.456	-1928
1018.526	-2303
1018.597	-1202
1018.667	-1911
1018.738	-1377
1018.808	-1371
1018.878	-1916
1018.949	-1308
1019.019	-1185
1019.089	-2605
1019.160	-1138
1019.230	-1933
1019.300	-1880
1019.371	-2051
1019.441	-2123
1019.511	-1282
1019.581	-1686
1019.651	-1477
1019.721	-1418
1019.791	-1768
1019.861	-2161
1019.931	-1641
1020.001	-1852
1020.071	-2245
1020.141	-2258
1020.211	-2216
1020.281	-2193
1020.351	-1874
1020.421	-796
1020.491	-1428
1020.560	-1823
1020.630	-2230
1020.700	-581
1020.770	-1759
1020.839	-1800
1020.909	-2316
1020.979	-1795
1021.048	-2049
1021.118	-1372
1021.187	-2135
1021.257	-1721
1021.326	-869
1021.396	-2415
1021.465	-2182
1021.535	-2129
1021.604	-2161
1021.674	-1618
1021.743	-2123
1021.812	-2035
1021.882	-1827
1021.951	-2175
1022.020	-1512
1022.089	-1436
1022.159	-2321
1022.228	-1996
1022.297	-1825
1022.366	-1771
1022.435	-1800
1022.504	-2199
1022.573	-2080
1022.642	-857
1022.711	-2387
1022.781	-2353
1022.849	-1340
1022.918	-1855
1022.987	-1458
1023.056	-1875
1023.125	-1883
1023.194	-2157
1023.263	-1025
1023.331	-1611
1023.400	-2058
1023.469	-2021
1023.538	-1364
1023.606	-1714
1023.675	-1097
1023.744	-2355
1023.812	-2168
1023.881	-1569
1023.949	-1231
1024.018	-2577
1024.086	-1504
1024.155	-2302
1024.223	-2507
1024.292	-1596
1024.360	-1798
1024.429	-2245
1024.497	-2740
1024.565	-2104
1024.634	-2315
1024.702	-1884
1024.770	-1519
1024.838	-2389
1024.907	-1866
1024.975	-2121
1025.043	-1792
1025.111	-1917
1025.179	-1521
1025.247	-1922
1025.315	-2071
1025.383	-1847
1025.451	-1297
1025.519	-1470
1025.587	-1718
1025.655	-1224
1025.723	-1999
1025.791	-1667
1025.859	-1797
1025.927	-1869
1025.995	-2043
1026.062	-1885
1026.130	-1545
1026.198	-2307
1026.266	-1754
1026.333	-1679
1026.401	-1913
1026.469	-2411
1026.536	-2366
1026.604	-2314
1026.671	-2927
1026.739	-1911
1026.806	-1591
1026.874	-1681
1026.941	-2470
1027.009	-1968
1027.076	-2628
1027.144	-1742
1027.211	-1802
1027.278	-1584
1027.345	-1558
1027.413	-2147
1027.480	-2527
1027.547	-1861
1027.614	-2015
1027.682	-1567
1027.749	-2556
1027.816	-2071
1027.883	-1719
1027.950	-1740
1028.017	-2528
1028.084	-1452
1028.151	-2879
1028.218	-2132
1028.285	-2502
1028.352	-2043
1028.419	-2436
1028.486	-2248
1028.553	-1330
1028.619	-1877
1028.686	-1563
1028.753	-2015
1028.820	-1989
1028.886	-2710
1028.953	-1782
1029.020	-2110
1029.086	-2141
1029.153	-2201
1029.220	-2798
1029.286	-1831
1029.353	-2319
1029.419	-2139
1029.486	-2366
1029.552	-2700
1029.619	-2508
1029.685	-2363
1029.751	-1733
1029.818	-1207
1029.884	-1901
1029.951	-499
1030.017	-2372
1030.083	-1572
1030.149	-1562
1030.216	-2430
1030.282	-1609
1030.348	-2492
1030.414	-2184
1030.480	-2182
1030.546	-2448
1030.612	-1686
1030.678	-2679
1030.744	-2427
1030.810	-2225
1030.876	-2750
1030.942	-1950
1031.008	-2830
1031.074	-2306
1031.140	-1886
1031.206	-2104
1031.272	-2810
1031.337	-2043
1031.403	-1113
1031.469	-2290
1031.534	-2028
1031.600	-1480
1031.666	-1701
1031.731	-2630
1031.797	-1551
1031.863	-2465
1031.928	-2186
1031.994	-2561
1032.059	-2501
1032.125	-1820
1032.190	-2588
1032.256	-1964
1032.321	-3022
1032.386	-1992
1032.452	-2392
1032.517	-1879
1032.582	-1733
1032.647	-1845
1032.713	-2007
1032.778	-2786
1032.843	-2146
1032.908	-2393
1032.974	-1460
1033.039	-2170
1033.104	-1440
1033.169	-2243
1033.234	-2548
1033.299	-1389
1033.364	-2263
1033.429	-2693
1033.494	-1467
1033.559	-2749
1033.624	-2780
1033.688	-1804
1033.753	-2641
1033.818	-2193
1033.883	-2075
1033.948	-1558
1034.013	-2562
1034.077	-2382
1034.142	-1675
1034.207	-1956
1034.271	-1544
1034.336	-1239
1034.400	-1877
1034.465	-2241
1034.530	-2302
1034.594	-1962
1034.658	-1849
1034.723	-2086
1034.787	-1427
1034.852	-2826
1034.916	-2569
1034.981	-2387
1035.045	-2198
1035.109	-1948
1035.173	-2243
1035.238	-1738
1035.302	-1814
1035.366	-1802
1035.430	-2080
1035.495	-2420
1035.559	-1792
1035.623	-1867
1035.687	-2571
1035.751	-2541
1035.815	-2298
1035.879	-2388
1035.943	-1690
1036.007	-2146
1036.071	-2069
1036.135	-2197
1036.198	-1998
1036.262	-2748
1036.326	-2260
1036.390	-2383
1036.454	-2039
1036.517	-2386
1036.581	-1677
1036.645	-2691
1036.709	-2451
1036.772	-1858
1036.836	-2947
1036.900	-1431
1036.963	-2555
1037.026	-2700
1037.090	-3050
1037.154	-2526
1037.217	-2290
1037.280	-1954
1037.344	-2310
1037.407	-2617
1037.471	-2598
1037.534	-2566
1037.597	-2581
1037.661	-1192
1037.724	-1784
1037.787	-2612
1037.850	-2680
1037.913	-2155
1037.977	-2077
1038.040	-2605
1038.103	-2250
1038.166	-1908
1038.229	-3103
1038.292	-2421
1038.355	-1934
1038.418	-1868
1038.481	-2168
1038.544	-1950
1038.607	-2371
1038.670	-2315
1038.732	-1795
1038.795	-2594
1038.858	-1793
1038.921	-1821
1038.984	-3271
1039.046	-2697
1039.109	-2709
1039.172	-2278
1039.234	-2545
1039.297	-1886
1039.360	-2216
1039.422	-2350
1039.485	-2168
1039.547	-2488
1039.610	-2345
1039.672	-2216
1039.734	-2535
1039.797	-1988
1039.859	-1832
1039.922	-2173
1039.984	-2284
1040.046	-2520
1040.109	-1958
1040.171	-2224
1040.233	-3035
1040.295	-2893
1040.358	-2512
1040.420	-2523
1040.482	-2593
1040.544	-1938
1040.606	-2651
1040.668	-1858
1040.730	-2591
1040.792	-2808
1040.854	-1841
1040.916	-1789
1040.978	-2432
1041.040	-1647
1041.102	-1752
1041.164	-2254
1041.225	-2447
1041.287	-2669
1041.349	-2167
1041.411	-2201
1041.472	-2408
1041.534	-1917
1041.596	-2960
1041.657	-2442
1041.719	-2423
1041.781	-2411
1041.842	-2215
1041.904	-1735
1041.965	-2331
1042.027	-1814
1042.088	-2506
1042.150	-2736
1042.211	-2576
1042.272	-2145
1042.334	-2269
1042.395	-2945
1042.456	-3052
1042.518	-2499
1042.579	-1189
1042.640	-1966
1042.701	-2566
1042.763	-2469
1042.824	-2100
1042.885	-1385
1042.946	-2466
1043.007	-2375
1043.068	-2317
1043.129	-1698
1043.190	-2218
1043.251	-1815
1043.312	-1939
1043.373	-1920
1043.434	-2138
1043.495	-2490
1043.556	-1817
1043.616	-1540
1043.677	-2268
1043.738	-2598
1043.799	-2330
1043.859	-2283
1043.920	-2381
1043.981	-2627
1044.041	-1806
1044.102	-2401
1044.162	-2183
1044.223	-2068
1044.284	-2312
1044.344	-1864
1044.405	-2341
1044.465	-1661
1044.525	-3142
1044.586	-2067
1044.646	-2976
1044.707	-2147
1044.767	-2062
1044.827	-2436
1044.887	-2512
1044.948	-1869
1045.008	-3183
1045.068	-2358
1045.128	-1515
1045.188	-2106
1045.249	-2140
1045.309	-1528
1045.369	-1652
1045.429	-2269
1045.489	-2521
1045.549	-2011
1045.609	-1696
1045.669	-2230
1045.729	-2366
1045.789	-1658
1045.848	-1807
1045.908	-2079
1045.968	-2520
1046.028	-1666
1046.088	-1600
1046.147	-1563
1046.207	-1352
1046.267	-1744
1046.326	-2070
1046.386	-1605
1046.446	-1555
1046.505	-2100
1046.565	-1717
1046.624	-1280
1046.684	-263
1046.743	-1780
1046.803	-130
1046.862	-982
1046.922	0
