'Start Wavelength	183.907
'End Wavelength	1046.922
'Gate Delay	5.000
'Gate Width (ms)	1.050
'Laser Output Level	0.000
'X Position	0.000
'Y Position	0.000
'Z Position	0.000
'Grid Point Number	1.000
'Shot Number	100.000
183.907	341.000
183.977	-813.000
184.047	-955
184.116	98
184.186	357
184.256	303
184.325	-153
184.395	-280
184.465	675
184.534	-1153
184.604	-383
184.674	-277
184.743	650
184.813	526
184.883	173
184.952	259
185.022	328
185.092	701
185.161	-613
185.231	-338
185.301	-170
185.370	451
185.440	132
185.509	-414
185.579	321
185.649	426
185.718	47
185.788	647
185.857	-518
185.927	-4
185.996	-187
186.066	89
186.136	238
186.205	201
186.275	540
186.344	260
186.414	119
186.483	-248
186.553	-483
186.622	875
186.692	677
186.761	525
186.831	-130
186.900	-33
186.970	67
187.039	561
187.109	411
187.178	151
187.248	-736
187.317	405
187.387	-965
187.456	418
187.526	-161
187.595	38
187.664	-25
187.734	419
187.803	-654
187.873	295
187.942	307
188.012	-509
188.081	-200
188.150	109
188.220	-2
188.289	-205
188.358	-302
188.428	-355
188.497	-621
188.567	422
188.636	369
188.705	-15
188.775	-356
188.844	-1093
188.913	445
188.983	-569
189.052	75
189.121	150
189.191	-270
189.260	363
189.329	-145
189.399	-215
189.468	-107
189.537	-162
189.606	32
189.676	-517
189.745	132
189.814	306
189.883	144
189.953	306
190.022	-731
190.091	-153
190.161	229
190.230	589
190.299	-13
190.368	255
190.437	-217
190.507	440
190.576	-293
190.645	-502
190.714	-384
190.783	-611
190.853	716
190.922	794
190.991	-307
191.060	404
191.129	-338
191.198	567
191.268	-365
191.337	293
191.406	42
191.475	-457
191.544	-176
191.613	290
191.682	-630
191.752	663
191.821	-595
191.890	-117
191.959	-115
192.028	146
192.097	-183
192.166	78
192.235	-433
192.304	21
192.373	-433
192.442	-297
192.511	-823
192.580	-199
192.650	-317
192.719	145
192.788	-724
192.857	176
192.926	-1156
192.995	427
193.064	-222
193.133	451
193.202	-426
193.271	-360
193.340	-414
193.409	-768
193.478	-9
193.547	320
193.615	151
193.684	54
193.753	-178
193.822	-107
193.891	234
193.960	149
194.029	-321
194.098	409
194.167	-529
194.236	613
194.305	-496
194.374	-46
194.443	-204
194.512	-230
194.580	-79
194.649	-380
194.718	-438
194.787	367
194.856	-140
194.925	375
194.994	-228
195.062	1119
195.131	-346
195.200	190
195.269	-225
195.338	-183
195.407	-377
195.475	140
195.544	-647
195.613	-476
195.682	-59
195.751	241
195.819	-544
195.888	-316
195.957	380
196.026	-579
196.094	-42
196.163	705
196.232	-143
196.301	-899
196.369	-61
196.438	-204
196.507	-468
196.576	-66
196.644	-408
196.713	-961
196.782	-911
196.850	-122
196.919	-108
196.988	342
197.056	-511
197.125	-266
197.194	-12
197.262	-17
197.331	-633
197.400	202
197.468	-368
197.537	-662
197.606	-289
197.674	974
197.743	-575
197.812	-1222
197.880	-559
197.949	614
198.017	-764
198.086	-252
198.155	-487
198.223	442
198.292	-256
198.360	-261
198.429	-386
198.497	380
198.566	-354
198.635	361
198.703	137
198.772	553
198.840	26
198.909	323
198.977	-352
199.046	-796
199.114	454
199.183	-295
199.251	-490
199.320	114
199.388	56
199.457	-600
199.525	-33
199.594	-494
199.662	-356
199.731	-153
199.799	-757
199.867	285
199.936	-693
200.004	-43
200.073	-744
200.141	-554
200.210	-570
200.278	-714
200.346	-246
200.415	-129
200.483	-820
200.552	-453
200.620	-160
200.688	-440
200.757	-423
200.825	467
200.893	-60
200.962	-235
201.030	-118
201.098	-841
201.167	-135
201.235	137
201.303	-276
201.372	-274
201.440	253
201.508	-71
201.577	-456
201.645	622
201.713	-494
201.781	-947
201.850	-263
201.918	-224
201.986	-925
202.055	310
202.123	-582
202.191	-19
202.259	-127
202.327	-598
202.396	-199
202.464	-121
202.532	-446
202.600	98
202.669	-703
202.737	-568
202.805	-846
202.873	-6
202.941	-243
203.009	-228
203.078	-613
203.146	-366
203.214	-716
203.282	-130
203.350	-596
203.418	25
203.487	-363
203.555	-346
203.623	-51
203.691	-545
203.759	-360
203.827	-659
203.895	-363
203.963	-437
204.031	-909
204.099	-664
204.168	-567
204.236	617
204.304	-657
204.372	-438
204.440	-462
204.508	-685
204.576	-1272
204.644	434
204.712	-339
204.780	132
204.848	-541
204.916	-646
204.984	-768
205.052	-769
205.120	-723
205.188	-275
205.256	-189
205.324	-357
205.392	-945
205.460	140
205.528	-719
205.596	-74
205.664	209
205.732	481
205.799	-306
205.867	-526
205.935	-596
206.003	687
206.071	-335
206.139	-695
206.207	-381
206.275	121
206.343	-972
206.411	-490
206.478	-681
206.546	-137
206.614	2
206.682	228
206.750	-1437
206.818	-579
206.885	-27
206.953	-1964
207.021	185
207.089	-332
207.157	-1070
207.225	-829
207.292	-707
207.360	-682
207.428	-10
207.496	-242
207.563	-430
207.631	328
207.699	-787
207.767	163
207.834	-876
207.902	-578
207.970	-1001
208.038	504
208.105	-461
208.173	34
208.241	-5
208.309	-174
208.376	-396
208.444	-186
208.512	-1387
208.579	-1178
208.647	-845
208.715	159
208.782	-868
208.850	305
208.918	-882
208.985	-66
209.053	-249
209.120	-119
209.188	-1032
209.256	342
209.323	-1179
209.391	-142
209.459	639
209.526	-701
209.594	-896
209.661	-384
209.729	-510
209.796	-112
209.864	-307
209.932	-2088
209.999	330
210.067	-509
210.134	-450
210.202	-191
210.269	169
210.337	209
210.404	-746
210.472	-467
210.539	-679
210.607	-574
210.674	-713
210.742	354
210.809	-371
210.877	-147
210.944	-368
211.012	-1247
211.079	713
211.146	-418
211.214	-420
211.281	-1053
211.349	-1272
211.416	-527
211.484	-887
211.551	113
211.618	-273
211.686	-232
211.753	-931
211.821	40
211.888	-674
211.955	-193
212.023	-395
212.090	-403
212.157	-1033
212.225	-460
212.292	-748
212.359	49
212.427	-359
212.494	-431
212.561	287
212.629	-583
212.696	-360
212.763	63
212.831	-1425
212.898	-120
212.965	-963
213.032	352
213.100	-631
213.167	-772
213.234	49
213.301	-114
213.369	91
213.436	-149
213.503	-1208
213.570	34
213.638	-313
213.705	-1126
213.772	-1028
213.839	-237
213.906	-30
213.973	376
214.041	-641
214.108	379
214.175	-918
214.242	-97
214.309	-745
214.376	-197
214.444	-1629
214.511	-378
214.578	-458
214.645	0
214.712	-574
214.779	-18
214.846	-292
214.913	-87
214.980	-85
215.048	-1144
215.115	-887
215.182	-241
215.249	-659
215.316	-931
215.383	-37
215.450	207
215.517	-789
215.584	-60
215.651	-1225
215.718	-209
215.785	-1159
215.852	-1066
215.919	-477
215.986	128
216.053	-240
216.120	-514
216.187	-491
216.254	513
216.321	-183
216.388	152
216.455	-882
216.522	-669
216.589	-1229
216.656	-213
216.722	-1232
216.789	291
216.856	-513
216.923	-535
216.990	-97
217.057	-46
217.124	-897
217.191	-585
217.258	-390
217.324	-204
217.391	-653
217.458	852
217.525	-639
217.592	10
217.659	-1858
217.725	196
217.792	-898
217.859	-72
217.926	-952
217.993	-615
218.059	234
218.126	270
218.193	-610
218.260	-215
218.327	-987
218.393	-1016
218.460	-431
218.527	-112
218.594	-457
218.660	49
218.727	479
218.794	-1490
218.860	-107
218.927	-63
218.994	-782
219.061	-904
219.127	-621
219.194	-796
219.261	-893
219.327	-1009
219.394	283
219.461	-1034
219.527	-161
219.594	-363
219.661	-1236
219.727	-1046
219.794	416
219.860	-639
219.927	-337
219.994	-252
220.060	-250
220.127	-739
220.193	-804
220.260	-1100
220.326	-539
220.393	-1157
220.460	-649
220.526	-408
220.593	-917
220.659	677
220.726	-1280
220.792	277
220.859	-532
220.925	-8
220.992	-113
221.058	411
221.125	-205
221.191	-270
221.258	-982
221.324	28
221.391	-700
221.457	-301
221.524	-920
221.590	189
221.657	-757
221.723	-745
221.789	-1017
221.856	280
221.922	-292
221.989	144
222.055	-1119
222.121	-1253
222.188	549
222.254	-437
222.321	-308
222.387	-705
222.453	-737
222.520	-694
222.586	-986
222.652	374
222.719	-1258
222.785	542
222.851	-987
222.918	-222
222.984	-1307
223.050	-20
223.116	-1869
223.183	-22
223.249	-1073
223.315	-730
223.382	-18
223.448	-726
223.514	-718
223.580	-788
223.647	-1088
223.713	-1481
223.779	-1042
223.845	-661
223.911	-1163
223.978	-1363
224.044	-578
224.110	-538
224.176	-509
224.242	-1051
224.309	-1450
224.375	-225
224.441	-660
224.507	-296
224.573	-1620
224.639	-476
224.705	-1186
224.772	-168
224.838	-1021
224.904	-526
224.970	-1467
225.036	-505
225.102	-1217
225.168	4
225.234	-859
225.300	64
225.366	-899
225.432	-172
225.499	-572
225.565	-1184
225.631	-849
225.697	-914
225.763	-877
225.829	-283
225.895	-992
225.961	-849
226.027	-722
226.093	-433
226.159	-421
226.225	-329
226.291	-716
226.357	-585
226.423	-1472
226.489	-239
226.554	-906
226.620	-14
226.686	-777
226.752	-1186
226.818	-586
226.884	258
226.950	-503
227.016	-392
227.082	-214
227.148	-791
227.214	-306
227.279	-697
227.345	-911
227.411	-889
227.477	-840
227.543	-600
227.609	-1539
227.674	-448
227.740	-1238
227.806	-457
227.872	-1840
227.938	-144
228.003	-574
228.069	-927
228.135	-1479
228.201	-217
228.267	-1009
228.332	-526
228.398	-1768
228.464	-35
228.530	-1553
228.595	-677
228.661	-2099
228.727	-752
228.792	115
228.858	-1200
228.924	-2512
228.990	1048
229.055	-2291
229.121	-535
229.187	-557
229.252	-699
229.318	-851
229.384	-199
229.449	-850
229.515	-1998
229.581	-1926
229.646	1100
229.712	-999
229.777	-400
229.843	-1236
229.909	-269
229.974	-1180
230.040	76
230.105	-851
230.171	-1216
230.236	-451
230.302	-1232
230.368	-1151
230.433	-1382
230.499	-1042
230.564	796
230.630	-1326
230.695	-273
230.761	-361
230.826	-1581
230.892	98
230.957	-1056
231.023	-1534
231.088	-161
231.154	-248
231.219	-477
231.284	-1695
231.350	-281
231.415	-1561
231.481	127
231.546	-531
231.612	-787
231.677	-1716
231.742	-1890
231.808	-98
231.873	-1332
231.939	-2537
232.004	194
232.069	1
232.135	-1200
232.200	-634
232.265	16
232.331	-830
232.396	-810
232.461	-146
232.527	-832
232.592	-1615
232.657	-718
232.723	-959
232.788	-228
232.853	-765
232.918	-1009
232.984	-1851
233.049	-873
233.114	-1944
233.179	-582
233.245	-100
233.310	27
233.375	-2680
233.440	-101
233.506	-1588
233.571	-182
233.636	-1531
233.701	-886
233.766	-1755
233.832	-359
233.897	-581
233.962	-2131
234.027	442
234.092	-773
234.157	-700
234.222	-910
234.288	-2022
234.353	-1451
234.418	152
234.483	-285
234.548	-1586
234.613	-748
234.678	-916
234.743	-940
234.808	269
234.873	-2470
234.938	292
235.004	-53
235.069	-899
235.134	-933
235.199	-1266
235.264	-673
235.329	-1828
235.394	-459
235.459	-900
235.524	-2445
235.589	-914
235.654	-847
235.719	-2064
235.784	-238
235.849	-965
235.913	-1134
235.978	-750
236.043	-167
236.108	-1292
236.173	-733
236.238	-724
236.303	-1845
236.368	-1023
236.433	-465
236.498	-1716
236.563	-488
236.627	-576
236.692	-175
236.757	332
236.822	-198
236.887	-1864
236.952	-298
237.017	-2290
237.081	-214
237.146	-1218
237.211	-181
237.276	-529
237.341	1699
237.405	-553
237.470	-199
237.535	-1029
237.600	-734
237.664	-268
237.729	-804
237.794	-1987
237.859	-476
237.923	-772
237.988	-1116
238.053	-636
238.118	-564
238.182	-1501
238.247	825
238.312	-1646
238.376	-205
238.441	-2275
238.506	-171
238.570	-1465
238.635	-106
238.700	-768
238.764	-1200
238.829	-773
238.893	-1903
238.958	-181
239.023	-294
239.087	-1412
239.152	-652
239.216	-2554
239.281	-179
239.346	-653
239.410	-690
239.475	-1627
239.539	819
239.604	-2130
239.668	0
239.733	-363
239.797	-1163
239.862	-1485
239.926	-1084
239.991	-833
240.055	-222
240.120	-1236
240.184	-764
240.249	-1880
240.313	-1318
240.378	-1030
240.442	-730
240.507	-498
240.571	-578
240.635	-727
240.700	-164
240.764	-1152
240.829	-1179
240.893	-2221
240.957	-523
241.022	-1031
241.086	-238
241.151	-2245
241.215	-1760
241.279	316
241.344	-1634
241.408	-947
241.472	-1274
241.537	-49
241.601	-268
241.665	-2273
241.730	-969
241.794	-705
241.858	-1291
241.922	-1027
241.987	-555
242.051	-1312
242.115	-2241
242.179	-123
242.244	-1125
242.308	-434
242.372	-286
242.436	-1451
242.501	-486
242.565	-2401
242.629	-1200
242.693	101
242.757	-1122
242.822	-1220
242.886	-699
242.950	-314
243.014	-1542
243.078	-1246
243.142	-539
243.206	-1236
243.271	-359
243.335	-1859
243.399	305
243.463	-922
243.527	859
243.591	-1039
243.655	-204
243.719	-1974
243.783	216
243.847	-819
243.911	-785
243.975	-2380
244.040	-1760
244.104	426
244.168	-782
244.232	-1729
244.296	-733
244.360	-759
244.424	-1931
244.488	-1240
244.552	152
244.615	-2421
244.679	126
244.743	-1251
244.807	-1636
244.871	-598
244.935	-331
244.999	-2583
245.063	-1031
245.127	-4
245.191	-352
245.255	-1380
245.319	-596
245.383	-2695
245.446	376
245.510	-2390
245.574	-877
245.638	-472
245.702	-2150
245.766	-810
245.829	-177
245.893	-2166
245.957	-2096
246.021	231
246.085	-1389
246.149	-1388
246.212	48
246.276	-1753
246.340	-1601
246.404	-1190
246.467	-26
246.531	-2192
246.595	428
246.659	-372
246.722	-1309
246.786	-388
246.850	-503
246.913	-1665
246.977	-1943
247.041	-637
247.104	-807
247.168	-310
247.232	-902
247.295	-1185
247.359	-915
247.423	-1271
247.486	-678
247.550	179
247.614	-1090
247.677	-883
247.741	-1178
247.804	-763
247.868	-1040
247.932	-1838
247.995	-15
248.059	-717
248.122	-844
248.186	-39
248.249	76
248.313	-49
248.376	-434
248.440	-1303
248.503	-2227
248.567	4
248.630	-2356
248.694	-1055
248.757	142
248.821	-244
248.884	656
248.948	-1843
249.011	522
249.075	-504
249.138	80
249.202	-1066
249.265	-946
249.328	-309
249.392	-1785
249.455	-438
249.519	-1101
249.582	-1113
249.645	-706
249.709	-1268
249.772	-1622
249.835	-1234
249.899	-1885
249.962	-943
250.025	-1594
250.089	-387
250.152	585
250.215	-1093
250.279	-960
250.342	-136
250.405	-965
250.468	-1883
250.532	-898
250.595	5
250.658	-861
250.721	706
250.785	-428
250.848	1089
250.911	-1117
250.974	-505
251.038	-633
251.101	616
251.164	-654
251.227	-735
251.290	-1240
251.354	-502
251.417	975
251.480	1193
251.543	419
251.606	2780
251.669	1938
251.732	-144
251.795	-201
251.859	-302
251.922	703
251.985	1283
252.048	369
252.111	-635
252.174	-812
252.237	495
252.300	548
252.363	-898
252.426	2649
252.489	-1430
252.552	816
252.615	-1565
252.678	121
252.741	-59
252.804	-559
252.867	844
252.930	402
252.993	-84
253.056	194
253.119	-1030
253.182	-636
253.245	-1679
253.308	-286
253.371	-1939
253.434	-854
253.497	-1549
253.559	-228
253.622	-1319
253.685	-1102
253.748	-1189
253.811	-1415
253.874	-99
253.937	-1701
254.000	-1107
254.062	-466
254.125	-644
254.188	315
254.251	-1848
254.314	-446
254.376	-1294
254.439	-847
254.502	-787
254.565	-1245
254.628	-180
254.690	-717
254.753	-1720
254.816	-892
254.878	-936
254.941	-688
255.004	-1234
255.067	-396
255.129	-1266
255.192	-383
255.255	-2392
255.317	-355
255.380	-1217
255.443	-1052
255.505	-1684
255.568	-1781
255.631	-1131
255.693	-711
255.756	-1246
255.819	-326
255.881	-2048
255.944	-512
256.006	-1556
256.069	-1513
256.132	-1258
256.194	-581
256.257	-704
256.319	-723
256.382	-2263
256.444	-1105
256.507	-1149
256.569	-2106
256.632	-513
256.694	-1478
256.757	219
256.819	1225
256.882	-1868
256.944	-479
257.007	-514
257.069	-1292
257.132	-616
257.194	-766
257.257	-1150
257.319	-1521
257.381	-1629
257.444	578
257.506	1019
257.569	1126
257.631	-846
257.693	-676
257.756	-1347
257.818	-636
257.880	-1805
257.943	108
258.005	-1295
258.067	-976
258.130	-640
258.192	-1115
258.254	-2027
258.317	-853
258.379	-656
258.441	-1245
258.503	-1004
258.566	-947
258.628	-743
258.690	-1282
258.753	-158
258.815	-765
258.877	-2163
258.939	-1372
259.001	-945
259.064	-1660
259.126	-1514
259.188	-1317
259.250	-1328
259.312	-488
259.375	-1618
259.437	-568
259.499	-1035
259.561	-1329
259.623	-1468
259.685	-762
259.747	-1506
259.809	-865
259.872	-1284
259.934	-338
259.996	-779
260.058	-385
260.120	-862
260.182	-1169
260.244	-1394
260.306	-957
260.368	-947
260.430	-1756
260.492	-427
260.554	-441
260.616	-1935
260.678	-1103
260.740	-1084
260.802	-1515
260.864	-922
260.926	-1482
260.988	-515
261.050	-1574
261.112	-1624
261.174	-120
261.236	-725
261.298	-1033
261.359	-929
261.421	296
261.483	-2267
261.545	-541
261.607	-2690
261.669	-1000
261.731	-1527
261.793	-619
261.854	-2327
261.916	-481
261.978	-1904
262.040	-1103
262.102	100
262.164	-1917
262.225	-1106
262.287	-1311
262.349	-2241
262.411	-931
262.472	-453
262.534	-1496
262.596	-1344
262.658	-804
262.719	-2186
262.781	-1096
262.843	-2025
262.904	-1307
262.966	-1055
263.028	-1226
263.090	-725
263.151	-66
263.213	-694
263.275	-1983
263.336	-1832
263.398	-517
263.459	-2422
263.521	-832
263.583	-590
263.644	-920
263.706	-1573
263.767	-1794
263.829	-607
263.891	-1460
263.952	-1474
264.014	-740
264.075	-1541
264.137	-961
264.198	-290
264.260	-1286
264.321	-1672
264.383	-1420
264.444	-193
264.506	-878
264.567	-1107
264.629	-59
264.690	-2317
264.752	-728
264.813	-1576
264.875	-993
264.936	-1124
264.998	-1151
265.059	-1314
265.120	-701
265.182	-1128
265.243	-478
265.305	-297
265.366	-920
265.427	-958
265.489	184
265.550	-2013
265.611	-1666
265.673	-1658
265.734	-1109
265.795	-1454
265.857	-1315
265.918	-1578
265.979	-453
266.040	306
266.102	208
266.163	-742
266.224	-647
266.286	-1149
266.347	-1108
266.408	-1180
266.469	-1360
266.530	-1674
266.592	-1471
266.653	-1441
266.714	-1483
266.775	-2535
266.836	-1170
266.898	-2068
266.959	-1529
267.020	-1787
267.081	255
267.142	-817
267.203	-894
267.264	-2550
267.326	-248
267.387	-1698
267.448	-807
267.509	-1228
267.570	-696
267.631	-1516
267.692	-1263
267.753	-1330
267.814	-1922
267.875	-1085
267.936	-980
267.997	-1852
268.058	-1386
268.119	-1867
268.180	-1522
268.241	-1402
268.302	-997
268.363	-1306
268.424	-1468
268.485	-1263
268.546	-1054
268.607	-1366
268.668	-1780
268.729	-1599
268.790	-972
268.851	-1121
268.912	-1357
268.972	-1696
269.033	-1720
269.094	-955
269.155	-1173
269.216	-989
269.277	-757
269.338	-1509
269.398	-1420
269.459	-2250
269.520	-501
269.581	-1359
269.642	-1529
269.702	-1671
269.763	-1329
269.824	-1507
269.885	-1295
269.945	-911
270.006	-1000
270.067	-1522
270.128	-1555
270.188	-1724
270.249	-1397
270.310	-1729
270.370	-944
270.431	-1919
270.492	-1268
270.553	-1620
270.613	-1135
270.674	-1219
270.734	-1036
270.795	-1654
270.856	-899
270.916	-1722
270.977	-958
271.038	-1241
271.098	-1195
271.159	-1967
271.219	-1011
271.280	-1099
271.340	-346
271.401	-2072
271.462	-671
271.522	-2031
271.583	-662
271.643	-1049
271.704	-1409
271.764	-1747
271.825	-714
271.885	67
271.946	-231
272.006	-1720
272.066	-1103
272.127	-158
272.187	-695
272.248	-1319
272.308	-1677
272.369	-979
272.429	-732
272.489	-1738
272.550	-1229
272.610	-625
272.671	-1248
272.731	-1150
272.791	-915
272.852	-1966
272.912	-1267
272.972	-1621
273.033	-1017
273.093	-1530
273.153	-1004
273.214	-1301
273.274	-1391
273.334	-1353
273.394	-817
273.455	-1052
273.515	-896
273.575	-1053
273.635	-1150
273.696	-651
273.756	-548
273.816	-1106
273.876	-1191
273.936	-1822
273.997	37
274.057	-1946
274.117	-1333
274.177	-1017
274.237	-448
274.297	-925
274.358	-720
274.418	-1050
274.478	-826
274.538	-1653
274.598	-1214
274.658	-1166
274.718	-387
274.778	-1502
274.838	-1486
274.898	-2247
274.958	221
275.018	-6
275.078	48
275.138	-1175
275.198	-1825
275.258	-1883
275.318	-1440
275.378	-1562
275.438	-658
275.498	-1231
275.558	-521
275.618	-673
275.678	-432
275.738	-1295
275.798	-1076
275.858	-1556
275.918	-1011
275.978	-1755
276.038	-1843
276.098	-2043
276.157	-1621
276.217	-1301
276.277	-898
276.337	-1463
276.397	-1068
276.457	-1615
276.517	-1160
276.576	-1558
276.636	-1496
276.696	-1106
276.756	-1388
276.815	-986
276.875	-1430
276.935	-1958
276.995	-1338
277.055	-1047
277.114	-840
277.174	-1853
277.234	-279
277.293	-1274
277.353	-830
277.413	-721
277.472	-997
277.532	-1889
277.592	-488
277.651	-1123
277.711	-450
277.771	-1450
277.830	-526
277.890	-1001
277.950	-1318
278.009	-421
278.069	-399
278.128	-1101
278.188	-941
278.248	-1033
278.307	-271
278.367	-914
278.426	-1487
278.486	-1838
278.545	-1755
278.605	-1523
278.664	-1700
278.724	-1653
278.783	-1778
278.843	20
278.902	-982
278.962	-1603
279.021	-1094
279.081	-1213
279.140	-1074
279.199	-1366
279.259	-1253
279.318	-1274
279.378	-635
279.437	-1258
279.496	473
279.556	4555
279.615	3573
279.675	-796
279.734	-325
279.793	-664
279.853	170
279.912	-1001
279.971	-775
280.031	-1315
280.090	-890
280.149	-37
280.208	-640
280.268	1744
280.327	2735
280.386	-890
280.445	-1210
280.505	-1215
280.564	-925
280.623	-1217
280.682	-876
280.742	-1204
280.801	-1498
280.860	-1511
280.919	-1912
280.978	-1586
281.037	-1317
281.097	-1152
281.156	-425
281.215	-1327
281.274	-242
281.333	-594
281.392	-1116
281.451	-1601
281.510	-1242
281.569	-1837
281.628	-1405
281.688	-1681
281.747	-1107
281.806	-1363
281.865	-1228
281.924	-1582
281.983	-1602
282.042	-2090
282.101	-1178
282.160	-1016
282.219	-1569
282.278	-1931
282.337	423
282.396	-1213
282.454	-1718
282.513	-1483
282.572	-655
282.631	-822
282.690	-550
282.749	-2102
282.808	-1519
282.867	-1484
282.926	-1411
282.985	-1404
283.043	-1679
283.102	-1937
283.161	-842
283.220	-1686
283.279	-326
283.338	-821
283.396	-1387
283.455	-1637
283.514	-960
283.573	-1098
283.631	-1138
283.690	-1187
283.749	-1338
283.808	-1537
283.866	-649
283.925	-2099
283.984	-1122
284.043	-1782
284.101	-698
284.160	-2145
284.219	-1210
284.277	-1384
284.336	-1738
284.395	-289
284.453	-445
284.512	-668
284.570	-1208
284.629	-1118
284.688	-704
284.746	-1102
284.805	-846
284.863	-1222
284.922	-612
284.981	-1476
285.039	-205
285.098	442
285.156	2353
285.215	8870
285.273	10048
285.332	3770
285.390	1206
285.449	200
285.507	-543
285.566	-1259
285.624	-1660
285.683	-936
285.741	-1798
285.799	-395
285.858	-974
285.916	-1300
285.975	-1201
286.033	-1789
286.091	-1461
286.150	-2079
286.208	-635
286.267	-1707
286.325	-2190
286.383	-1521
286.442	-1210
286.500	-1642
286.558	-1281
286.616	-1946
286.675	-429
286.733	-905
286.791	-1426
286.850	-1612
286.908	-1183
286.966	-2338
287.024	-1302
287.083	-2102
287.141	-995
287.199	-767
287.257	-1281
287.315	-1178
287.374	-1584
287.432	-1247
287.490	-777
287.548	-1777
287.606	-1164
287.664	-1849
287.723	-1096
287.781	-931
287.839	-777
287.897	-1689
287.955	-778
288.013	-1383
288.071	-277
288.129	2134
288.187	13229
288.245	5301
288.303	775
288.361	-568
288.419	-650
288.477	-1174
288.535	-1244
288.593	-812
288.651	-780
288.709	-2137
288.767	-1330
288.825	-1722
288.883	-1236
288.941	-1987
288.999	-1452
289.057	-1344
289.115	-1805
289.173	-2060
289.231	-1344
289.289	-2063
289.346	-1063
289.404	-1671
289.462	-1537
289.520	-2043
289.578	-1132
289.636	-1468
289.694	-1844
289.751	-2034
289.809	-1485
289.867	-2013
289.925	-727
289.983	-1998
290.040	-1391
290.098	-1523
290.156	-1946
290.214	-1242
290.271	-1679
290.329	-1407
290.387	-1411
290.444	-1467
290.502	-1517
290.560	-1327
290.617	-1208
290.675	-1632
290.733	-1131
290.790	-1313
290.848	-1114
290.906	-1956
290.963	-226
291.021	-1731
291.078	-1534
291.136	-1894
291.194	-1326
291.251	-898
291.309	-525
291.366	-1165
291.424	-1567
291.481	-1480
291.539	-1303
291.596	-1748
291.654	-1874
291.711	-1801
291.769	-1099
291.826	-1703
291.884	-1144
291.941	-1990
291.999	-1619
292.056	-1644
292.114	-1907
292.171	-1504
292.228	-1852
292.286	-1632
292.343	-949
292.401	-1803
292.458	-1312
292.515	-1953
292.573	-1182
292.630	-2174
292.687	-1458
292.745	-2052
292.802	-1111
292.859	-1456
292.917	85
292.974	-363
293.031	-606
293.089	-1106
293.146	-1426
293.203	-1566
293.260	-1623
293.318	-1769
293.375	-1386
293.432	-1794
293.489	-1577
293.546	-1670
293.604	-1514
293.661	-1366
293.718	1209
293.775	-421
293.832	-1170
293.889	-1859
293.947	-1180
294.004	-1895
294.061	-1446
294.118	-1533
294.175	-632
294.232	719
294.289	-953
294.346	-1304
294.403	-1798
294.460	-2399
294.517	-964
294.574	-1158
294.631	-1657
294.688	-1752
294.745	-881
294.802	1225
294.859	1969
294.916	-534
294.973	-1612
295.030	-906
295.087	-1323
295.144	-1903
295.201	-960
295.258	-1524
295.315	-1178
295.372	-1002
295.429	1184
295.486	-372
295.542	-819
295.599	-685
295.656	1080
295.713	-539
295.770	1797
295.827	-1029
295.883	-1017
295.940	-1667
295.997	-30
296.054	-1013
296.111	-1284
296.167	-946
296.224	-824
296.281	-1782
296.338	-2070
296.394	-1680
296.451	-913
296.508	-342
296.564	260
296.621	-797
296.678	1277
296.734	1799
296.791	364
296.848	-1092
296.904	-217
296.961	-697
297.018	951
297.074	366
297.131	-1337
297.187	-1625
297.244	-628
297.301	61
297.357	3858
297.414	189
297.470	-288
297.527	-1441
297.583	-1349
297.640	-1695
297.696	-1740
297.753	-1891
297.809	-1421
297.866	-1435
297.922	-1278
297.979	-1758
298.035	-1582
298.092	-1718
298.148	-695
298.204	-130
298.261	-904
298.317	96
298.374	1413
298.430	237
298.486	-177
298.543	-1611
298.599	-1340
298.656	-1384
298.712	-680
298.768	104
298.824	-111
298.881	-944
298.937	-1182
298.993	-1467
299.050	-1537
299.106	-550
299.162	-2202
299.218	-1484
299.275	-454
299.331	-1349
299.387	-282
299.443	905
299.500	2135
299.556	76
299.612	-994
299.668	-1796
299.724	-1228
299.780	-1605
299.837	-1606
299.893	-1542
299.949	174
300.005	495
300.061	794
300.117	2279
300.173	627
300.229	-905
300.285	-918
300.341	-855
300.397	-1080
300.453	-2118
300.510	-1127
300.566	-1358
300.622	-697
300.678	-1006
300.734	-217
300.790	979
300.845	1134
300.901	-78
300.957	361
301.013	28
301.069	-307
301.125	-1589
301.181	-586
301.237	-1338
301.293	-1745
301.349	-1122
301.405	-1191
301.461	-2130
301.516	-1398
301.572	-963
301.628	-1246
301.684	-1347
301.740	-1203
301.796	-5
301.851	-646
301.907	-404
301.963	434
302.019	439
302.074	5613
302.130	7092
302.186	3703
302.242	263
302.297	-1070
302.353	-1211
302.409	-129
302.464	438
302.520	75
302.576	979
302.631	3212
302.687	360
302.743	-1191
302.798	-925
302.854	-2169
302.910	-1492
302.965	-657
303.021	-916
303.076	-768
303.132	-644
303.187	-576
303.243	-1142
303.299	-1484
303.354	-1085
303.410	-709
303.465	-1409
303.521	-2051
303.576	-1381
303.632	-1007
303.687	-1655
303.743	827
303.798	1471
303.853	-127
303.909	-1462
303.964	-497
304.020	-1492
304.075	62
304.130	-958
304.186	-235
304.241	820
304.297	495
304.352	-582
304.358	-581
304.407	-572
304.449	-898
304.463	-1007
304.518	-1928
304.539	-1779
304.573	-1548
304.629	-1820
304.630	-1808
304.684	-1333
304.720	-28
304.739	627
304.794	1136
304.811	1048
304.850	885
304.902	-793
304.905	-908
304.960	-1248
304.992	-850
305.015	-557
305.071	-863
305.083	-776
305.126	-468
305.173	-1626
305.181	-1814
305.236	-877
305.264	-899
305.292	-968
305.347	-1761
305.354	-1671
305.402	-1018
305.445	-1303
305.457	-1388
305.512	-1003
305.535	-1007
305.567	-1015
305.622	-828
305.626	-789
305.678	-54
305.716	634
305.733	819
305.788	1792
305.807	1449
305.843	1046
305.897	2149
305.898	2162
305.953	1399
305.988	628
306.008	226
306.063	90
306.078	-299
306.118	-1445
306.168	-1064
306.173	-1013
306.228	-889
306.259	-966
306.283	-1091
306.338	-1320
306.349	-1274
306.393	-865
306.440	-634
306.448	-621
306.503	-417
306.530	-773
306.558	-1045
306.613	-399
306.620	-314
306.668	145
306.711	1321
306.723	1612
306.778	710
306.801	462
306.833	184
306.888	-559
306.892	-538
306.943	-219
306.982	-542
306.997	-679
307.052	-547
307.072	-710
307.107	-907
307.162	-652
307.163	-651
307.217	-430
307.253	-309
307.272	-201
307.327	-457
307.343	-304
307.381	-124
307.434	-1003
307.436	-1019
307.491	206
307.524	757
307.546	828
307.600	1157
307.614	811
307.655	102
307.704	-152
307.710	-176
307.765	-442
307.795	-324
307.819	-366
307.874	191
307.885	156
307.929	532
307.975	767
307.984	776
308.038	1179
308.065	1359
308.093	2478
308.148	6166
308.156	7236
308.202	11925
308.246	15242
308.257	15482
308.312	9081
308.336	6326
308.366	4168
308.421	2206
308.426	2098
308.475	1057
308.517	187
308.530	-29
308.585	381
308.607	345
308.639	339
308.694	350
308.697	349
308.748	638
308.787	1271
308.803	1370
308.857	994
308.877	848
308.912	651
308.967	529
308.967	532
309.021	1402
309.058	1712
309.076	1923
309.130	3704
309.148	4193
309.185	7907
309.238	16081
309.239	16120
309.293	19545
309.328	17237
309.348	15234
309.402	7713
309.418	5775
309.457	3489
309.508	2216
309.511	2131
309.566	1630
309.598	1285
309.620	1216
309.674	1527
309.688	1647
309.729	1553
309.778	1057
309.783	1035
309.837	671
309.868	547
309.892	841
309.946	1763
309.959	2056
310.001	2244
310.049	2508
310.055	2509
310.109	1663
310.139	1191
310.163	965
310.218	790
310.229	696
310.272	427
310.319	750
310.326	739
310.381	20
310.409	-88
310.435	189
310.489	476
310.499	520
310.543	330
310.589	93
310.598	86
310.652	-11
310.679	73
310.706	129
310.760	107
310.769	82
310.814	215
310.859	416
310.868	364
310.923	-119
310.948	-241
310.977	9
311.031	338
311.038	388
311.085	288
311.128	-36
311.139	-43
311.193	252
311.218	293
311.247	485
311.301	950
311.308	975
311.356	547
311.398	295
311.410	321
311.464	279
311.488	306
311.518	190
311.572	-78
311.578	-111
311.626	224
311.668	534
311.680	459
311.734	61
311.758	-99
311.788	-27
311.842	48
311.847	61
311.896	313
311.937	495
311.950	444
312.004	209
312.027	123
312.058	455
312.112	1018
312.117	1072
312.165	541
312.207	84
312.297	436
312.386	543
312.476	-78
312.566	463
312.656	514
312.745	675
312.835	243
312.925	651
313.015	254
313.104	-380
313.194	230
313.284	616
313.374	807
313.463	60
313.553	388
313.643	1175
313.732	247
313.822	70
313.912	856
314.001	-198
314.091	-149
314.180	498
314.270	206
314.360	-194
314.449	674
314.539	5
314.628	49
314.718	279
314.808	486
314.897	293
314.987	337
315.076	-211
315.166	129
315.255	-4
315.345	355
315.434	446
315.524	662
315.613	852
315.703	35
315.792	470
315.881	39
315.971	173
316.060	765
316.150	540
316.239	324
316.328	497
316.418	140
316.507	95
316.597	237
316.686	381
316.775	-255
316.865	486
316.954	190
317.043	953
317.133	166
317.222	259
317.311	-292
317.400	-1331
317.490	854
317.579	-339
317.668	129
317.757	372
317.847	779
317.936	276
318.025	1369
318.114	-149
318.203	583
318.293	366
318.382	984
318.471	577
318.560	1386
318.649	2043
318.738	604
318.828	421
318.917	-199
319.006	-202
319.095	696
319.184	3087
319.273	2033
319.362	659
319.451	181
319.540	373
319.629	562
319.718	636
319.807	158
319.896	881
319.985	3571
320.074	1156
320.163	559
320.252	-375
320.341	215
320.430	-274
320.519	-528
320.608	-555
320.697	73
320.786	189
320.875	428
320.964	288
321.053	275
321.142	542
321.230	705
321.319	59
321.408	688
321.497	36
321.586	297
321.675	215
321.764	363
321.852	527
321.941	1031
322.030	-178
322.119	644
322.207	1088
322.296	975
322.385	827
322.474	873
322.562	1648
322.651	1071
322.740	-245
322.829	613
322.917	235
323.006	-104
323.095	-128
323.183	-183
323.272	354
323.361	624
323.449	1757
323.538	-6
323.626	1457
323.715	417
323.804	520
323.892	744
323.981	143
324.069	575
324.158	293
324.246	489
324.335	-411
324.424	961
324.512	211
324.601	-236
324.689	362
324.778	1411
324.866	280
324.954	585
325.043	-315
325.131	-150
325.220	688
325.308	226
325.397	790
325.485	740
325.574	81
325.662	192
325.750	-206
325.839	373
325.927	-16
326.015	109
326.104	-271
326.192	760
326.280	430
326.369	-528
326.457	382
326.545	477
326.634	-243
326.722	-88
326.810	406
326.898	673
326.987	588
327.075	-492
327.163	1123
327.251	-75
327.340	14
327.428	856
327.516	-65
327.604	0
327.692	352
327.781	686
327.869	456
327.957	-621
328.045	396
328.133	446
328.221	-251
328.309	207
328.397	66
328.485	407
328.574	157
328.662	90
328.750	-287
328.838	188
328.926	-352
329.014	532
329.102	556
329.190	413
329.278	304
329.366	107
329.454	34
329.542	10
329.630	-822
329.718	913
329.806	410
329.893	691
329.981	134
330.069	2090
330.157	4548
330.245	13385
330.333	6750
330.421	956
330.509	300
330.597	1152
330.684	654
330.772	331
330.860	510
330.948	775
331.036	518
331.123	-421
331.211	-220
331.299	-3
331.387	559
331.475	82
331.562	179
331.650	257
331.738	-668
331.825	105
331.913	-107
332.001	-560
332.089	-265
332.176	-333
332.264	842
332.352	-754
332.439	-247
332.527	204
332.614	474
332.702	731
332.790	290
332.877	-285
332.965	701
333.052	-571
333.140	-75
333.228	345
333.315	-52
333.403	-518
333.490	610
333.578	-590
333.665	-88
333.753	434
333.840	88
333.928	78
334.015	666
334.103	1292
334.190	2618
334.278	635
334.365	186
334.452	-374
334.540	-104
334.627	-216
334.715	506
334.802	445
334.889	1354
334.977	1187
335.064	438
335.151	-528
335.239	227
335.326	229
335.413	1559
335.501	2046
335.588	-34
335.675	-962
335.762	306
335.850	124
335.937	-348
336.024	528
336.111	2076
336.199	899
336.286	92
336.373	468
336.460	-273
336.547	78
336.635	372
336.722	151
336.809	-72
336.896	-225
336.983	1599
337.070	2942
337.157	3366
337.245	1361
337.332	965
337.419	-237
337.506	-445
337.593	-27
337.680	796
337.767	2254
337.854	880
337.941	514
338.028	-236
338.115	-41
338.202	718
338.289	592
338.376	-108
338.463	284
338.550	756
338.637	1506
338.724	64
338.811	525
338.898	560
338.984	804
339.071	-507
339.158	-238
339.245	459
339.332	271
339.419	508
339.506	260
339.593	-871
339.679	503
339.766	-437
339.853	248
339.940	118
340.027	-583
340.113	-74
340.200	-380
340.287	-113
340.374	-514
340.460	782
340.547	-918
340.634	280
340.720	995
340.807	656
340.894	20
340.980	-266
341.067	42
341.154	845
341.240	-58
341.327	324
341.414	755
341.500	-234
341.587	637
341.674	251
341.760	281
341.847	409
341.933	-660
342.020	-84
342.106	-330
342.193	-402
342.279	504
342.366	-674
342.452	-27
342.539	100
342.625	295
342.712	496
342.798	-270
342.885	-375
342.971	-46
343.058	-613
343.144	-850
343.230	158
343.317	538
343.403	-616
343.490	-127
343.576	-526
343.662	-721
343.749	-952
343.835	-479
343.921	475
344.008	3197
344.094	7068
344.180	652
344.267	138
344.353	1143
344.439	1466
344.525	-283
344.612	829
344.698	244
344.784	-538
344.870	-422
344.957	-955
345.043	609
345.129	-832
345.215	-163
345.301	-596
345.387	-809
345.474	-416
345.560	-605
345.646	-1119
345.732	-291
345.818	514
345.904	-21
345.990	-605
346.076	265
346.162	-337
346.249	-709
346.335	-590
346.421	-959
346.507	208
346.593	3142
346.679	-1117
346.765	783
346.851	-775
346.937	-1433
347.023	828
347.108	-246
347.194	95
347.280	-89
347.366	457
347.452	221
347.538	1852
347.624	3019
347.710	1525
347.796	-180
347.882	446
347.967	-549
348.053	-272
348.139	244
348.225	-1011
348.311	-490
348.397	-821
348.482	392
348.568	-16
348.654	-377
348.740	-593
348.825	-1604
348.911	1103
348.997	1013
349.083	2532
349.168	93
349.254	153
349.340	264
349.425	-401
349.511	-286
349.597	-352
349.682	-962
349.768	1973
349.854	176
349.939	-172
350.025	100
350.110	336
350.196	-502
350.282	-913
350.367	-647
350.453	-174
350.538	-598
350.624	-1029
350.709	494
350.795	-586
350.880	-668
350.966	1024
351.051	262
351.137	-208
351.222	78
351.308	-622
351.393	1429
351.479	-104
351.564	-521
351.649	321
351.735	-110
351.820	-920
351.906	-637
351.991	-720
352.076	208
352.162	1015
352.247	-61
352.332	-918
352.418	-243
352.503	-510
352.588	3176
352.673	904
352.759	-345
352.844	-498
352.929	-402
353.014	-744
353.100	434
353.185	-418
353.270	-605
353.355	432
353.441	49
353.526	-62
353.611	-466
353.696	-687
353.781	-32
353.866	-822
353.952	1430
354.037	-250
354.122	457
354.207	-24
354.292	-360
354.377	603
354.462	356
354.547	-905
354.632	513
354.717	366
354.802	-1102
354.887	-367
354.972	-104
355.057	272
355.142	-1037
355.227	1206
355.312	-693
355.397	-413
355.482	30
355.567	-532
355.652	132
355.737	-410
355.822	881
355.907	246
355.991	1333
356.076	-396
356.161	20
356.246	-1044
356.331	-284
356.416	-621
356.501	4864
356.585	2708
356.670	-1187
356.755	1644
356.840	42
356.924	2316
357.009	6878
357.094	3036
357.179	203
357.263	-198
357.348	614
357.433	187
357.517	407
357.602	-200
357.687	-731
357.771	880
357.856	1727
357.941	829
358.025	1300
358.110	8327
358.195	3110
358.279	-563
358.364	202
358.448	602
358.533	3392
358.617	1266
358.702	1926
358.787	511
358.871	-1018
358.956	472
359.040	-871
359.125	-146
359.209	262
359.294	212
359.378	1385
359.462	-486
359.547	-306
359.631	11
359.716	-1361
359.800	-900
359.885	632
359.969	-362
360.053	753
360.138	-1303
360.222	-695
360.306	-846
360.391	495
360.475	246
360.559	1110
360.644	561
360.728	-884
360.812	2684
360.896	5516
360.981	1002
361.065	-378
361.149	1083
361.233	-131
361.318	-1186
361.402	24
361.486	-250
361.570	-503
361.654	-180
361.739	-821
361.823	2565
361.907	5243
361.991	263
362.075	-535
362.159	-1059
362.243	118
362.327	-1327
362.411	1434
362.495	-648
362.580	-272
362.664	20
362.748	-41
362.832	198
362.916	-1252
363.000	1047
363.084	3667
363.168	4880
363.252	-157
363.336	55
363.420	473
363.503	3166
363.587	2059
363.671	362
363.755	-553
363.839	1066
363.923	-1256
364.007	-686
364.091	-101
364.175	-466
364.258	5859
364.342	886
364.426	2171
364.510	-20
364.594	1767
364.677	1742
364.761	3424
364.845	2682
364.929	159
365.013	710
365.096	780
365.180	-368
365.264	585
365.347	5777
365.431	348
365.515	-1543
365.598	-1257
365.682	777
365.766	-608
365.849	29
365.933	-609
366.017	1448
366.100	-965
366.184	-907
366.267	425
366.351	-509
366.435	-271
366.518	-807
366.602	-588
366.685	-193
366.769	-517
366.852	768
366.936	-200
367.019	-377
367.103	-1565
367.186	1169
367.270	-522
367.353	-1352
367.436	468
367.520	-543
367.603	-351
367.687	-1780
367.770	-12
367.853	846
367.937	2152
368.020	1220
368.104	-421
368.187	816
368.270	474
368.353	-100
368.437	-173
368.520	614
368.603	528
368.687	-14
368.770	2117
368.853	-820
368.936	-91
369.020	565
369.103	-463
369.186	-1171
369.269	-833
369.352	-105
369.436	-375
369.519	310
369.602	-2185
369.685	803
369.768	-1172
369.851	-2
369.934	-763
370.018	-538
370.101	-1122
370.184	1537
370.267	-491
370.350	-740
370.433	-156
370.516	1279
370.599	2279
370.682	-1840
370.765	1987
370.848	2936
370.931	2389
371.014	1342
371.097	-2144
371.180	84
371.263	-28
371.346	-1383
371.429	-532
371.511	-1134
371.594	-768
371.677	749
371.760	536
371.843	-180
371.926	3552
372.009	5730
372.091	3227
372.174	-60
372.257	2719
372.340	44
372.423	209
372.505	810
372.588	-816
372.671	981
372.754	1757
372.836	935
372.919	454
373.002	2041
373.085	-548
373.167	827
373.250	716
373.332	2686
373.415	5605
373.498	7613
373.580	3044
373.663	4358
373.746	4789
373.828	732
373.911	491
373.993	-552
374.076	2101
374.159	1007
374.241	773
374.324	2729
374.406	1790
374.489	2006
374.571	7609
374.654	1801
374.736	683
374.819	4290
374.901	8465
374.983	5701
375.066	469
375.148	24
375.231	1352
375.313	3423
375.395	-616
375.478	-365
375.560	174
375.643	-334
375.725	1267
375.807	4099
375.890	4181
375.972	-684
376.054	489
376.136	28
376.219	-17
376.301	2355
376.383	4348
376.465	1057
376.548	-185
376.630	421
376.712	4504
376.794	1126
376.877	411
376.959	-999
377.041	61
377.123	268
377.205	526
377.287	-1505
377.369	-133
377.452	-232
377.534	-782
377.616	-573
377.698	-1353
377.780	-1993
377.862	-928
377.944	811
378.026	-1711
378.108	744
378.190	-1050
378.272	-366
378.354	-298
378.436	-1589
378.518	-1471
378.600	511
378.682	574
378.764	1001
378.846	1079
378.928	-789
379.010	-631
379.091	-74
379.173	-513
379.255	-974
379.337	-1087
379.419	-92
379.501	2631
379.583	-61
379.664	-237
379.746	-602
379.828	2552
379.910	1012
379.991	2733
380.073	-931
380.155	-640
380.237	-213
380.318	-649
380.400	-343
380.482	-93
380.564	-596
380.645	-1460
380.727	-735
380.809	396
380.890	-815
380.972	-1510
381.053	-923
381.135	-75
381.217	451
381.298	2083
381.380	234
381.461	289
381.543	2943
381.624	3393
381.706	137
381.787	63
381.869	179
381.951	810
382.032	5834
382.113	5336
382.195	-497
382.276	1414
382.358	-75
382.439	3143
382.521	5254
382.602	6374
382.684	2149
382.765	3957
382.846	1967
382.928	2966
383.009	591
383.090	1040
383.172	3735
383.253	6844
383.334	2334
383.416	4481
383.497	2632
383.578	150
383.659	592
383.741	3061
383.822	10519
383.903	2613
383.984	2079
384.066	7492
384.147	2651
384.228	772
384.309	-240
384.390	-335
384.471	-1034
384.553	-181
384.634	-1145
384.715	-503
384.796	-292
384.877	-763
384.958	1797
385.039	-39
385.120	-496
385.201	636
385.282	-746
385.363	-138
385.444	-643
385.525	533
385.606	2185
385.687	2417
385.768	-28
385.849	-495
385.930	3882
386.011	6143
386.092	140
386.173	-752
386.254	506
386.335	-47
386.416	-544
386.496	825
386.577	2175
386.658	-398
386.739	-1476
386.820	297
386.901	-1007
386.981	377
387.062	-1003
387.143	-1226
387.224	179
387.304	1145
387.385	-523
387.466	-2384
387.547	-149
387.627	-1456
387.708	-7
387.789	3619
387.869	3049
387.950	1246
388.031	-839
388.111	-2929
388.192	34
388.273	181
388.353	-408
388.434	-472
388.514	7
388.595	3188
388.676	3181
388.756	831
388.837	1318
388.917	299
388.998	-2246
389.078	402
389.159	97
389.239	-1707
389.320	1142
389.400	-2021
389.480	577
389.561	1250
389.641	1375
389.722	-669
389.802	-1408
389.883	222
389.963	3042
390.043	958
390.124	-1261
390.204	750
390.284	1896
390.365	352
390.445	1111
390.525	954
390.605	1922
390.686	-734
390.766	501
390.846	-312
390.927	-1380
391.007	-1729
391.087	858
391.167	-1498
391.247	-2356
391.328	502
391.408	266
391.488	-160
391.568	-2138
391.648	-941
391.728	135
391.808	318
391.888	-1079
391.969	134
392.049	1186
392.129	761
392.209	-131
392.289	2914
392.369	72
392.449	-313
392.529	-945
392.609	1112
392.689	846
392.769	2418
392.849	1354
392.929	1986
393.009	1957
393.089	322
393.169	90
393.248	802
393.328	13046
393.408	12127
393.488	1993
393.568	-348
393.648	-622
393.728	-415
393.807	-1902
393.887	910
393.967	-793
394.047	-1136
394.127	-729
394.206	1128
394.286	4619
394.366	22266
394.446	23299
394.525	3973
394.605	238
394.685	-96
394.764	1595
394.844	1420
394.924	-66
395.003	-693
395.083	-1194
395.163	-565
395.242	-799
395.322	92
395.402	-2107
395.481	1264
395.561	-402
395.640	2268
395.720	1200
395.799	2196
395.879	1483
395.958	575
396.038	7725
396.117	29849
396.197	30493
396.276	8012
396.356	710
396.435	225
396.515	908
396.594	-1094
396.673	80
396.753	2800
396.832	11366
396.912	8989
396.991	910
397.070	396
397.150	-1740
397.229	-127
397.308	-792
397.388	-961
397.467	-752
397.546	-776
397.625	-2753
397.705	509
397.784	-989
397.863	-778
397.942	-1014
398.022	-791
398.101	-153
398.180	2024
398.259	1106
398.338	90
398.417	-1215
398.497	-1472
398.576	-508
398.655	-2049
398.734	-434
398.813	-444
398.892	-359
398.971	2669
399.050	122
399.129	-1413
399.208	-665
399.287	-478
399.366	-600
399.445	-1065
399.524	-391
399.603	-2301
399.682	-1043
399.761	-310
399.840	2999
399.919	1416
399.998	-573
400.077	-1935
400.156	-1317
400.235	1148
400.313	-1606
400.392	-1722
400.471	766
400.550	1344
400.629	-1858
400.708	-597
400.786	-610
400.865	-628
400.944	-1576
401.023	462
401.102	-1465
401.180	-636
401.259	-1581
401.338	-1661
401.416	-210
401.495	-1531
401.574	-834
401.652	-1731
401.731	471
401.810	-2166
401.888	-1093
401.967	-2045
402.046	-605
402.124	-691
402.203	-1780
402.281	-332
402.360	-1208
402.438	617
402.517	-1716
402.596	-452
402.674	-997
402.753	-1014
402.831	-435
402.910	-90
402.988	-957
403.066	818
403.145	1472
403.223	64
403.302	523
403.380	1229
403.459	922
403.537	-328
403.615	-626
403.694	-1794
403.772	135
403.850	-1042
403.929	-529
404.007	-2057
404.085	-331
404.164	-1305
404.242	-1538
404.320	780
404.398	5860
404.477	4634
404.555	6071
404.633	4859
404.711	3711
404.789	2751
404.868	-308
404.946	-1611
405.024	-873
405.102	-1065
405.180	-1706
405.258	-1829
405.336	23
405.415	-1322
405.493	-793
405.571	-258
405.649	-1733
405.727	-2762
405.805	-87
405.883	-1086
405.961	115
406.039	-1487
406.117	-1797
406.195	-116
406.273	-827
406.351	3933
406.429	2563
406.507	-1116
406.585	-1771
406.663	-288
406.740	-1328
406.818	-2083
406.896	-1093
406.974	-326
407.052	-1764
407.130	1970
407.208	2204
407.285	51
407.363	-2141
407.441	-633
407.519	-1571
407.596	-1329
407.674	-1203
407.752	-730
407.830	-811
407.907	-443
407.985	-1528
408.063	-930
408.141	-837
408.218	-343
408.296	-1786
408.373	-1735
408.451	-588
408.529	-1286
408.606	-1193
408.684	-1378
408.762	-1209
408.839	-1153
408.917	-1382
408.994	-1425
409.072	-2321
409.149	-1531
409.227	-678
409.304	-1222
409.382	-1020
409.459	-1149
409.537	-666
409.614	-950
409.692	-1254
409.769	-1587
409.846	-1994
409.924	-327
410.001	-3370
410.079	-1940
410.156	363
410.233	-1202
410.311	-1634
410.388	-1398
410.465	-675
410.543	-1332
410.620	-164
410.697	-494
410.775	-1216
410.852	-1833
410.929	-975
411.006	-463
411.083	-1931
411.161	-1479
411.238	-350
411.315	-2134
411.392	-991
411.469	-481
411.547	-864
411.624	-2401
411.701	-1367
411.778	-1500
411.855	-1666
411.932	-1632
412.009	-990
412.086	-921
412.163	-799
412.240	-1286
412.317	-814
412.394	-1025
412.471	-816
412.548	-1923
412.625	-857
412.702	-873
412.779	-1460
412.856	-506
412.933	-1641
413.010	-1733
413.087	-816
413.164	-741
413.241	486
413.318	-1638
413.395	-404
413.471	-1298
413.548	-1241
413.625	-267
413.702	-2240
413.779	-1563
413.855	-1157
413.932	-1938
414.009	-2489
414.086	-1386
414.162	-1002
414.239	-437
414.316	-516
414.393	1791
414.469	-1351
414.546	-1485
414.623	-1500
414.699	-1113
414.776	-2014
414.853	-860
414.929	-645
415.006	-1142
415.082	-1291
415.159	-1076
415.236	-553
415.312	-489
415.389	-896
415.465	-1420
415.542	-944
415.618	-2172
415.695	-656
415.771	-1167
415.848	-1010
415.924	-866
416.000	-1326
416.077	-289
416.153	-2262
416.230	-1931
416.306	-1545
416.383	-2094
416.459	-929
416.535	-1242
416.612	-1696
416.688	-784
416.764	-1423
416.841	-1465
416.917	-1821
416.993	-670
417.069	-862
417.146	-1055
417.222	-805
417.298	-1228
417.374	-1644
417.451	-557
417.527	-1912
417.603	-1434
417.679	-1237
417.755	-951
417.831	-1762
417.908	-1079
417.984	-1796
418.060	-2338
418.136	-832
418.212	-1819
418.288	-942
418.364	-1117
418.440	-1753
418.516	-781
418.592	-829
418.668	-993
418.744	-953
418.820	-350
418.896	-1395
418.972	-2012
419.048	-1879
419.124	-526
419.200	-1590
419.276	-1914
419.352	-2074
419.428	-2041
419.504	-1786
419.579	-1236
419.655	-1543
419.731	-1352
419.807	-991
419.883	-1459
419.959	-644
420.034	-1037
420.110	-1572
420.186	-393
420.262	386
420.337	-1594
420.413	-1506
420.489	-1633
420.565	-356
420.640	-1699
420.716	-1043
420.792	-2189
420.867	-984
420.943	-2153
421.019	-1598
421.094	-1691
421.170	-1218
421.245	-1964
421.321	-1788
421.397	-1390
421.472	-389
421.548	-1510
421.623	-1188
421.699	-1442
421.774	-817
421.850	-2007
421.925	-1189
422.001	-1258
422.076	-761
422.152	-929
422.227	-1112
422.302	-441
422.378	-1776
422.453	-1297
422.529	1639
422.604	11446
422.679	25681
422.755	12395
422.830	2091
422.905	472
422.981	-695
423.056	-2260
423.131	-259
423.207	-1118
423.282	-2070
423.357	-1011
423.432	-2155
423.508	-1131
423.583	-1231
423.658	-1551
423.733	-1684
423.808	-1182
423.883	-672
423.959	-1500
424.034	-2003
424.109	-1403
424.184	-1886
424.259	-1412
424.334	-1764
424.409	-1540
424.484	-1441
424.559	-1371
424.634	-1710
424.709	-1681
424.784	-779
424.859	-1317
424.934	-2066
425.009	-826
425.084	281
425.159	-1519
425.234	-462
425.309	-2604
425.384	-11
425.459	-943
425.534	-969
425.609	-2364
425.683	-1597
425.758	-1821
425.833	-1262
425.908	-801
425.983	-1467
426.058	202
426.132	-1525
426.207	-1619
426.282	-718
426.357	-2020
426.431	-1370
426.506	-1181
426.581	-1307
426.655	-1337
426.730	-1320
426.805	-2191
426.879	-994
426.954	-1461
427.029	-1740
427.103	-513
427.178	3123
427.253	987
427.327	-1570
427.402	-1442
427.476	-306
427.551	-1684
427.625	-1314
427.700	-844
427.774	-1484
427.849	-688
427.923	-2394
427.998	-2373
428.072	-2023
428.147	-943
428.221	-659
428.296	389
428.370	-785
428.444	-960
428.519	-1549
428.593	-1389
428.667	-715
428.742	-307
428.816	-872
428.890	495
428.965	1831
429.039	-545
429.113	-835
429.188	-2080
429.262	-1576
429.336	-1024
429.410	-982
429.485	-1450
429.559	-938
429.633	-737
429.707	-2015
429.781	-1455
429.855	300
429.930	1666
430.004	144
430.078	1851
430.152	1232
430.226	1420
430.300	3589
430.374	-1778
430.448	-693
430.522	-108
430.596	568
430.670	575
430.744	2084
430.818	4915
430.892	169
430.966	-1323
431.040	-942
431.114	-2020
431.188	-2134
431.262	-1911
431.336	-1443
431.410	-299
431.484	-1473
431.557	-661
431.631	-1747
431.705	-1555
431.779	-1936
431.853	862
431.927	-388
432.000	-820
432.074	-1719
432.148	-993
432.222	-2028
432.295	-1464
432.369	-1124
432.443	-1405
432.516	354
432.590	3081
432.664	493
432.737	-1649
432.811	-1577
432.885	-1879
432.958	-451
433.032	-2353
433.106	-1488
433.179	-1754
433.253	-1582
433.326	-2410
433.400	-2109
433.473	-483
433.547	-1835
433.620	-1580
433.694	-1923
433.767	-1223
433.841	-2360
433.914	-1787
433.988	-1007
434.061	-1439
434.134	-1254
434.208	-1639
434.281	-1470
434.355	-2077
434.428	-1430
434.501	-1832
434.575	-2180
434.648	-1546
434.721	-1749
434.795	-1843
434.868	-2059
434.941	-1608
435.014	-1563
435.088	-1905
435.161	-1597
435.234	-1815
435.307	-2398
435.381	-1420
435.454	-1398
435.527	-1688
435.600	-1708
435.673	-1219
435.746	-1891
435.819	-1376
435.892	-1195
435.966	-1313
436.039	-1589
436.112	-1332
436.185	-1905
436.258	-1606
436.331	-1947
436.404	-2265
436.477	-1961
436.550	-1339
436.623	-1364
436.696	-2278
436.769	-2083
436.842	-2338
436.915	-1393
436.987	-1907
437.060	-1733
437.133	-1930
437.206	-2590
437.279	-1297
437.352	-1697
437.425	-2094
437.498	-1670
437.570	-1002
437.643	-1833
437.716	-2003
437.789	-2102
437.861	-1483
437.934	-707
438.007	-1216
438.080	-1771
438.152	-998
438.225	-1163
438.298	1423
438.370	7364
438.443	1768
438.516	-669
438.588	-1766
438.661	-1803
438.734	-1079
438.806	-1993
438.879	-1408
438.951	-2097
439.024	-1786
439.096	-1833
439.169	-1797
439.241	-2347
439.314	-2163
439.386	-2144
439.459	-494
439.531	-1836
439.604	-1278
439.676	-1300
439.749	-2059
439.821	-1727
439.893	-680
439.966	-1138
440.038	-1905
440.110	-1494
440.183	-2254
440.255	-2027
440.327	-582
440.400	-159
440.472	3755
440.544	1686
440.617	-1483
440.689	-571
440.761	-1172
440.833	-495
440.905	-1590
440.978	-1943
441.050	-1305
441.122	-1221
441.194	-1714
441.266	-1530
441.338	-1903
441.411	-1847
441.483	-182
441.555	781
441.627	-998
441.699	-1136
441.771	-2292
441.843	-1586
441.915	-1870
441.987	-1817
442.059	-2290
442.131	-1674
442.203	-1560
442.275	-1908
442.347	-1292
442.419	-1488
442.491	-667
442.563	339
442.635	-130
442.706	-855
442.778	-157
442.850	-1523
442.922	-1392
442.994	-1555
443.066	-1340
443.137	-1492
443.209	-2379
443.281	-1452
443.353	-1295
443.425	-216
443.496	2170
443.568	2733
443.640	-134
443.711	-650
443.783	-1391
443.855	-1362
443.926	-982
443.998	-2288
444.070	-1367
444.141	-2073
444.213	-1602
444.285	-1554
444.356	-2036
444.428	-1107
444.499	-1191
444.571	-1768
444.642	-1951
444.714	-1614
444.785	-1692
444.857	-1760
444.928	-725
445.000	-605
445.071	-852
445.143	-988
445.214	-736
445.285	-1548
445.357	514
445.428	2480
445.500	7892
445.571	3947
445.642	999
445.714	-23
445.785	430
445.856	-1565
445.928	-741
445.999	-1265
446.070	-1753
446.141	-1688
446.213	-170
446.284	-1775
446.355	-1090
446.426	-1821
446.497	-1311
446.569	-1765
446.640	-1870
446.711	-1177
446.782	-809
446.853	-952
446.924	-384
446.995	-1562
447.066	-1132
447.138	-833
447.209	-1823
447.280	-1079
447.351	-1487
447.422	-1620
447.493	-1518
447.564	-1985
447.635	-1586
447.706	-2243
447.777	-1287
447.847	-1618
447.918	-1860
447.989	-1127
448.060	-1406
448.131	-1835
448.202	-1491
448.273	-1388
448.344	-1048
448.414	-1090
448.485	-1519
448.556	-729
448.627	-2568
448.698	-579
448.768	-1807
448.839	-2213
448.910	-1404
448.981	-961
449.051	-1205
449.122	-1428
449.193	-1604
449.263	-1701
449.334	-1550
449.405	-1334
449.475	-1031
449.546	-442
449.616	-1290
449.687	-677
449.758	-1666
449.828	-1398
449.899	-1145
449.969	-1693
450.040	-1677
450.110	-1225
450.181	-900
450.251	-1780
450.322	-1186
450.392	-493
450.463	-1205
450.533	-1880
450.604	-1496
450.674	-1784
450.744	-1127
450.815	-2030
450.885	-728
450.955	-1024
451.026	-1752
451.096	-1892
451.166	-1770
451.237	-1114
451.307	-2
451.377	-888
451.447	-1298
451.518	-1463
451.588	-1639
451.658	-1088
451.728	-1757
451.799	-355
451.869	813
451.939	-1257
452.009	-1049
452.079	-1788
452.149	-1565
452.219	-1163
452.289	929
452.360	602
452.430	-1326
452.500	-1815
452.570	-428
452.640	-1122
452.710	-104
452.780	108
452.850	-256
452.920	-274
452.990	-1050
453.060	-927
453.129	-1459
453.199	-1066
453.269	1284
453.339	4293
453.409	7337
453.479	6410
453.549	10186
453.619	10355
453.688	3696
453.758	-622
453.828	-1067
453.898	-1739
453.968	-1499
454.037	-1036
454.087	-1097
454.107	-1128
454.168	-1552
454.177	-1622
454.247	-1737
454.249	-1710
454.316	-1267
454.330	-1224
454.386	-1150
454.411	-808
454.456	-295
454.492	-234
454.525	-208
454.574	-413
454.595	-486
454.655	-1264
454.665	-1403
454.734	-1128
454.736	-1113
454.804	-1283
454.817	-793
454.873	995
454.898	831
454.943	591
454.979	-249
455.013	-1003
455.060	-1068
455.082	-1081
455.141	-832
455.152	-804
455.221	259
455.222	318
455.291	2930
455.303	2736
455.360	1395
455.384	2443
455.430	3748
455.465	2722
455.499	1919
455.546	852
455.569	315
455.627	360
455.638	387
455.707	-854
455.708	-846
455.777	-932
455.789	-1033
455.846	-1635
455.869	-1533
455.916	-1209
455.950	-1385
455.985	-1679
456.031	-1482
456.054	-1297
456.112	-815
456.124	-754
456.193	-902
456.193	-910
456.262	-1112
456.274	-885
456.332	183
456.355	-95
456.401	-707
456.436	-880
456.470	-1123
456.516	-857
456.540	-683
456.597	-1014
456.609	-1080
456.678	-709
456.678	-713
456.747	-1409
456.759	-1395
456.817	-1111
456.840	-1059
456.886	-1268
456.920	-1061
456.955	-757
457.001	-743
457.024	-782
457.082	-1126
457.093	-1175
457.162	-481
457.163	-476
457.232	-954
457.243	-1005
457.301	-1020
457.324	-851
457.370	-605
457.405	-508
457.439	-461
457.485	-876
457.508	-1118
457.566	-1081
457.577	-1026
457.646	-744
457.647	-738
457.715	-867
457.727	-835
457.784	-572
457.808	-476
457.853	-447
457.889	-309
457.922	-194
457.969	-464
457.991	-577
458.050	-125
458.060	-44
458.129	148
458.130	147
458.198	-408
458.211	-406
458.267	-598
458.292	-711
458.336	-681
458.372	-375
458.405	102
458.453	271
458.474	132
458.533	-377
458.543	-389
458.611	396
458.614	444
458.680	392
458.694	172
458.749	-121
458.775	-170
458.818	-189
458.855	-278
458.887	-525
458.936	-747
458.955	-655
459.016	-176
459.024	-147
459.093	-312
459.097	-315
459.162	-698
459.177	-634
459.230	-82
459.257	153
459.299	229
459.338	-8
459.368	-51
459.418	-67
459.437	-147
459.499	-95
459.505	-93
459.574	-375
459.579	-368
459.643	-329
459.659	-429
459.711	-578
459.740	-464
459.780	-289
459.820	-270
459.849	-280
459.900	216
459.917	307
459.981	335
459.986	352
460.054	120
460.061	140
460.123	427
460.141	420
460.191	206
460.222	6
460.260	-167
460.302	-100
460.328	37
460.382	632
460.397	685
460.462	180
460.465	172
460.534	713
460.543	711
460.602	2180
460.623	3017
460.671	5317
460.703	7336
460.739	6166
460.783	3367
460.808	2899
460.864	1052
460.876	793
460.944	48
460.945	35
461.013	90
461.024	-6
461.081	154
461.104	355
461.150	209
461.184	44
461.218	-8
461.264	-47
461.286	131
461.345	12
461.355	-76
461.423	461
461.425	463
461.491	337
461.505	324
461.559	1251
461.585	1663
461.628	2713
461.665	3576
461.696	3535
461.745	4170
461.764	3711
461.825	857
461.832	819
461.901	823
461.905	823
461.969	-215
461.985	-387
462.037	520
462.065	1039
462.105	646
462.145	299
462.173	1186
462.225	2635
462.241	2601
462.305	2368
462.310	2254
462.378	1087
462.385	871
462.446	624
462.465	605
462.514	645
462.545	725
462.582	685
462.625	573
462.650	424
462.705	292
462.718	317
462.785	-56
462.786	-51
462.854	740
462.865	879
462.922	1694
462.945	1873
462.990	1233
463.025	724
463.058	568
463.104	386
463.126	324
463.184	591
463.194	722
463.262	841
463.264	864
463.330	1247
463.344	1304
463.398	1376
463.424	1264
463.466	623
463.504	334
463.533	686
463.583	1010
463.601	1061
463.663	1181
463.669	1103
463.737	256
463.743	188
463.805	1918
463.823	2473
463.873	3845
463.903	4668
463.940	4843
463.982	5120
464.008	3826
464.062	524
464.076	529
464.142	745
464.144	748
464.211	694
464.221	727
464.279	773
464.301	730
464.347	631
464.381	668
464.414	714
464.461	743
464.482	893
464.540	1281
464.550	1239
464.617	890
464.620	868
464.685	1333
464.699	1484
464.753	1798
464.779	1980
464.820	2032
464.859	2021
464.888	2132
464.938	2326
464.956	2292
465.018	1959
465.023	1999
465.091	2508
465.098	2561
465.158	1960
465.177	1813
465.226	1611
465.257	1403
465.293	1471
465.336	1530
465.361	1684
465.416	2041
465.428	2301
465.495	3632
465.496	3652
465.563	5647
465.575	6039
465.631	6555
465.654	6726
465.698	4165
465.734	1874
465.765	1870
465.813	1849
465.833	1944
465.893	2427
465.900	2391
465.968	1918
465.972	1885
466.035	1415
466.052	1288
466.102	2088
466.131	2530
466.170	2225
466.210	1844
466.237	1913
466.290	2061
466.304	2119
466.369	2416
466.372	2420
466.439	2289
466.449	2267
466.506	2832
466.528	3063
466.573	4348
466.607	5267
466.641	6838
466.687	9036
466.708	9441
466.766	10504
466.775	9707
466.842	3606
466.845	3309
466.909	3154
466.925	3133
466.977	3107
467.004	3094
467.044	3277
467.083	3459
467.111	3788
467.163	4391
467.178	4435
467.242	4585
467.245	4552
467.312	3737
467.321	3627
467.379	3629
467.400	3618
467.446	3883
467.480	4067
467.559	2921
467.638	2466
467.717	2619
467.796	3468
467.875	2744
467.955	4021
468.034	5740
468.113	10527
468.192	13073
468.271	1725
468.350	2252
468.429	2812
468.508	2479
468.588	1814
468.667	2716
468.746	2279
468.825	2959
468.904	2986
468.983	3033
469.062	4918
469.141	4584
469.220	2158
469.299	2165
469.378	2439
469.456	5087
469.535	3283
469.614	2449
469.693	2730
469.772	3571
469.851	4579
469.930	2619
470.009	2479
470.088	1510
470.166	3157
470.245	3441
470.324	3714
470.403	2441
470.482	2472
470.560	2218
470.639	2730
470.718	2285
470.797	2357
470.875	3131
470.954	3257
471.033	3848
471.111	1381
471.190	1528
471.269	1686
471.347	1353
471.426	1773
471.505	2555
471.583	3362
471.662	2498
471.740	1912
471.819	2200
471.898	2468
471.976	2285
472.055	2160
472.133	2007
472.212	3791
472.290	2515
472.369	1977
472.447	2170
472.526	1663
472.604	2130
472.683	2132
472.761	1922
472.839	2778
472.918	1604
472.996	2288
473.075	2613
473.153	2289
473.231	808
473.310	2335
473.388	1816
473.466	1597
473.545	2469
473.623	2960
473.701	2290
473.780	2780
473.858	128
473.936	3954
474.014	1400
474.093	1282
474.171	2962
474.249	4570
474.327	2350
474.405	1472
474.484	1904
474.562	1602
474.640	1733
474.718	2052
474.796	2058
474.874	2305
474.952	1265
475.030	706
475.108	1436
475.187	1553
475.265	2601
475.343	2786
475.421	3128
475.499	1653
475.577	1863
475.655	3760
475.733	4863
475.811	8336
475.889	7321
475.966	3266
476.044	1835
476.122	1124
476.200	1433
476.278	1340
476.356	2504
476.434	2204
476.512	1647
476.590	2688
476.667	2112
476.745	1616
476.823	954
476.901	906
476.979	1484
477.056	2242
477.134	1236
477.212	2008
477.290	1192
477.367	2046
477.445	1307
477.523	1033
477.601	722
477.678	1333
477.756	1870
477.834	2203
477.911	2046
477.989	1539
478.066	1779
478.144	2033
478.222	1332
478.299	2812
478.377	1723
478.454	999
478.532	1453
478.609	1270
478.687	2291
478.764	964
478.842	1091
478.919	1954
478.997	1569
479.074	1622
479.152	2512
479.229	2321
479.307	673
479.384	1176
479.461	1744
479.539	1299
479.616	1306
479.694	493
479.771	1285
479.848	1761
479.926	368
480.003	3859
480.080	1679
480.157	1465
480.235	-120
480.312	2239
480.389	1259
480.467	2709
480.544	2948
480.621	2169
480.698	1710
480.775	2659
480.853	2691
480.930	1542
481.007	1352
481.084	1420
481.161	1466
481.238	1800
481.315	907
481.392	1195
481.470	1393
481.547	1933
481.624	1780
481.701	1926
481.778	933
481.855	931
481.932	2952
482.009	4546
482.086	1445
482.163	1003
482.240	552
482.317	2340
482.393	760
482.470	1165
482.547	1111
482.624	514
482.701	1334
482.778	503
482.855	1281
482.932	1396
483.009	608
483.085	1795
483.162	1260
483.239	2648
483.316	-356
483.393	1043
483.469	1039
483.546	1039
483.623	825
483.699	1293
483.776	1391
483.853	2333
483.930	2523
484.006	8017
484.083	11708
484.160	6987
484.236	10830
484.313	7594
484.389	4906
484.466	5628
484.543	4788
484.619	5096
484.696	5618
484.772	4876
484.849	4951
484.925	4690
485.002	4508
485.078	6061
485.155	4956
485.231	4325
485.308	3769
485.384	4446
485.461	5613
485.537	7548
485.614	8023
485.690	3694
485.766	4484
485.843	4708
485.919	4592
485.995	3978
486.072	3188
486.148	3396
486.224	3073
486.301	3604
486.377	5009
486.453	4044
486.530	4544
486.606	6796
486.682	6317
486.758	8238
486.835	7063
486.911	6191
486.987	9927
487.063	9004
487.139	8685
487.215	6981
487.292	5130
487.368	4187
487.444	3271
487.520	5431
487.596	3833
487.672	5924
487.748	7519
487.824	7112
487.900	5100
487.976	4270
488.052	3794
488.128	4833
488.204	3277
488.280	4249
488.356	3658
488.432	9380
488.508	11424
488.584	2536
488.660	3870
488.736	2789
488.812	2711
488.888	5124
488.964	5067
489.039	9238
489.115	12453
489.191	5797
489.267	3663
489.343	3275
489.418	3319
489.494	3303
489.570	1519
489.646	3865
489.722	3239
489.797	2837
489.873	5206
489.949	9351
490.024	5676
490.100	2601
490.176	2136
490.251	2410
490.327	3387
490.403	2133
490.478	2462
490.554	1920
490.629	3133
490.705	1453
490.781	3448
490.856	2198
490.932	2424
491.007	2432
491.083	1683
491.158	2664
491.234	3677
491.309	8302
491.385	4521
491.460	1212
491.536	2452
491.611	2302
491.686	3100
491.762	3741
491.837	5800
491.913	9434
491.988	13339
492.063	11411
492.139	5349
492.214	3153
492.289	2041
492.365	1525
492.440	2485
492.515	1969
492.590	2534
492.666	1898
492.741	2884
492.816	2956
492.891	1130
492.967	2027
493.042	1972
493.117	2007
493.192	2459
493.267	6637
493.342	17739
493.418	17267
493.493	1621
493.568	1868
493.643	2517
493.718	2203
493.793	3100
493.868	3514
493.943	2169
494.018	2208
494.093	1423
494.168	1946
494.243	1342
494.318	1293
494.393	1754
494.468	1094
494.543	1435
494.618	2001
494.693	1385
494.768	1747
494.842	1345
494.917	1033
494.992	1737
495.067	986
495.142	1637
495.217	1819
495.292	1197
495.366	2280
495.441	1315
495.516	3419
495.591	4599
495.665	13736
495.740	22794
495.815	5163
495.890	1673
495.964	700
496.039	4185
496.114	2688
496.188	2049
496.263	2009
496.338	1870
496.412	1674
496.487	3245
496.561	1612
496.636	2263
496.710	1733
496.785	2999
496.860	2592
496.934	1686
497.009	2651
497.083	1549
497.158	2334
497.232	2204
497.307	4245
497.381	3032
497.455	3908
497.530	4840
497.604	2932
497.679	4149
497.753	6807
497.827	6566
497.902	6784
497.976	9033
498.050	25663
498.125	75963
498.199	45022
498.273	9194
498.348	8556
498.422	6138
498.496	5019
498.570	5094
498.645	4676
498.719	3350
498.793	4868
498.867	6004
498.941	9342
499.016	33717
499.090	67740
499.164	10440
499.238	3740
499.312	3212
499.386	3009
499.460	2649
499.534	3923
499.609	3187
499.683	4927
499.757	5086
499.831	15909
499.905	51790
499.979	26347
500.053	4733
500.127	4071
500.201	3127
500.275	2266
500.349	2662
500.422	2270
500.496	3753
500.570	9744
500.644	29372
500.718	38254
500.792	4071
500.866	3251
500.940	3673
501.013	2967
501.087	2416
501.161	4615
501.235	5021
501.309	20348
501.382	43182
501.456	21808
501.530	7204
501.603	10953
501.677	2837
501.751	919
501.825	3223
501.898	6615
501.972	15990
502.046	4855
502.119	1772
502.193	8196
502.266	15773
502.340	5063
502.413	8148
502.487	12717
502.561	4248
502.634	2134
502.708	1588
502.781	1190
502.855	1189
502.928	444
503.002	1416
503.075	1401
503.149	1173
503.222	847
503.295	1094
503.369	2109
503.442	3767
503.516	14880
503.589	26106
503.662	11374
503.736	5646
503.809	13144
503.882	7229
503.956	17181
504.029	7257
504.102	3906
504.175	3418
504.249	1076
504.322	1850
504.395	1326
504.468	1620
504.542	722
504.615	-17
504.688	1286
504.761	-152
504.834	2313
504.907	1930
504.980	2896
505.053	631
505.127	210
505.200	3994
505.273	1829
505.346	791
505.419	-838
505.492	1718
505.565	197
505.638	1248
505.711	163
505.784	-160
505.857	251
505.930	1959
506.003	-386
506.076	2717
506.149	1126
506.221	82
506.294	4176
506.367	7343
506.440	21978
506.513	5695
506.586	1720
506.659	269
506.731	1468
506.804	781
506.877	654
506.950	1432
507.022	1954
507.095	-70
507.168	2312
507.241	1231
507.313	1065
507.386	-208
507.459	1697
507.531	167
507.604	-104
507.677	1769
507.749	-433
507.822	2033
507.894	2699
507.967	3488
508.040	706
508.112	1860
508.185	1375
508.257	318
508.330	2707
508.402	888
508.475	1339
508.547	1315
508.620	1571
508.692	2609
508.765	1772
508.837	1168
508.909	1355
508.982	-1
509.054	1786
509.127	1029
509.199	518
509.271	-57
509.344	516
509.416	838
509.488	428
509.560	1576
509.633	827
509.705	368
509.777	543
509.849	1477
509.922	-211
509.994	866
510.066	1683
510.138	499
510.210	5645
510.283	1823
510.355	2173
510.427	1864
510.499	1904
510.571	550
510.643	1462
510.715	3961
510.787	123
510.859	2036
510.931	1543
511.003	2635
511.076	2605
511.148	361
511.219	1283
511.291	2327
511.363	3393
511.435	489
511.507	629
511.579	2384
511.651	2664
511.723	733
511.795	769
511.867	713
511.939	2098
512.010	1876
512.082	2457
512.154	148
512.226	1170
512.298	3368
512.369	2655
512.441	2729
512.513	2600
512.585	-249
512.656	2779
512.728	1421
512.800	1336
512.871	2145
512.943	1752
513.015	-771
513.086	1892
513.158	1566
513.230	509
513.301	1175
513.373	2571
513.444	588
513.516	1673
513.588	1220
513.659	2232
513.731	607
513.802	422
513.874	5036
513.945	4307
514.016	864
514.088	980
514.159	517
514.231	1548
514.302	2548
514.374	3119
514.445	597
514.516	5645
514.588	860
514.659	3419
514.730	2859
514.802	2926
514.873	46
514.944	4729
515.016	2712
515.087	1200
515.158	2582
515.229	4468
515.301	1673
515.372	3740
515.443	441
515.514	1684
515.585	259
515.656	2668
515.728	1155
515.799	128
515.870	2145
515.941	1690
516.012	294
516.083	2399
516.154	1464
516.225	3792
516.296	2533
516.367	1874
516.438	938
516.509	2386
516.580	3771
516.651	16174
516.722	34352
516.793	8874
516.864	3146
516.935	3846
517.006	4400
517.077	5589
517.148	14712
517.219	47449
517.289	41598
517.360	19433
517.431	5692
517.502	1081
517.573	2739
517.643	1518
517.714	2253
517.785	2768
517.856	1609
517.926	3448
517.997	3791
518.068	2705
518.138	5408
518.209	6686
518.280	37139
518.350	87855
518.421	11175
518.492	3850
518.562	2337
518.633	1827
518.703	-543
518.774	4695
518.845	3576
518.915	3945
518.986	1114
519.056	3241
519.127	5013
519.197	9604
519.268	21903
519.338	8149
519.408	2408
519.479	3175
519.549	1292
519.620	2858
519.690	1507
519.760	1107
519.831	1405
519.901	895
519.971	1762
520.042	1003
520.112	607
520.182	2332
520.253	1544
520.323	1758
520.393	1264
520.463	4626
520.534	-462
520.604	6135
520.674	2579
520.744	1956
520.814	4715
520.885	5476
520.955	9887
521.025	25186
521.095	3538
521.165	3152
521.235	425
521.305	-123
521.375	1592
521.445	1962
521.515	192
521.585	2936
521.655	-339
521.725	2300
521.795	1804
521.865	-595
521.935	4007
522.005	792
522.075	577
522.145	2315
522.215	242
522.285	2664
522.355	2575
522.424	6645
522.494	1612
522.564	2715
522.634	5185
522.704	11907
522.774	1606
522.843	1593
522.913	1615
522.983	1447
523.053	-46
523.122	1196
523.192	1650
523.262	5928
523.331	2061
523.401	1866
523.471	612
523.540	718
523.610	-479
523.680	832
523.749	731
523.819	1643
523.888	381
523.958	687
524.027	767
524.097	806
524.166	505
524.236	115
524.305	3194
524.375	136
524.444	-685
524.514	3133
524.583	92
524.653	395
524.722	1340
524.791	-980
524.861	1686
524.930	-80
524.999	-125
525.069	1229
525.138	692
525.207	610
525.277	1476
525.346	850
525.415	1094
525.484	692
525.554	43
525.623	405
525.692	737
525.761	334
525.830	1005
525.900	-247
525.969	791
526.038	1919
526.107	179
526.176	6456
526.245	2378
526.314	3084
526.383	4978
526.452	1842
526.522	11428
526.591	8167
526.660	2451
526.729	1807
526.797	3730
526.867	10014
526.935	39767
527.004	26666
527.073	5008
527.142	1663
527.211	4
527.280	1723
527.349	1143
527.418	-600
527.487	1648
527.555	-1176
527.624	159
527.693	-1307
527.762	1848
527.831	-1019
527.899	689
527.968	-162
528.037	-1527
528.106	1643
528.174	1906
528.243	1563
528.312	2278
528.380	947
528.449	-801
528.518	2546
528.586	-1503
528.655	984
528.723	199
528.792	-787
528.861	71
528.929	-1174
528.998	1024
529.066	323
529.135	144
529.203	-1101
529.272	-1127
529.340	412
529.409	1411
529.477	-1046
529.545	-785
529.614	2286
529.682	-835
529.751	1060
529.819	2570
529.887	25
529.956	-583
530.024	386
530.092	-637
530.161	1283
530.229	194
530.297	-588
530.365	1622
530.434	631
530.502	-1768
530.570	184
530.638	-1667
530.707	655
530.775	1917
530.843	-256
530.911	61
530.979	87
531.047	176
531.115	-25
531.183	-332
531.252	233
531.320	137
531.388	-866
531.456	-174
531.524	-1558
531.592	693
531.660	2118
531.728	-1061
531.796	-741
531.864	348
531.932	69
532.000	-543
532.067	230
532.135	737
532.203	1001
532.271	-662
532.339	2601
532.407	3079
532.475	1158
532.542	697
532.610	1448
532.678	742
532.746	16313
532.814	19985
532.881	2076
532.949	820
533.017	1729
533.084	234
533.152	-296
533.220	-208
533.287	-252
533.355	-153
533.423	754
533.490	-371
533.558	424
533.625	-409
533.693	-276
533.761	-123
533.828	1272
533.896	-1001
533.963	2346
534.031	1509
534.098	3117
534.166	-117
534.233	-1648
534.300	1234
534.368	236
534.435	-930
534.503	1090
534.570	-187
534.637	-636
534.705	-850
534.772	-18
534.840	-10
534.907	4834
534.974	1354
535.041	-63
535.109	88
535.176	-1019
535.243	888
535.310	1407
535.378	-122
535.445	1003
535.512	-314
535.579	996
535.646	-812
535.714	647
535.781	1242
535.848	1131
535.915	367
535.982	260
536.049	-424
536.116	788
536.183	-467
536.250	3
536.317	-1101
536.384	642
536.451	531
536.518	1167
536.585	-1437
536.652	2221
536.719	1928
536.786	-701
536.853	-536
536.920	2775
536.987	2604
537.053	1154
537.120	14326
537.187	5777
537.254	-435
537.321	-159
537.388	1255
537.454	-252
537.521	-722
537.588	-371
537.654	1276
537.721	275
537.788	1172
537.855	159
537.921	33
537.988	-154
538.055	422
538.121	20
538.188	896
538.254	852
538.321	1506
538.388	771
538.454	338
538.521	322
538.587	-396
538.654	117
538.720	-426
538.787	433
538.853	-35
538.920	1535
538.986	-304
539.053	546
539.119	431
539.185	395
539.252	760
539.318	707
539.385	1421
539.451	-736
539.517	210
539.583	1769
539.650	4019
539.716	6534
539.782	343
539.849	-317
539.915	471
539.981	-528
540.047	-58
540.114	669
540.180	1857
540.246	-763
540.312	479
540.378	1543
540.444	2640
540.510	4317
540.576	6947
540.643	731
540.709	-873
540.775	484
540.841	467
540.907	1244
540.973	2150
541.039	1378
541.105	694
541.171	-40
541.237	-969
541.303	752
541.369	2000
541.435	1707
541.500	1030
541.566	-950
541.632	-412
541.698	-253
541.764	637
541.830	-602
541.896	-1180
541.961	896
542.027	347
542.093	-839
542.159	473
542.224	-633
542.290	855
542.356	1455
542.421	2071
542.487	1429
542.553	-221
542.618	680
542.684	-40
542.750	-242
542.815	851
542.881	2554
542.947	8781
543.012	3240
543.078	-30
543.143	529
543.209	984
543.274	378
543.340	678
543.405	3327
543.471	1738
543.536	205
543.602	858
543.667	-500
543.732	583
543.798	-736
543.863	145
543.928	-272
543.994	-343
544.059	-129
544.124	380
544.190	421
544.255	578
544.320	1432
544.386	-962
544.451	2035
544.516	1011
544.581	1408
544.646	6583
544.712	6230
544.777	844
544.842	643
544.907	-341
544.972	701
545.037	826
545.102	1290
545.168	463
545.233	1238
545.298	1582
545.363	217
545.428	1328
545.493	4558
545.558	4381
545.623	732
545.688	-400
545.753	818
545.818	160
545.883	735
545.947	210
546.012	912
546.077	199
546.142	1323
546.207	-475
546.272	1372
546.337	138
546.401	901
546.466	970
546.531	205
546.596	1013
546.661	210
546.725	1223
546.790	56
546.855	391
546.919	-868
546.984	619
547.049	330
547.113	823
547.178	675
547.243	791
547.307	1549
547.372	1597
547.436	1310
547.501	565
547.565	943
547.630	802
547.695	703
547.759	874
547.823	574
547.888	581
547.952	795
548.017	609
548.081	1366
548.146	1093
548.210	1443
548.274	882
548.339	827
548.403	1932
548.468	-271
548.532	226
548.596	1320
548.660	444
548.725	1192
548.789	1379
548.853	1885
548.917	813
548.982	1652
549.046	489
549.110	466
549.174	248
549.238	384
549.303	137
549.367	1553
549.431	52
549.495	923
549.559	985
549.623	1178
549.687	1199
549.751	2294
549.815	786
549.879	1287
549.943	216
550.007	1532
550.071	842
550.135	1916
550.199	856
550.263	1621
550.327	2020
550.391	1471
550.455	1141
550.519	1409
550.582	1885
550.646	2241
550.710	2072
550.774	1713
550.838	1133
550.901	1870
550.965	1737
551.029	1280
551.093	2509
551.156	2741
551.220	6259
551.284	3988
551.347	3083
551.411	8008
551.475	3786
551.538	1890
551.602	477
551.666	1587
551.729	-255
551.793	1789
551.856	1065
551.920	429
551.983	1181
552.047	986
552.110	998
552.174	1146
552.237	387
552.301	1074
552.364	699
552.428	1689
552.491	1408
552.554	392
552.618	1182
552.681	1933
552.745	867
552.808	1857
552.871	1387
552.934	1691
552.998	902
553.061	1491
553.124	1410
553.187	1432
553.251	1187
553.314	2324
553.377	2019
553.440	4237
553.503	15178
553.567	12657
553.630	1854
553.693	1944
553.756	1658
553.819	652
553.882	573
553.945	1345
554.008	730
554.071	975
554.134	760
554.197	825
554.260	835
554.323	2584
554.386	980
554.449	624
554.512	1646
554.575	548
554.638	1719
554.701	800
554.764	1184
554.827	1370
554.889	843
554.952	752
555.015	598
555.078	130
555.141	1130
555.203	838
555.266	538
555.329	1987
555.391	909
555.454	314
555.517	-854
555.580	541
555.642	173
555.705	910
555.768	752
555.830	1043
555.893	-103
555.955	1344
556.018	560
556.080	652
556.143	697
556.206	1097
556.268	352
556.330	1066
556.393	-355
556.455	419
556.518	2181
556.580	2028
556.643	821
556.705	523
556.767	-570
556.830	222
556.892	1162
556.955	1264
557.017	172
557.079	1512
557.142	694
557.204	1108
557.266	1510
557.328	1552
557.391	-408
557.453	991
557.515	1070
557.577	773
557.639	739
557.701	681
557.764	521
557.826	869
557.888	596
557.950	597
558.012	53
558.074	1124
558.136	2575
558.198	3161
558.260	2032
558.322	552
558.384	289
558.446	1518
558.508	1133
558.570	1890
558.632	3497
558.694	3340
558.756	4465
558.818	15893
558.880	20763
558.942	3539
559.003	4303
559.065	1491
559.127	1105
559.189	688
559.251	1566
559.312	3138
559.374	6973
559.436	13872
559.498	4467
559.559	1302
559.621	1671
559.683	2107
559.744	3825
559.806	8680
559.868	6576
559.929	1145
559.991	706
560.052	2447
560.114	4760
560.176	2376
560.237	4030
560.299	2978
560.360	835
560.422	392
560.483	39
560.545	487
560.606	802
560.667	687
560.729	324
560.790	802
560.852	906
560.913	997
560.974	884
561.036	680
561.097	746
561.158	1109
561.220	1642
561.281	318
561.342	575
561.403	2107
561.465	862
561.526	4828
561.587	3700
561.648	336
561.709	1252
561.771	1682
561.832	764
561.893	646
561.954	889
562.015	1162
562.076	1056
562.137	1024
562.198	698
562.259	1945
562.320	205
562.381	1780
562.442	1886
562.503	1679
562.564	1025
562.625	1504
562.686	553
562.747	1149
562.808	741
562.869	1397
562.930	1906
562.991	1380
563.051	1267
563.112	1236
563.173	1029
563.234	488
563.294	1366
563.355	422
563.416	1039
563.477	955
563.537	1133
563.598	2147
563.659	1226
563.720	1470
563.780	1452
563.841	1304
563.901	1570
563.962	1532
564.023	915
564.083	2072
564.144	1702
564.204	1562
564.265	704
564.325	2157
564.386	3149
564.446	1394
564.507	466
564.567	1063
564.628	995
564.688	1353
564.749	1406
564.809	1603
564.869	2352
564.930	916
564.990	1922
565.050	765
565.111	758
565.171	1694
565.231	975
565.292	2640
565.352	760
565.412	2030
565.472	1609
565.532	1515
565.593	1891
565.653	1891
565.713	1316
565.773	2244
565.833	1306
565.893	3062
565.953	974
566.013	1597
566.074	2222
566.134	3328
566.194	3470
566.254	3016
566.314	2528
566.374	1399
566.434	1653
566.494	2824
566.554	2475
566.614	2644
566.673	2873
566.733	3223
566.793	3210
566.853	2731
566.913	3234
566.973	4072
567.033	2994
567.092	3711
567.152	3110
567.212	3606
567.272	3425
567.331	4187
567.391	3843
567.451	5410
567.511	5560
567.570	5122
567.630	4355
567.690	4069
567.749	4084
567.809	4822
567.868	5489
567.928	5571
567.988	6460
568.047	8896
568.107	11813
568.166	16328
568.226	24528
568.285	29622
568.345	24580
568.404	20929
568.464	17567
568.523	16074
568.582	17145
568.642	20357
568.701	25542
568.761	38979
568.820	53924
568.879	46227
568.939	34634
568.998	25929
569.057	21229
569.116	16373
569.176	13703
569.235	11051
569.294	9591
569.353	7549
569.413	7719
569.472	6902
569.531	4825
569.590	5353
569.649	5309
569.708	4787
569.767	5616
569.827	4654
569.886	3947
569.945	2748
570.004	3561
570.063	4082
570.122	2786
570.181	2459
570.240	3030
570.299	4105
570.358	2723
570.417	2773
570.475	1967
570.534	3358
570.593	2149
570.652	3094
570.711	3105
570.770	2939
570.829	1963
570.887	2742
570.946	2376
571.005	1994
571.064	1592
571.122	1993
571.181	1889
571.240	2096
571.299	1542
571.357	2041
571.416	2339
571.475	2838
571.533	2011
571.592	2393
571.650	2547
571.709	1781
571.768	1311
571.826	2051
571.885	3347
571.943	3195
572.002	1242
572.060	2290
572.119	1388
572.177	1705
572.236	1750
572.294	1949
572.352	2411
572.411	2123
572.469	1886
572.528	2208
572.586	1862
572.644	2468
572.703	2274
572.761	2098
572.819	1537
572.877	2376
572.936	1562
572.994	2036
573.052	1581
573.110	1378
573.169	1435
573.227	1520
573.285	2466
573.343	2323
573.401	1558
573.459	2005
573.517	1451
573.576	2071
573.634	2295
573.692	2769
573.750	1558
573.808	1539
573.866	1518
573.924	1806
573.982	2255
574.040	1740
574.098	1594
574.155	1660
574.213	2387
574.271	1011
574.329	1410
574.387	1350
574.445	1178
574.503	1671
574.560	1301
574.618	1718
574.676	817
574.734	2169
574.792	1991
574.849	1319
574.907	1945
574.965	1824
575.022	760
575.080	2886
575.138	1440
575.195	1270
575.253	1825
575.311	1538
575.368	1459
575.426	2403
575.483	2314
575.541	2815
575.598	1001
575.656	2171
575.713	1872
575.771	1041
575.828	1744
575.886	2210
575.943	2757
576.001	1702
576.058	488
576.115	2486
576.173	2287
576.230	1831
576.287	2246
576.345	2945
576.402	2145
576.459	2458
576.517	2208
576.574	2468
576.631	2256
576.688	2132
576.746	1733
576.803	1828
576.860	1315
576.917	2911
576.974	2708
577.031	2904
577.089	2362
577.146	1984
577.203	1873
577.260	3350
577.317	1747
577.374	1229
577.431	1630
577.488	2667
577.545	2371
577.602	3958
577.659	2327
577.716	2988
577.773	2534
577.830	1681
577.886	2125
577.943	2604
578.000	2930
578.057	3408
578.114	3828
578.171	3788
578.227	4613
578.284	4099
578.341	3828
578.398	3434
578.454	3328
578.511	3338
578.568	3554
578.625	3418
578.681	2357
578.738	2084
578.794	1957
578.851	3182
578.908	2325
578.964	2569
579.021	3069
579.077	2558
579.134	2880
579.190	3058
579.247	2604
579.303	2793
579.360	2823
579.416	2502
579.473	1486
579.529	2675
579.586	2301
579.642	3741
579.698	3110
579.755	3940
579.811	2953
579.867	4500
579.924	2976
579.980	3946
580.036	4420
580.093	6033
580.149	6610
580.205	7698
580.261	5880
580.317	4865
580.374	4330
580.430	4449
580.486	4107
580.542	3453
580.598	3644
580.619	3643
580.654	3636
580.692	3148
580.710	2903
580.765	3120
580.767	3120
580.823	3267
580.838	3360
580.879	3601
580.911	3656
580.935	3681
580.984	3699
580.991	3706
581.047	4319
581.057	4294
581.103	4134
581.130	4540
581.159	4932
581.203	5304
581.215	5404
581.270	4576
581.276	4544
581.326	4140
581.349	4498
581.382	5037
581.422	4779
581.438	4673
581.494	3572
581.494	3590
581.550	4629
581.567	4575
581.606	4493
581.640	4261
581.661	4081
581.713	5013
581.717	5091
581.773	4941
581.786	4780
581.829	4150
581.859	4644
581.885	5110
581.932	4759
581.940	4659
581.996	5529
582.004	5373
582.052	4500
582.077	4686
582.107	4923
582.150	5131
582.163	5212
582.219	5511
582.223	5559
582.274	5944
582.296	5848
582.330	5717
582.368	5551
582.386	5490
582.441	6112
582.441	6107
582.497	5972
582.514	5833
582.552	5685
582.587	6282
582.608	6620
582.659	7716
582.663	7792
582.719	6565
582.732	6619
582.774	6910
582.805	6542
582.830	6140
582.877	7219
582.885	7413
582.941	7410
582.950	7364
582.996	6970
583.023	7381
583.052	8198
583.095	9118
583.107	9315
583.162	10396
583.168	10480
583.218	10764
583.240	10505
583.273	10001
583.313	9594
583.328	9572
583.384	9427
583.385	9419
583.439	8613
583.458	8607
583.494	8891
583.531	8634
583.549	8543
583.603	9187
583.605	9209
583.660	9663
583.676	9720
583.715	9745
583.748	10139
583.770	10534
583.820	10690
583.825	10680
583.881	10227
583.893	10154
583.936	10310
583.965	10956
583.991	11270
584.038	11353
584.046	11424
584.101	11367
584.110	11357
584.156	11235
584.183	11392
584.211	11659
584.255	12257
584.266	12394
584.321	12328
584.328	12299
584.376	12369
584.400	12722
584.431	13041
584.472	13077
584.486	13122
584.541	13610
584.545	13610
584.596	13658
584.617	13770
584.651	14608
584.689	15100
584.706	15079
584.761	15573
584.762	15554
584.816	15887
584.834	16167
584.871	16485
584.906	16610
584.926	16810
584.978	16968
584.980	17016
585.035	18026
585.051	18396
585.090	18860
585.123	19021
585.145	19258
585.195	18974
585.200	19022
585.254	20152
585.267	20388
585.309	21079
585.340	21308
585.364	21310
585.412	21599
585.419	21742
585.473	22391
585.484	22545
585.528	23711
585.556	24306
585.583	24998
585.628	27128
585.637	27757
585.692	32204
585.700	32580
585.747	34147
585.772	32998
585.801	30120
585.845	27494
585.856	27376
585.910	27208
585.917	27267
585.965	28221
585.989	28287
586.019	28900
586.061	29938
586.074	30228
586.128	30824
586.133	30873
586.183	32163
586.205	32248
586.237	32938
586.277	33857
586.292	34148
586.346	35078
586.349	35030
586.401	35962
586.421	36707
586.455	37627
586.493	38195
586.509	39187
586.564	41219
586.565	41245
586.618	46108
586.637	46217
586.672	45362
586.709	45011
586.727	45372
586.781	46537
586.781	46654
586.835	48977
586.853	49455
586.889	50790
586.925	51932
586.944	52755
586.996	54676
586.998	54897
587.052	58368
587.068	59079
587.106	60795
587.140	62285
587.161	63420
587.212	65605
587.215	65940
587.269	70145
587.284	70952
587.323	73545
587.356	75618
587.377	77635
587.427	82354
587.431	82924
587.485	87002
587.499	88159
587.539	92669
587.571	95706
587.593	98514
587.643	103902
587.648	104756
587.702	111676
587.715	112997
587.755	119993
587.786	125385
587.810	129559
587.858	137163
587.864	138784
587.917	151354
587.930	154005
587.971	165098
588.001	172432
588.025	179805
588.073	193535
588.079	196265
588.133	217524
588.145	221578
588.187	239456
588.217	251256
588.241	264515
588.288	289474
588.295	294388
588.348	330079
588.360	336794
588.402	372252
588.431	396219
588.456	421966
588.503	469324
588.510	479138
588.564	548672
588.575	562287
588.617	629685
588.646	673194
588.671	718230
588.718	798185
588.725	809437
588.778	878578
588.789	889347
588.832	868392
588.861	845325
588.886	765822
588.932	597606
588.939	591642
588.993	547785
589.004	542155
589.047	740578
589.075	863576
589.100	905801
589.147	970502
589.154	967346
589.207	917746
589.218	905208
589.261	874790
589.290	851913
589.314	861436
589.361	874870
589.368	881956
589.421	922171
589.433	927095
589.475	876399
589.504	830499
589.528	758177
589.576	606772
589.582	625806
589.635	797638
589.647	830552
589.689	891942
589.718	927116
589.742	882011
589.790	780698
589.795	771808
589.849	664223
589.861	637235
589.902	571707
589.932	519976
589.955	493346
590.004	433426
590.009	430545
590.062	382771
590.075	369836
590.115	342860
590.146	320038
590.168	309235
590.218	281617
590.222	280854
590.275	258240
590.289	251332
590.328	237834
590.360	225804
590.381	220710
590.431	205247
590.435	205254
590.488	193158
590.503	188992
590.541	180903
590.574	172886
590.594	169783
590.645	159490
590.647	159789
590.700	151725
590.716	148732
590.753	144423
590.787	139512
590.806	137525
590.859	129935
590.859	130361
590.912	125812
590.930	123838
590.965	120452
591.001	116189
591.018	115672
591.071	112859
591.072	112387
591.124	108828
591.143	106865
591.177	104683
591.214	101635
591.230	101585
591.283	100024
591.285	99559
591.336	96851
591.356	95291
591.389	93886
591.427	91249
591.442	90736
591.495	87387
591.498	86794
591.547	85962
591.569	85122
591.600	84039
591.640	81690
591.653	81646
591.706	80041
591.711	79559
591.759	78238
591.782	76960
591.811	76949
591.853	76341
591.864	76399
591.917	74914
591.924	74396
591.969	73683
591.995	72809
592.022	72314
592.066	70640
592.075	70830
592.127	70205
592.137	69792
592.180	68699
592.208	67495
592.233	67440
592.279	66520
592.285	66609
592.338	64971
592.350	64328
592.390	63826
592.421	62956
592.443	62930
592.491	62050
592.495	62277
592.548	61809
592.562	61419
592.600	61243
592.633	60616
592.653	60553
592.704	59383
592.705	59679
592.775	57154
592.846	56415
592.916	55003
592.987	55773
593.058	53729
593.128	52267
593.199	50946
593.270	49506
593.341	48917
593.411	49730
593.482	47624
593.553	47964
593.623	46670
593.694	45336
593.764	45183
593.835	44988
593.906	43340
593.976	43080
594.047	42194
594.117	43496
594.188	42033
594.258	41600
594.329	41134
594.399	40353
594.470	39423
594.540	40471
594.611	38836
594.681	38950
594.751	38389
594.822	38197
594.892	38092
594.963	38144
595.033	37314
595.103	37973
595.174	37132
595.244	38080
595.314	38463
595.384	36128
595.455	35876
595.525	37177
595.595	35296
595.665	36424
595.736	34573
595.806	34190
595.876	34814
595.946	34550
596.016	33629
596.087	33761
596.157	34269
596.227	34357
596.297	34158
596.367	34631
596.437	34108
596.507	35215
596.577	34993
596.647	34201
596.717	32800
596.787	33110
596.857	32682
596.927	32846
596.997	31874
597.067	32742
597.137	34512
597.207	34526
597.277	32074
597.347	33000
597.417	31992
597.487	34697
597.557	32817
597.626	33827
597.696	33247
597.766	33818
597.836	33085
597.906	32110
597.975	30709
598.045	29775
598.115	30706
598.185	31699
598.254	31641
598.324	32931
598.394	32831
598.464	31274
598.533	30798
598.603	30586
598.672	30922
598.742	30152
598.812	31134
598.881	29800
598.951	29888
599.020	29869
599.090	30161
599.159	32205
599.229	29808
599.299	28491
599.368	30476
599.437	30671
599.507	29407
599.576	29162
599.646	30514
599.715	29828
599.785	27908
599.854	28543
599.924	29310
599.993	29255
600.062	28733
600.132	29019
600.201	28146
600.270	30752
600.340	30164
600.409	29728
600.478	29756
600.547	29919
600.617	29279
600.686	29691
600.755	27855
600.824	28904
600.894	28441
600.963	28141
601.032	28790
601.101	28330
601.170	27379
601.239	28461
601.308	28002
601.378	27835
601.447	27146
601.516	28039
601.585	27910
601.654	28219
601.723	28569
601.792	29687
601.861	28381
601.930	30924
601.999	29742
602.068	28945
602.137	29387
602.206	30349
602.275	29330
602.343	31091
602.412	29800
602.481	29834
602.550	29826
602.619	31019
602.688	30376
602.756	30643
602.825	30134
602.894	30416
602.963	29775
603.032	31071
603.100	29999
603.169	29541
603.238	30352
603.307	30229
603.375	30774
603.444	30717
603.513	30085
603.581	29440
603.650	30623
603.719	27947
603.787	26435
603.856	28006
603.924	27415
603.993	28524
604.061	28113
604.130	29489
604.198	29118
604.267	30135
604.335	29727
604.404	29210
604.472	29902
604.541	30377
604.609	31129
604.678	30954
604.746	32087
604.815	31936
604.883	30579
604.951	31385
605.020	30698
605.088	29344
605.156	28812
605.225	29142
605.293	28559
605.361	29925
605.429	28164
605.498	28799
605.566	29595
605.634	30434
605.702	29684
605.771	29880
605.839	30964
605.907	30040
605.975	29565
606.043	28582
606.111	27741
606.180	30644
606.248	30392
606.316	30401
606.384	29543
606.452	29078
606.520	24678
606.588	26071
606.656	24507
606.724	23894
606.792	23621
606.860	22527
606.928	21746
606.996	21200
607.064	21740
607.132	23158
607.200	22095
607.267	22601
607.335	22392
607.403	23946
607.471	21943
607.539	22770
607.607	21659
607.674	20801
607.742	21254
607.810	20968
607.878	20099
607.946	21052
608.013	20719
608.081	22164
608.149	21859
608.216	21378
608.284	21936
608.352	22282
608.419	20426
608.487	23749
608.555	21671
608.622	22452
608.690	21853
608.757	22893
608.825	22926
608.893	23475
608.960	23240
609.028	23430
609.095	23291
609.163	22626
609.230	21338
609.298	21091
609.365	19914
609.432	22732
609.500	23131
609.567	24739
609.635	26183
609.702	27223
609.769	25840
609.837	24487
609.904	20896
609.971	22021
610.039	23055
610.106	25646
610.173	33682
610.241	60488
610.308	68778
610.375	48254
610.442	25279
610.509	21602
610.577	22580
610.644	21660
610.711	20960
610.778	24442
610.845	22928
610.912	23914
610.980	25592
611.047	26809
611.114	24101
611.181	21874
611.248	21701
611.315	24924
611.382	21975
611.449	23401
611.516	23916
611.583	23532
611.650	23705
611.717	23765
611.784	22832
611.851	24000
611.918	23749
611.984	25702
612.051	30490
612.118	44843
612.185	84012
612.252	58006
612.319	27198
612.386	27238
612.452	24504
612.519	25405
612.586	26009
612.653	25496
612.719	25248
612.786	24965
612.853	23819
612.919	23102
612.986	24030
613.053	23361
613.120	22062
613.186	21875
613.253	23318
613.319	22263
613.386	21572
613.453	22030
613.519	23558
613.586	22558
613.652	24534
613.719	24166
613.785	23331
613.852	21582
613.918	21806
613.985	22957
614.051	24253
614.118	29536
614.184	27671
614.250	21440
614.317	21357
614.383	21704
614.449	21531
614.516	22904
614.582	21660
614.648	21245
614.715	22051
614.781	22165
614.847	23007
614.914	22386
614.980	21513
615.046	22588
615.112	23036
615.179	23606
615.245	25617
615.311	33022
615.377	51420
615.443	53676
615.509	31335
615.575	26528
615.642	24588
615.708	24821
615.774	25685
615.840	28743
615.906	35117
615.972	51291
616.038	94642
616.104	108260
616.170	122953
616.236	93655
616.302	37712
616.368	30573
616.434	25270
616.500	27299
616.565	26258
616.631	26817
616.697	25063
616.763	25694
616.829	26494
616.895	34613
616.961	33007
617.026	26832
617.092	23444
617.158	23870
617.224	22691
617.289	23353
617.355	22958
617.421	22550
617.487	22751
617.552	23301
617.618	21922
617.684	21447
617.749	24520
617.815	21922
617.880	21255
617.946	21573
618.012	21933
618.077	23387
618.143	22498
618.208	23364
618.274	23387
618.339	25050
618.405	21267
618.470	23444
618.536	22435
618.601	23921
618.667	22345
618.732	22741
618.798	21472
618.863	22403
618.928	20606
618.994	21915
619.059	23252
619.124	23370
619.190	22379
619.255	21276
619.320	21670
619.386	21041
619.451	20447
619.516	21216
619.581	21287
619.647	21931
619.712	21104
619.777	21688
619.842	21295
619.907	22123
619.972	21045
620.038	21022
620.103	20691
620.168	19824
620.233	21183
620.298	20798
620.363	20897
620.428	22867
620.493	21287
620.558	20854
620.623	21800
620.688	22794
620.753	21632
620.818	22024
620.883	21899
620.948	21934
621.013	22310
621.078	22102
621.143	20496
621.207	24271
621.272	21292
621.337	22667
621.402	22567
621.467	25357
621.532	23760
621.596	24445
621.661	23561
621.726	23121
621.791	22529
621.855	24636
621.920	23765
621.985	24347
622.049	24295
622.114	24273
622.179	24272
622.243	26020
622.308	24405
622.373	26514
622.437	24918
622.502	24585
622.566	25298
622.631	23579
622.695	26188
622.760	26093
622.824	25226
622.889	24821
622.953	24855
623.018	28254
623.082	25478
623.147	26907
623.211	25554
623.276	25283
623.340	23834
623.404	25164
623.469	24433
623.533	25032
623.597	23087
623.662	24355
623.726	22638
623.790	22870
623.854	22544
623.919	22898
623.983	22428
624.047	22885
624.111	22265
624.176	22691
624.240	22807
624.304	24821
624.368	22934
624.432	23998
624.496	23867
624.560	22642
624.625	23082
624.689	23673
624.753	22749
624.817	22614
624.881	22346
624.945	22862
625.009	21973
625.073	22526
625.137	21122
625.201	24257
625.265	24151
625.329	23146
625.393	22598
625.456	22161
625.520	21449
625.584	21901
625.648	23360
625.712	25642
625.776	32677
625.839	35071
625.903	22412
625.967	19816
626.031	24978
626.095	27272
626.158	19649
626.222	18924
626.286	19877
626.349	18881
626.413	17427
626.477	19772
626.540	17214
626.604	18740
626.668	19793
626.731	18142
626.795	17775
626.858	18272
626.922	16997
626.986	18257
627.049	16327
627.113	17879
627.176	16882
627.240	17969
627.303	16928
627.366	17165
627.430	17285
627.493	17744
627.557	17363
627.620	18510
627.684	17259
627.747	17924
627.810	14805
627.874	17161
627.937	14795
628.000	18241
628.064	15837
628.127	13696
628.190	16231
628.253	15651
628.317	14565
628.380	14904
628.443	14859
628.506	16218
628.569	15381
628.632	14624
628.696	14689
628.759	14313
628.822	13750
628.885	14032
628.948	14110
629.011	13515
629.074	13903
629.137	13733
629.200	13367
629.263	15986
629.326	13045
629.389	13874
629.452	13766
629.515	13977
629.578	13426
629.641	14404
629.704	13855
629.767	14009
629.830	14210
629.892	13987
629.955	12557
630.018	15331
630.081	11939
630.144	15170
630.207	12032
630.269	14571
630.332	12891
630.395	13523
630.458	12989
630.520	12653
630.583	13948
630.646	13237
630.708	11988
630.771	11775
630.834	13494
630.896	13078
630.959	12322
631.021	12186
631.084	11890
631.146	12419
631.209	12396
631.272	11948
631.334	11514
631.397	11875
631.459	10762
631.522	12801
631.584	11547
631.646	12452
631.709	12041
631.771	11879
631.834	12518
631.896	12428
631.958	10835
632.021	11404
632.083	10995
632.145	12345
632.208	10905
632.270	12780
632.332	9959
632.395	10444
632.457	11812
632.519	11361
632.581	12576
632.643	10884
632.706	11495
632.768	10829
632.830	11618
632.892	10985
632.954	10172
633.016	11868
633.078	10552
633.141	12406
633.203	10260
633.265	11719
633.327	10074
633.389	9634
633.451	11393
633.513	10790
633.575	11297
633.637	10835
633.698	9740
633.760	10959
633.822	11114
633.884	11474
633.946	9716
634.008	9736
634.070	10322
634.132	12281
634.193	10764
634.255	10340
634.317	9561
634.379	11256
634.441	9903
634.502	10184
634.564	10308
634.626	10889
634.687	10364
634.749	10320
634.811	10258
634.873	10492
634.934	9153
634.996	10714
635.057	8872
635.119	8906
635.181	10823
635.242	11422
635.304	7989
635.365	12826
635.427	8578
635.488	10269
635.550	8322
635.611	10750
635.673	8140
635.734	11586
635.796	8335
635.857	10943
635.918	8744
635.980	11838
636.041	8242
636.102	9832
636.164	9881
636.225	10582
636.286	7349
636.348	10004
636.409	8704
636.470	9313
636.531	9679
636.593	9104
636.654	9279
636.715	9853
636.776	8800
636.838	7708
636.899	10168
636.960	8794
637.021	8747
637.082	8946
637.143	9543
637.204	7971
637.265	8918
637.326	9603
637.387	8745
637.448	7552
637.509	9083
637.570	9120
637.631	10001
637.692	8315
637.753	7696
637.814	10168
637.875	8175
637.936	9250
637.997	7700
638.058	8188
638.119	9690
638.179	9159
638.240	8055
638.301	8394
638.362	7205
638.423	7826
638.483	9345
638.544	7336
638.605	8530
638.666	6698
638.726	9122
638.787	9348
638.848	7400
638.908	8417
638.969	8007
639.030	8586
639.090	6808
639.151	7759
639.211	8422
639.272	9228
639.332	9434
639.393	8849
639.453	7200
639.514	7609
639.574	7945
639.635	7336
639.695	7828
639.756	7557
639.816	7081
639.877	7447
639.937	8706
639.997	8773
640.058	5922
640.118	7314
640.178	7820
640.239	7145
640.299	6743
640.359	7314
640.420	7389
640.480	8548
640.540	7108
640.600	7252
640.661	7917
640.721	5623
640.781	7996
640.841	5767
640.901	7168
640.961	7616
641.021	7825
641.082	6580
641.142	7883
641.202	7937
641.262	5509
641.322	7778
641.382	6869
641.442	7796
641.502	6929
641.562	7969
641.622	6397
641.682	7296
641.742	7006
641.802	6893
641.861	7242
641.921	6739
641.981	7473
642.041	7279
642.101	6884
642.161	5342
642.221	5879
642.280	7324
642.340	6212
642.400	6088
642.460	7745
642.519	7074
642.579	6767
642.639	8069
642.698	5042
642.758	8373
642.818	7073
642.877	6264
642.937	6675
642.997	7927
643.056	6933
643.116	5336
643.175	8416
643.235	6575
643.294	6490
643.354	6881
643.414	7123
643.473	7435
643.532	5800
643.592	6960
643.651	7666
643.711	11059
643.770	15957
643.830	30208
643.889	58767
643.948	15060
644.008	8274
644.067	5988
644.126	5618
644.186	5404
644.245	6904
644.304	5416
644.363	7583
644.423	4723
644.482	6275
644.541	7088
644.600	3368
644.659	6943
644.719	5624
644.778	6719
644.837	7269
644.896	10677
644.955	14375
645.014	8501
645.073	6445
645.132	6160
645.191	6458
645.250	5969
645.309	6436
645.368	5399
645.427	7422
645.486	5290
645.545	7452
645.604	5622
645.663	5623
645.722	5359
645.781	6047
645.840	5755
645.898	4867
645.957	8250
646.016	5996
646.075	9799
646.134	12502
646.192	29685
646.251	38320
646.310	8886
646.369	5486
646.427	6409
646.486	4485
646.545	5638
646.603	5580
646.662	5863
646.721	5511
646.779	5134
646.838	4155
646.896	6834
646.955	6179
647.014	6315
647.072	6501
647.131	11226
647.189	6546
647.248	5369
647.306	6073
647.365	6296
647.423	3004
647.481	7225
647.540	3679
647.598	5378
647.657	4589
647.715	6349
647.773	4459
647.832	6248
647.890	3837
647.948	4910
648.007	5885
648.065	5112
648.123	4250
648.181	5935
648.240	5683
648.298	4730
648.356	4443
648.414	5573
648.472	4871
648.531	5228
648.589	4307
648.647	4760
648.705	4383
648.763	4982
648.821	4089
648.879	4260
648.937	3916
648.995	4524
649.053	3817
649.111	5417
649.169	5578
649.227	7323
649.285	10273
649.343	22189
649.401	11852
649.459	7626
649.516	6747
649.574	3866
649.632	8120
649.690	8124
649.748	6407
649.806	5909
649.863	9260
649.921	8767
649.979	6221
650.037	4739
650.094	3449
650.152	5003
650.210	3424
650.268	5723
650.325	4611
650.383	3969
650.440	3408
650.498	4122
650.556	3478
650.613	3199
650.671	4511
650.728	3853
650.786	4448
650.843	4330
650.901	2044
650.958	4345
651.016	3775
651.073	4341
651.131	3602
651.188	4054
651.246	3850
651.303	3995
651.360	4190
651.418	4118
651.475	2835
651.532	3856
651.590	4164
651.647	3399
651.704	2613
651.762	3711
651.819	4085
651.876	3675
651.933	3975
651.990	4625
652.048	2591
652.105	3933
652.162	4211
652.219	3357
652.276	4311
652.333	3913
652.390	2693
652.448	3431
652.505	4321
652.562	3903
652.619	3264
652.676	6224
652.733	6298
652.790	4056
652.847	2272
652.904	4668
652.961	2681
653.017	2675
653.074	4390
653.131	3602
653.188	2590
653.245	3684
653.302	3554
653.359	3662
653.415	3170
653.472	2748
653.529	3990
653.586	3386
653.642	2678
653.699	4070
653.756	2790
653.813	3350
653.869	2969
653.926	2507
653.983	2395
654.039	3262
654.096	2790
654.152	4026
654.209	2441
654.266	3591
654.322	2138
654.379	4577
654.435	3277
654.492	2972
654.548	2668
654.605	3518
654.661	4054
654.717	3638
654.774	2946
654.830	3185
654.887	3450
654.943	3350
655.000	3424
655.056	4484
655.112	3359
655.168	3021
655.225	3101
655.281	3951
655.337	2881
655.394	3915
655.450	3609
655.506	3449
655.562	3794
655.618	4946
655.675	2380
655.731	3832
655.787	2685
655.843	3515
655.899	2200
655.955	3788
656.011	3114
656.067	2586
656.123	2594
656.179	3202
656.235	3918
656.291	2362
656.347	4267
656.403	2401
656.459	3067
656.515	3610
656.571	3622
656.627	2592
656.683	2680
656.739	4184
656.795	3415
656.850	2903
656.906	3395
656.962	3856
657.018	3049
657.074	2639
657.129	2670
657.185	4149
657.241	3061
657.297	3806
657.352	3282
657.408	3098
657.464	3996
657.519	2440
657.575	2643
657.630	3817
657.686	3379
657.742	3137
657.797	3063
657.853	2911
657.908	4278
657.964	2496
658.019	2389
658.075	3775
658.130	3641
658.186	2379
658.241	3514
658.297	2516
658.352	2256
658.407	3890
658.463	2096
658.518	3854
658.573	3321
658.629	2303
658.684	2528
658.739	3636
658.795	2029
658.850	3479
658.905	3019
658.960	2944
659.016	1812
659.071	3580
659.126	2719
659.181	3009
659.236	4520
659.291	5017
659.346	3349
659.401	4212
659.457	3193
659.512	3785
659.567	4081
659.622	3960
659.677	2464
659.732	1702
659.787	2985
659.842	2679
659.897	3318
659.952	4209
660.007	3298
660.061	3327
660.116	2159
660.171	3127
660.226	2795
660.281	4327
660.336	1989
660.391	3465
660.445	2358
660.500	3284
660.555	3056
660.610	2876
660.664	3760
660.719	3008
660.774	2991
660.828	3279
660.883	2705
660.938	4117
660.992	2161
661.047	3067
661.101	2232
661.156	2882
661.211	2179
661.265	2783
661.320	2282
661.374	3287
661.429	2390
661.483	4364
661.538	1894
661.592	3122
661.647	2727
661.701	3571
661.755	3191
661.810	2990
661.864	2200
661.919	2856
661.973	3781
662.027	2883
662.081	1743
662.136	2902
662.190	2540
662.244	2952
662.299	2555
662.353	3241
662.407	2304
662.461	3071
662.515	2746
662.569	2842
662.624	2603
662.678	3266
662.732	2617
662.786	2968
662.840	2597
662.894	2827
662.948	2827
663.002	3257
663.056	2451
663.110	2017
663.164	2437
663.218	3261
663.272	3709
663.326	3775
663.380	2199
663.434	3165
663.488	1871
663.542	2283
663.595	2692
663.649	2532
663.703	2645
663.757	3338
663.811	1978
663.864	2628
663.918	2527
663.972	3015
664.026	2421
664.079	2522
664.133	1765
664.187	3214
664.240	2446
664.294	2942
664.348	3050
664.401	3006
664.455	2000
664.508	2940
664.562	2400
664.615	3076
664.669	2358
664.722	2446
664.776	2549
664.829	3057
664.883	2858
664.936	2584
664.990	2928
665.043	3193
665.097	2717
665.150	4301
665.203	2983
665.257	3099
665.310	3094
665.363	3309
665.417	2956
665.470	3197
665.523	3034
665.576	2510
665.630	2848
665.683	3234
665.736	2198
665.789	2924
665.842	2232
665.895	2918
665.949	2741
666.002	2749
666.055	2982
666.108	3661
666.161	1883
666.214	3447
666.267	3643
666.320	3537
666.373	2654
666.426	3228
666.479	1919
666.532	3420
666.585	2283
666.638	3409
666.691	2333
666.744	2794
666.796	1925
666.849	3026
666.902	2364
666.955	3016
667.008	1530
667.060	2738
667.113	1765
667.166	2777
667.219	2848
667.271	3624
667.324	2550
667.377	3303
667.430	2256
667.482	3744
667.535	2799
667.587	2251
667.640	2746
667.693	2824
667.745	3145
667.798	3672
667.850	2301
667.903	3079
667.955	2700
668.008	3449
668.060	2370
668.113	3335
668.165	3336
668.218	3752
668.270	2951
668.322	2843
668.375	3012
668.427	3209
668.479	2037
668.532	3447
668.584	3000
668.636	2918
668.689	2992
668.741	2565
668.793	3604
668.845	3411
668.898	3316
668.950	2612
669.002	2597
669.054	2270
669.106	1648
669.158	3198
669.211	2639
669.263	2669
669.315	3191
669.367	4122
669.419	1994
669.471	3691
669.523	2392
669.575	3712
669.627	2548
669.679	3637
669.731	3059
669.783	3471
669.835	3041
669.886	3459
669.938	3004
669.990	3301
670.042	2183
670.094	3046
670.146	2786
670.197	5404
670.249	4346
670.301	5187
670.353	6817
670.404	10343
670.456	12885
670.508	22039
670.560	37971
670.611	65332
670.663	117004
670.715	263834
670.766	339705
670.818	108987
670.869	27345
670.921	14271
670.972	9944
671.024	8006
671.075	6375
671.127	5676
671.178	4948
671.230	4080
671.281	3759
671.333	3935
671.384	2998
671.436	3003
671.487	3213
671.538	3745
671.590	3516
671.641	3706
671.692	4104
671.744	4731
671.795	4277
671.846	3479
671.897	2419
671.949	3309
672.000	2549
672.051	2904
672.102	3549
672.153	2379
672.204	2534
672.256	2770
672.307	3100
672.358	2773
672.409	2363
672.460	3391
672.511	1518
672.562	2826
672.613	1564
672.664	3653
672.715	1643
672.766	2587
672.817	2509
672.868	2261
672.919	1559
672.970	2753
673.021	2294
673.071	1864
673.122	1608
673.173	2239
673.224	1838
673.275	3028
673.326	2238
673.376	3119
673.427	1725
673.478	2573
673.528	2113
673.579	2389
673.630	2665
673.680	3907
673.731	2527
673.782	2467
673.832	1651
673.883	2939
673.934	2232
673.984	2724
674.035	1790
674.085	2280
674.136	2453
674.186	2115
674.237	2079
674.287	2423
674.338	2406
674.388	2682
674.438	1009
674.489	2637
674.539	1409
674.589	2657
674.640	2626
674.690	2304
674.740	1762
674.791	2316
674.841	2310
674.891	2602
674.942	1874
674.992	2090
675.042	1125
675.092	1703
675.142	1489
675.193	1798
675.243	1117
675.293	2281
675.343	1955
675.393	2512
675.443	2265
675.493	2561
675.543	1628
675.593	2875
675.643	1373
675.693	2610
675.743	1851
675.793	2703
675.843	1569
675.893	2364
675.943	3174
675.993	1970
676.043	1906
676.093	1654
676.142	1625
676.192	2939
676.242	1511
676.292	2381
676.341	1074
676.391	2046
676.441	1115
676.491	1381
676.540	1294
676.590	2412
676.640	1230
676.689	2096
676.739	1750
676.789	2768
676.838	1032
676.888	2944
676.937	953
676.987	2357
677.037	1031
677.086	1587
677.136	1290
677.185	1670
677.235	685
677.284	2101
677.333	1153
677.383	1838
677.432	1197
677.482	1917
677.531	1690
677.580	1551
677.630	1296
677.679	1549
677.728	1479
677.778	1502
677.827	852
677.876	1652
677.925	1100
677.975	2230
678.024	1785
678.073	1847
678.122	1333
678.171	1154
678.220	1473
678.269	2633
678.319	1326
678.368	1719
678.417	923
678.466	2073
678.515	1760
678.564	2270
678.613	1572
678.662	1180
678.711	1519
678.760	2095
678.809	1468
678.857	1316
678.906	1703
678.955	867
679.004	1884
679.053	1738
679.102	1145
679.151	1731
679.199	1775
679.248	1335
679.297	1790
679.346	1736
679.394	746
679.443	1670
679.492	1136
679.540	1303
679.589	2191
679.638	1751
679.686	1929
679.735	1262
679.784	1337
679.832	2007
679.881	1562
679.929	1595
679.978	700
680.026	1775
680.075	1790
680.123	1427
680.172	710
680.220	1931
680.268	1947
680.317	1402
680.365	1151
680.414	627
680.462	1447
680.510	2160
680.559	850
680.607	1943
680.655	1561
680.703	1375
680.752	882
680.800	1241
680.848	1698
680.896	1402
680.945	502
680.993	1062
681.041	1107
681.089	1423
681.137	1549
681.185	1693
681.233	777
681.258	1219
681.281	1613
681.329	935
681.377	1615
681.380	1614
681.425	1138
681.473	1455
681.502	1424
681.521	1359
681.569	1196
681.617	1411
681.624	1514
681.665	2012
681.713	1803
681.745	2449
681.761	2726
681.809	1714
681.857	2413
681.867	2116
681.904	1005
681.952	2101
681.989	1665
682.000	1499
682.048	2252
682.096	2178
682.111	2225
682.143	2233
682.191	1330
682.233	2618
682.239	2795
682.286	2098
682.334	2124
682.354	1981
682.382	1712
682.430	3445
682.476	2629
682.477	2593
682.525	2804
682.572	2325
682.598	2443
682.620	2515
682.667	1985
682.715	2297
682.720	2318
682.763	2247
682.810	2118
682.841	1838
682.857	1690
682.905	2715
682.952	2910
682.963	2960
683.000	3046
683.047	2760
683.085	3805
683.095	4059
683.142	2725
683.190	3695
683.206	3306
683.237	2587
683.284	3532
683.328	2521
683.332	2411
683.379	3648
683.426	2407
683.449	2759
683.473	3123
683.521	2558
683.568	3513
683.571	3511
683.615	3299
683.662	2929
683.693	2996
683.709	2950
683.757	3307
683.804	3414
683.814	3307
683.851	2943
683.898	3260
683.936	3572
683.945	3639
683.992	3411
684.039	4184
684.057	3934
684.086	3457
684.133	3972
684.179	3981
684.180	3969
684.227	4444
684.274	3992
684.300	4038
684.321	3998
684.368	3553
684.415	3930
684.422	3840
684.462	3278
684.509	4260
684.543	3537
684.556	3276
684.603	3680
684.649	3946
684.665	3967
684.696	3958
684.743	4083
684.786	4037
684.790	4021
684.837	3807
684.883	5008
684.908	4642
684.930	4257
684.977	5134
685.023	4651
685.029	4707
685.070	5050
685.117	4240
685.150	4709
685.164	4916
685.210	4430
685.257	5771
685.272	5664
685.303	5306
685.350	5164
685.393	5271
685.396	5271
685.443	5498
685.490	5505
685.514	5568
685.536	5664
685.583	5001
685.629	6004
685.636	5907
685.675	5116
685.722	5581
685.757	4776
685.768	4517
685.815	5909
685.861	5234
685.878	5484
685.908	5930
685.954	5622
686.000	5868
686.000	5867
686.047	5676
686.093	6254
686.121	6396
686.139	6433
686.185	5720
686.232	6078
686.242	6087
686.278	6189
686.324	5884
686.363	6129
686.370	6159
686.416	6705
686.463	6733
686.484	6444
686.509	6072
686.555	6460
686.601	6490
686.606	6489
686.647	6479
686.693	6545
686.727	6351
686.739	6300
686.785	6646
686.831	6556
686.848	6352
686.877	5938
686.923	6547
686.969	6298
686.969	6296
687.015	6285
687.061	6376
687.090	6807
687.107	6992
687.153	6270
687.199	6793
687.211	6609
687.245	6218
687.291	6735
687.332	6614
687.336	6600
687.382	6491
687.428	5913
687.453	6246
687.474	6486
687.520	6355
687.565	6899
687.574	6799
687.611	6520
687.657	6664
687.695	6403
687.702	6377
687.748	7359
687.794	7696
687.816	7587
687.839	7313
687.885	7284
687.931	6860
687.937	6877
687.976	7064
688.022	7046
688.058	7179
688.067	7225
688.113	6927
688.158	6346
688.179	6630
688.204	7038
688.249	7443
688.295	7761
688.300	7800
688.340	8041
688.386	7961
688.421	7539
688.431	7394
688.477	7347
688.522	7532
688.542	7646
688.567	7927
688.613	7533
688.658	7955
688.663	7898
688.703	7540
688.749	7975
688.784	7898
688.794	7852
688.839	7613
688.884	8007
688.905	8029
688.930	8060
688.975	7964
689.020	8259
689.026	8218
689.065	8076
689.110	8680
689.146	8295
689.155	8194
689.201	8268
689.246	8042
689.267	8031
689.291	8106
689.336	9148
689.381	8499
689.388	8481
689.426	8301
689.471	8866
689.509	8598
689.516	8560
689.561	8585
689.606	8432
689.630	8383
689.651	8412
689.696	8425
689.741	8854
689.750	8806
689.785	8680
689.830	8794
689.871	7989
689.875	7894
689.920	8677
689.965	8335
689.992	8346
690.010	8552
690.054	8344
690.099	8771
690.112	8960
690.144	9222
690.189	8467
690.233	8342
690.233	8355
690.278	8819
690.323	9126
690.354	9388
690.367	9547
690.412	9504
690.457	9739
690.474	9897
690.501	10028
690.546	10188
690.590	10089
690.595	10071
690.635	10390
690.680	10754
690.716	11569
690.724	11885
690.769	12422
690.813	14300
690.836	14388
690.857	15665
690.902	19948
690.946	23819
690.957	24924
690.991	33703
691.035	45249
691.077	56224
691.080	56215
691.124	50061
691.168	45940
691.198	43200
691.213	40073
691.257	31424
691.301	22101
691.318	18711
691.346	17575
691.390	14868
691.434	13113
691.439	12859
691.478	12398
691.522	11846
691.559	11159
691.567	11102
691.611	11209
691.655	10848
691.680	10659
691.699	10647
691.743	10731
691.787	10815
691.800	10587
691.831	10242
691.875	10643
691.919	10631
691.921	10625
691.964	10971
692.008	10886
692.041	11094
692.052	11167
692.096	10676
692.139	10901
692.162	10767
692.183	10670
692.227	10938
692.271	10503
692.282	10548
692.315	10848
692.359	10464
692.402	10616
692.403	10639
692.447	10555
692.490	11103
692.523	11169
692.534	11150
692.578	11269
692.622	10928
692.643	10941
692.666	11014
692.709	10576
692.753	10472
692.763	10446
692.797	10690
692.840	11254
692.884	11232
692.884	11254
692.928	11672
692.971	11633
693.004	11448
693.015	11343
693.059	11054
693.102	11285
693.124	11020
693.146	11151
693.189	11854
693.233	11926
693.245	12109
693.276	12870
693.320	13607
693.363	14503
693.365	14487
693.407	15191
693.450	16728
693.485	17509
693.493	18073
693.537	21023
693.580	23569
693.605	25450
693.624	28942
693.667	36974
693.710	45386
693.725	48365
693.753	64559
693.797	90571
693.840	116070
693.845	118514
693.883	109544
693.926	99718
693.966	91701
693.970	89822
694.013	68601
694.056	47724
694.086	33081
694.099	31541
694.142	26686
694.185	21663
694.206	19244
694.229	18619
694.272	17366
694.315	16167
694.326	15789
694.358	15334
694.401	14996
694.444	14143
694.446	14092
694.487	13883
694.530	13210
694.566	13022
694.573	13073
694.616	12558
694.659	12725
694.686	12560
694.702	12509
694.745	12475
694.787	12175
694.806	12185
694.830	12266
694.873	11830
694.916	11793
694.926	11742
694.959	11759
695.002	11702
695.044	11701
695.046	11677
695.087	12014
695.130	11989
695.166	12379
695.172	12458
695.215	12131
695.258	12360
695.286	12195
695.301	12168
695.343	12388
695.386	12577
695.406	12576
695.428	12446
695.471	12063
695.514	11968
695.526	11794
695.556	11787
695.599	12143
695.641	12075
695.646	12083
695.684	12179
695.726	11953
695.766	11880
695.769	11924
695.811	11892
695.854	12220
695.886	12345
695.896	12355
695.938	12044
695.981	11897
696.005	11827
696.023	12034
696.065	12281
696.108	12843
696.125	12870
696.150	12677
696.192	12628
696.235	12439
696.245	12370
696.277	12550
696.319	12711
696.361	12939
696.365	12912
696.404	13082
696.446	13418
696.485	13658
696.488	13671
696.530	13332
696.572	12933
696.604	12789
696.614	12780
696.656	12461
696.698	12164
696.724	11939
696.740	11988
696.783	11965
696.825	12058
696.844	12042
696.867	12074
696.909	12047
696.951	12090
696.964	12063
696.992	11997
697.034	11784
697.076	11640
697.083	11603
697.118	11715
697.160	11589
697.202	11644
697.203	11613
697.244	11702
697.286	11852
697.323	11842
697.327	11864
697.369	11975
697.411	11863
697.442	11857
697.453	11903
697.494	11906
697.536	11966
697.562	11952
697.578	11952
697.620	11751
697.661	11656
697.682	11604
697.703	11768
697.744	11920
697.786	12260
697.801	12264
697.828	12359
697.869	12596
697.911	12817
697.921	12829
697.952	12871
697.994	12899
698.035	12949
698.040	12915
698.077	12751
698.118	12575
698.160	12372
698.160	12338
698.201	12468
698.243	12529
698.279	12641
698.284	12689
698.325	12764
698.367	12889
698.399	12876
698.408	12861
698.449	12734
698.491	12523
698.518	12366
698.532	12369
698.573	12273
698.614	12171
698.638	12087
698.656	12241
698.697	12531
698.738	12797
698.757	12896
698.779	12944
698.820	12948
698.862	12976
698.877	12950
698.903	13186
698.944	13506
698.985	13828
698.996	13882
699.026	13666
699.067	13320
699.116	12873
699.235	12782
699.354	12858
699.474	13060
699.593	12541
699.713	12868
699.832	12500
699.951	12395
700.070	12224
700.190	12753
700.309	12452
700.428	12244
700.547	12234
700.667	12045
700.786	12894
700.905	12063
701.024	12427
701.143	11617
701.262	11741
701.381	11776
701.500	11319
701.619	11856
701.738	11794
701.857	12050
701.976	11468
702.095	12011
702.214	11537
702.333	12046
702.452	11628
702.571	11654
702.690	11802
702.809	11635
702.928	11307
703.047	11728
703.165	10919
703.284	10799
703.403	11058
703.522	10531
703.640	11404
703.759	11809
703.878	11974
703.997	10111
704.115	10214
704.234	11007
704.353	11438
704.471	10651
704.590	11106
704.708	10193
704.827	10855
704.946	10478
705.064	10607
705.183	10925
705.301	11680
705.420	15963
705.538	13493
705.656	12756
705.775	12750
705.893	17806
706.012	21034
706.130	13372
706.249	13003
706.367	13263
706.485	12179
706.604	12605
706.722	12269
706.840	12977
706.958	13393
707.077	12373
707.195	11453
707.313	12003
707.431	11926
707.549	11680
707.668	12098
707.786	12498
707.904	11092
708.022	11370
708.140	10984
708.258	10800
708.376	12015
708.494	11471
708.612	12940
708.730	15444
708.848	14401
708.966	12965
709.084	12879
709.202	13340
709.320	12194
709.438	13438
709.556	13230
709.674	12586
709.791	12904
709.909	12496
710.027	13007
710.145	12691
710.263	11975
710.380	12276
710.498	12278
710.616	12256
710.733	12844
710.851	12190
710.969	11415
711.086	12093
711.204	12118
711.322	12031
711.439	11952
711.557	12339
711.674	11337
711.792	11719
711.909	12211
712.027	12061
712.144	11604
712.262	11404
712.379	11986
712.497	16230
712.614	15633
712.732	13765
712.849	12631
712.966	13779
713.084	13439
713.201	13275
713.318	13312
713.436	14412
713.553	13605
713.670	14119
713.787	13666
713.905	12700
714.022	12785
714.139	13405
714.256	13224
714.373	13359
714.490	14520
714.608	16802
714.725	33877
714.842	34233
714.959	12767
715.076	12708
715.193	12599
715.310	12039
715.427	11879
715.544	11116
715.661	12384
715.778	11276
715.895	12857
716.011	11283
716.128	12700
716.245	11901
716.362	11492
716.479	11583
716.596	11750
716.713	11861
716.829	11960
716.946	11558
717.063	10935
717.180	11104
717.296	11382
717.413	12141
717.530	10727
717.646	11427
717.763	10362
717.880	10064
717.996	10949
718.113	9503
718.229	10387
718.346	9915
718.462	9755
718.579	10897
718.695	11530
718.812	11612
718.928	9433
719.045	9349
719.161	10301
719.277	9561
719.394	10425
719.510	9636
719.626	9412
719.743	10860
719.859	10298
719.975	10684
720.092	14437
720.208	21081
720.324	11593
720.440	9439
720.557	9968
720.673	11189
720.789	11443
720.905	14814
721.021	10748
721.137	9442
721.253	9465
721.369	9201
721.486	8908
721.602	9793
721.718	8939
721.834	9104
721.950	8636
722.066	8579
722.181	9407
722.297	8919
722.413	8642
722.529	8618
722.645	8703
722.761	7855
722.877	7921
722.993	8036
723.108	8919
723.224	9204
723.340	7338
723.456	8556
723.571	8625
723.687	7427
723.803	7897
723.918	7169
724.034	8190
724.150	8108
724.265	8534
724.381	9232
724.497	9785
724.612	8218
724.728	7747
724.843	7965
724.959	7857
725.074	8355
725.190	10430
725.305	8157
725.421	7469
725.536	8483
725.651	7028
725.767	7219
725.882	7320
725.997	6461
726.113	6769
726.228	7065
726.343	7007
726.459	6628
726.574	7515
726.689	7103
726.804	7081
726.920	7482
727.035	7281
727.150	7034
727.265	6941
727.380	7510
727.495	7765
727.610	6370
727.725	7155
727.841	8250
727.956	10688
728.071	9519
728.186	6341
728.301	5956
728.416	7733
728.531	7699
728.645	6488
728.760	7765
728.875	6562
728.990	7535
729.105	6388
729.220	6690
729.335	6923
729.449	6857
729.564	7172
729.679	6817
729.794	5973
729.908	6775
730.023	6851
730.138	6703
730.253	6167
730.367	6241
730.482	6274
730.596	6336
730.711	7019
730.826	5884
730.940	5852
731.055	5914
731.169	5712
731.284	5400
731.398	5687
731.513	6207
731.627	6325
731.742	6702
731.856	6310
731.970	6221
732.085	5634
732.199	7042
732.313	6308
732.428	6701
732.542	10842
732.656	9050
732.771	6338
732.885	5926
732.999	5945
733.113	6463
733.227	6186
733.342	5870
733.456	6664
733.570	5593
733.684	5152
733.798	5060
733.912	5809
734.026	5277
734.140	5921
734.254	5597
734.368	6597
734.482	7314
734.596	6234
734.710	6472
734.824	6179
734.938	5095
735.052	5516
735.166	5484
735.280	6271
735.393	5088
735.507	5299
735.621	5371
735.735	6220
735.849	6207
735.962	5573
736.076	5595
736.190	5480
736.303	6100
736.417	7232
736.531	5323
736.644	5213
736.758	6094
736.872	5116
736.985	6083
737.099	5657
737.212	5681
737.326	5773
737.439	5249
737.553	4950
737.666	6125
737.780	5660
737.893	5388
738.007	5225
738.120	5592
738.233	5844
738.347	5228
738.460	5532
738.573	4969
738.687	5119
738.800	5521
738.913	4769
739.026	4993
739.140	6183
739.253	4324
739.366	4963
739.479	5192
739.592	4785
739.705	5049
739.818	5732
739.932	5432
740.045	4497
740.158	4420
740.271	5239
740.384	5204
740.497	4466
740.610	5730
740.723	5260
740.836	5057
740.949	4784
741.062	5143
741.174	5265
741.287	5099
741.400	5282
741.513	4846
741.626	5292
741.739	4453
741.851	5200
741.964	5293
742.077	5497
742.189	4412
742.302	5228
742.415	4357
742.527	5126
742.640	4682
742.753	5001
742.865	4655
742.978	4808
743.090	4913
743.203	4754
743.316	5267
743.428	5628
743.541	5665
743.653	5134
743.766	4589
743.878	4281
743.990	5061
744.103	5377
744.215	4501
744.327	5604
744.440	5135
744.552	5518
744.664	5330
744.777	4743
744.889	4760
745.001	5344
745.113	4508
745.226	5128
745.338	5223
745.450	5468
745.562	4824
745.674	5011
745.786	5139
745.898	4801
746.010	4409
746.122	3765
746.234	4721
746.347	4806
746.459	5363
746.570	4850
746.682	4872
746.794	4777
746.906	5212
747.018	5035
747.130	4822
747.242	4352
747.354	4766
747.466	5268
747.577	4323
747.689	4938
747.801	5263
747.913	4698
748.024	4936
748.136	4432
748.248	4869
748.359	5219
748.471	5252
748.583	5436
748.694	5576
748.806	6233
748.918	5094
749.029	5115
749.141	4482
749.252	4848
749.364	3354
749.475	5237
749.587	4883
749.698	4320
749.809	5321
749.921	4310
750.032	4947
750.144	4216
750.255	4355
750.366	4055
750.478	5070
750.589	4779
750.700	4677
750.811	4135
750.923	5332
751.034	4627
751.145	5537
751.256	5285
751.367	4492
751.479	4623
751.590	4745
751.701	5356
751.812	3973
751.923	4537
752.034	4439
752.145	4430
752.256	4994
752.367	4811
752.478	4803
752.589	5471
752.700	5779
752.811	4484
752.922	5390
753.032	4864
753.143	5046
753.254	4505
753.365	5587
753.476	5322
753.586	5132
753.697	5039
753.808	4857
753.919	5446
754.029	4778
754.140	4498
754.251	4952
754.361	4030
754.472	5663
754.582	4849
754.693	5859
754.804	5820
754.914	5097
755.025	5645
755.135	5060
755.246	5425
755.356	4387
755.466	5595
755.577	5124
755.687	5607
755.798	5349
755.908	5968
756.018	4419
756.129	4284
756.239	5211
756.349	6328
756.460	4737
756.570	5635
756.680	4592
756.790	5252
756.900	6369
757.011	6345
757.121	5529
757.231	4567
757.341	6546
757.451	5778
757.561	5874
757.671	6016
757.781	5072
757.891	6851
758.001	6473
758.111	6616
758.221	5540
758.331	6666
758.441	6646
758.551	6543
758.661	7343
758.771	6973
758.880	6989
758.990	6970
759.100	6838
759.210	6665
759.320	8166
759.429	6779
759.539	7085
759.649	7722
759.758	7579
759.868	8501
759.978	7865
760.087	8120
760.197	8546
760.307	7205
760.416	8547
760.526	7886
760.635	8825
760.745	9745
760.854	8670
760.964	8471
761.073	9297
761.182	9251
761.292	10358
761.401	10397
761.511	10365
761.620	11054
761.729	10684
761.839	10753
761.948	12076
762.057	11038
762.166	12436
762.276	11712
762.385	14137
762.494	12779
762.603	12691
762.712	14950
762.822	14323
762.931	16302
763.040	15270
763.149	16290
763.258	17200
763.367	18278
763.476	19494
763.585	19287
763.694	20669
763.803	21504
763.912	22204
764.021	24514
764.130	26125
764.238	28050
764.347	28650
764.456	31368
764.565	34647
764.674	36716
764.783	40103
764.891	44985
765.000	51333
765.109	57423
765.217	64532
765.326	75151
765.435	88778
765.543	104929
765.652	126572
765.761	158198
765.869	202054
765.978	264471
766.086	349993
766.195	456304
766.303	539079
766.412	420159
766.520	410267
766.629	506430
766.737	427726
766.846	329897
766.954	251077
767.062	195504
767.171	150979
767.279	123064
767.387	99809
767.496	83688
767.604	72503
767.712	63846
767.820	56639
767.928	52093
768.037	48801
768.145	46424
768.253	43887
768.361	42565
768.469	42167
768.577	43908
768.685	47276
768.793	49232
768.901	53527
769.009	62487
769.117	72557
769.225	91714
769.333	122235
769.441	171430
769.549	254272
769.657	383003
769.765	486819
769.873	385637
769.981	444303
770.088	361225
770.196	249979
770.304	176620
770.412	131857
770.519	104149
770.627	82650
770.735	68442
770.842	58523
770.950	50817
771.058	43199
771.165	40501
771.273	35885
771.380	31477
771.488	31055
771.595	26927
771.703	25648
771.810	23995
771.918	21652
772.025	20404
772.133	19467
772.240	18335
772.348	17590
772.455	17704
772.562	15706
772.670	14991
772.777	15448
772.884	13450
772.991	14116
773.099	13405
773.206	12236
773.313	11897
773.420	12183
773.528	10768
773.635	10254
773.742	11498
773.849	10710
773.956	10404
774.063	9925
774.170	9602
774.277	9853
774.384	8794
774.491	8346
774.598	8603
774.705	8638
774.812	8127
774.919	8661
775.026	8039
775.133	8156
775.239	7874
775.346	7139
775.453	6977
775.560	6868
775.667	7257
775.773	6412
775.880	8142
775.987	7103
776.093	6767
776.200	7206
776.307	6764
776.413	6827
776.520	5748
776.627	6863
776.733	6607
776.840	5280
776.946	7936
777.053	5542
777.159	5589
777.266	4808
777.372	6347
777.478	6117
777.585	6135
777.691	5446
777.798	5831
777.904	6152
778.010	5972
778.117	6359
778.223	5840
778.329	4644
778.435	5425
778.542	6198
778.648	5037
778.754	3972
778.860	5080
778.966	5369
779.072	4380
779.178	5072
779.284	5057
779.391	4785
779.497	5393
779.603	8924
779.708	9571
779.815	24400
779.920	79805
780.026	143211
780.132	27832
780.238	8765
780.344	6352
780.450	5830
780.556	5818
780.661	4380
780.767	4146
780.873	4524
780.979	4343
781.085	3679
781.190	5084
781.296	3416
781.402	3362
781.507	2820
781.613	4532
781.719	3843
781.824	3025
781.930	4493
782.035	4390
782.141	3951
782.246	3289
782.352	3402
782.457	2672
782.563	3204
782.668	3543
782.773	2958
782.879	3087
782.984	3668
783.090	3132
783.195	3478
783.300	2959
783.405	3855
783.511	3708
783.616	2999
783.721	3255
783.826	2692
783.932	3008
784.037	2655
784.142	3027
784.247	3455
784.352	3567
784.457	2998
784.562	3046
784.667	3772
784.772	3567
784.877	2865
784.982	3033
785.087	2648
785.192	2831
785.297	2561
785.402	1992
785.507	2721
785.611	3447
785.716	3757
785.821	3748
785.926	2440
786.031	2632
786.135	3786
786.240	2285
786.345	1030
786.450	3731
786.554	3117
786.659	2824
786.763	1101
786.868	2981
786.973	3621
787.077	2479
787.182	2835
787.286	1865
787.391	2377
787.495	1190
787.600	2308
787.704	2252
787.809	2250
787.913	1746
788.017	3339
788.122	2221
788.226	2889
788.330	2415
788.435	1716
788.539	2549
788.643	1722
788.747	1315
788.852	1770
788.956	1784
789.060	2494
789.164	1158
789.268	2603
789.372	2968
789.476	1756
789.580	1958
789.684	1868
789.788	2429
789.892	1697
789.996	2767
790.100	1958
790.204	2464
790.308	2431
790.412	1973
790.516	2277
790.620	2120
790.724	1593
790.828	2692
790.931	1093
791.035	3511
791.139	1929
791.242	662
791.346	3437
791.450	1514
791.554	2281
791.657	1098
791.761	2480
791.864	2469
791.968	1786
792.072	1455
792.175	2463
792.279	2099
792.382	2107
792.486	1661
792.589	1634
792.693	2007
792.796	1511
792.899	2397
793.003	2326
793.106	17
793.209	1663
793.313	3234
793.416	1715
793.519	2665
793.623	2634
793.726	2427
793.829	1879
793.932	1293
794.035	1180
794.138	3474
794.242	3184
794.345	3009
794.448	5460
794.551	11379
794.654	45022
794.757	91606
794.860	16487
794.963	3918
795.066	2740
795.169	2995
795.272	2243
795.375	2208
795.477	1340
795.580	2370
795.683	742
795.786	1298
795.889	1322
795.991	2440
796.094	1962
796.197	713
796.300	2579
796.402	1251
796.505	997
796.608	1983
796.710	2598
796.813	2133
796.915	1209
797.018	2154
797.120	2902
797.223	-8
797.326	2190
797.428	1224
797.530	1893
797.633	1252
797.735	3069
797.838	1755
797.940	2564
798.042	1306
798.145	1414
798.247	1866
798.349	306
798.452	1575
798.554	835
798.656	601
798.758	2712
798.860	1746
798.962	1309
799.065	1954
799.167	930
799.269	2336
799.371	2373
799.473	1605
799.575	668
799.677	1136
799.779	2655
799.881	516
799.983	1431
800.085	2130
800.187	1334
800.289	1081
800.390	1405
800.492	2108
800.594	1980
800.696	1009
800.798	2237
800.899	893
801.001	1591
801.103	1355
801.205	700
801.306	1090
801.408	672
801.509	929
801.611	1671
801.713	1101
801.814	1546
801.916	1707
802.017	918
802.119	646
802.220	1873
802.322	-585
802.423	3018
802.525	170
802.626	1387
802.727	1702
802.829	431
802.930	-868
803.031	2733
803.133	1277
803.234	1358
803.335	826
803.436	-17
803.538	1717
803.639	567
803.740	1959
803.841	683
803.942	1479
804.043	1421
804.144	1428
804.245	1009
804.346	352
804.447	740
804.548	1557
804.649	1806
804.750	893
804.851	292
804.952	984
805.053	801
805.154	905
805.255	2513
805.355	1382
805.456	998
805.557	1045
805.658	362
805.758	1271
805.859	1141
805.960	1032
806.061	710
806.161	650
806.262	1014
806.362	1337
806.463	1150
806.564	1501
806.664	1052
806.765	1078
806.865	1394
806.966	1301
807.066	1159
807.166	1636
807.267	1390
807.367	411
807.468	1053
807.568	-137
807.668	2093
807.769	1154
807.869	1840
807.969	1969
808.069	2012
808.170	1170
808.270	1387
808.370	1103
808.470	1044
808.570	-259
808.670	814
808.770	685
808.870	507
808.970	1102
809.070	339
809.170	675
809.271	1339
809.370	744
809.470	1269
809.570	64
809.670	1141
809.770	1123
809.870	1578
809.970	1079
810.070	907
810.169	1254
810.269	-270
810.369	1174
810.469	770
810.568	1183
810.668	86
810.768	572
810.867	1593
810.967	859
811.066	1056
811.166	1020
811.265	2146
811.365	-322
811.464	535
811.564	2347
811.663	528
811.763	-305
811.862	1231
811.962	1624
812.061	1196
812.160	876
812.260	822
812.359	1310
812.458	903
812.557	3313
812.657	3746
812.756	2569
812.855	1430
812.954	852
813.053	1682
813.153	983
813.252	376
813.351	1823
813.450	961
813.549	602
813.648	957
813.747	923
813.846	1590
813.945	12
814.044	666
814.143	730
814.242	1381
814.341	-43
814.439	1564
814.538	1696
814.637	1203
814.736	1035
814.835	1804
814.933	1046
815.032	1371
815.131	692
815.229	1149
815.328	1429
815.427	978
815.525	1701
815.624	1400
815.722	1080
815.821	1702
815.919	1748
816.018	632
816.116	1665
816.215	1259
816.313	1568
816.412	2479
816.510	1567
816.609	3184
816.707	2029
816.805	3040
816.904	2225
817.002	2312
817.100	3965
817.198	3374
817.296	3702
817.395	4999
817.493	6278
817.591	6002
817.689	9004
817.787	12037
817.885	18458
817.983	29145
818.081	55406
818.179	114052
818.277	209327
818.375	183353
818.473	88182
818.571	44214
818.669	28584
818.767	23630
818.865	23336
818.963	27277
819.061	35325
819.158	55069
819.256	98381
819.354	175015
819.452	254672
819.549	198148
819.647	111238
819.745	60274
819.842	36215
819.940	25047
820.038	18450
820.135	14153
820.233	12395
820.330	8736
820.428	6978
820.525	8067
820.623	5728
820.720	4351
820.818	3715
820.915	4744
821.012	4412
821.110	2029
821.207	3959
821.304	2421
821.402	3004
821.499	3012
821.596	2567
821.693	2425
821.791	2219
821.888	2450
821.985	2981
822.082	2051
822.179	2564
822.276	808
822.373	1876
822.470	322
822.567	1179
822.664	542
822.761	2010
822.858	911
822.955	1662
823.052	1484
823.149	417
823.246	2172
823.343	1089
823.440	2063
823.536	1275
823.633	985
823.730	1862
823.827	1051
823.923	393
824.020	1639
824.117	1140
824.213	294
824.310	1194
824.407	199
824.503	1361
824.600	850
824.696	261
824.793	1292
824.889	-394
824.986	564
825.082	692
825.179	1242
825.275	488
825.371	396
825.468	491
825.564	108
825.660	803
825.757	666
825.853	1491
825.949	182
826.045	198
826.142	473
826.238	1569
826.334	1159
826.430	-505
826.526	1387
826.622	459
826.718	1120
826.814	-106
826.910	1279
827.006	272
827.102	213
827.198	1144
827.294	354
827.390	796
827.486	1330
827.582	-129
827.678	-554
827.774	881
827.869	255
827.965	1381
828.061	635
828.157	440
828.252	934
828.348	-277
828.444	829
828.539	-304
828.635	-6
828.731	1096
828.826	-273
828.922	417
829.017	-26
829.113	640
829.208	143
829.304	-129
829.399	924
829.495	433
829.590	1508
829.685	-167
829.781	570
829.876	-125
829.971	144
830.066	227
830.162	458
830.257	-167
830.352	199
830.447	886
830.543	509
830.638	-680
830.733	285
830.828	133
830.923	1003
831.018	133
831.113	846
831.208	-289
831.303	-14
831.398	227
831.493	382
831.588	594
831.683	219
831.778	453
831.873	-97
831.967	371
832.062	-497
832.157	-683
832.252	1543
832.346	123
832.441	832
832.536	20
832.631	884
832.725	883
832.820	25
832.914	-172
833.009	31
833.104	10
833.198	675
833.293	-352
833.387	1045
833.482	47
833.576	917
833.670	548
833.765	134
833.859	-617
833.954	483
834.048	510
834.142	1018
834.237	8
834.331	-174
834.425	10
834.519	675
834.613	607
834.708	-215
834.802	501
834.896	-1043
834.990	-252
835.084	1218
835.178	149
835.272	193
835.366	-345
835.460	653
835.554	362
835.648	611
835.742	413
835.836	-29
835.930	-188
836.024	319
836.117	1968
836.211	-989
836.305	649
836.399	928
836.493	-366
836.586	1245
836.680	-1229
836.774	-471
836.867	868
836.961	-130
837.055	627
837.148	-29
837.242	842
837.335	341
837.429	-305
837.522	458
837.616	673
837.709	726
837.803	-82
837.896	567
837.989	483
838.083	84
838.176	73
838.269	155
838.363	186
838.456	12
838.549	951
838.642	186
838.735	1095
838.829	893
838.922	-503
839.015	-201
839.108	-1024
839.201	225
839.294	460
839.387	296
839.480	-752
839.573	532
839.666	160
839.759	715
839.852	-328
839.945	28
840.038	249
840.131	-456
840.223	-178
840.316	542
840.409	-46
840.502	51
840.594	1090
840.687	-968
840.780	703
840.873	8
840.965	-757
841.058	504
841.150	711
841.243	-356
841.336	101
841.428	-192
841.521	-437
841.613	124
841.706	-408
841.798	433
841.890	62
841.983	-388
842.075	166
842.167	60
842.260	184
842.352	907
842.444	924
842.537	597
842.629	826
842.721	-42
842.813	428
842.905	-1566
842.997	141
843.090	233
843.182	251
843.274	125
843.366	1783
843.458	1815
843.550	1889
843.642	5
843.734	158
843.826	-302
843.918	566
844.009	926
844.101	-273
844.193	-802
844.285	30
844.377	19
844.469	586
844.560	681
844.652	-327
844.744	-610
844.835	225
844.927	188
845.019	381
845.110	-11
845.202	743
845.293	6
845.385	-1062
845.476	-702
845.568	1060
845.659	148
845.751	823
845.842	-475
845.934	-613
846.025	-744
846.116	275
846.208	276
846.299	-356
846.390	-124
846.482	116
846.573	29
846.664	288
846.755	-402
846.846	714
846.937	-933
847.029	-457
847.120	-140
847.211	-399
847.302	-109
847.393	-707
847.484	805
847.575	186
847.666	-608
847.757	189
847.847	479
847.938	-211
848.029	127
848.120	-1158
848.211	-507
848.302	-562
848.392	3
848.483	-388
848.574	-361
848.664	-1196
848.755	194
848.846	723
848.936	21
849.027	-141
849.118	-82
849.208	-1140
849.299	-198
849.389	287
849.480	210
849.570	67
849.661	-295
849.751	250
849.841	-699
849.932	-567
850.022	-1054
850.112	159
850.203	-176
850.293	-951
850.383	-375
850.474	-965
850.564	177
850.654	-65
850.744	-284
850.834	-210
850.924	-333
851.014	-487
851.104	491
851.194	-579
851.284	133
851.374	395
851.464	-398
851.554	119
851.644	-124
851.734	382
851.824	872
851.914	1878
852.004	5078
852.094	4216
852.183	665
852.273	-67
852.363	432
852.452	-59
852.542	-266
852.632	-350
852.721	-101
852.811	-1121
852.901	-110
852.990	-481
853.080	305
853.169	-318
853.259	-514
853.348	-170
853.438	593
853.527	0
853.617	-991
853.706	-204
853.795	-213
853.885	762
853.974	674
854.063	2510
854.152	2677
854.242	801
854.331	-430
854.420	-122
854.509	-83
854.598	-346
854.687	-104
854.777	199
854.866	-50
854.955	386
855.044	-358
855.133	-382
855.222	-313
855.311	-729
855.400	-287
855.488	676
855.577	-337
855.666	405
855.755	451
855.844	-1179
855.933	-456
856.021	695
856.110	173
856.199	-817
856.288	-318
856.376	-843
856.465	-1318
856.554	120
856.642	-482
856.731	-16
856.819	226
856.908	-4
856.996	-427
857.085	-362
857.173	-375
857.262	-41
857.350	-371
857.438	-109
857.527	128
857.615	-44
857.703	-79
857.792	-592
857.880	-145
857.968	-206
858.056	148
858.145	-321
858.233	-611
858.321	-828
858.409	267
858.497	-446
858.585	633
858.673	-398
858.761	-800
858.849	-628
858.937	173
859.025	-344
859.113	7
859.201	-704
859.289	43
859.377	-762
859.465	-817
859.552	165
859.640	-44
859.728	-308
859.816	-149
859.903	-213
859.991	-1196
860.079	174
860.166	269
860.254	-488
860.342	6
860.429	-509
860.517	-427
860.604	-255
860.692	4
860.779	-621
860.867	-615
860.954	-562
861.042	-121
861.129	-1
861.216	-739
861.304	-625
861.391	-825
861.478	-268
861.565	182
861.653	637
861.740	-804
861.827	-569
861.914	-698
862.001	-1015
862.089	-80
862.176	-356
862.263	-468
862.350	-370
862.437	-1173
862.524	-227
862.611	-153
862.698	-50
862.785	-354
862.871	-738
862.958	-1466
863.045	-752
863.132	-195
863.219	-408
863.306	-1542
863.392	-331
863.479	-327
863.566	-268
863.652	454
863.739	-225
863.826	161
863.912	-85
863.999	-1741
864.086	-1046
864.172	-759
864.259	-530
864.345	-357
864.432	107
864.518	-659
864.604	-767
864.691	-159
864.777	-143
864.863	-328
864.950	-590
865.036	-1355
865.122	-186
865.209	60
865.295	-30
865.381	-603
865.467	-574
865.553	365
865.639	-744
865.726	-225
865.812	-67
865.898	334
865.984	305
866.070	1094
866.156	793
866.242	97
866.328	496
866.414	-565
866.499	-340
866.585	-1008
866.671	-1540
866.757	-265
866.843	-477
866.928	-1026
867.014	-1450
867.100	-318
867.186	-1291
867.271	-459
867.357	-620
867.442	-861
867.528	-725
867.614	-383
867.699	-404
867.785	-64
867.870	-742
867.956	-847
868.041	-1181
868.127	-894
868.212	-1078
868.297	-918
868.383	-897
868.468	-516
868.553	65
868.639	-161
868.724	647
868.809	772
868.894	279
868.979	33
869.065	89
869.150	-381
869.235	-1154
869.320	-780
869.405	-966
869.490	-431
869.575	-667
869.660	-561
869.745	-395
869.830	-867
869.915	-493
870.000	-1636
870.085	-773
870.169	183
870.254	401
870.339	-632
870.424	-847
870.509	-812
870.593	-167
870.678	-577
870.763	-194
870.847	-194
870.932	-811
871.016	-634
871.101	-225
871.186	-791
871.270	-705
871.355	-287
871.439	-655
871.523	-275
871.608	-390
871.692	-642
871.777	-678
871.861	-365
871.945	-696
872.030	436
872.114	-227
872.198	-631
872.282	-920
872.367	-509
872.451	-883
872.535	-1252
872.619	-818
872.703	-895
872.787	-568
872.871	-528
872.955	-473
873.039	-380
873.123	-575
873.207	354
873.291	-664
873.375	-722
873.459	-711
873.543	-1267
873.627	-1111
873.711	-703
873.794	-388
873.878	284
873.962	-600
874.045	-887
874.129	-1230
874.137	-1171
874.213	-580
874.245	-389
874.296	-83
874.352	-683
874.380	-976
874.460	-466
874.464	-446
874.547	-864
874.568	-815
874.631	-679
874.676	-695
874.714	-700
874.784	27
874.798	167
874.881	449
874.892	340
874.965	-392
874.999	-518
875.048	-700
875.107	-821
875.131	-873
875.215	-175
875.215	-175
875.298	-779
875.323	-935
875.381	-1319
875.430	-1096
875.465	-915
875.538	-723
875.548	-703
875.631	-709
875.646	-766
875.714	-1004
875.753	-818
875.798	-670
875.861	-528
875.881	-459
875.964	4
875.968	-29
876.047	-500
876.076	-354
876.130	-192
876.183	-556
876.213	-768
876.291	-493
876.296	-465
876.379	-57
876.398	-148
876.462	-558
876.506	-301
876.545	-80
876.613	-784
876.628	-900
876.711	62
876.721	75
876.794	36
876.828	-245
876.877	-694
876.935	-380
876.960	-198
877.043	-93
877.043	-94
877.125	-342
877.150	-130
877.208	397
877.258	-160
877.291	-511
877.365	-81
877.374	-42
877.456	-589
877.472	-421
877.539	184
877.579	-328
877.622	-765
877.687	-600
877.704	-566
877.787	-698
877.794	-713
877.869	-823
877.901	-620
877.952	-323
878.008	-414
878.034	-377
878.115	-465
878.117	-472
878.199	-508
878.222	-548
878.282	-563
878.329	-14
878.364	369
878.437	105
878.447	34
878.529	-406
878.544	-649
878.611	-1541
878.651	-1140
878.694	-633
878.758	-42
878.776	105
878.858	-114
878.865	-135
878.941	-288
878.972	-169
879.023	7
879.078	-335
879.105	-565
879.185	-208
879.187	-197
879.269	-709
879.292	-747
879.351	-877
879.399	-910
879.433	-814
879.506	307
879.516	405
879.598	-92
879.613	-214
879.680	-488
879.720	-423
879.762	-389
879.827	-310
879.844	-314
879.926	-120
879.933	-135
880.007	-130
880.040	-252
880.089	-452
880.147	-251
880.171	-124
880.253	-269
880.254	-270
880.335	-271
880.360	-241
880.417	-102
880.467	-55
880.499	38
880.574	177
880.580	183
880.662	-21
880.680	105
880.744	421
880.787	3
880.825	-400
880.893	-231
880.907	-198
880.989	-607
881.000	-654
881.070	-529
881.106	-254
881.152	-80
881.213	-171
881.233	-178
881.315	-8
881.319	1
881.396	-78
881.426	-308
881.478	-609
881.532	-363
881.559	-180
881.639	-147
881.641	-151
881.722	-728
881.745	-615
881.803	-42
881.852	-187
881.885	-335
881.958	245
881.966	271
882.047	-117
882.064	-164
882.129	173
882.171	200
882.210	-24
882.277	-139
882.291	-145
882.372	-390
882.383	-345
882.454	1
882.489	-225
882.535	-570
882.596	-465
882.616	-364
882.697	-15
882.702	-28
882.778	235
882.808	563
882.859	395
882.914	-98
882.940	-35
883.020	53
883.021	52
883.102	18
883.127	-69
883.183	203
883.233	271
883.264	37
883.339	-158
883.345	-129
883.426	-142
883.445	-84
883.507	15
883.551	-22
883.587	-132
883.657	-11
883.668	64
883.749	189
883.763	193
883.830	-82
883.869	118
883.910	378
883.975	-108
883.991	-247
884.072	-208
884.081	-226
884.152	-45
884.187	81
884.233	227
884.292	497
884.314	455
884.394	-194
884.398	-215
884.475	-265
884.504	-343
884.555	-74
884.610	297
884.636	137
884.716	-145
884.716	-140
884.797	-18
884.821	126
884.877	164
884.927	-9
884.958	-100
885.033	-254
885.038	-245
885.118	-38
885.139	63
885.199	264
885.244	235
885.279	167
885.350	-148
885.359	-151
885.439	136
885.456	172
885.520	200
885.561	282
885.600	175
885.667	-285
885.680	-321
885.760	-172
885.773	-186
885.840	-50
885.878	32
885.920	52
885.984	-22
886.000	-26
886.080	166
886.089	157
886.160	108
886.195	148
886.240	16
886.300	-5
886.320	121
886.400	288
886.406	297
886.480	172
886.511	168
886.560	17
886.616	-188
886.640	-4
886.720	445
886.722	453
886.800	-262
886.827	-473
886.879	-543
886.932	-760
886.959	-516
887.038	198
887.039	203
887.119	362
887.143	378
887.198	436
887.248	496
887.278	318
887.354	-132
887.358	-96
887.437	480
887.459	684
887.517	679
887.564	591
887.596	619
887.669	674
887.676	615
887.755	-77
887.774	-270
887.835	60
887.880	316
887.914	376
887.985	426
887.994	364
888.073	-226
888.090	-327
888.153	-140
888.195	-69
888.232	45
888.300	305
888.311	289
888.391	94
888.405	62
888.470	111
888.510	107
888.549	129
888.615	245
888.628	181
888.708	-350
888.720	-417
888.787	-156
888.825	-50
888.866	-135
888.930	-203
888.945	-172
889.024	-31
889.035	-9
889.103	154
889.140	203
889.182	194
889.245	213
889.261	267
889.340	529
889.349	555
889.419	694
889.454	766
889.498	490
889.559	100
889.577	106
889.656	142
889.664	147
889.735	135
889.768	131
889.814	147
889.873	170
889.978	-802
890.083	-169
890.187	81
890.292	-269
890.397	-300
890.501	319
890.606	81
890.710	343
890.815	-10
890.919	-259
891.024	-251
891.128	426
891.233	391
891.337	-1025
891.442	567
891.546	539
891.650	142
891.755	8
891.859	1098
891.963	-708
892.068	101
892.172	-304
892.276	-86
892.380	-34
892.484	646
892.589	169
892.693	-172
892.797	-508
892.901	-9
893.005	-275
893.109	-164
893.213	-500
893.317	787
893.421	552
893.525	623
893.629	-26
893.733	184
893.837	-440
893.941	-68
894.045	379
894.148	-332
894.252	332
894.356	208
894.460	36
894.564	177
894.667	295
894.771	-73
894.875	-147
894.978	89
895.082	-540
895.186	683
895.289	583
895.393	183
895.496	425
895.600	-243
895.703	-368
895.807	222
895.910	171
896.014	-167
896.117	-631
896.221	557
896.324	-465
896.427	209
896.531	100
896.634	302
896.737	460
896.840	-726
896.944	29
897.047	-98
897.150	-198
897.253	149
897.356	147
897.460	-287
897.563	0
897.666	-284
897.769	-378
897.872	-265
897.975	111
898.078	-190
898.181	-308
898.284	-94
898.387	-351
898.490	-25
898.593	270
898.695	-139
898.798	-1031
898.901	-80
899.004	235
899.107	11
899.209	147
899.312	-207
899.415	-642
899.518	-173
899.620	49
899.723	134
899.826	-599
899.928	-466
900.031	121
900.133	-780
900.236	-761
900.338	-197
900.441	-173
900.543	78
900.646	165
900.748	-290
900.851	486
900.953	389
901.055	-116
901.158	503
901.260	-362
901.362	205
901.465	-829
901.567	-1
901.669	-393
901.771	-643
901.873	-396
901.976	-851
902.078	-602
902.180	-786
902.282	-843
902.384	-444
902.486	-467
902.588	-53
902.690	-199
902.792	-238
902.894	-410
902.996	226
903.098	166
903.200	-701
903.302	-598
903.404	-124
903.505	-1099
903.607	-714
903.709	-260
903.811	-284
903.913	-216
904.014	-469
904.116	-73
904.218	-35
904.319	-243
904.421	197
904.523	-832
904.624	-445
904.726	369
904.827	-595
904.929	-331
905.030	-844
905.132	-583
905.233	96
905.335	-744
905.436	-496
905.537	-42
905.639	-87
905.740	-900
905.841	-187
905.943	-238
906.044	-446
906.145	-468
906.247	-210
906.348	71
906.449	134
906.550	-1310
906.651	-121
906.752	-131
906.854	79
906.955	-122
907.056	-120
907.157	-862
907.258	-280
907.359	-104
907.460	316
907.561	-420
907.662	-532
907.762	-274
907.863	-154
907.964	-826
908.065	-124
908.166	-1223
908.267	-1243
908.367	-1521
908.468	335
908.569	-679
908.670	-399
908.770	374
908.871	-473
908.971	-1293
909.072	-328
909.173	-741
909.273	-394
909.374	-299
909.474	-951
909.575	370
909.675	-875
909.776	30
909.876	-469
909.977	-604
910.077	293
910.177	-332
910.278	-147
910.378	-69
910.478	-496
910.579	-575
910.679	-345
910.779	-1640
910.879	127
910.980	271
911.080	-385
911.180	-684
911.280	209
911.380	-450
911.480	122
911.580	-767
911.680	51
911.780	-852
911.880	-363
911.980	-189
912.080	-16
912.180	-201
912.280	222
912.380	179
912.480	-224
912.580	-598
912.679	-223
912.779	-302
912.879	-473
912.979	-862
913.078	-331
913.178	-418
913.278	-732
913.377	-223
913.477	-593
913.577	263
913.676	-351
913.776	-252
913.875	320
913.975	-444
914.074	-195
914.174	-552
914.273	-1369
914.373	642
914.472	-444
914.572	-673
914.671	-78
914.770	-264
914.870	343
914.969	-418
915.068	-226
915.167	-185
915.267	-338
915.366	-737
915.465	-243
915.564	-542
915.663	-24
915.763	-199
915.862	-143
915.961	-539
916.060	-762
916.159	-91
916.258	-450
916.357	-204
916.456	800
916.555	423
916.654	-407
916.752	-976
916.851	-331
916.950	-598
917.049	-555
917.148	-160
917.247	319
917.345	-184
917.444	-685
917.543	-541
917.642	159
917.740	176
917.839	-276
917.937	-112
918.036	150
918.135	-413
918.233	18
918.332	-108
918.430	-468
918.529	-826
918.627	-266
918.726	-113
918.824	182
918.923	-88
919.021	439
919.119	221
919.218	-332
919.316	213
919.414	-112
919.512	-29
919.611	-426
919.709	4
919.807	14
919.905	-459
920.003	342
920.102	-507
920.200	-283
920.298	137
920.396	-147
920.494	-196
920.592	-518
920.690	-510
920.788	-311
920.886	-433
920.984	779
921.082	-988
921.180	25
921.277	91
921.375	95
921.473	-714
921.571	156
921.669	-317
921.766	-520
921.864	-112
921.962	490
922.060	-611
922.157	-1037
922.255	-219
922.352	53
922.450	563
922.548	-231
922.645	-727
922.743	-518
922.840	-329
922.938	-1086
923.035	-349
923.133	-612
923.230	-949
923.327	-201
923.425	-282
923.522	-512
923.619	-993
923.717	-408
923.814	-154
923.911	-53
924.008	258
924.106	-344
924.203	-403
924.300	36
924.397	-1473
924.494	3
924.591	-150
924.688	-371
924.786	-222
924.883	918
924.979	-260
925.077	-190
925.173	-263
925.270	-394
925.367	-967
925.464	-963
925.561	-74
925.658	398
925.755	-738
925.852	-269
925.948	410
926.045	-33
926.142	-614
926.239	-607
926.335	226
926.432	683
926.529	77
926.625	-225
926.722	-54
926.818	151
926.915	127
927.011	-409
927.108	91
927.204	1045
927.301	301
927.397	-643
927.494	-1033
927.590	-273
927.687	-488
927.783	398
927.879	135
927.976	72
928.072	338
928.168	-450
928.264	-397
928.361	-34
928.457	-219
928.553	278
928.649	-12
928.745	186
928.841	-207
928.937	717
929.033	-798
929.129	366
929.225	-102
929.321	205
929.417	-510
929.513	147
929.609	-92
929.705	-623
929.801	-61
929.897	-518
929.993	-418
930.089	-629
930.184	642
930.280	-768
930.376	-193
930.471	-1001
930.567	-495
930.663	-272
930.758	-586
930.854	-60
930.950	323
931.045	-1388
931.141	-214
931.236	212
931.332	-137
931.427	38
931.523	-528
931.618	332
931.714	-809
931.809	-300
931.905	-370
932.000	-463
932.095	-347
932.191	475
932.286	-406
932.381	-633
932.476	-444
932.572	-230
932.667	-513
932.762	-92
932.857	-405
932.952	-670
933.047	-253
933.142	-327
933.237	-102
933.332	-342
933.427	-243
933.522	-37
933.617	386
933.712	-48
933.807	-637
933.902	-55
933.997	-432
934.092	-759
934.187	-1033
934.282	-690
934.376	-45
934.471	77
934.566	-405
934.661	257
934.755	-966
934.850	365
934.945	-305
935.039	-1396
935.134	-125
935.228	-149
935.323	-506
935.417	-592
935.512	-396
935.606	-694
935.701	-676
935.795	-534
935.890	-544
935.984	860
936.079	-1202
936.173	121
936.267	-730
936.362	-737
936.456	-702
936.550	205
936.644	-223
936.738	-287
936.833	323
936.927	-703
937.021	-166
937.115	-597
937.209	-1118
937.303	-5
937.397	-412
937.491	-184
937.585	-185
937.679	-1033
937.773	194
937.867	-435
937.961	-880
938.055	-625
938.149	-36
938.243	340
938.337	-440
938.430	-682
938.524	-411
938.618	-398
938.712	6
938.805	-1178
938.899	-202
938.993	-263
939.086	-263
939.180	-275
939.274	-1199
939.367	-564
939.461	-765
939.554	-251
939.648	-876
939.741	-170
939.835	-898
939.928	241
940.022	-195
940.115	-1236
940.208	-461
940.302	-317
940.395	-833
940.488	-869
940.582	-199
940.675	-743
940.768	-304
940.861	-358
940.954	-252
941.048	-538
941.141	-533
941.234	-762
941.327	-534
941.420	194
941.513	-454
941.606	-625
941.699	-282
941.792	-718
941.885	-1407
941.978	-812
942.071	-629
942.164	-501
942.257	-558
942.349	-361
942.442	-227
942.535	-635
942.628	-106
942.721	-243
942.813	-1453
942.906	78
942.999	-401
943.091	79
943.184	-683
943.277	-1065
943.369	-12
943.462	-458
943.554	418
943.647	-532
943.739	-198
943.832	-1319
943.924	60
944.017	-127
944.109	-1557
944.201	-461
944.294	-782
944.386	-929
944.478	-230
944.571	-590
944.663	-375
944.755	-497
944.847	-808
944.940	-423
945.032	-1514
945.124	-887
945.216	145
945.308	-1063
945.400	-687
945.492	-840
945.584	-1459
945.676	-499
945.768	-776
945.860	-118
945.952	-1106
946.044	-190
946.136	-560
946.228	-742
946.320	-841
946.412	-613
946.503	-1383
946.595	305
946.687	-416
946.779	-470
946.870	-1424
946.962	-857
947.054	-175
947.145	206
947.237	96
947.329	-1002
947.420	-1264
947.512	-400
947.603	-1240
947.695	-781
947.786	-1502
947.878	130
947.969	-1109
948.061	-929
948.152	-388
948.243	-149
948.335	-393
948.426	-758
948.517	-883
948.609	-583
948.700	-1191
948.791	-96
948.882	-79
948.973	-462
949.065	-55
949.156	-1129
949.247	-741
949.338	-534
949.429	-1314
949.520	-329
949.611	-896
949.702	-232
949.793	-110
949.884	-395
949.975	-318
950.066	-338
950.157	-1004
950.247	-287
950.338	-74
950.429	-993
950.520	-274
950.611	-1491
950.701	-1337
950.792	-600
950.883	-466
950.973	-330
951.064	-1223
951.155	-1143
951.245	1
951.336	-1072
951.427	-1399
951.517	-747
951.608	-1150
951.698	-1199
951.788	-533
951.879	-1266
951.969	-580
952.060	-909
952.150	-623
952.240	-138
952.331	-2134
952.421	182
952.511	-1111
952.602	-196
952.692	-578
952.782	-1419
952.872	-141
952.962	-808
953.052	-1175
953.143	-1036
953.233	541
953.323	-448
953.413	-1276
953.503	-793
953.593	-98
953.683	-613
953.773	-2616
953.863	-43
953.953	-581
954.042	-781
954.132	-1047
954.222	-587
954.312	-553
954.402	-208
954.492	-537
954.581	-51
954.671	-1004
954.761	-919
954.850	669
954.940	-641
955.030	-1366
955.119	-1146
955.209	-767
955.298	-1018
955.388	-712
955.477	-709
955.567	-684
955.656	-800
955.746	-527
955.835	-808
955.925	-1442
956.014	-970
956.103	-930
956.193	-555
956.282	-364
956.371	-954
956.461	-660
956.550	-889
956.639	-628
956.728	-793
956.817	-832
956.906	-942
956.995	-687
957.085	-1066
957.174	-662
957.263	-797
957.352	72
957.441	219
957.530	-606
957.619	-483
957.708	-786
957.796	-623
957.885	-1072
957.974	-136
958.063	-142
958.152	-944
958.241	194
958.329	-337
958.418	-839
958.507	-1664
958.596	-676
958.684	-1856
958.773	-661
958.861	-957
958.950	-494
959.039	-411
959.127	-1184
959.216	-527
959.304	-960
959.393	-818
959.481	-721
959.570	-184
959.658	-935
959.746	-544
959.835	-1081
959.923	-725
960.011	-1333
960.100	211
960.188	-718
960.276	-1188
960.365	-445
960.453	-31
960.541	-1575
960.629	-344
960.717	-485
960.805	-1498
960.893	-1062
960.981	-1731
961.069	193
961.158	-396
961.245	81
961.333	-89
961.421	-474
961.509	-753
961.597	-325
961.685	-1238
961.773	-489
961.861	-591
961.949	-877
962.036	-1535
962.124	1
962.212	-1286
962.299	-816
962.387	-1140
962.475	-423
962.562	-1406
962.650	-906
962.738	-642
962.825	-854
962.913	-567
963.000	-1515
963.088	-293
963.175	-1372
963.263	-627
963.350	-942
963.438	-771
963.525	-924
963.612	-609
963.700	-408
963.787	225
963.874	-1149
963.962	-1117
964.049	-846
964.136	-504
964.223	-1207
964.310	190
964.398	-171
964.485	-909
964.572	-588
964.659	538
964.746	-1010
964.833	-782
964.920	-853
965.007	-402
965.094	-807
965.181	-1299
965.268	-1325
965.355	-514
965.441	-655
965.528	-1574
965.615	-355
965.702	-998
965.789	-1904
965.875	-712
965.962	-951
966.049	-952
966.136	-1082
966.222	-1157
966.309	-477
966.395	-1343
966.482	-348
966.569	-626
966.655	-1117
966.742	-1153
966.828	-743
966.915	-1013
967.001	-729
967.087	-1771
967.174	-771
967.260	166
967.347	-1038
967.433	-574
967.519	-177
967.605	-222
967.692	-1252
967.778	-670
967.864	-737
967.950	-405
968.036	-1424
968.123	-1163
968.209	-751
968.295	-1414
968.381	417
968.467	-1176
968.553	-1960
968.639	708
968.725	-1781
968.811	-863
968.897	-1196
968.983	-839
969.069	-1312
969.154	-430
969.240	-707
969.326	-1716
969.412	-1147
969.497	-1159
969.583	-1454
969.669	246
969.755	-365
969.840	-1096
969.926	-758
970.012	-1517
970.097	240
970.183	-1209
970.268	-1164
970.354	-896
970.439	-1864
970.525	-226
970.610	-1495
970.696	42
970.781	-1400
970.866	-2019
970.952	-193
971.037	-473
971.122	-1960
971.208	-1439
971.293	-1079
971.378	-2273
971.463	-1894
971.549	-1074
971.634	-1174
971.719	-335
971.804	-1584
971.889	-173
971.974	-672
972.059	-522
972.144	-1293
972.229	-1309
972.314	-1601
972.399	-417
972.484	-1129
972.569	-475
972.654	-2186
972.739	-25
972.824	-1293
972.908	-1252
972.993	-1237
973.078	-1887
973.163	-840
973.247	-280
973.332	-2739
973.417	-822
973.501	-2139
973.586	-1072
973.671	-1220
973.755	-1272
973.840	-345
973.924	-1467
974.009	-374
974.093	-1870
974.178	-327
974.262	-2107
974.346	-796
974.431	-1775
974.515	-2153
974.600	-521
974.684	-618
974.768	-1275
974.852	-234
974.937	-1601
975.021	-1620
975.105	-970
975.189	-1118
975.273	-381
975.358	-1503
975.442	-1686
975.526	-22
975.610	-1590
975.694	-1941
975.778	-1062
975.862	-1646
975.946	-2716
976.030	-564
976.114	-822
976.198	-890
976.281	-1873
976.365	-408
976.449	-920
976.533	-555
976.617	-1333
976.700	-1127
976.784	-1274
976.868	-1059
976.951	-745
977.035	-1931
977.119	-632
977.202	-1031
977.286	-859
977.369	-1609
977.453	-1198
977.536	-1165
977.620	-1691
977.703	-904
977.787	-1902
977.870	-1034
977.953	-659
978.037	-2220
978.120	-478
978.203	-1710
978.287	-1247
978.370	-1784
978.453	-2360
978.536	-831
978.620	-852
978.703	-650
978.786	-2065
978.869	-1553
978.952	-2264
979.035	-418
979.118	-1333
979.201	-1461
979.284	-822
979.367	-2378
979.450	-1459
979.533	-1570
979.616	-1040
979.699	-1487
979.782	-962
979.865	-2616
979.948	-1907
980.030	-1231
980.113	-1452
980.196	-1628
980.279	-91
980.361	-1806
980.444	-2295
980.526	-1630
980.609	-1665
980.692	-1623
980.774	-743
980.857	-2785
980.939	-379
981.022	-1785
981.104	-1429
981.187	-1603
981.269	-933
981.352	-608
981.434	-1657
981.516	-1608
981.599	-313
981.681	-1470
981.763	-981
981.846	-1259
981.928	-1651
982.010	-1715
982.092	-1017
982.174	-952
982.256	-1442
982.339	-1587
982.421	-1220
982.503	-1508
982.585	-2060
982.667	-2024
982.749	-1197
982.831	-1562
982.913	-1311
982.995	-784
983.077	-1593
983.158	-793
983.240	-2171
983.322	-1325
983.404	-1172
983.486	-1633
983.568	-602
983.649	-2316
983.731	-778
983.813	-1724
983.894	-1219
983.976	-1569
984.058	-2020
984.139	-218
984.221	-2333
984.302	-498
984.384	-1790
984.465	-2036
984.547	-1028
984.628	-1300
984.710	-904
984.791	-1319
984.872	-964
984.954	-1774
985.035	-1020
985.116	-1638
985.198	-1602
985.279	-504
985.360	-1752
985.441	-1288
985.522	-504
985.604	-1356
985.685	-3308
985.766	-879
985.847	-103
985.928	-2215
986.009	-1837
986.090	-1554
986.171	-707
986.252	-1391
986.333	-905
986.414	-1178
986.495	-1595
986.576	-1337
986.656	-1303
986.737	-504
986.818	-930
986.899	-2198
986.980	-1385
987.060	358
987.141	-1639
987.222	-1066
987.302	-1639
987.383	-1044
987.464	-1651
987.544	-1025
987.625	-2066
987.705	-1405
987.786	-1687
987.866	-1625
987.947	-1063
988.027	-1814
988.108	-1568
988.188	-825
988.268	-1741
988.349	-2198
988.429	-1138
988.509	-1221
988.589	-1166
988.670	-3373
988.750	-14
988.830	-1354
988.910	-1364
988.990	-595
989.070	-1596
989.151	-1105
989.231	-2268
989.311	-1224
989.391	-1269
989.471	-1198
989.551	-1715
989.631	-1885
989.711	-601
989.791	-1951
989.870	-2312
989.950	-178
990.030	-1730
990.110	-1786
990.190	-2004
990.269	-1318
990.349	-1143
990.429	-995
990.509	-712
990.588	-2310
990.668	-1342
990.747	-1531
990.827	-1525
990.907	-1341
990.986	-844
991.066	-1444
991.145	-1181
991.225	-974
991.304	-1886
991.383	-562
991.463	-1714
991.542	-368
991.622	-1470
991.701	-1069
991.780	-1128
991.859	-1230
991.939	-1013
992.018	-1136
992.097	-1012
992.176	-1159
992.256	-911
992.335	-2353
992.414	-406
992.493	-2081
992.572	-2028
992.651	-831
992.730	-1612
992.809	-1101
992.888	-2485
992.967	-1898
993.046	-929
993.125	-2145
993.203	-603
993.282	-938
993.361	-1249
993.440	-1973
993.519	-1807
993.597	-2454
993.676	-1683
993.755	-440
993.834	-1853
993.912	-2320
993.991	-1072
994.069	-1455
994.148	-1954
994.226	-1814
994.305	-1248
994.384	-1989
994.462	-940
994.540	-1815
994.619	-1887
994.697	-1520
994.776	-1901
994.854	-1508
994.932	-1228
995.011	-1389
995.089	-1977
995.167	-976
995.245	-1244
995.324	-1829
995.402	-701
995.480	-2037
995.558	-824
995.636	-2361
995.714	-1289
995.792	-456
995.870	-2085
995.948	-2060
996.026	-924
996.104	-2583
996.182	-1575
996.260	-1483
996.338	-1061
996.416	-1784
996.494	-1287
996.572	-485
996.649	-1107
996.727	-2558
996.805	-1172
996.883	-1468
996.960	-1846
997.038	-1024
997.116	-1820
997.193	-1565
997.271	-998
997.348	-1256
997.426	-1383
997.504	-1566
997.581	-1161
997.658	-1161
997.736	-1897
997.813	-2152
997.891	-702
997.968	-1457
998.046	-1505
998.123	-1435
998.200	-1021
998.277	-2374
998.355	-612
998.432	-2853
998.509	-558
998.586	-199
998.663	-861
998.741	-878
998.818	-1091
998.895	-2501
998.972	-763
999.049	-1828
999.126	-893
999.203	-1302
999.280	-1088
999.357	-1220
999.434	-1718
999.511	-1423
999.587	-1436
999.664	-2066
999.741	-720
999.818	-491
999.895	-1787
999.971	-1923
1000.048	-1208
1000.125	-1138
1000.202	-2101
1000.278	-1545
1000.355	-835
1000.431	-1830
1000.508	-1301
1000.584	-1196
1000.661	-1434
1000.738	-2453
1000.814	-1339
1000.890	-1357
1000.967	-1275
1001.043	-1551
1001.120	-2097
1001.196	-2033
1001.272	-1969
1001.349	-1708
1001.425	-966
1001.501	-1365
1001.577	-1740
1001.654	-1313
1001.730	-1358
1001.806	-1289
1001.882	-1803
1001.958	-1643
1002.034	-930
1002.110	-1859
1002.186	-1377
1002.262	-1605
1002.338	-2265
1002.414	-1508
1002.490	-516
1002.566	-1747
1002.642	-1313
1002.718	-538
1002.794	-2063
1002.870	-1878
1002.945	-2021
1003.021	-1179
1003.097	-1472
1003.173	-1646
1003.248	-1757
1003.324	-2113
1003.400	-1466
1003.475	-1803
1003.551	-2039
1003.626	-1759
1003.702	-2242
1003.777	-1628
1003.853	-1245
1003.928	-1723
1004.004	-2095
1004.079	-1619
1004.155	-1032
1004.230	-2632
1004.305	-1094
1004.381	-1656
1004.456	-1461
1004.531	-1659
1004.607	-1220
1004.682	-1912
1004.757	-1303
1004.832	-1681
1004.907	-749
1004.982	-1423
1005.057	-1353
1005.133	-1784
1005.208	-839
1005.283	-2217
1005.358	-734
1005.433	-2509
1005.508	-1819
1005.583	-2113
1005.657	-2020
1005.732	-1024
1005.807	-1564
1005.882	-1615
1005.957	-1246
1006.032	-1444
1006.106	-1882
1006.181	-2163
1006.256	-1345
1006.331	-2651
1006.405	-2091
1006.480	-1545
1006.554	-2098
1006.629	-1016
1006.704	-2037
1006.778	-1683
1006.853	-1157
1006.927	-2476
1007.002	-1333
1007.076	-1618
1007.150	-1785
1007.225	-1513
1007.299	-910
1007.373	-2795
1007.448	-1472
1007.522	-685
1007.596	-1425
1007.671	-1636
1007.745	-742
1007.819	-2703
1007.893	-1316
1007.967	-905
1008.041	-2173
1008.115	-1314
1008.190	-1878
1008.264	-935
1008.338	-2469
1008.412	-1699
1008.486	-1756
1008.560	-1171
1008.633	-2493
1008.707	-1741
1008.781	-1186
1008.855	-1846
1008.929	-1617
1009.003	-2312
1009.076	-2536
1009.150	-1569
1009.224	-1119
1009.298	-1962
1009.371	-1986
1009.445	-1070
1009.519	-1357
1009.592	-2245
1009.666	-1587
1009.739	-1500
1009.813	-1860
1009.886	-916
1009.960	-2402
1010.033	-1271
1010.107	-742
1010.180	-2270
1010.253	-1163
1010.327	-1409
1010.400	-1708
1010.473	-2193
1010.547	-1057
1010.620	-1360
1010.693	-1559
1010.766	-1858
1010.840	-476
1010.913	-1712
1010.986	-2306
1011.059	-2097
1011.132	-1646
1011.205	-1191
1011.278	-2016
1011.351	-2551
1011.424	-1628
1011.497	-1967
1011.570	-2521
1011.643	-2655
1011.716	-2463
1011.789	-1784
1011.862	-1715
1011.934	-987
1012.007	-2017
1012.080	-1592
1012.153	-1905
1012.225	-1158
1012.298	-2625
1012.371	-2303
1012.443	-1759
1012.516	-3121
1012.588	-1867
1012.661	-2033
1012.733	-1849
1012.806	-745
1012.879	-2392
1012.951	-1081
1013.023	-1800
1013.096	-2463
1013.168	-1849
1013.241	-1855
1013.313	-1249
1013.385	-2357
1013.458	-1611
1013.530	-1602
1013.602	-1366
1013.674	-1641
1013.746	-1917
1013.819	-2121
1013.891	-1652
1013.963	-1890
1014.035	-1686
1014.107	-2196
1014.179	-1355
1014.251	-2106
1014.323	-1707
1014.395	-2908
1014.467	-2064
1014.539	-2206
1014.611	-2508
1014.683	-1751
1014.754	-807
1014.826	-1963
1014.898	-1229
1014.970	-2518
1015.042	-1635
1015.113	-1933
1015.185	-2298
1015.257	-2736
1015.328	-1550
1015.400	-1971
1015.471	-1806
1015.543	-3505
1015.615	-1864
1015.686	-2134
1015.757	-1848
1015.829	-2294
1015.901	-2088
1015.972	-1739
1016.043	-1973
1016.115	-2069
1016.186	-1599
1016.257	-2823
1016.328	-1254
1016.400	-1335
1016.471	-2015
1016.542	-2199
1016.613	-2523
1016.685	-1438
1016.756	-975
1016.827	-1847
1016.898	-1734
1016.969	-1335
1017.040	-1639
1017.111	-2655
1017.182	-2050
1017.253	-1700
1017.324	-1716
1017.395	-2458
1017.466	-1085
1017.537	-1905
1017.608	-1102
1017.678	-2757
1017.749	-1561
1017.820	-3126
1017.891	-2344
1017.961	-1850
1018.032	-2077
1018.103	-1755
1018.173	-1533
1018.244	-2309
1018.315	-1831
1018.385	-1900
1018.456	-1343
1018.526	-2380
1018.597	-1843
1018.667	-1175
1018.738	-2118
1018.808	-1663
1018.878	-2046
1018.949	-2408
1019.019	-2052
1019.089	-1775
1019.160	-1815
1019.230	-2054
1019.300	-2175
1019.371	-2116
1019.441	-950
1019.511	-2781
1019.581	-2426
1019.651	-1687
1019.721	-2130
1019.791	-2738
1019.861	-1961
1019.931	-1735
1020.001	-2045
1020.071	-1947
1020.141	-1992
1020.211	-2490
1020.281	-2431
1020.351	-2404
1020.421	-2236
1020.491	-1266
1020.560	-2114
1020.630	-2563
1020.700	-1798
1020.770	-2584
1020.839	-2549
1020.909	-1921
1020.979	-2095
1021.048	-1962
1021.118	-1927
1021.187	-2093
1021.257	-1672
1021.326	-2420
1021.396	-2827
1021.465	-2321
1021.535	-1942
1021.604	-2206
1021.674	-1838
1021.743	-2265
1021.812	-2051
1021.882	-2496
1021.951	-1931
1022.020	-2205
1022.089	-2255
1022.159	-3327
1022.228	-1651
1022.297	-2614
1022.366	-2237
1022.435	-2517
1022.504	-1990
1022.573	-2491
1022.642	-1521
1022.711	-2420
1022.781	-1917
1022.849	-2569
1022.918	-3427
1022.987	-2719
1023.056	-2187
1023.125	-2297
1023.194	-2172
1023.263	-2753
1023.331	-1646
1023.400	-2936
1023.469	-2249
1023.538	-2232
1023.606	-3226
1023.675	-2482
1023.744	-2229
1023.812	-2081
1023.881	-2241
1023.949	-2940
1024.018	-2371
1024.086	-2492
1024.155	-1569
1024.223	-2812
1024.292	-1353
1024.360	-1768
1024.429	-1868
1024.497	-2312
1024.565	-2747
1024.634	-2218
1024.702	-2474
1024.770	-2312
1024.838	-2964
1024.907	-1662
1024.975	-1431
1025.043	-1878
1025.111	-2445
1025.179	-2431
1025.247	-2452
1025.315	-2129
1025.383	-1896
1025.451	-1807
1025.519	-2049
1025.587	-2295
1025.655	-3094
1025.723	-2265
1025.791	-2240
1025.859	-2189
1025.927	-1869
1025.995	-2045
1026.062	-2048
1026.130	-2240
1026.198	-2109
1026.266	-2993
1026.333	-2073
1026.401	-2272
1026.469	-2304
1026.536	-1758
1026.604	-2552
1026.671	-2602
1026.739	-3051
1026.806	-2650
1026.874	-2194
1026.941	-1681
1027.009	-2111
1027.076	-2453
1027.144	-2084
1027.211	-2662
1027.278	-2168
1027.345	-2881
1027.413	-1725
1027.480	-2685
1027.547	-2346
1027.614	-2731
1027.682	-1793
1027.749	-2569
1027.816	-2758
1027.883	-1273
1027.950	-1968
1028.017	-2485
1028.084	-2463
1028.151	-3014
1028.218	-2512
1028.285	-2314
1028.352	-2885
1028.419	-2592
1028.486	-2806
1028.553	-2875
1028.619	-2276
1028.686	-2429
1028.753	-2738
1028.820	-2513
1028.886	-2558
1028.953	-2001
1029.020	-1520
1029.086	-2264
1029.153	-2377
1029.220	-2449
1029.286	-3272
1029.353	-2396
1029.419	-2526
1029.486	-2229
1029.552	-2949
1029.619	-3268
1029.685	-2254
1029.751	-2897
1029.818	-2000
1029.884	-2862
1029.951	-1461
1030.017	-3028
1030.083	-2927
1030.149	-3069
1030.216	-3064
1030.282	-1825
1030.348	-2194
1030.414	-3163
1030.480	-2996
1030.546	-2380
1030.612	-1875
1030.678	-2715
1030.744	-2257
1030.810	-2715
1030.876	-1806
1030.942	-2561
1031.008	-2562
1031.074	-2924
1031.140	-2124
1031.206	-1998
1031.272	-3125
1031.337	-2558
1031.403	-2691
1031.469	-3006
1031.534	-2072
1031.600	-2222
1031.666	-2791
1031.731	-2378
1031.797	-2406
1031.863	-2605
1031.928	-1976
1031.994	-3048
1032.059	-1931
1032.125	-3183
1032.190	-1682
1032.256	-3242
1032.321	-2714
1032.386	-3144
1032.452	-2018
1032.517	-2646
1032.582	-2388
1032.647	-1782
1032.713	-1774
1032.778	-2678
1032.843	-2562
1032.908	-2853
1032.974	-1755
1033.039	-2309
1033.104	-2388
1033.169	-2742
1033.234	-2423
1033.299	-2748
1033.364	-2503
1033.429	-2952
1033.494	-2245
1033.559	-3665
1033.624	-1959
1033.688	-2473
1033.753	-2716
1033.818	-2946
1033.883	-2903
1033.948	-2394
1034.013	-2487
1034.077	-2734
1034.142	-1887
1034.207	-2992
1034.271	-2609
1034.336	-2577
1034.400	-2546
1034.465	-2361
1034.530	-3124
1034.594	-3111
1034.658	-2595
1034.723	-3112
1034.787	-2366
1034.852	-2937
1034.916	-2730
1034.981	-2382
1035.045	-1728
1035.109	-2760
1035.173	-1798
1035.238	-2775
1035.302	-2329
1035.366	-2920
1035.430	-2980
1035.495	-2715
1035.559	-1754
1035.623	-3309
1035.687	-3138
1035.751	-2976
1035.815	-2691
1035.879	-2782
1035.943	-2682
1036.007	-2055
1036.071	-2467
1036.135	-2614
1036.198	-2306
1036.262	-3114
1036.326	-2645
1036.390	-2548
1036.454	-2522
1036.517	-1714
1036.581	-2247
1036.645	-2555
1036.709	-2612
1036.772	-2400
1036.836	-1810
1036.900	-2612
1036.963	-3167
1037.026	-2523
1037.090	-2454
1037.154	-2726
1037.217	-2475
1037.280	-2966
1037.344	-3143
1037.407	-3084
1037.471	-2418
1037.534	-2452
1037.597	-2316
1037.661	-2757
1037.724	-2752
1037.787	-3010
1037.850	-2793
1037.913	-2621
1037.977	-1878
1038.040	-3501
1038.103	-1295
1038.166	-3103
1038.229	-2120
1038.292	-2534
1038.355	-2382
1038.418	-3475
1038.481	-1823
1038.544	-2601
1038.607	-1843
1038.670	-2416
1038.732	-1686
1038.795	-3043
1038.858	-3003
1038.921	-2381
1038.984	-2027
1039.046	-2487
1039.109	-2669
1039.172	-2998
1039.234	-2719
1039.297	-2729
1039.360	-2455
1039.422	-2838
1039.485	-1801
1039.547	-2837
1039.610	-1846
1039.672	-2769
1039.734	-1692
1039.797	-2469
1039.859	-2624
1039.922	-3033
1039.984	-2163
1040.046	-2267
1040.109	-2472
1040.171	-3050
1040.233	-1762
1040.295	-2637
1040.358	-2553
1040.420	-3242
1040.482	-2423
1040.544	-3011
1040.606	-2345
1040.668	-1988
1040.730	-2256
1040.792	-2791
1040.854	-2335
1040.916	-2324
1040.978	-3171
1041.040	-2838
1041.102	-2040
1041.164	-2127
1041.225	-2862
1041.287	-3191
1041.349	-2407
1041.411	-2963
1041.472	-3068
1041.534	-2831
1041.596	-2522
1041.657	-2269
1041.719	-2076
1041.781	-2332
1041.842	-2481
1041.904	-2126
1041.965	-2508
1042.027	-2541
1042.088	-2314
1042.150	-2450
1042.211	-2678
1042.272	-2088
1042.334	-3079
1042.395	-2255
1042.456	-1913
1042.518	-2316
1042.579	-1863
1042.640	-2793
1042.701	-2639
1042.763	-2441
1042.824	-3070
1042.885	-3116
1042.946	-2534
1043.007	-2941
1043.068	-2636
1043.129	-2770
1043.190	-3373
1043.251	-2006
1043.312	-2349
1043.373	-2764
1043.434	-2659
1043.495	-2232
1043.556	-2406
1043.616	-2038
1043.677	-2026
1043.738	-2703
1043.799	-1896
1043.859	-1719
1043.920	-1693
1043.981	-2688
1044.041	-1596
1044.102	-3344
1044.162	-2512
1044.223	-3315
1044.284	-2930
1044.344	-2679
1044.405	-2373
1044.465	-2210
1044.525	-2761
1044.586	-2424
1044.646	-2502
1044.707	-2007
1044.767	-2168
1044.827	-2189
1044.887	-2117
1044.948	-1981
1045.008	-1685
1045.068	-2711
1045.128	-1897
1045.188	-2263
1045.249	-1445
1045.309	-2428
1045.369	-2214
1045.429	-2233
1045.489	-2221
1045.549	-2255
1045.609	-1759
1045.669	-2563
1045.729	-2231
1045.789	-1780
1045.848	-2773
1045.908	-2105
1045.968	-1979
1046.028	-2384
1046.088	-1963
1046.147	-1361
1046.207	-1367
1046.267	-1491
1046.326	-1529
1046.386	-1710
1046.446	-1203
1046.505	-1844
1046.565	-783
1046.624	-1699
1046.684	-1176
1046.743	-420
1046.803	-968
1046.862	-831
1046.922	0
