'Start Wavelength	183.907
'End Wavelength	1046.922
'Gate Delay	5.000
'Gate Width (ms)	1.050
'Laser Output Level	0.000
'X Position	0.000
'Y Position	0.000
'Z Position	0.000
'Grid Point Number	1.000
'Shot Number	100.000
183.907	978.000
183.977	-948.000
184.047	-800
184.116	777
184.186	319
184.256	234
184.325	22
184.395	-536
184.465	630
184.534	-593
184.604	-286
184.674	754
184.743	-541
184.813	-2
184.883	-663
184.952	-125
185.022	-141
185.092	184
185.161	41
185.231	-247
185.301	177
185.370	796
185.440	-496
185.509	-795
185.579	-103
185.649	324
185.718	518
185.788	61
185.857	-8
185.927	-616
185.996	271
186.066	88
186.136	-1051
186.205	-353
186.275	-145
186.344	477
186.414	-688
186.483	-945
186.553	236
186.622	732
186.692	-457
186.761	35
186.831	-194
186.900	-442
186.970	466
187.039	357
187.109	1068
187.178	-313
187.248	246
187.317	527
187.387	261
187.456	99
187.526	-189
187.595	785
187.664	-738
187.734	327
187.803	-304
187.873	501
187.942	-528
188.012	-257
188.081	-294
188.150	-107
188.220	455
188.289	326
188.358	-99
188.428	-66
188.497	88
188.567	250
188.636	129
188.705	-314
188.775	530
188.844	-554
188.913	1153
188.983	596
189.052	-71
189.121	207
189.191	-34
189.260	1197
189.329	-20
189.399	1044
189.468	532
189.537	344
189.606	426
189.676	512
189.745	147
189.814	503
189.883	-385
189.953	188
190.022	421
190.091	1046
190.161	1752
190.230	761
190.299	235
190.368	-336
190.437	500
190.507	545
190.576	-44
190.645	-87
190.714	-321
190.783	-907
190.853	-326
190.922	1037
190.991	752
191.060	899
191.129	-917
191.198	125
191.268	-200
191.337	172
191.406	522
191.475	-338
191.544	-37
191.613	284
191.682	-457
191.752	-519
191.821	-562
191.890	161
191.959	998
192.028	431
192.097	675
192.166	56
192.235	-767
192.304	1562
192.373	134
192.442	-239
192.511	184
192.580	628
192.650	-173
192.719	650
192.788	242
192.857	558
192.926	426
192.995	91
193.064	-82
193.133	531
193.202	-324
193.271	461
193.340	529
193.409	349
193.478	612
193.547	732
193.615	1767
193.684	695
193.753	279
193.822	1374
193.891	-441
193.960	911
194.029	535
194.098	-791
194.167	-507
194.236	815
194.305	55
194.374	314
194.443	61
194.512	990
194.580	-175
194.649	724
194.718	780
194.787	680
194.856	-383
194.925	-36
194.994	424
195.062	-120
195.131	209
195.200	272
195.269	1100
195.338	-116
195.407	653
195.475	113
195.544	276
195.613	149
195.682	351
195.751	1033
195.819	345
195.888	1044
195.957	745
196.026	-224
196.094	560
196.163	-164
196.232	279
196.301	-60
196.369	76
196.438	749
196.507	541
196.576	398
196.644	80
196.713	-343
196.782	-335
196.850	30
196.919	444
196.988	210
197.056	-225
197.125	733
197.194	261
197.262	10
197.331	-321
197.400	1030
197.468	-119
197.537	1090
197.606	869
197.674	378
197.743	1918
197.812	619
197.880	1845
197.949	1523
198.017	2142
198.086	275
198.155	68
198.223	887
198.292	2296
198.360	559
198.429	244
198.497	744
198.566	562
198.635	2288
198.703	510
198.772	662
198.840	1953
198.909	1548
198.977	826
199.046	-478
199.114	308
199.183	1254
199.251	41
199.320	593
199.388	296
199.457	100
199.525	312
199.594	485
199.662	360
199.731	-356
199.799	-122
199.867	430
199.936	748
200.004	899
200.073	-72
200.141	637
200.210	355
200.278	-133
200.346	186
200.415	329
200.483	-53
200.552	250
200.620	453
200.688	-169
200.757	104
200.825	532
200.893	73
200.962	970
201.030	0
201.098	-144
201.167	839
201.235	689
201.303	374
201.372	753
201.440	1147
201.508	632
201.577	-57
201.645	280
201.713	-121
201.781	-48
201.850	302
201.918	537
201.986	167
202.055	673
202.123	-99
202.191	787
202.259	629
202.327	240
202.396	-467
202.464	-357
202.532	533
202.600	1156
202.669	468
202.737	520
202.805	69
202.873	115
202.941	657
203.009	579
203.078	-5
203.146	1072
203.214	792
203.282	-412
203.350	277
203.418	-251
203.487	388
203.555	26
203.623	129
203.691	133
203.759	117
203.827	-364
203.895	-303
203.963	491
204.031	2
204.099	170
204.168	-14
204.236	904
204.304	410
204.372	302
204.440	1098
204.508	53
204.576	533
204.644	450
204.712	198
204.780	268
204.848	-420
204.916	-174
204.984	153
205.052	938
205.120	135
205.188	980
205.256	448
205.324	1674
205.392	223
205.460	659
205.528	173
205.596	466
205.664	-20
205.732	557
205.799	2317
205.867	4607
205.935	1443
206.003	732
206.071	180
206.139	617
206.207	708
206.275	420
206.343	393
206.411	749
206.478	326
206.546	513
206.614	156
206.682	192
206.750	-75
206.818	742
206.885	10
206.953	-338
207.021	628
207.089	482
207.157	100
207.225	1079
207.292	152
207.360	32
207.428	603
207.496	626
207.563	866
207.631	1399
207.699	-169
207.767	817
207.834	107
207.902	634
207.970	105
208.038	125
208.105	-76
208.173	279
208.241	745
208.309	1273
208.376	639
208.444	1522
208.512	915
208.579	275
208.647	25
208.715	1216
208.782	-309
208.850	23
208.918	-187
208.985	927
209.053	969
209.120	143
209.188	280
209.256	732
209.323	-707
209.391	782
209.459	923
209.526	1063
209.594	23
209.661	75
209.729	211
209.796	306
209.864	733
209.932	-490
209.999	1557
210.067	1079
210.134	464
210.202	1368
210.269	841
210.337	1391
210.404	816
210.472	-25
210.539	449
210.607	421
210.674	1132
210.742	1466
210.809	-81
210.877	287
210.944	1294
211.012	-263
211.079	1200
211.146	547
211.214	1171
211.281	492
211.349	1607
211.416	398
211.484	842
211.551	823
211.618	475
211.686	704
211.753	853
211.821	1352
211.888	407
211.955	965
212.023	41
212.090	1386
212.157	940
212.225	1092
212.292	2441
212.359	4840
212.427	11879
212.494	5353
212.561	1854
212.629	1728
212.696	1459
212.763	1497
212.831	567
212.898	1664
212.965	415
213.032	843
213.100	1180
213.167	393
213.234	1339
213.301	906
213.369	838
213.436	1271
213.503	-28
213.570	1050
213.638	522
213.705	668
213.772	86
213.839	583
213.906	1480
213.973	1113
214.041	105
214.108	570
214.175	63
214.242	1260
214.309	1154
214.376	958
214.444	385
214.511	1593
214.578	1435
214.645	1619
214.712	937
214.779	821
214.846	548
214.913	1769
214.980	1545
215.048	1427
215.115	1688
215.182	1219
215.249	595
215.316	1066
215.383	705
215.450	884
215.517	781
215.584	1447
215.651	679
215.718	1500
215.785	1121
215.852	488
215.919	1378
215.986	1566
216.053	610
216.120	785
216.187	1341
216.254	957
216.321	1362
216.388	1195
216.455	795
216.522	1442
216.589	484
216.656	2489
216.722	2241
216.789	1973
216.856	2429
216.923	1878
216.990	1134
217.057	1361
217.124	1398
217.191	654
217.258	1695
217.324	2978
217.391	2771
217.458	2344
217.525	1305
217.592	1558
217.659	174
217.725	2030
217.792	400
217.859	2035
217.926	439
217.993	761
218.059	808
218.126	1167
218.193	448
218.260	1466
218.327	475
218.393	918
218.460	774
218.527	115
218.594	449
218.660	2007
218.727	2849
218.794	1097
218.860	1314
218.927	702
218.994	658
219.061	464
219.127	495
219.194	2204
219.261	1217
219.327	76
219.394	1172
219.461	248
219.527	1094
219.594	1531
219.661	574
219.727	-389
219.794	1287
219.860	823
219.927	521
219.994	1987
220.060	2052
220.127	2130
220.193	1297
220.260	1581
220.326	1920
220.393	2760
220.460	4336
220.526	3129
220.593	1154
220.659	2527
220.726	2594
220.792	6462
220.859	5109
220.925	5458
220.992	7657
221.058	8630
221.125	8601
221.191	6684
221.258	2535
221.324	1472
221.391	871
221.457	643
221.524	1644
221.590	2134
221.657	7537
221.723	4382
221.789	3555
221.856	4804
221.922	2458
221.989	1190
222.055	885
222.121	378
222.188	1932
222.254	1415
222.321	507
222.387	413
222.453	806
222.520	1160
222.586	722
222.652	1464
222.719	76
222.785	1028
222.851	160
222.918	777
222.984	883
223.050	1618
223.116	-385
223.183	1471
223.249	384
223.315	656
223.382	421
223.448	236
223.514	-178
223.580	-115
223.647	377
223.713	-297
223.779	824
223.845	798
223.911	1278
223.978	612
224.044	200
224.110	533
224.176	983
224.242	225
224.309	33
224.375	380
224.441	186
224.507	553
224.573	-153
224.639	913
224.705	-255
224.772	750
224.838	-131
224.904	1059
224.970	559
225.036	91
225.102	-468
225.168	858
225.234	614
225.300	-18
225.366	238
225.432	729
225.499	-77
225.565	690
225.631	204
225.697	1056
225.763	535
225.829	1442
225.895	1146
225.961	2707
226.027	1698
226.093	740
226.159	2445
226.225	3140
226.291	7095
226.357	12611
226.423	6508
226.489	3529
226.554	2106
226.620	2504
226.686	2752
226.752	4483
226.818	5935
226.884	16868
226.950	15780
227.016	5675
227.082	2220
227.148	1816
227.214	2024
227.279	2689
227.345	1029
227.411	1395
227.477	1029
227.543	2869
227.609	3429
227.674	2787
227.740	1388
227.806	1853
227.872	571
227.938	1239
228.003	2544
228.069	1321
228.135	890
228.201	954
228.267	410
228.332	909
228.398	-38
228.464	929
228.530	-491
228.595	363
228.661	254
228.727	1254
228.792	1706
228.858	826
228.924	-1697
228.990	1921
229.055	347
229.121	1831
229.187	-94
229.252	667
229.318	409
229.384	1310
229.449	862
229.515	-341
229.581	-268
229.646	1965
229.712	430
229.777	2642
229.843	2487
229.909	2668
229.974	2507
230.040	1914
230.105	818
230.171	1232
230.236	2672
230.302	4589
230.368	2524
230.433	934
230.499	844
230.564	3041
230.630	674
230.695	941
230.761	1601
230.826	183
230.892	1902
230.957	629
231.023	599
231.088	346
231.154	270
231.219	1361
231.284	-43
231.350	1587
231.415	-798
231.481	1154
231.546	393
231.612	992
231.677	237
231.742	-28
231.808	1865
231.873	-131
231.939	-726
232.004	2070
232.069	2511
232.135	-148
232.200	127
232.265	812
232.331	322
232.396	185
232.461	109
232.527	-317
232.592	-452
232.657	901
232.723	904
232.788	1134
232.853	892
232.918	1382
232.984	-161
233.049	29
233.114	688
233.179	74
233.245	2258
233.310	3683
233.375	-553
233.440	1250
233.506	193
233.571	975
233.636	162
233.701	236
233.766	799
233.832	2967
233.897	738
233.962	36
234.027	1802
234.092	777
234.157	390
234.222	729
234.288	808
234.353	5503
234.418	4758
234.483	2942
234.548	1707
234.613	1242
234.678	1034
234.743	1090
234.808	6768
234.873	2675
234.938	2233
235.004	937
235.069	593
235.134	934
235.199	805
235.264	872
235.329	-571
235.394	888
235.459	2370
235.524	952
235.589	647
235.654	650
235.719	134
235.784	1878
235.849	924
235.913	2783
235.978	4147
236.043	3911
236.108	1443
236.173	1510
236.238	1917
236.303	1344
236.368	434
236.433	2948
236.498	3601
236.563	3916
236.627	5061
236.692	20908
236.757	18222
236.822	6580
236.887	3451
236.952	4494
237.017	2338
237.081	4955
237.146	3367
237.211	8674
237.276	20077
237.341	36084
237.405	14420
237.470	6418
237.535	4563
237.600	2346
237.664	2771
237.729	1358
237.794	2333
237.859	6388
237.923	3798
237.988	2961
238.053	3048
238.118	3206
238.182	8445
238.247	9160
238.312	2610
238.376	2679
238.441	425
238.506	2071
238.570	-132
238.635	2137
238.700	1405
238.764	1176
238.829	3411
238.893	4286
238.958	1940
239.023	1531
239.087	1200
239.152	1742
239.216	328
239.281	1082
239.346	897
239.410	657
239.475	799
239.539	8157
239.604	6609
239.668	2485
239.733	1595
239.797	1641
239.862	3810
239.926	6474
239.991	3098
240.055	1653
240.120	439
240.184	2173
240.249	511
240.313	1492
240.378	607
240.442	4557
240.507	7747
240.571	3289
240.635	2602
240.700	3889
240.764	1972
240.829	1478
240.893	-310
240.957	2045
241.022	4105
241.086	8377
241.151	2715
241.215	1139
241.279	1604
241.344	3522
241.408	2186
241.472	910
241.537	2094
241.601	1660
241.665	137
241.730	924
241.794	1213
241.858	1557
241.922	414
241.987	929
242.051	986
242.115	913
242.179	1568
242.244	1159
242.308	1682
242.372	2050
242.436	1450
242.501	2192
242.565	197
242.629	735
242.693	1286
242.757	928
242.822	1288
242.886	1973
242.950	2261
243.014	-195
243.078	1094
243.142	1335
243.206	1236
243.271	1645
243.335	1807
243.399	4033
243.463	12068
243.527	41124
243.591	11710
243.655	4316
243.719	1704
243.783	2345
243.847	4518
243.911	6729
243.975	4250
244.040	2532
244.104	3587
244.168	2292
244.232	1410
244.296	3416
244.360	4888
244.424	1640
244.488	1674
244.552	1715
244.615	-20
244.679	1328
244.743	807
244.807	552
244.871	896
244.935	1628
244.999	196
245.063	1675
245.127	1889
245.191	2940
245.255	2681
245.319	2596
245.383	458
245.446	2035
245.510	-183
245.574	1593
245.638	1455
245.702	540
245.766	3707
245.829	3399
245.893	635
245.957	948
246.021	2069
246.085	799
246.149	2189
246.212	5785
246.276	7841
246.340	3396
246.404	2705
246.467	3388
246.531	2098
246.595	3573
246.659	2689
246.722	1172
246.786	2543
246.850	2683
246.913	2862
246.977	1102
247.041	2039
247.104	2184
247.168	2795
247.232	4727
247.295	10894
247.359	5784
247.423	2253
247.486	4289
247.550	2782
247.614	1101
247.677	1705
247.741	1892
247.804	1901
247.868	2038
247.932	4035
247.995	11795
248.059	3516
248.122	2277
248.186	3727
248.249	4295
248.313	16185
248.376	18326
248.440	11621
248.503	3151
248.567	4440
248.630	4033
248.694	5517
248.757	7582
248.821	18541
248.884	11018
248.948	8721
249.011	14435
249.075	21089
249.138	19867
249.202	6817
249.265	3918
249.328	5452
249.392	3777
249.455	4055
249.519	3449
249.582	3017
249.645	5896
249.709	4277
249.772	3728
249.835	3855
249.899	4203
249.962	3417
250.025	3535
250.089	7567
250.152	10891
250.215	4679
250.279	4314
250.342	4436
250.405	4747
250.468	4644
250.532	6245
250.595	9543
250.658	31332
250.721	59512
250.785	19157
250.848	10658
250.911	6196
250.974	5321
251.038	6816
251.101	13577
251.164	8046
251.227	7792
251.290	8217
251.354	12216
251.417	47731
251.480	51625
251.543	32635
251.606	89349
251.669	69694
251.732	26154
251.795	21533
251.859	22275
251.922	55822
251.985	34671
252.048	14059
252.111	10544
252.174	8003
252.237	12425
252.300	26137
252.363	28253
252.426	72147
252.489	30598
252.552	16030
252.615	10907
252.678	11017
252.741	19935
252.804	29256
252.867	72543
252.930	40000
252.993	20215
253.056	12292
253.119	11338
253.182	8947
253.245	13006
253.308	10135
253.371	7303
253.434	7779
253.497	8351
253.559	12247
253.622	9307
253.685	7336
253.748	8049
253.811	5047
253.874	5714
253.937	4518
254.000	4553
254.062	7054
254.125	12636
254.188	12480
254.251	9367
254.314	4192
254.376	6840
254.439	8504
254.502	5599
254.565	6927
254.628	13529
254.690	6564
254.753	3947
254.816	3332
254.878	3235
254.941	8331
255.004	8177
255.067	3974
255.129	3209
255.192	2503
255.255	931
255.317	3194
255.380	1757
255.443	2015
255.505	1461
255.568	518
255.631	1158
255.693	2405
255.756	995
255.819	2362
255.881	352
255.944	1472
256.006	136
256.069	960
256.132	1157
256.194	1962
256.257	6138
256.319	4567
256.382	3572
256.444	2488
256.507	1993
256.569	1837
256.632	2572
256.694	3470
256.757	9799
256.819	33971
256.882	12036
256.944	5190
257.007	3790
257.069	3849
257.132	3464
257.194	2561
257.257	1954
257.319	2368
257.381	3133
257.444	7337
257.506	36248
257.569	40089
257.631	15627
257.693	7953
257.756	4291
257.818	3307
257.880	2475
257.943	2898
258.005	1451
258.067	2550
258.130	2701
258.192	2378
258.254	4093
258.317	2946
258.379	1684
258.441	5898
258.503	6531
258.566	7358
258.628	12658
258.690	2399
258.753	3199
258.815	4004
258.877	2137
258.939	1911
259.001	2217
259.064	2212
259.126	2149
259.188	3117
259.250	2525
259.312	2998
259.375	6527
259.437	4680
259.499	2292
259.561	2062
259.623	2716
259.685	2654
259.747	2749
259.809	7238
259.872	15642
259.934	22275
259.996	25243
260.058	7805
260.120	1748
260.182	2371
260.244	1665
260.306	2327
260.368	1960
260.430	2204
260.492	6291
260.554	12597
260.616	5302
260.678	10572
260.740	16855
260.802	4394
260.864	2935
260.926	1704
260.988	2501
261.050	2577
261.112	9520
261.174	24369
261.236	14735
261.298	4317
261.359	6116
261.421	9994
261.483	2160
261.545	3661
261.607	609
261.669	2388
261.731	3594
261.793	8606
261.854	2875
261.916	3384
261.978	2723
262.040	5018
262.102	1875
262.164	3339
262.225	3242
262.287	1264
262.349	4204
262.411	3949
262.472	2147
262.534	3727
262.596	9183
262.658	3344
262.719	530
262.781	3490
262.843	8384
262.904	4852
262.966	3414
263.028	4617
263.090	17960
263.151	62384
263.213	21014
263.275	10203
263.336	4172
263.398	3528
263.459	1608
263.521	2531
263.583	4747
263.644	3742
263.706	1230
263.767	838
263.829	1400
263.891	738
263.952	553
264.014	822
264.075	4466
264.137	15372
264.198	5061
264.260	2255
264.321	1821
264.383	4890
264.444	19711
264.506	6681
264.567	2820
264.629	7402
264.690	18865
264.752	5915
264.813	2200
264.875	1728
264.936	2352
264.998	2095
265.059	1322
265.120	1730
265.182	1959
265.243	13851
265.305	15368
265.366	4541
265.427	1853
265.489	2632
265.550	286
265.611	1888
265.673	1574
265.734	1742
265.795	1199
265.857	717
265.918	1255
265.979	4464
266.040	24919
266.102	22072
266.163	6053
266.224	4808
266.286	2080
266.347	1526
266.408	1041
266.469	1957
266.530	659
266.592	820
266.653	2607
266.714	3871
266.775	1503
266.836	703
266.898	606
266.959	3896
267.020	2397
267.081	1957
267.142	1028
267.203	410
267.264	276
267.326	2082
267.387	269
267.448	380
267.509	264
267.570	708
267.631	-37
267.692	392
267.753	576
267.814	478
267.875	2168
267.936	6482
267.997	5103
268.058	3509
268.119	698
268.180	201
268.241	342
268.302	912
268.363	353
268.424	1218
268.485	1129
268.546	408
268.607	-102
268.668	-439
268.729	502
268.790	79
268.851	1045
268.912	3634
268.972	4244
269.033	705
269.094	537
269.155	884
269.216	-125
269.277	787
269.338	668
269.398	466
269.459	557
269.520	1717
269.581	450
269.642	2769
269.702	1233
269.763	1833
269.824	722
269.885	330
269.945	2381
270.006	1067
270.067	225
270.128	886
270.188	353
270.249	721
270.310	54
270.370	1151
270.431	354
270.492	693
270.553	317
270.613	2829
270.674	5053
270.734	1952
270.795	329
270.856	1572
270.916	433
270.977	799
271.038	1355
271.098	1392
271.159	1628
271.219	2124
271.280	713
271.340	1200
271.401	-168
271.462	4338
271.522	1837
271.583	1703
271.643	661
271.704	1219
271.764	808
271.825	3536
271.885	14973
271.946	23018
272.006	6415
272.066	8924
272.127	19621
272.187	5750
272.248	2692
272.308	2799
272.369	13430
272.429	9166
272.489	4452
272.550	5736
272.610	4404
272.671	3025
272.731	3679
272.791	6722
272.852	2254
272.912	2548
272.972	830
273.033	1517
273.093	2566
273.153	4256
273.214	2109
273.274	3267
273.334	12170
273.394	24068
273.455	7246
273.515	6348
273.575	17491
273.635	7701
273.696	7765
273.756	20131
273.816	7404
273.876	4701
273.936	7783
273.997	19564
274.057	6088
274.117	3441
274.177	4268
274.237	23996
274.297	24787
274.358	13254
274.418	15439
274.478	11903
274.538	3143
274.598	3390
274.658	12621
274.718	17984
274.778	7362
274.838	3443
274.898	6158
274.958	24458
275.018	21732
275.078	14681
275.138	4474
275.198	2877
275.258	2007
275.318	3301
275.378	4020
275.438	5139
275.498	2539
275.558	9981
275.618	24693
275.678	14911
275.738	6370
275.798	7639
275.858	5772
275.918	1968
275.978	2653
276.038	2208
276.098	1881
276.157	3505
276.217	10379
276.277	4935
276.337	2960
276.397	2062
276.457	2529
276.517	2720
276.576	785
276.636	1624
276.696	1756
276.756	6637
276.815	5431
276.875	2614
276.935	1675
276.995	2087
277.055	1520
277.114	1353
277.174	2090
277.234	8857
277.293	3833
277.353	1627
277.413	1836
277.472	1701
277.532	1386
277.592	1403
277.651	3900
277.711	8100
277.771	2683
277.830	10765
277.890	10008
277.950	6322
278.009	21727
278.069	8457
278.128	5546
278.188	8477
278.248	3083
278.307	8423
278.367	6619
278.426	2479
278.486	2580
278.545	1586
278.605	1487
278.664	1554
278.724	1324
278.783	6277
278.843	23980
278.902	7176
278.962	2246
279.021	2897
279.081	2743
279.140	1612
279.199	2359
279.259	3172
279.318	3509
279.378	5198
279.437	7481
279.496	29073
279.556	79305
279.615	73182
279.675	15737
279.734	8461
279.793	10976
279.853	26178
279.912	9571
279.971	5443
280.031	4277
280.090	9357
280.149	20515
280.208	12631
280.268	59534
280.327	72812
280.386	14420
280.445	9519
280.505	9825
280.564	5924
280.623	4742
280.682	5978
280.742	10056
280.801	3849
280.860	2716
280.919	2658
280.978	2401
281.037	2083
281.097	2277
281.156	2016
281.215	1391
281.274	3074
281.333	13584
281.392	13953
281.451	3133
281.510	1489
281.569	582
281.628	2530
281.688	1086
281.747	1658
281.806	2050
281.865	1921
281.924	302
281.983	1502
282.042	1233
282.101	690
282.160	1219
282.219	1169
282.278	1389
282.337	5874
282.396	5454
282.454	1636
282.513	1525
282.572	9108
282.631	6151
282.690	1467
282.749	1198
282.808	2700
282.867	2754
282.926	2858
282.985	1408
283.043	991
283.102	1057
283.161	1828
283.220	6789
283.279	16411
283.338	5081
283.396	1701
283.455	1488
283.514	1815
283.573	2764
283.631	3186
283.690	1826
283.749	1754
283.808	3104
283.866	5141
283.925	546
283.984	2183
284.043	1751
284.101	3048
284.160	1394
284.219	8191
284.277	4049
284.336	3752
284.395	12906
284.453	14063
284.512	3825
284.570	4027
284.629	3134
284.688	2645
284.746	2568
284.805	2513
284.863	3286
284.922	4853
284.981	5274
285.039	6885
285.098	11429
285.156	29924
285.215	111749
285.273	122416
285.332	45875
285.390	20237
285.449	10218
285.507	7003
285.566	5674
285.624	5285
285.683	4328
285.741	3585
285.799	2488
285.858	3394
285.916	2684
285.975	2411
286.033	1956
286.091	2362
286.150	1840
286.208	3154
286.267	3606
286.325	3332
286.383	3217
286.442	2823
286.500	1989
286.558	2082
286.616	1728
286.675	2193
286.733	2003
286.791	1729
286.850	2594
286.908	4634
286.966	5948
287.024	3258
287.083	1488
287.141	1629
287.199	2570
287.257	2648
287.315	1841
287.374	2789
287.432	6666
287.490	5607
287.548	2767
287.606	3203
287.664	3326
287.723	5632
287.781	10766
287.839	5746
287.897	6612
287.955	10781
288.013	14402
288.071	27136
288.129	90846
288.187	274302
288.245	150872
288.303	48817
288.361	25079
288.419	19676
288.477	14427
288.535	9943
288.593	7401
288.651	7412
288.709	4887
288.767	4439
288.825	3205
288.883	3408
288.941	4226
288.999	2764
289.057	2894
289.115	3927
289.173	3807
289.231	2452
289.289	2879
289.346	2627
289.404	2628
289.462	3991
289.520	4213
289.578	2770
289.636	1408
289.694	1547
289.751	2025
289.809	2007
289.867	2022
289.925	3014
289.983	2713
290.040	1653
290.098	1388
290.156	1396
290.214	2150
290.271	1764
290.329	1641
290.387	900
290.444	1362
290.502	1721
290.560	1587
290.617	2339
290.675	1529
290.733	1505
290.790	2569
290.848	2667
290.906	1252
290.963	2397
291.021	2438
291.078	2648
291.136	3098
291.194	10418
291.251	28715
291.309	10446
291.366	3781
291.424	2956
291.481	2600
291.539	1817
291.596	1690
291.654	1791
291.711	1009
291.769	1221
291.826	3426
291.884	3050
291.941	1029
291.999	1485
292.056	1557
292.114	1981
292.171	1552
292.228	2273
292.286	2026
292.343	4485
292.401	4728
292.458	4809
292.515	2264
292.573	2279
292.630	3310
292.687	4450
292.745	3173
292.802	5405
292.859	19137
292.917	20538
292.974	12813
293.031	4638
293.089	2352
293.146	2688
293.203	1535
293.260	3054
293.318	3418
293.375	10447
293.432	5870
293.489	3357
293.546	3226
293.604	4008
293.661	9416
293.718	34054
293.775	23292
293.832	8776
293.889	5284
293.947	6325
294.004	4385
294.061	4506
294.118	8830
294.175	22500
294.232	44097
294.289	20060
294.346	6955
294.403	5674
294.460	4850
294.517	4749
294.574	4903
294.631	4293
294.688	5007
294.745	10418
294.802	43166
294.859	67065
294.916	26480
294.973	11567
295.030	7703
295.087	6811
295.144	5163
295.201	5064
295.258	3966
295.315	4409
295.372	13526
295.429	30216
295.486	16236
295.542	9009
295.599	26648
295.656	56022
295.713	33123
295.770	31301
295.827	14662
295.883	7452
295.940	5511
295.997	9182
296.054	9062
296.111	5273
296.167	4001
296.224	3248
296.281	3095
296.338	4056
296.394	4155
296.451	5200
296.508	11612
296.564	25389
296.621	20825
296.678	27843
296.734	49780
296.791	24336
296.848	10719
296.904	9063
296.961	13461
297.018	28678
297.074	29863
297.131	12774
297.187	8647
297.244	8887
297.301	27645
297.357	61597
297.414	25620
297.470	9297
297.527	6741
297.583	5160
297.640	5450
297.696	3644
297.753	3751
297.809	3791
297.866	2822
297.922	3826
297.979	2782
298.035	3564
298.092	5683
298.148	15780
298.204	18386
298.261	10422
298.317	14499
298.374	42864
298.430	28784
298.486	12637
298.543	8306
298.599	8161
298.656	7158
298.712	11995
298.768	36091
298.824	36939
298.881	13916
298.937	7304
298.993	4992
299.050	5724
299.106	4969
299.162	5308
299.218	5912
299.275	5161
299.331	5018
299.387	7613
299.443	30351
299.500	39062
299.556	19070
299.612	8763
299.668	7119
299.724	9053
299.780	12137
299.837	7488
299.893	8604
299.949	25580
300.005	35515
300.061	29466
300.117	57054
300.173	33194
300.229	13772
300.285	9935
300.341	12064
300.397	8411
300.453	5205
300.510	5073
300.566	5617
300.622	7192
300.678	16969
300.734	32047
300.790	29936
300.845	38363
300.901	24038
300.957	27990
301.013	23531
301.069	10576
301.125	6178
301.181	6144
301.237	4910
301.293	4499
301.349	4211
301.405	3300
301.461	3901
301.516	4822
301.572	5385
301.628	7712
301.684	7617
301.740	13860
301.796	19413
301.851	14642
301.907	18473
301.963	20349
302.019	28793
302.074	87567
302.130	98642
302.186	49109
302.242	19463
302.297	12239
302.353	10347
302.409	17788
302.464	18973
302.520	15712
302.576	30714
302.631	41621
302.687	23545
302.743	11628
302.798	6600
302.854	5568
302.910	5226
302.965	7724
303.021	11302
303.076	10926
303.132	10420
303.187	12771
303.243	7974
303.299	5159
303.354	3776
303.410	4685
303.465	3701
303.521	4556
303.576	4567
303.632	5306
303.687	9765
303.743	30710
303.798	31073
303.853	14301
303.909	7766
303.964	5375
304.020	5678
304.075	9526
304.130	8619
304.186	14859
304.241	16027
304.297	13685
304.352	8497
304.358	8252
304.407	6270
304.449	5509
304.463	5260
304.518	5855
304.539	5795
304.573	5683
304.629	6623
304.630	6675
304.684	9316
304.720	17325
304.739	21322
304.794	37918
304.811	33669
304.850	23681
304.902	11019
304.905	10196
304.960	6875
304.992	6272
305.015	5800
305.071	5996
305.083	5618
305.126	4268
305.173	4196
305.181	4193
305.236	3951
305.264	4014
305.292	4073
305.347	5044
305.354	5128
305.402	5715
305.445	6069
305.457	6137
305.512	6948
305.535	7162
305.567	7544
305.622	7590
305.626	7827
305.678	12519
305.716	26596
305.733	32090
305.788	41900
305.807	37083
305.843	28581
305.897	31665
305.898	31674
305.953	34983
305.988	25257
306.008	19866
306.063	10810
306.078	9838
306.118	7567
306.168	6412
306.173	6289
306.228	5116
306.259	4780
306.283	4625
306.338	5168
306.349	5324
306.393	5816
306.440	6580
306.448	6776
306.503	8603
306.530	9483
306.558	11367
306.613	29192
306.620	31555
306.668	43360
306.711	39165
306.723	37804
306.778	27283
306.801	21829
306.833	15216
306.888	8195
306.892	8026
306.943	6221
306.982	6105
306.997	6130
307.052	6425
307.072	6850
307.107	8094
307.162	12611
307.163	12738
307.217	23987
307.253	29931
307.272	31771
307.327	36467
307.343	32465
307.381	24280
307.434	16703
307.436	16514
307.491	26987
307.524	41219
307.546	47111
307.600	38290
307.614	33388
307.655	20963
307.704	13132
307.710	12645
307.765	13940
307.795	19131
307.819	22971
307.874	45577
307.885	45129
307.929	37832
307.975	24289
307.984	22680
308.038	19339
308.065	21585
308.093	31127
308.148	60811
308.156	70443
308.202	115422
308.246	145477
308.257	147535
308.312	88483
308.336	64448
308.366	44700
308.421	26944
308.426	25916
308.475	17540
308.517	13186
308.530	11960
308.585	10222
308.607	9822
308.639	10230
308.694	12562
308.697	12938
308.748	25300
308.787	45170
308.803	48293
308.857	39961
308.877	32641
308.912	23704
308.967	16631
308.967	16654
309.021	17010
309.058	18927
309.076	21835
309.130	34253
309.148	40325
309.185	76091
309.238	150875
309.239	151106
309.293	177086
309.328	153818
309.348	136618
309.402	67816
309.418	52396
309.457	32180
309.508	19473
309.511	18769
309.566	14075
309.598	12490
309.620	11877
309.674	13009
309.688	13551
309.729	13419
309.778	11677
309.783	11489
309.837	9469
309.868	8815
309.892	9925
309.946	13691
309.959	15626
310.001	20217
310.049	24474
310.055	24222
310.109	17435
310.139	12486
310.163	9633
310.218	6175
310.229	5731
310.272	5283
310.319	5853
310.326	5761
310.381	5534
310.409	5218
310.435	5475
310.489	6414
310.499	6580
310.543	6803
310.589	7288
310.598	7209
310.652	7369
310.679	6830
310.706	5774
310.760	3754
310.769	3486
310.814	2966
310.859	2792
310.868	2776
310.923	2768
310.948	2963
310.977	3349
311.031	4064
311.038	4215
311.085	3771
311.128	2881
311.139	2892
311.193	3300
311.218	3496
311.247	3250
311.301	2813
311.308	2774
311.356	3110
311.398	3538
311.410	3467
311.464	3160
311.488	3023
311.518	2714
311.572	2166
311.578	2134
311.626	2839
311.668	3470
311.680	3828
311.734	5635
311.758	6458
311.788	6112
311.842	5410
311.847	5366
311.896	7475
311.937	9568
311.950	9059
312.004	6935
312.027	5978
312.058	5029
312.112	3519
312.117	3408
312.165	2983
312.207	2695
312.297	5839
312.386	3830
312.476	3194
312.566	3092
312.656	2437
312.745	2092
312.835	3327
312.925	3088
313.015	4431
313.104	4426
313.194	2481
313.284	1571
313.374	2845
313.463	1764
313.553	2680
313.643	1662
313.732	1384
313.822	1922
313.912	3499
314.001	2503
314.091	4367
314.180	4883
314.270	3795
314.360	4679
314.449	2790
314.539	1916
314.628	2380
314.718	3497
314.808	5310
314.897	1612
314.987	2306
315.076	2810
315.166	4492
315.255	4885
315.345	4192
315.434	4310
315.524	4570
315.613	3870
315.703	3283
315.792	5471
315.881	9972
315.971	4056
316.060	10124
316.150	21707
316.239	21997
316.328	5685
316.418	2870
316.507	1806
316.597	3570
316.686	3470
316.775	10865
316.865	21233
316.954	3888
317.043	1805
317.133	2279
317.222	1402
317.311	2231
317.400	611
317.490	3766
317.579	2677
317.668	2894
317.757	3282
317.847	7843
317.936	16616
318.025	5948
318.114	3814
318.203	3250
318.293	4410
318.382	7590
318.471	6378
318.560	17200
318.649	39053
318.738	6848
318.828	4354
318.917	4339
319.006	9609
319.095	23789
319.184	49171
319.273	16251
319.362	5133
319.451	3169
319.540	3343
319.629	5384
319.718	7447
319.807	6257
319.896	17695
319.985	57277
320.074	13056
320.163	7419
320.252	13231
320.341	10647
320.430	6675
320.519	5061
320.608	3070
320.697	3825
320.786	2825
320.875	4655
320.964	3328
321.053	4982
321.142	6119
321.230	6693
321.319	7955
321.408	16099
321.497	8539
321.586	8408
321.675	20447
321.764	14075
321.852	8772
321.941	9319
322.030	5928
322.119	9683
322.207	20651
322.296	27604
322.385	12523
322.474	9427
322.562	16916
322.651	10885
322.740	8001
322.829	18182
322.917	27118
323.006	8652
323.095	6447
323.183	9346
323.272	10682
323.361	26183
323.449	74283
323.538	23084
323.626	59355
323.715	27805
323.804	17681
323.892	54935
323.981	19466
324.069	9596
324.158	35709
324.246	23201
324.335	5849
324.424	5143
324.512	2805
324.601	2995
324.689	4311
324.778	9567
324.866	18292
324.954	5150
325.043	4048
325.131	13435
325.220	27577
325.308	27287
325.397	19400
325.485	8589
325.574	1963
325.662	2059
325.750	1248
325.839	2859
325.927	2646
326.015	3722
326.104	11381
326.192	12464
326.280	3020
326.369	2233
326.457	2823
326.545	4221
326.634	2167
326.722	1819
326.810	1406
326.898	2272
326.987	2234
327.075	4890
327.163	9704
327.251	4382
327.340	2692
327.428	3019
327.516	1781
327.604	3448
327.692	3628
327.781	6425
327.869	10732
327.957	5201
328.045	2915
328.133	2379
328.221	4741
328.309	2729
328.397	2370
328.485	2266
328.574	2455
328.662	7653
328.750	9338
328.838	4976
328.926	3148
329.014	2481
329.102	4493
329.190	12137
329.278	4825
329.366	1518
329.454	2152
329.542	3139
329.630	1044
329.718	2069
329.806	2001
329.893	4114
329.981	2801
330.069	4910
330.157	21583
330.245	51743
330.333	21514
330.421	5080
330.509	3929
330.597	9112
330.684	7681
330.772	5938
330.860	11492
330.948	13632
331.036	3366
331.123	1566
331.211	3007
331.299	4668
331.387	12698
331.475	15723
331.562	5133
331.650	1802
331.738	4615
331.825	6639
331.913	2261
332.001	2490
332.089	4776
332.176	13461
332.264	35179
332.352	17572
332.439	4611
332.527	3347
332.614	4536
332.702	5650
332.790	3541
332.877	15918
332.965	25547
333.052	4075
333.140	4418
333.228	8455
333.315	2637
333.403	4577
333.490	21006
333.578	10775
333.665	4041
333.753	4221
333.840	2896
333.928	6520
334.015	19984
334.103	28435
334.190	69184
334.278	13983
334.365	7905
334.452	4429
334.540	3023
334.627	6988
334.715	9057
334.802	21581
334.889	109466
334.977	73047
335.064	7693
335.151	3923
335.239	4593
335.326	8018
335.413	37572
335.501	35675
335.588	3713
335.675	3964
335.762	7408
335.850	10244
335.937	6300
336.024	26568
336.111	96089
336.199	27862
336.286	4647
336.373	3466
336.460	2445
336.547	2676
336.635	3429
336.722	3745
336.809	3371
336.896	5941
336.983	22349
337.070	50292
337.157	64731
337.245	67572
337.332	37432
337.419	5051
337.506	3914
337.593	5559
337.680	22756
337.767	47792
337.854	12123
337.941	17245
338.028	23454
338.115	6861
338.202	8718
338.289	21290
338.376	62790
338.463	16454
338.550	35096
338.637	27025
338.724	16920
338.811	20319
338.898	3347
338.984	3120
339.071	3111
339.158	3806
339.245	6271
339.332	5641
339.419	17533
339.506	12086
339.593	1250
339.679	2245
339.766	1879
339.853	3186
339.940	3133
340.027	1267
340.113	1552
340.200	2349
340.287	1592
340.374	2549
340.460	2303
340.547	1160
340.634	3173
340.720	8550
340.807	3407
340.894	1969
340.980	1479
341.067	1854
341.154	2326
341.240	2349
341.327	2986
341.414	1214
341.500	26
341.587	2047
341.674	1540
341.760	3017
341.847	2157
341.933	1265
342.020	425
342.106	1127
342.193	620
342.279	2302
342.366	1699
342.452	2741
342.539	1317
342.625	3686
342.712	6724
342.798	2871
342.885	1522
342.971	442
343.058	770
343.144	1199
343.230	1195
343.317	2027
343.403	-156
343.490	502
343.576	337
343.662	670
343.749	1437
343.835	2488
343.921	5041
344.008	30529
344.094	51840
344.180	9028
344.267	4753
344.353	16456
344.439	18574
344.525	4700
344.612	2538
344.698	1711
344.784	873
344.870	1299
344.957	732
345.043	2198
345.129	926
345.215	2714
345.301	1290
345.387	656
345.474	1269
345.560	1815
345.646	1982
345.732	1646
345.818	746
345.904	1543
345.990	1325
346.076	5274
346.162	8187
346.249	2363
346.335	1035
346.421	996
346.507	6825
346.593	17316
346.679	2204
346.765	2734
346.851	1156
346.937	492
347.023	1024
347.108	1353
347.194	553
347.280	2035
347.366	1034
347.452	6914
347.538	22109
347.624	17444
347.710	14440
347.796	2730
347.882	1574
347.967	3013
348.053	3527
348.139	2197
348.225	924
348.311	312
348.397	1195
348.482	2184
348.568	1591
348.654	-26
348.740	39
348.825	253
348.911	3697
348.997	14396
349.083	22268
349.168	4106
349.254	1624
349.340	1924
349.425	967
349.511	1357
349.597	1367
349.682	2864
349.768	9463
349.854	4562
349.939	1772
350.025	1118
350.110	610
350.196	778
350.282	-645
350.367	1879
350.453	5616
350.538	4570
350.624	1260
350.709	2191
350.795	854
350.880	-36
350.966	1220
351.051	5032
351.137	2735
351.222	1377
351.308	3664
351.393	6566
351.479	810
351.564	78
351.649	1243
351.735	1024
351.820	375
351.906	986
351.991	2649
352.076	5719
352.162	6106
352.247	1400
352.332	795
352.418	1150
352.503	2760
352.588	10604
352.673	5925
352.759	1533
352.844	390
352.929	971
353.014	622
353.100	1324
353.185	523
353.270	1838
353.355	2350
353.441	2355
353.526	2100
353.611	2755
353.696	2574
353.781	2052
353.866	18
353.952	1641
354.037	2087
354.122	4952
354.207	4145
354.292	1467
354.377	637
354.462	1114
354.547	306
354.632	1802
354.717	2545
354.802	1419
354.887	460
354.972	773
355.057	189
355.142	-171
355.227	951
355.312	1481
355.397	3549
355.482	7502
355.567	2596
355.652	3651
355.737	3476
355.822	12300
355.907	6298
355.991	2335
356.076	419
356.161	1465
356.246	686
356.331	1470
356.416	3310
356.501	27850
356.585	20344
356.670	1494
356.755	2657
356.840	3771
356.924	21383
357.009	60396
357.094	17723
357.179	3707
357.263	1723
357.348	3826
357.433	2588
357.517	2345
357.602	885
357.687	755
357.771	2828
357.856	5608
357.941	4716
358.025	19266
358.110	66104
358.195	22816
358.279	2314
358.364	3119
358.448	8259
358.533	18509
358.617	13196
358.702	13930
358.787	4112
358.871	3122
358.956	1273
359.040	955
359.125	614
359.209	302
359.294	2274
359.378	3329
359.462	1934
359.547	3310
359.631	2918
359.716	96
359.800	1622
359.885	4107
359.969	911
360.053	1569
360.138	901
360.222	1262
360.306	1588
360.391	3254
360.475	4788
360.559	7092
360.644	6624
360.728	5229
360.812	17728
360.896	36784
360.981	16741
361.065	8078
361.149	2244
361.233	1852
361.318	965
361.402	1893
361.486	1936
361.570	527
361.654	1277
361.739	4908
361.823	27962
361.907	34660
361.991	4667
362.075	2878
362.159	3676
362.243	4908
362.327	3445
362.411	6517
362.495	3359
362.580	1826
362.664	1353
362.748	1001
362.832	1251
362.916	2469
363.000	11047
363.084	32896
363.168	40090
363.252	7888
363.336	4395
363.420	10065
363.503	47183
363.587	43493
363.671	5174
363.755	2776
363.839	3496
363.923	1867
364.007	3471
364.091	7008
364.175	19706
364.258	68000
364.342	28384
364.426	17276
364.510	8371
364.594	8179
364.677	11218
364.761	34151
364.845	18905
364.929	5486
365.013	3146
365.096	3714
365.180	4038
365.264	23810
365.347	70282
365.431	26559
365.515	5158
365.598	1152
365.682	3782
365.766	7898
365.849	7516
365.933	3199
366.017	6756
366.100	3868
366.184	1761
366.267	2719
366.351	802
366.435	-130
366.518	-195
366.602	547
366.685	405
366.769	1791
366.852	6518
366.936	7556
367.019	2011
367.103	5671
367.186	10401
367.270	1492
367.353	177
367.436	1801
367.520	16
367.603	1723
367.687	53
367.770	2672
367.853	2529
367.937	10425
368.020	11827
368.104	916
368.187	2395
368.270	3580
368.353	3205
368.437	17316
368.520	45400
368.603	16503
368.687	10004
368.770	15166
368.853	3549
368.936	7278
369.020	6938
369.103	1762
369.186	209
369.269	1645
369.352	3127
369.436	3425
369.519	2479
369.602	-801
369.685	2691
369.768	999
369.851	1512
369.934	882
370.018	751
370.101	1430
370.184	4228
370.267	2990
370.350	3549
370.433	6861
370.516	17125
370.599	18933
370.682	3991
370.765	9031
370.848	12537
370.931	20964
371.014	11056
371.097	978
371.180	972
371.263	1593
371.346	-271
371.429	1037
371.511	981
371.594	2353
371.677	6552
371.760	10460
371.843	4231
371.926	26975
372.009	48243
372.091	15176
372.174	12912
372.257	25872
372.340	8046
372.423	13095
372.505	15833
372.588	4639
372.671	8245
372.754	19842
372.836	10398
372.919	24664
373.002	38719
373.085	7122
373.167	4634
373.250	9056
373.332	21277
373.415	39587
373.498	67660
373.580	24268
373.663	36897
373.746	41376
373.828	6956
373.911	5598
373.993	10622
374.076	45814
374.159	34473
374.241	10398
374.324	17082
374.406	11534
374.489	25489
374.571	53312
374.654	17364
374.736	13768
374.819	37082
374.901	55525
374.983	47145
375.066	8126
375.148	7230
375.231	39526
375.313	59385
375.395	17978
375.478	2753
375.560	2063
375.643	3491
375.725	16018
375.807	49369
375.890	56387
375.972	33570
376.054	20255
376.136	37183
376.219	12364
376.301	15750
376.383	31771
376.465	10879
376.548	5410
376.630	10033
376.712	26634
376.794	9150
376.877	1267
376.959	280
377.041	3028
377.123	9870
377.205	9815
377.287	1064
377.369	1347
377.452	902
377.534	62
377.616	385
377.698	-97
377.780	429
377.862	845
377.944	1737
378.026	47
378.108	1930
378.190	985
378.272	974
378.354	827
378.436	959
378.518	5676
378.600	14875
378.682	8969
378.764	10359
378.846	8193
378.928	3248
379.010	2494
379.091	2735
379.173	930
379.255	640
379.337	1785
379.419	6177
379.501	15250
379.583	5796
379.664	1081
379.746	3179
379.828	11223
379.910	12352
379.991	11065
380.073	1274
380.155	1956
380.237	1361
380.318	411
380.400	407
380.482	3075
380.564	2358
380.645	3201
380.727	2054
380.809	2502
380.890	247
380.972	435
381.053	365
381.135	2121
381.217	3378
381.298	9649
381.380	4348
381.461	8439
381.543	28792
381.624	28062
381.706	5196
381.787	3593
381.869	3972
381.951	17771
382.032	55619
382.113	29908
382.195	3848
382.276	5135
382.358	8686
382.439	24175
382.521	32652
382.602	46443
382.684	19725
382.765	31448
382.846	20318
382.928	12683
383.009	5016
383.090	6091
383.172	20074
383.253	28354
383.334	20118
383.416	35307
383.497	14780
383.578	3188
383.659	7187
383.741	21068
383.822	44041
383.903	19695
383.984	20092
384.066	38249
384.147	17575
384.228	4074
384.309	2526
384.390	1300
384.471	927
384.553	1823
384.634	3322
384.715	3069
384.796	1149
384.877	2838
384.958	9112
385.039	8795
385.120	2332
385.201	3274
385.282	5037
385.363	6241
385.444	2613
385.525	6345
385.606	19634
385.687	14817
385.768	5695
385.849	8133
385.930	28627
386.011	41319
386.092	8944
386.173	2872
386.254	3036
386.335	3116
386.416	1845
386.496	6305
386.577	11223
386.658	8093
386.739	3802
386.820	7323
386.901	3623
386.981	2703
387.062	1239
387.143	3026
387.224	10800
387.304	11635
387.385	5390
387.466	3745
387.547	6867
387.627	2464
387.708	5841
387.789	21987
387.869	22772
387.950	6952
388.031	1732
388.111	2855
388.192	15016
388.273	19432
388.353	8476
388.434	3559
388.514	6984
388.595	27319
388.676	26381
388.756	10950
388.837	8813
388.917	5160
388.998	292
389.078	2829
389.159	1551
389.239	896
389.320	3201
389.400	695
389.480	7483
389.561	11873
389.641	5531
389.722	3114
389.802	2088
389.883	8546
389.963	18599
390.043	16031
390.124	7228
390.204	5388
390.284	11299
390.365	10598
390.445	32125
390.525	57611
390.605	36441
390.686	6058
390.766	2669
390.846	2587
390.927	1202
391.007	733
391.087	2677
391.167	2421
391.247	1736
391.328	9233
391.408	12029
391.488	7280
391.568	486
391.648	2108
391.728	2290
391.808	3486
391.888	2213
391.969	6866
392.049	10299
392.129	9281
392.209	8230
392.289	14477
392.369	12174
392.449	18412
392.529	7935
392.609	6371
392.689	6875
392.769	14669
392.849	12469
392.929	18872
393.009	29708
393.089	16267
393.169	17775
393.248	66949
393.328	232556
393.408	215618
393.488	45561
393.568	12051
393.648	6370
393.728	4707
393.807	3980
393.887	4149
393.967	2809
394.047	3319
394.127	4402
394.206	8743
394.286	40073
394.366	156902
394.446	144680
394.525	26871
394.605	6821
394.685	10758
394.764	28736
394.844	45355
394.924	25860
395.003	4318
395.083	3178
395.163	3060
395.242	2215
395.322	2786
395.402	1303
395.481	6305
395.561	21150
395.640	43502
395.720	30811
395.799	53048
395.879	34742
395.958	14101
396.038	57629
396.117	205271
396.197	195220
396.276	54111
396.356	19814
396.435	16429
396.515	8918
396.594	7691
396.673	16205
396.753	76649
396.832	206962
396.912	126527
396.991	21608
397.070	7715
397.150	2600
397.229	4337
397.308	4341
397.388	5920
397.467	4073
397.546	2717
397.625	-363
397.705	2451
397.784	1460
397.863	894
397.942	1522
398.022	3605
398.101	20908
398.180	49492
398.259	22030
398.338	4844
398.417	2093
398.497	1776
398.576	3190
398.655	507
398.734	1516
398.813	3486
398.892	20884
398.971	52776
399.050	21427
399.129	1165
399.208	1183
399.287	1787
399.366	186
399.445	1537
399.524	1736
399.603	520
399.682	2452
399.761	16502
399.840	53837
399.919	36881
399.998	3886
400.077	727
400.156	-168
400.235	3543
400.313	505
400.392	2691
400.471	5889
400.550	7865
400.629	1720
400.708	1905
400.786	4118
400.865	13580
400.944	10328
401.023	4905
401.102	108
401.180	1945
401.259	1928
401.338	2287
401.416	2420
401.495	1211
401.574	2664
401.652	1198
401.731	2503
401.810	1059
401.888	362
401.967	368
402.046	261
402.124	2646
402.203	1655
402.281	1883
402.360	4652
402.438	15585
402.517	8242
402.596	3455
402.674	3084
402.753	1890
402.831	1009
402.910	2124
402.988	5820
403.066	12036
403.145	6544
403.223	4770
403.302	7614
403.380	6751
403.459	4965
403.537	2778
403.615	909
403.694	-348
403.772	1017
403.850	745
403.929	-1106
404.007	211
404.085	2117
404.164	407
404.242	582
404.320	4832
404.398	10228
404.477	14771
404.555	37099
404.633	28003
404.711	7815
404.789	3988
404.868	881
404.946	-419
405.024	-211
405.102	630
405.180	-1478
405.258	-1075
405.336	547
405.415	586
405.493	3332
405.571	2847
405.649	-1189
405.727	-223
405.805	2591
405.883	1718
405.961	3064
406.039	3128
406.117	-302
406.195	1776
406.273	7622
406.351	27010
406.429	16091
406.507	4498
406.585	315
406.663	773
406.740	302
406.818	-330
406.896	524
406.974	1117
407.052	2326
407.130	16919
407.208	18952
407.285	3277
407.363	-486
407.441	-16
407.519	39
407.596	1690
407.674	5904
407.752	21060
407.830	20163
407.907	6829
407.985	523
408.063	427
408.141	704
408.218	2855
408.296	1476
408.373	765
408.451	883
408.529	-222
408.606	90
408.684	722
408.762	-165
408.839	86
408.917	-120
408.994	-66
409.072	-1206
409.149	-669
409.227	1279
409.304	941
409.382	115
409.459	754
409.537	1114
409.614	1360
409.692	102
409.769	-183
409.846	778
409.924	3155
410.001	-1242
410.079	902
410.156	1133
410.233	1057
410.311	-90
410.388	482
410.465	-226
410.543	59
410.620	715
410.697	144
410.775	393
410.852	-724
410.929	1094
411.006	1010
411.083	-435
411.161	1542
411.238	3256
411.315	1598
411.392	-349
411.469	786
411.547	815
411.624	-1144
411.701	166
411.778	535
411.855	573
411.932	482
412.009	-405
412.086	940
412.163	1332
412.240	1426
412.317	2970
412.394	1989
412.471	687
412.548	396
412.625	-173
412.702	2306
412.779	2396
412.856	1235
412.933	-495
413.010	388
413.087	1102
413.164	4769
413.241	5096
413.318	1408
413.395	1001
413.471	621
413.548	110
413.625	869
413.702	1
413.779	1356
413.855	419
413.932	-350
414.009	-1251
414.086	502
414.162	448
414.239	1819
414.316	6457
414.393	10864
414.469	2153
414.546	441
414.623	-360
414.699	109
414.776	-336
414.853	327
414.929	-133
415.006	453
415.082	1543
415.159	770
415.236	-455
415.312	743
415.389	995
415.465	27
415.542	-57
415.618	-786
415.695	1484
415.771	-158
415.848	-277
415.924	1113
416.000	1012
416.077	807
416.153	27
416.230	-429
416.306	195
416.383	395
416.459	96
416.535	-666
416.612	-185
416.688	-330
416.764	-175
416.841	-454
416.917	35
416.993	909
417.069	730
417.146	809
417.222	1069
417.298	324
417.374	-834
417.451	910
417.527	282
417.603	-500
417.679	205
417.755	517
417.831	-601
417.908	-386
417.984	-123
418.060	-623
418.136	336
418.212	950
418.288	269
418.364	891
418.440	-70
418.516	1648
418.592	4056
418.668	4061
418.744	2105
418.820	1441
418.896	169
418.972	-805
419.048	70
419.124	1772
419.200	-611
419.276	289
419.352	-1010
419.428	12
419.504	-522
419.579	644
419.655	607
419.731	671
419.807	2147
419.883	3638
419.959	1699
420.034	584
420.110	2529
420.186	6288
420.262	4698
420.337	1840
420.413	70
420.489	196
420.565	1465
420.640	145
420.716	484
420.792	-1544
420.867	685
420.943	198
421.019	563
421.094	354
421.170	668
421.245	469
421.321	1256
421.397	340
421.472	4510
421.548	9900
421.623	6665
421.699	1032
421.774	1300
421.850	-80
421.925	1599
422.001	2292
422.076	1437
422.152	1673
422.227	2958
422.302	4684
422.378	5669
422.453	11416
422.529	30453
422.604	99221
422.679	165840
422.755	90022
422.830	27497
422.905	11437
422.981	5859
423.056	3899
423.131	2808
423.207	1815
423.282	1574
423.357	2809
423.432	1105
423.508	1840
423.583	2930
423.658	2323
423.733	2150
423.808	2447
423.883	1885
423.959	1408
424.034	399
424.109	1091
424.184	-370
424.259	381
424.334	213
424.409	44
424.484	145
424.559	-88
424.634	284
424.709	663
424.784	1380
424.859	547
424.934	1578
425.009	5634
425.084	8051
425.159	2901
425.234	1196
425.309	-167
425.384	1105
425.459	1640
425.534	1627
425.609	1113
425.683	13
425.758	849
425.833	507
425.908	1799
425.983	2625
426.058	8939
426.132	4365
426.207	2578
426.282	5303
426.357	3501
426.431	1627
426.506	1230
426.581	998
426.655	1155
426.730	327
426.805	-840
426.879	295
426.954	1235
427.029	2911
427.103	11119
427.178	23877
427.253	11853
427.327	2522
427.402	4733
427.476	8217
427.551	2963
427.625	2815
427.700	1781
427.774	427
427.849	2178
427.923	749
427.998	783
428.072	1740
428.147	4074
428.221	12034
428.296	30123
428.370	15972
428.444	4743
428.519	7367
428.593	15461
428.667	12500
428.742	15911
428.816	13467
428.890	30381
428.965	36860
429.039	18647
429.113	16333
429.188	5600
429.262	1733
429.336	1793
429.410	5701
429.485	6930
429.559	12391
429.633	9293
429.707	3111
429.781	9478
429.855	38610
429.930	48530
430.004	43505
430.078	67818
430.152	50845
430.226	49812
430.300	46120
430.374	9291
430.448	5857
430.522	24540
430.596	58802
430.670	31335
430.744	35335
430.818	45711
430.892	11117
430.966	2359
431.040	1130
431.114	202
431.188	461
431.262	1417
431.336	1072
431.410	8070
431.484	17242
431.557	8634
431.631	842
431.705	1409
431.779	7538
431.853	29436
431.927	22147
432.000	4085
432.074	1590
432.148	2385
432.222	2242
432.295	1633
432.369	352
432.443	2690
432.516	15127
432.590	31467
432.664	13582
432.737	1708
432.811	-411
432.885	682
432.958	477
433.032	-20
433.106	790
433.179	345
433.253	459
433.326	162
433.400	127
433.473	565
433.547	-397
433.620	440
433.694	313
433.767	2207
433.841	714
433.914	-272
433.988	-480
434.061	-721
434.134	-379
434.208	-282
434.281	-577
434.355	-848
434.428	-99
434.501	583
434.575	-290
434.648	426
434.721	-17
434.795	-141
434.868	-484
434.941	-527
435.014	-13
435.088	73
435.161	224
435.234	422
435.307	829
435.381	1119
435.454	109
435.527	952
435.600	708
435.673	896
435.746	-382
435.819	323
435.892	-203
435.966	272
436.039	316
436.112	815
436.185	-133
436.258	-292
436.331	-1005
436.404	-240
436.477	-379
436.550	-933
436.623	269
436.696	-162
436.769	-78
436.842	400
436.915	101
436.987	1724
437.060	296
437.133	-2
437.206	-1070
437.279	1518
437.352	-691
437.425	-156
437.498	98
437.570	1655
437.643	358
437.716	115
437.789	-342
437.861	1307
437.934	2669
438.007	1978
438.080	-372
438.152	-369
438.225	3104
438.298	21104
438.370	53668
438.443	24594
438.516	3922
438.588	965
438.661	-141
438.734	560
438.806	815
438.879	1485
438.951	746
439.024	869
439.096	321
439.169	199
439.241	181
439.314	778
439.386	3458
439.459	5830
439.531	7527
439.604	2111
439.676	210
439.749	-37
439.821	-73
439.893	-95
439.966	1540
440.038	1785
440.110	1343
440.183	170
440.255	124
440.327	1759
440.400	10251
440.472	34125
440.544	24805
440.617	4637
440.689	2261
440.761	2412
440.833	3119
440.905	2336
440.978	418
441.050	-994
441.122	700
441.194	-158
441.266	227
441.338	-275
441.411	1505
441.483	8694
441.555	14138
441.627	4869
441.699	5725
441.771	6437
441.843	2052
441.915	1341
441.987	748
442.059	966
442.131	1673
442.203	4397
442.275	4309
442.347	4528
442.419	4711
442.491	19862
442.563	52523
442.635	37264
442.706	25845
442.778	18867
442.850	3538
442.922	1856
442.994	3264
443.066	4894
443.137	3732
443.209	3017
443.281	3862
443.353	10518
443.425	33112
443.496	93893
443.568	107752
443.640	51059
443.711	13513
443.783	5066
443.855	3010
443.926	2352
443.998	2327
444.070	4836
444.141	3320
444.213	3018
444.285	3294
444.356	4975
444.428	6315
444.499	3296
444.571	1154
444.642	1371
444.714	991
444.785	2238
444.857	7999
444.928	21773
445.000	16076
445.071	15190
445.143	18031
445.214	9776
445.285	14795
445.357	42991
445.428	86660
445.500	172932
445.571	142474
445.642	75379
445.714	40823
445.785	39236
445.856	14425
445.928	5560
445.999	3400
446.070	3671
446.141	3304
446.213	3449
446.284	2624
446.355	5567
446.426	3549
446.497	3067
446.569	6293
446.640	8742
446.711	3355
446.782	2749
446.853	4946
446.924	5503
446.995	1487
447.066	3254
447.138	9186
447.209	6410
447.280	766
447.351	1265
447.422	253
447.493	3342
447.564	2831
447.635	2175
447.706	1487
447.777	372
447.847	368
447.918	1196
447.989	3449
448.060	6800
448.131	15581
448.202	14124
448.273	5029
448.344	4313
448.414	733
448.485	1283
448.556	333
448.627	607
448.698	1854
448.768	740
448.839	2339
448.910	7366
448.981	7600
449.051	2573
449.122	805
449.193	1251
449.263	1344
449.334	1700
449.405	1900
449.475	4252
449.546	4526
449.616	9253
449.687	9660
449.758	3096
449.828	1842
449.899	2041
449.969	238
450.040	1245
450.110	4461
450.181	5191
450.251	2434
450.322	1516
450.392	1529
450.463	2657
450.533	501
450.604	1905
450.674	1516
450.744	2108
450.815	958
450.885	1868
450.955	2180
451.026	1577
451.096	2471
451.166	3800
451.237	11067
451.307	28869
451.377	16584
451.447	2078
451.518	2157
451.588	1984
451.658	2617
451.728	7192
451.799	28366
451.869	37992
451.939	11287
452.009	2554
452.079	1406
452.149	2669
452.219	9080
452.289	35124
452.360	33056
452.430	7145
452.500	2637
452.570	4226
452.640	6872
452.710	21271
452.780	36691
452.850	21205
452.920	10277
452.990	5872
453.060	4233
453.129	4753
453.199	8520
453.269	39906
453.339	90839
453.409	141824
453.479	124390
453.549	190855
453.619	200821
453.688	104993
453.758	16703
453.828	5733
453.898	4118
453.968	3656
454.037	3124
454.087	3242
454.107	3248
454.168	1814
454.177	1566
454.247	1992
454.249	2096
454.316	3040
454.330	3975
454.386	6012
454.411	11572
454.456	18823
454.492	25560
454.525	31760
454.574	18110
454.595	12473
454.655	5308
454.665	4350
454.734	8589
454.736	9197
454.804	17941
454.817	23673
454.873	39573
454.898	43538
454.943	49283
454.979	34605
455.013	23325
455.060	15318
455.082	12816
455.141	17700
455.152	17744
455.221	37217
455.222	38098
455.291	56142
455.303	53286
455.360	44111
455.384	45902
455.430	44553
455.465	43416
455.499	41680
455.546	42360
455.569	40035
455.627	29052
455.638	28204
455.707	6776
455.708	6820
455.777	4879
455.789	4872
455.846	4545
455.869	4698
455.916	5099
455.950	5300
455.985	4992
456.031	5295
456.054	5590
456.112	4662
456.124	4680
456.193	6563
456.193	6485
456.262	8686
456.274	9677
456.332	12990
456.355	13880
456.401	11640
456.436	8725
456.470	7325
456.516	4368
456.540	3286
456.597	3365
456.609	3319
456.678	3460
456.678	3431
456.747	3178
456.759	3152
456.817	2960
456.840	3075
456.886	3471
456.920	3910
456.955	5018
457.001	6454
457.024	8229
457.082	13731
457.093	14763
457.162	23704
457.163	23899
457.232	18738
457.243	17200
457.301	10998
457.324	7650
457.370	4878
457.405	4960
457.439	5164
457.485	5522
457.508	5679
457.566	6324
457.577	6540
457.646	7974
457.647	8030
457.715	13374
457.727	14672
457.784	21789
457.808	25622
457.853	27464
457.889	30493
457.922	30583
457.969	25968
457.991	28493
458.050	33400
458.060	34254
458.129	49257
458.130	49841
458.198	40167
458.211	36396
458.267	27590
458.292	21097
458.336	16503
458.372	16214
458.405	21646
458.453	31808
458.474	37882
458.533	59233
458.543	59542
458.611	71117
458.614	71570
458.680	46243
458.694	37294
458.749	24022
458.775	18443
458.818	12484
458.855	11015
458.887	10095
458.936	9844
458.955	9539
459.016	9012
459.024	8945
459.093	9560
459.097	9520
459.162	8335
459.177	8619
459.230	10151
459.257	10370
459.299	10251
459.338	10438
459.368	10405
459.418	10968
459.437	10580
459.499	8525
459.505	8483
459.574	7468
459.579	7448
459.643	7318
459.659	7443
459.711	8191
459.740	8621
459.780	9831
459.820	11203
459.849	11896
459.900	13497
459.917	12922
459.981	10360
459.986	10278
460.054	8742
460.061	8590
460.123	8730
460.141	9056
460.191	10073
460.222	10644
460.260	11226
460.302	11885
460.328	11220
460.382	9589
460.397	10076
460.462	12586
460.465	13249
460.534	29417
460.543	31483
460.602	67273
460.623	80994
460.671	122884
460.703	157836
460.739	123441
460.783	78175
460.808	71429
460.864	26569
460.876	22307
460.944	13412
460.945	13277
461.013	10952
461.024	10554
461.081	10770
461.104	11180
461.150	10701
461.184	10107
461.218	10503
461.264	10800
461.286	10824
461.345	11177
461.355	11462
461.423	14062
461.425	14113
461.491	19726
461.505	21055
461.559	51225
461.585	65410
461.628	99299
461.665	131779
461.696	130386
461.745	133180
461.764	111969
461.825	29494
461.832	29020
461.901	15841
461.905	15763
461.969	13214
461.985	12743
462.037	14109
462.065	14916
462.105	23917
462.145	32896
462.173	45718
462.225	70147
462.241	76651
462.305	106660
462.310	102550
462.378	37474
462.385	29057
462.446	18195
462.465	15590
462.514	13176
462.545	13090
462.582	13445
462.625	14172
462.650	14875
462.705	16123
462.718	17846
462.785	27130
462.786	27371
462.854	41093
462.865	43480
462.922	46852
462.945	48316
462.990	31770
463.025	17102
463.058	15442
463.104	12927
463.126	12471
463.184	12755
463.194	12938
463.262	14220
463.264	14280
463.330	16918
463.344	17314
463.398	20209
463.424	21753
463.466	22093
463.504	22526
463.533	21935
463.583	20549
463.601	21885
463.663	26255
463.669	27531
463.737	42615
463.743	43951
463.805	78422
463.823	88582
463.873	140667
463.903	173164
463.940	163568
463.982	154664
464.008	118649
464.062	35119
464.076	32693
464.142	17040
464.144	16863
464.211	15305
464.221	15297
464.279	17736
464.301	18612
464.347	22879
464.381	26086
464.414	31148
464.461	38293
464.482	37415
464.540	35255
464.550	33484
464.617	19822
464.620	19302
464.685	19648
464.699	19862
464.753	22182
464.779	23358
464.820	26213
464.859	28788
464.888	31535
464.938	36372
464.956	36431
465.018	36559
465.023	35627
465.091	22394
465.098	20944
465.158	20248
465.177	20197
465.226	20548
465.257	20690
465.293	21750
465.336	22841
465.361	26357
465.416	34294
465.428	41180
465.495	78235
465.496	78751
465.563	138952
465.575	149415
465.631	158063
465.654	161761
465.698	90448
465.734	29108
465.765	26022
465.813	20768
465.833	19949
465.893	19749
465.900	19865
465.968	20615
465.972	20631
466.035	20847
466.052	20892
466.102	22260
466.131	22959
466.170	23802
466.210	24611
466.237	25066
466.290	25897
466.304	26146
466.369	26926
466.372	27027
466.439	28657
466.449	28826
466.506	36459
466.528	39314
466.573	71526
466.607	95544
466.641	138066
466.687	196980
466.708	206434
466.766	231917
466.775	211323
466.842	52873
466.845	45246
466.909	35552
466.925	33430
466.977	31134
467.004	30034
467.044	30994
467.083	31872
467.111	33437
467.163	36197
467.178	36180
467.242	35758
467.245	35845
467.312	36241
467.321	36223
467.379	40835
467.400	42390
467.446	50975
467.480	57010
467.559	39001
467.638	33575
467.717	34819
467.796	35473
467.875	38762
467.955	44754
468.034	107938
468.113	231078
468.192	303426
468.271	43213
468.350	35005
468.429	38859
468.508	36051
468.588	31834
468.667	35278
468.746	34106
468.825	32775
468.904	28510
468.983	48829
469.062	86278
469.141	91497
469.220	27537
469.299	28515
469.378	29645
469.456	28922
469.535	27251
469.614	29468
469.693	39636
469.772	60324
469.851	98345
469.930	37669
470.009	23438
470.088	22556
470.166	23106
470.245	25779
470.324	25970
470.403	24278
470.482	22460
470.560	22446
470.639	25259
470.718	28078
470.797	27546
470.875	42368
470.954	68293
471.033	64182
471.111	20731
471.190	19492
471.269	19843
471.347	22150
471.426	25253
471.505	30918
471.583	25620
471.662	22636
471.740	22993
471.819	22046
471.898	21900
471.976	20952
472.055	23043
472.133	33529
472.212	57016
472.290	54679
472.369	25346
472.447	22695
472.526	18641
472.604	20498
472.683	22140
472.761	22079
472.839	21776
472.918	20574
472.996	27478
473.075	38236
473.153	29372
473.231	25242
473.310	34939
473.388	29350
473.466	26558
473.545	25089
473.623	30171
473.701	27816
473.780	20616
473.858	20902
473.936	25339
474.014	25273
474.093	37004
474.171	73014
474.249	112771
474.327	42125
474.405	18916
474.484	19303
474.562	19299
474.640	22711
474.718	27974
474.796	25709
474.874	21231
474.952	19231
475.030	20082
475.108	21527
475.187	25217
475.265	26251
475.343	30970
475.421	32393
475.499	24796
475.577	30506
475.655	61452
475.733	147856
475.811	257149
475.889	221058
475.966	89977
476.044	25428
476.122	29395
476.200	32741
476.278	27269
476.356	24540
476.434	27310
476.512	30137
476.590	36805
476.667	29992
476.745	21426
476.823	25263
476.901	27081
476.979	31368
477.056	25260
477.134	26583
477.212	23970
477.290	22891
477.367	22036
477.445	22751
477.523	23438
477.601	22237
477.678	26610
477.756	41028
477.834	43952
477.911	23999
477.989	26608
478.066	27002
478.144	33902
478.222	26955
478.299	34774
478.377	28981
478.454	21522
478.532	20059
478.609	22120
478.687	22753
478.764	20204
478.842	21483
478.919	24495
478.997	22846
479.074	25944
479.152	39546
479.229	55234
479.307	24170
479.384	19840
479.461	20645
479.539	29092
479.616	35462
479.694	26235
479.771	35029
479.848	40356
479.926	66136
480.003	52911
480.080	22220
480.157	22396
480.235	21438
480.312	24936
480.389	39960
480.467	78702
480.544	87292
480.621	30751
480.698	29947
480.775	36714
480.853	39826
480.930	25935
481.007	30081
481.084	43305
481.161	46914
481.238	35463
481.315	22631
481.392	23831
481.470	25192
481.547	25451
481.624	26492
481.701	26157
481.778	28641
481.855	38931
481.932	75214
482.009	133745
482.086	52373
482.163	26385
482.240	31455
482.317	41480
482.393	31326
482.470	28267
482.547	30888
482.624	24567
482.701	26008
482.778	24464
482.855	20240
482.932	20507
483.009	21617
483.085	26992
483.162	33970
483.239	29019
483.316	23516
483.393	24486
483.469	27373
483.546	37496
483.623	37702
483.699	26525
483.776	27959
483.853	34078
483.930	76863
484.006	203130
484.083	290618
484.160	58569
484.236	62673
484.313	49950
484.389	45114
484.466	40455
484.543	40196
484.619	44400
484.696	49728
484.772	60409
484.849	64068
484.925	38527
485.002	39163
485.078	41897
485.155	40147
485.231	37489
485.308	38503
485.384	45535
485.461	86138
485.537	181897
485.614	169459
485.690	37610
485.766	35477
485.843	37991
485.919	47782
485.995	42925
486.072	32458
486.148	31777
486.224	33539
486.301	42123
486.377	52196
486.453	42584
486.530	39873
486.606	49974
486.682	68905
486.758	128510
486.835	142535
486.911	117977
486.987	210221
487.063	105161
487.139	95582
487.215	70039
487.292	40081
487.368	40563
487.444	47057
487.520	54535
487.596	55257
487.672	97397
487.748	220164
487.824	262872
487.900	83953
487.976	52718
488.052	55528
488.128	53672
488.204	47609
488.280	47267
488.356	89828
488.432	231266
488.508	293004
488.584	45917
488.660	31796
488.736	32453
488.812	33980
488.888	40415
488.964	55409
489.039	106684
489.115	135015
489.191	67669
489.267	42555
489.343	39193
489.418	29260
489.494	28336
489.570	28699
489.646	31415
489.722	32793
489.797	43888
489.873	120002
489.949	273882
490.024	135181
490.100	33628
490.176	32896
490.251	36834
490.327	39349
490.403	26630
490.478	24434
490.554	22704
490.629	23865
490.705	23953
490.781	29799
490.856	33069
490.932	32522
491.007	31667
491.083	33716
491.158	37570
491.234	84181
491.309	205468
491.385	140044
491.460	39174
491.536	36766
491.611	25382
491.686	28882
491.762	40231
491.837	78225
491.913	132652
491.988	189002
492.063	168577
492.139	114117
492.214	54684
492.289	23320
492.365	25370
492.440	35344
492.515	40067
492.590	33466
492.666	27885
492.741	61318
492.816	99521
492.891	29833
492.967	21543
493.042	20677
493.117	21462
493.192	24475
493.267	53507
493.342	141519
493.418	135388
493.493	23340
493.568	20287
493.643	23640
493.718	44385
493.793	70394
493.868	42647
493.943	23030
494.018	22766
494.093	26621
494.168	24340
494.243	18259
494.318	19212
494.393	19708
494.468	18142
494.543	17623
494.618	20386
494.693	21321
494.768	25260
494.842	22493
494.917	18605
494.992	20122
495.067	17510
495.142	17260
495.217	19251
495.292	20327
495.366	25240
495.441	32324
495.516	37656
495.591	53680
495.665	155551
495.740	272941
495.815	76337
495.890	37238
495.964	29458
496.039	31331
496.114	31914
496.188	37772
496.263	32903
496.338	32690
496.412	43130
496.487	46404
496.561	39933
496.636	36679
496.710	36572
496.785	48670
496.860	53090
496.934	33268
497.009	34827
497.083	33370
497.158	37890
497.232	53601
497.307	63656
497.381	49720
497.455	81348
497.530	102672
497.604	56360
497.679	73783
497.753	125987
497.827	130989
497.902	97699
497.976	136277
498.050	443383
498.125	1320038
498.199	785752
498.273	119362
498.348	92543
498.422	81394
498.496	77930
498.570	67999
498.645	66376
498.719	68865
498.793	89935
498.867	154143
498.941	216837
499.016	667195
499.090	1283856
499.164	213691
499.238	48857
499.312	45194
499.386	52456
499.460	53382
499.534	53037
499.609	70475
499.683	113711
499.757	106264
499.831	342076
499.905	1047548
499.979	572266
500.053	149451
500.127	111683
500.201	58069
500.275	47121
500.349	45884
500.422	52537
500.496	75166
500.570	185413
500.644	625171
500.718	872780
500.792	98087
500.866	60663
500.940	84035
501.013	55540
501.087	55784
501.161	81410
501.235	153440
501.309	474648
501.382	1063824
501.456	518002
501.530	201216
501.603	327913
501.677	71718
501.751	43884
501.825	63500
501.898	179355
501.972	444632
502.046	143553
502.119	69018
502.193	213860
502.266	440527
502.340	136477
502.413	247307
502.487	383823
502.561	185546
502.634	41704
502.708	32290
502.781	28408
502.855	26981
502.928	26625
503.002	29231
503.075	31825
503.149	35007
503.222	35896
503.295	42621
503.369	53687
503.442	107796
503.516	423958
503.589	821189
503.662	361276
503.736	166050
503.809	402049
503.882	239395
503.956	429242
504.029	233200
504.102	135315
504.175	131206
504.249	55662
504.322	58290
504.395	43419
504.468	32142
504.542	32976
504.615	19848
504.688	20449
504.761	21443
504.834	27256
504.907	26747
504.980	32211
505.053	24831
505.127	25654
505.200	44239
505.273	62869
505.346	28363
505.419	23151
505.492	19720
505.565	17425
505.638	18444
505.711	18853
505.784	18865
505.857	18933
505.930	21240
506.003	20640
506.076	27915
506.149	48609
506.221	49212
506.294	51906
506.367	205534
506.440	522531
506.513	133395
506.586	53733
506.659	23280
506.731	21674
506.804	29785
506.877	34947
506.950	26312
507.022	23019
507.095	44800
507.168	37555
507.241	18182
507.313	13956
507.386	17541
507.459	21996
507.531	15510
507.604	14952
507.677	15429
507.749	11816
507.822	18907
507.894	30984
507.967	26414
508.040	17084
508.112	16902
508.185	17442
508.257	15984
508.330	22294
508.402	17951
508.475	22862
508.547	23281
508.620	33711
508.692	58344
508.765	19536
508.837	14338
508.909	14033
508.982	14737
509.054	16351
509.127	13311
509.199	14102
509.271	14108
509.344	13143
509.416	13146
509.488	14422
509.560	14521
509.633	14200
509.705	16145
509.777	17751
509.849	22983
509.922	15299
509.994	13376
510.066	14999
510.138	15842
510.210	24949
510.283	22819
510.355	18406
510.427	16564
510.499	15886
510.571	15760
510.643	18692
510.715	23833
510.787	17428
510.859	21162
510.931	27469
511.003	22781
511.076	21379
511.148	17217
511.219	25371
511.291	65450
511.363	52703
511.435	17450
511.507	16211
511.579	16230
511.651	16567
511.723	16822
511.795	15312
511.867	18669
511.939	41843
512.010	111230
512.082	43606
512.154	18603
512.226	18533
512.298	24270
512.369	25993
512.441	21941
512.513	21911
512.585	16336
512.656	21588
512.728	22447
512.800	15285
512.871	19242
512.943	19871
513.015	13966
513.086	15150
513.158	17132
513.230	19360
513.301	27746
513.373	23467
513.444	15959
513.516	14110
513.588	14181
513.659	16598
513.731	18373
513.802	18598
513.874	39339
513.945	47319
514.016	15949
514.088	16586
514.159	16468
514.231	22628
514.302	23901
514.374	22524
514.445	37855
514.516	109099
514.588	41898
514.659	42079
514.730	85366
514.802	31811
514.873	23767
514.944	25696
515.016	22140
515.087	26115
515.158	62705
515.229	64746
515.301	28656
515.372	35790
515.443	21798
515.514	17543
515.585	15084
515.656	14754
515.728	14586
515.799	14008
515.870	16214
515.941	17475
516.012	15468
516.083	21015
516.154	21009
516.225	25163
516.296	21240
516.367	18874
516.438	19483
516.509	23665
516.580	33476
516.651	101965
516.722	240536
516.793	69087
516.864	39744
516.935	40290
517.006	43455
517.077	54206
517.148	106027
517.219	287255
517.289	372504
517.360	444383
517.431	77515
517.502	27564
517.573	27137
517.643	28266
517.714	30487
517.785	27698
517.856	29938
517.926	31874
517.997	32363
518.068	34212
518.138	39471
518.209	62569
518.280	225506
518.350	504918
518.421	100170
518.492	38621
518.562	45885
518.633	50239
518.703	51832
518.774	102555
518.845	207945
518.915	133667
518.986	56339
519.056	51225
519.127	79961
519.197	177686
519.268	527638
519.338	168294
519.408	52575
519.479	40458
519.549	27068
519.620	24543
519.690	18484
519.760	20533
519.831	20689
519.901	18928
519.971	21774
520.042	29848
520.112	36116
520.182	26602
520.253	26804
520.323	24005
520.393	30199
520.463	34106
520.534	40919
520.604	59707
520.674	32663
520.744	43930
520.814	62310
520.885	65804
520.955	233936
521.025	588929
521.095	92051
521.165	35423
521.235	31739
521.305	22200
521.375	18851
521.445	20167
521.515	22504
521.585	26678
521.655	20781
521.725	23835
521.795	23351
521.865	23524
521.935	53364
522.005	31777
522.075	20263
522.145	26229
522.215	40362
522.285	59532
522.355	106780
522.424	196342
522.494	108125
522.564	37414
522.634	70412
522.704	107860
522.774	27517
522.843	21928
522.913	20351
522.983	21771
523.053	18505
523.122	20088
523.192	27723
523.262	79862
523.331	43294
523.401	19112
523.471	15922
523.540	15643
523.610	12382
523.680	15290
523.749	18480
523.819	36518
523.888	25380
523.958	16035
524.027	18668
524.097	19011
524.166	16313
524.236	16732
524.305	19426
524.375	15525
524.444	14484
524.514	20597
524.583	27030
524.653	35702
524.722	36537
524.791	17682
524.861	17897
524.930	15232
524.999	18485
525.069	27174
525.138	30897
525.207	36761
525.277	20118
525.346	21841
525.415	19723
525.484	22728
525.554	36675
525.623	26512
525.692	25833
525.761	25551
525.830	25484
525.900	32971
525.969	54781
526.038	70608
526.107	164496
526.176	345971
526.245	185707
526.314	100571
526.383	217656
526.452	218636
526.522	480870
526.591	283056
526.660	80234
526.729	47563
526.797	60291
526.867	146115
526.935	494159
527.004	842943
527.073	233781
527.142	42086
527.211	26166
527.280	26605
527.349	22413
527.418	17051
527.487	18153
527.555	14857
527.624	13868
527.693	13439
527.762	16106
527.831	12508
527.899	14506
527.968	13966
528.037	13292
528.106	19485
528.174	31377
528.243	33736
528.312	65408
528.380	42868
528.449	16733
528.518	14391
528.586	11073
528.655	11958
528.723	12322
528.792	13135
528.861	17800
528.929	12596
528.998	13485
529.066	11853
529.135	11666
529.203	11149
529.272	11664
529.340	12755
529.409	14764
529.477	15157
529.545	29047
529.614	25998
529.682	41590
529.751	34421
529.819	37600
529.887	16588
529.956	13272
530.024	14794
530.092	11190
530.161	17182
530.229	20218
530.297	11665
530.365	11575
530.434	11091
530.502	9593
530.570	11026
530.638	9109
530.707	11447
530.775	13660
530.843	12172
530.911	11420
530.979	10856
531.047	11553
531.115	12065
531.183	10814
531.252	13213
531.320	13481
531.388	11161
531.456	11838
531.524	9591
531.592	12403
531.660	13731
531.728	10979
531.796	10528
531.864	11674
531.932	12764
532.000	12395
532.067	12992
532.135	13229
532.203	15487
532.271	16579
532.339	29262
532.407	52366
532.475	22261
532.542	16798
532.610	17814
532.678	28645
532.746	121913
532.814	152973
532.881	28086
532.949	14518
533.017	15689
533.084	14003
533.152	12512
533.220	12665
533.287	13348
533.355	11344
533.423	12700
533.490	11392
533.558	13453
533.625	15712
533.693	16511
533.761	14452
533.828	16272
533.896	12978
533.963	24883
534.031	26253
534.098	31367
534.166	16853
534.233	13380
534.300	14890
534.368	16932
534.435	15656
534.503	14923
534.570	15912
534.637	15385
534.705	17183
534.772	21634
534.840	48209
534.907	196512
534.974	117663
535.041	28596
535.109	30391
535.176	12894
535.243	12456
535.310	15315
535.378	11470
535.445	11504
535.512	11984
535.579	12304
535.646	12215
535.714	13778
535.781	14136
535.848	14858
535.915	16421
535.982	14764
536.049	14459
536.116	16166
536.183	13221
536.250	14331
536.317	14925
536.384	16722
536.451	22190
536.518	19258
536.585	17130
536.652	26442
536.719	28077
536.786	18215
536.853	18889
536.920	36347
536.987	40410
537.053	36171
537.120	114118
537.187	46595
537.254	14425
537.321	14850
537.388	14494
537.454	13041
537.521	12466
537.588	11726
537.654	15934
537.721	15139
537.788	14032
537.855	10968
537.921	13420
537.988	12988
538.055	14607
538.121	14149
538.188	15592
538.254	24760
538.321	35468
538.388	18837
538.454	15440
538.521	12727
538.587	12220
538.654	12784
538.720	12999
538.787	13009
538.853	17010
538.920	24207
538.986	25243
539.053	16479
539.119	16796
539.185	14824
539.252	18563
539.318	22103
539.385	17570
539.451	13923
539.517	16098
539.583	21586
539.650	54829
539.716	66968
539.782	17076
539.849	13268
539.915	14485
539.981	14426
540.047	16502
540.114	15695
540.180	16303
540.246	15172
540.312	23095
540.378	40881
540.444	29189
540.510	45526
540.576	69512
540.643	18724
540.709	12563
540.775	14432
540.841	16669
540.907	34547
540.973	35196
541.039	23737
541.105	19931
541.171	14203
541.237	14457
541.303	15206
541.369	18068
541.435	22203
541.500	30241
541.566	15797
541.632	13252
541.698	12117
541.764	13935
541.830	13623
541.896	14780
541.961	14674
542.027	13140
542.093	14284
542.159	14120
542.224	16413
542.290	23792
542.356	34881
542.421	28301
542.487	17233
542.553	16631
542.618	20416
542.684	13781
542.750	14322
542.815	19164
542.881	42381
542.947	81054
543.012	28872
543.078	13506
543.143	13363
543.209	14669
543.274	14440
543.340	16620
543.405	36724
543.471	30468
543.536	14583
543.602	15629
543.667	14204
543.732	14745
543.798	14100
543.863	14425
543.928	10996
543.994	11775
544.059	12576
544.124	11975
544.190	11620
544.255	12847
544.320	12349
544.386	12307
544.451	18199
544.516	18936
544.581	23372
544.646	62458
544.712	48079
544.777	19306
544.842	23222
544.907	24049
544.972	18646
545.037	18378
545.102	21375
545.168	21177
545.233	21222
545.298	24404
545.363	27538
545.428	25976
545.493	45498
545.558	55856
545.623	24804
545.688	20458
545.753	19375
545.818	20696
545.883	20985
545.947	20332
546.012	28540
546.077	24400
546.142	21026
546.207	20561
546.272	24837
546.337	22193
546.401	21433
546.466	21105
546.531	21125
546.596	25594
546.661	22091
546.725	21500
546.790	22120
546.855	21841
546.919	21595
546.984	26307
547.049	30567
547.113	37641
547.178	29186
547.243	37165
547.307	39780
547.372	50698
547.436	49611
547.501	34282
547.565	36185
547.630	38874
547.695	43788
547.759	62466
547.823	38605
547.888	34257
547.952	33323
548.017	39890
548.081	54879
548.146	70240
548.210	44833
548.274	35947
548.339	33036
548.403	33166
548.468	30483
548.532	31933
548.596	33108
548.660	33087
548.725	39100
548.789	52203
548.853	46035
548.917	43333
548.982	70322
549.046	49350
549.110	31941
549.174	31420
549.238	33788
549.303	32112
549.367	35620
549.431	34234
549.495	31855
549.559	32044
549.623	37724
549.687	40973
549.751	46179
549.815	44748
549.879	42599
549.943	40960
550.007	46145
550.071	45663
550.135	46448
550.199	40052
550.263	41219
550.327	55246
550.391	67002
550.455	42842
550.519	43163
550.582	45561
550.646	55827
550.710	52054
550.774	49107
550.838	51595
550.901	54220
550.965	57689
551.029	61619
551.093	75211
551.156	111248
551.220	218559
551.284	148945
551.347	108126
551.411	249848
551.475	139441
551.538	53741
551.602	45926
551.666	43483
551.729	40861
551.793	42393
551.856	40516
551.920	40714
551.983	38712
552.047	38494
552.110	38872
552.174	40477
552.237	38285
552.301	36295
552.364	36167
552.428	35903
552.491	36082
552.554	36274
552.618	37211
552.681	38653
552.745	39745
552.808	45170
552.871	45441
552.934	39104
552.998	41843
553.061	42595
553.124	36407
553.187	36116
553.251	38950
553.314	38484
553.377	39100
553.440	51947
553.503	97925
553.567	79912
553.630	38748
553.693	38714
553.756	37127
553.819	35011
553.882	35172
553.945	34978
554.008	33683
554.071	33998
554.134	34020
554.197	31092
554.260	30901
554.323	35450
554.386	34924
554.449	36271
554.512	34162
554.575	33410
554.638	35346
554.701	32728
554.764	31461
554.827	32022
554.889	28978
554.952	28161
555.015	27522
555.078	29084
555.141	28106
555.203	28836
555.266	28973
555.329	28816
555.391	27405
555.454	29199
555.517	28119
555.580	26994
555.642	25740
555.705	25883
555.768	25827
555.830	25791
555.893	24041
555.955	23939
556.018	24648
556.080	25441
556.143	25018
556.206	26097
556.268	27689
556.330	26733
556.393	25559
556.455	33503
556.518	60766
556.580	37509
556.643	22946
556.705	23669
556.767	22750
556.830	23105
556.892	25646
556.955	29370
557.017	22812
557.079	22519
557.142	22330
557.204	26490
557.266	39269
557.328	25771
557.391	19870
557.453	20135
557.515	22702
557.577	26272
557.639	23389
557.701	22252
557.764	22653
557.826	25521
557.888	27328
557.950	26085
558.012	30952
558.074	46248
558.136	128264
558.198	170306
558.260	44724
558.322	33549
558.384	32976
558.446	36742
558.508	44447
558.570	52075
558.632	72605
558.694	93538
558.756	173411
558.818	602341
558.880	738518
558.942	177419
559.003	196603
559.065	58669
559.127	43012
559.189	42791
559.251	51403
559.312	94373
559.374	295508
559.436	569253
559.498	121050
559.559	44093
559.621	42779
559.683	60146
559.744	127135
559.806	385353
559.868	264645
559.929	52268
559.991	53952
560.052	106664
560.114	202619
560.176	85585
560.237	153419
560.299	129153
560.360	30555
560.422	24314
560.483	23458
560.545	23413
560.606	22125
560.667	21150
560.729	20434
560.790	20545
560.852	21028
560.913	19904
560.974	20381
561.036	20805
561.097	20391
561.158	20013
561.220	20178
561.281	19450
561.342	20562
561.403	23080
561.465	28332
561.526	52898
561.587	39722
561.648	19815
561.709	19521
561.771	20180
561.832	19394
561.893	19311
561.954	18194
562.015	19267
562.076	17978
562.137	19741
562.198	17895
562.259	18929
562.320	19489
562.381	20614
562.442	24788
562.503	20019
562.564	18802
562.625	17348
562.686	18400
562.747	18373
562.808	18911
562.869	23225
562.930	27893
562.991	25148
563.051	22296
563.112	20727
563.173	20864
563.234	19733
563.294	18871
563.355	19302
563.416	20054
563.477	20092
563.537	22073
563.598	23228
563.659	21261
563.720	19978
563.780	20674
563.841	20517
563.901	20695
563.962	21241
564.023	20944
564.083	20480
564.144	21910
564.204	22680
564.265	25277
564.325	41444
564.386	90316
564.446	42251
564.507	20749
564.567	19480
564.628	19149
564.688	19899
564.749	22664
564.809	34016
564.869	32714
564.930	19631
564.990	19154
565.050	16992
565.111	19005
565.171	18151
565.231	18596
565.292	18722
565.352	18334
565.412	20422
565.472	21762
565.532	19625
565.593	19378
565.653	19233
565.713	20425
565.773	20549
565.833	23092
565.893	24899
565.953	19731
566.013	21691
566.074	25783
566.134	44234
566.194	73618
566.254	50604
566.314	31781
566.374	22949
566.434	23871
566.494	23834
566.554	22853
566.614	22808
566.673	23794
566.733	26737
566.793	27381
566.853	27784
566.913	28123
566.973	29224
567.033	28649
567.092	27806
567.152	27438
567.212	30497
567.272	32193
567.331	34158
567.391	34797
567.451	41224
567.511	60644
567.570	44232
567.630	29690
567.690	28546
567.749	30954
567.809	30722
567.868	35477
567.928	39684
567.988	47845
568.047	48179
568.107	58872
568.166	79983
568.226	119911
568.285	141534
568.345	118602
568.404	99282
568.464	86433
568.523	81307
568.582	84138
568.642	94603
568.701	122081
568.761	182356
568.820	251003
568.879	227852
568.939	182089
568.998	127113
569.057	98379
569.116	79745
569.176	65866
569.235	56655
569.294	51330
569.353	44641
569.413	41475
569.472	39101
569.531	34715
569.590	33299
569.649	30484
569.708	29016
569.767	28886
569.827	29028
569.886	26117
569.945	25703
570.004	23483
570.063	24103
570.122	25981
570.181	27880
570.240	33902
570.299	27901
570.358	23314
570.417	21249
570.475	20300
570.534	20445
570.593	20830
570.652	22016
570.711	20655
570.770	24994
570.829	24911
570.887	21353
570.946	20910
571.005	18974
571.064	18708
571.122	23409
571.181	27316
571.240	20012
571.299	18950
571.357	24453
571.416	25727
571.475	33942
571.533	27042
571.592	22833
571.650	23701
571.709	18276
571.768	18316
571.826	18402
571.885	19220
571.943	17085
572.002	20799
572.060	19419
572.119	15552
572.177	16797
572.236	15203
572.294	15236
572.352	15722
572.411	15796
572.469	15973
572.528	15455
572.586	16024
572.644	17674
572.703	19160
572.761	17169
572.819	16522
572.877	15907
572.936	15528
572.994	15107
573.052	15628
573.110	15314
573.169	15141
573.227	15210
573.285	14706
573.343	15908
573.401	15794
573.459	15351
573.517	15289
573.576	14777
573.634	15842
573.692	15880
573.750	16556
573.808	17240
573.866	22487
573.924	32200
573.982	24342
574.040	17640
574.098	17093
574.155	14438
574.213	14880
574.271	15700
574.329	15516
574.387	13849
574.445	14199
574.503	13777
574.560	12459
574.618	12806
574.676	12273
574.734	13386
574.792	13500
574.849	13102
574.907	12170
574.965	13218
575.022	13388
575.080	12401
575.138	13596
575.195	13869
575.253	15667
575.311	13274
575.368	13508
575.426	13107
575.483	13337
575.541	13698
575.598	14405
575.656	16792
575.713	14534
575.771	14040
575.828	14205
575.886	14544
575.943	15753
576.001	15722
576.058	15807
576.115	20684
576.173	25057
576.230	24249
576.287	20955
576.345	17826
576.402	17201
576.459	18610
576.517	20705
576.574	23191
576.631	23138
576.688	17341
576.746	15942
576.803	16569
576.860	16425
576.917	17542
576.974	15873
577.031	16496
577.089	16464
577.146	17535
577.203	18222
577.260	20510
577.317	23892
577.374	26558
577.431	20758
577.488	16747
577.545	15536
577.602	16350
577.659	15283
577.716	15548
577.773	16236
577.830	14473
577.886	15669
577.943	14505
578.000	16552
578.057	19006
578.114	16531
578.171	17225
578.227	18565
578.284	17644
578.341	17605
578.398	19535
578.454	21205
578.511	25997
578.568	27980
578.625	19865
578.681	16369
578.738	15940
578.794	15991
578.851	15953
578.908	16173
578.964	14707
579.021	15833
579.077	15595
579.134	15344
579.190	14230
579.247	14844
579.303	14870
579.360	13555
579.416	13884
579.473	13374
579.529	13490
579.586	14459
579.642	15891
579.698	16242
579.755	16477
579.811	14722
579.867	14613
579.924	15535
579.980	15829
580.036	17785
580.093	18811
580.149	21942
580.205	22267
580.261	19887
580.317	21845
580.374	24064
580.430	28002
580.486	22570
580.542	19741
580.598	17618
580.619	17628
580.654	17670
580.692	17281
580.710	17125
580.765	17239
580.767	17264
580.823	17090
580.838	16651
580.879	15553
580.911	15353
580.935	15240
580.984	14665
580.991	14610
581.047	16348
581.057	16473
581.103	17154
581.130	17797
581.159	18458
581.203	19194
581.215	19440
581.270	19429
581.276	19222
581.326	17371
581.349	17316
581.382	17274
581.422	16879
581.438	16730
581.494	17404
581.494	17378
581.550	16418
581.567	16429
581.606	16412
581.640	16924
581.661	17277
581.713	16454
581.717	16405
581.773	16419
581.786	16335
581.829	16146
581.859	16229
581.885	16305
581.932	16494
581.940	16543
581.996	17827
582.004	17599
582.052	16384
582.077	16183
582.107	15999
582.150	17293
582.163	17673
582.219	17470
582.223	17441
582.274	17373
582.296	18170
582.330	19313
582.368	17949
582.386	17454
582.441	15265
582.441	15267
582.497	15996
582.514	16131
582.552	16676
582.587	16830
582.608	16831
582.659	16025
582.663	15980
582.719	16458
582.732	16486
582.774	16491
582.805	16665
582.830	16910
582.877	17050
582.885	17057
582.941	16882
582.950	16877
582.996	16901
583.023	17309
583.052	17846
583.095	18474
583.107	18672
583.162	20422
583.168	20454
583.218	20318
583.240	19363
583.273	18032
583.313	17704
583.328	17581
583.384	17531
583.385	17503
583.439	16913
583.458	16884
583.494	16555
583.531	15924
583.549	15805
583.603	16354
583.605	16355
583.660	17283
583.676	17349
583.715	17680
583.748	18063
583.770	18277
583.820	17778
583.825	17732
583.881	17426
583.893	17274
583.936	16716
583.965	17052
583.991	17286
584.038	17189
584.046	17185
584.101	17473
584.110	17438
584.156	17363
584.183	17311
584.211	17033
584.255	16791
584.266	16765
584.321	15813
584.328	15919
584.376	16687
584.400	16740
584.431	16975
584.472	17357
584.486	17337
584.541	16838
584.545	16809
584.596	16470
584.617	16991
584.651	18200
584.689	18999
584.706	19140
584.761	19431
584.762	19433
584.816	18614
584.834	18673
584.871	18985
584.906	19916
584.926	20277
584.978	20176
584.980	20176
585.035	21126
585.051	21283
585.090	21763
585.123	22673
585.145	22984
585.195	23775
585.200	23897
585.254	25010
585.267	25863
585.309	28426
585.340	29475
585.364	29943
585.412	30016
585.419	30080
585.473	33119
585.484	34717
585.528	41540
585.556	49879
585.583	59085
585.628	87360
585.637	93782
585.692	177422
585.700	181911
585.747	197974
585.772	145979
585.801	78915
585.845	42926
585.856	36367
585.910	29737
585.917	29142
585.965	26588
585.989	25936
586.019	25578
586.061	26000
586.074	25878
586.128	25792
586.133	25860
586.183	27424
586.205	27932
586.237	28391
586.277	28447
586.292	28377
586.346	28537
586.349	28609
586.401	28892
586.421	29754
586.455	32139
586.493	36944
586.509	39810
586.564	54539
586.565	55200
586.618	83599
586.637	76541
586.672	52149
586.709	39215
586.727	35030
586.781	32194
586.781	32158
586.835	31012
586.853	30981
586.889	30884
586.925	30531
586.944	30424
586.996	31863
586.998	31870
587.052	32986
587.068	33314
587.106	34299
587.140	34989
587.161	35281
587.212	36716
587.215	36741
587.269	37711
587.284	38157
587.323	39053
587.356	39521
587.377	40155
587.427	42135
587.431	42181
587.485	44060
587.499	44483
587.539	46066
587.571	47998
587.593	49465
587.643	52779
587.648	52963
587.702	55511
587.715	56549
587.755	60265
587.786	62409
587.810	63669
587.858	67181
587.864	67646
587.917	75296
587.930	77040
587.971	83045
588.001	87818
588.025	91144
588.073	98140
588.079	98980
588.133	108278
588.145	111233
588.187	123189
588.217	131867
588.241	139523
588.288	156617
588.295	158831
588.348	182312
588.360	187784
588.402	210876
588.431	230063
588.456	247308
588.503	284889
588.510	290685
588.564	346751
588.575	361589
588.617	429467
588.646	484222
588.671	546206
588.718	687533
588.725	717038
588.778	977962
588.789	1036306
588.832	1336004
588.861	1529618
588.886	1646359
588.932	1712651
588.939	1690573
588.993	1575198
589.004	1579090
589.047	1646720
589.075	1574894
589.100	1374955
589.147	994846
589.154	958575
589.207	732502
589.218	694573
589.261	638153
589.290	615612
589.314	633720
589.361	695444
589.368	718116
589.421	946940
589.433	1002033
589.475	1305517
589.504	1484680
589.528	1534464
589.576	1554800
589.582	1534003
589.635	1422598
589.647	1367206
589.689	999014
589.718	752987
589.742	628133
589.790	415705
589.795	403167
589.849	308144
589.861	289346
589.902	252284
589.932	222049
589.955	200523
590.004	162301
590.009	159545
590.062	136204
590.075	130871
590.115	118417
590.146	110148
590.168	105223
590.218	95352
590.222	94577
590.275	86660
590.289	84856
590.328	80497
590.360	77100
590.381	74319
590.431	68137
590.435	67756
590.488	63715
590.503	62749
590.541	60221
590.574	58221
590.594	56909
590.645	53784
590.647	53565
590.700	50135
590.716	49120
590.753	47352
590.787	46128
590.806	45283
590.859	43286
590.859	43194
590.912	42043
590.930	41685
590.965	40461
591.001	39547
591.018	39182
591.071	38154
591.072	38207
591.124	36754
591.143	36320
591.177	35792
591.214	35421
591.230	35210
591.283	34866
591.285	34910
591.336	34789
591.356	34738
591.389	34017
591.427	33421
591.442	32952
591.495	31302
591.498	31245
591.547	30051
591.569	29612
591.600	29396
591.640	29261
591.653	29251
591.706	29494
591.711	29583
591.759	30730
591.782	31627
591.811	32253
591.853	32777
591.864	32290
591.917	29969
591.924	29744
591.969	27966
591.995	27084
592.022	27725
592.066	28878
592.075	29048
592.127	30647
592.137	31092
592.180	34073
592.208	35604
592.233	32301
592.279	26463
592.285	26350
592.338	26127
592.350	26133
592.390	25211
592.421	24603
592.443	24525
592.491	24554
592.495	24418
592.548	23355
592.562	23130
592.600	23573
592.633	24066
592.653	23515
592.704	22121
592.705	22259
592.775	23004
592.846	23139
592.916	23227
592.987	22577
593.058	23263
593.128	22019
593.199	22350
593.270	20961
593.341	21257
593.411	20704
593.482	21419
593.553	21074
593.623	21871
593.694	22311
593.764	23053
593.835	21308
593.906	20683
593.976	20580
594.047	22819
594.117	25944
594.188	27465
594.258	19985
594.329	20725
594.399	19430
594.470	19770
594.540	19692
594.611	19698
594.681	19917
594.751	20469
594.822	22237
594.892	21886
594.963	22591
595.033	23084
595.103	21638
595.174	25389
595.244	34325
595.314	42985
595.384	23370
595.455	22364
595.525	23146
595.595	22755
595.665	23804
595.736	22545
595.806	22981
595.876	21689
595.946	22300
596.016	22651
596.087	23060
596.157	23830
596.227	22936
596.297	23991
596.367	25122
596.437	29289
596.507	35577
596.577	42643
596.647	27051
596.717	25070
596.787	25202
596.857	25453
596.927	25370
596.997	25115
597.067	25864
597.137	27293
597.207	25803
597.277	26793
597.347	25603
597.417	24731
597.487	25450
597.557	25810
597.626	26096
597.696	28904
597.766	32560
597.836	41517
597.906	28557
597.975	23535
598.045	23429
598.115	24741
598.185	24379
598.254	28043
598.324	27282
598.394	27710
598.464	27343
598.533	27077
598.603	24918
598.672	25503
598.742	25983
598.812	26553
598.881	26913
598.951	25862
599.020	26018
599.090	26543
599.159	27476
599.229	26272
599.299	25199
599.368	26427
599.437	25348
599.507	25155
599.576	25495
599.646	25696
599.715	23867
599.785	23878
599.854	25264
599.924	27913
599.993	26495
600.062	24639
600.132	23649
600.201	25204
600.270	27047
600.340	29305
600.409	26933
600.478	26867
600.547	28922
600.617	26256
600.686	23183
600.755	23640
600.824	21847
600.894	22511
600.963	21913
601.032	21930
601.101	21109
601.170	20446
601.239	20303
601.308	22279
601.378	20245
601.447	20540
601.516	20020
601.585	22137
601.654	20979
601.723	21565
601.792	21565
601.861	22038
601.930	22488
601.999	22704
602.068	21530
602.137	21321
602.206	21487
602.275	22740
602.343	23206
602.412	23196
602.481	21050
602.550	22225
602.619	22259
602.688	22843
602.756	22994
602.825	22688
602.894	23488
602.963	23009
603.032	24276
603.100	23866
603.169	22930
603.238	23611
603.307	23443
603.375	23917
603.444	23968
603.513	24207
603.581	24237
603.650	24831
603.719	22940
603.787	23546
603.856	24038
603.924	24129
603.993	24205
604.061	25705
604.130	25340
604.198	25867
604.267	26862
604.335	25947
604.404	27074
604.472	27707
604.541	26699
604.609	28274
604.678	26586
604.746	27763
604.815	27784
604.883	28431
604.951	28578
605.020	28616
605.088	28251
605.156	29933
605.225	29420
605.293	28631
605.361	28716
605.429	29371
605.498	30034
605.566	30593
605.634	32300
605.702	32408
605.771	33216
605.839	33951
605.907	32804
605.975	31781
606.043	31007
606.111	32202
606.180	31760
606.248	31690
606.316	31999
606.384	31511
606.452	34598
606.520	32662
606.588	30169
606.656	30591
606.724	29879
606.792	29060
606.860	26434
606.928	24721
606.996	23560
607.064	24129
607.132	24102
607.200	26264
607.267	26104
607.335	25837
607.403	27531
607.471	25905
607.539	25105
607.607	25288
607.674	21126
607.742	23543
607.810	22788
607.878	22805
607.946	23091
608.013	24835
608.081	23989
608.149	24427
608.216	24694
608.284	25259
608.352	26332
608.419	26386
608.487	34241
608.555	27221
608.622	24870
608.690	26850
608.757	28000
608.825	28903
608.893	27798
608.960	28123
609.028	30509
609.095	37585
609.163	27714
609.230	24732
609.298	23527
609.365	22827
609.432	23929
609.500	25667
609.567	28559
609.635	33514
609.702	33210
609.769	33728
609.837	30294
609.904	25136
609.971	22763
610.039	27363
610.106	33445
610.173	56819
610.241	117864
610.308	71939
610.375	32505
610.442	25123
610.509	22941
610.577	23467
610.644	24130
610.711	24407
610.778	25425
610.845	25859
610.912	27592
610.980	29776
611.047	30751
611.114	29751
611.181	26202
611.248	26471
611.315	29065
611.382	28818
611.449	29476
611.516	31207
611.583	29870
611.650	30360
611.717	31340
611.784	32512
611.851	32653
611.918	35325
611.984	40017
612.051	58424
612.118	114344
612.185	264252
612.252	159091
612.319	47399
612.386	38664
612.452	35837
612.519	37387
612.586	44975
612.653	38001
612.719	34892
612.786	32505
612.853	29622
612.919	30328
612.986	31534
613.053	28481
613.120	27058
613.186	26028
613.253	28708
613.319	27118
613.386	28431
613.453	26554
613.519	28197
613.586	28022
613.652	31461
613.719	29154
613.785	29313
613.852	28887
613.918	27712
613.985	29933
614.051	33777
614.118	46267
614.184	43261
614.250	27503
614.317	27715
614.383	27631
614.449	29061
614.516	27896
614.582	29510
614.648	27381
614.715	28143
614.781	27559
614.847	29079
614.914	28853
614.980	27749
615.046	28012
615.112	28859
615.179	27824
615.245	30561
615.311	35719
615.377	50250
615.443	50659
615.509	35440
615.575	33372
615.642	31256
615.708	32305
615.774	35166
615.840	38683
615.906	47600
615.972	64838
616.038	115981
616.104	184369
616.170	357725
616.236	278136
616.302	71824
616.368	50191
616.434	39676
616.500	38236
616.565	38932
616.631	43848
616.697	38809
616.763	40803
616.829	53538
616.895	81815
616.961	77453
617.026	41773
617.092	33013
617.158	32114
617.224	30846
617.289	28830
617.355	28629
617.421	29207
617.487	29696
617.552	27444
617.618	27137
617.684	26528
617.749	29065
617.815	25879
617.880	25716
617.946	24855
618.012	25473
618.077	24951
618.143	25457
618.208	26078
618.274	28152
618.339	27531
618.405	24248
618.470	24854
618.536	26782
618.601	27742
618.667	24831
618.732	23494
618.798	23103
618.863	22482
618.928	23178
618.994	23670
619.059	25426
619.124	26219
619.190	25111
619.255	22683
619.320	24074
619.386	23231
619.451	22202
619.516	21818
619.581	23060
619.647	24216
619.712	23435
619.777	23047
619.842	22900
619.907	22463
619.972	23505
620.038	22525
620.103	23619
620.168	21859
620.233	23817
620.298	22658
620.363	23572
620.428	22816
620.493	24106
620.558	23358
620.623	23415
620.688	23366
620.753	23261
620.818	22815
620.883	24701
620.948	23855
621.013	23727
621.078	22863
621.143	24391
621.207	26828
621.272	25108
621.337	25815
621.402	27530
621.467	34042
621.532	35100
621.596	28245
621.661	26418
621.726	25296
621.791	25657
621.855	26878
621.920	26850
621.985	27809
622.049	33077
622.114	30117
622.179	28771
622.243	28643
622.308	28999
622.373	30993
622.437	28474
622.502	27193
622.566	27408
622.631	26362
622.695	30071
622.760	28463
622.824	28272
622.889	27221
622.953	27825
623.018	31464
623.082	30324
623.147	27299
623.211	25844
623.276	26753
623.340	26104
623.404	26145
623.469	26121
623.533	25816
623.597	24592
623.662	25189
623.726	24050
623.790	23197
623.854	23355
623.919	22847
623.983	23387
624.047	23219
624.111	23652
624.176	23790
624.240	23208
624.304	25937
624.368	23364
624.432	23649
624.496	24661
624.560	24683
624.625	24632
624.689	24492
624.753	25287
624.817	24592
624.881	23322
624.945	23325
625.009	22255
625.073	22421
625.137	22780
625.201	23708
625.265	24346
625.329	21994
625.393	23148
625.456	23305
625.520	25833
625.584	26936
625.648	32457
625.712	48574
625.776	103986
625.839	113394
625.903	44088
625.967	26860
626.031	45387
626.095	65098
626.158	27446
626.222	19021
626.286	19090
626.349	17913
626.413	17003
626.477	19142
626.540	17327
626.604	17240
626.668	17219
626.731	16151
626.795	18642
626.858	17802
626.922	16819
626.986	17349
627.049	15552
627.113	17106
627.176	17150
627.240	15612
627.303	15960
627.366	15747
627.430	16153
627.493	16547
627.557	16078
627.620	17449
627.684	16700
627.747	16428
627.810	14392
627.874	15261
627.937	13516
628.000	17054
628.064	15617
628.127	12731
628.190	15118
628.253	14440
628.317	12758
628.380	13460
628.443	12518
628.506	12310
628.569	13421
628.632	11839
628.696	12402
628.759	12316
628.822	12151
628.885	11232
628.948	12133
629.011	11971
629.074	12107
629.137	10581
629.200	10981
629.263	12450
629.326	10012
629.389	10435
629.452	12364
629.515	11524
629.578	11918
629.641	11918
629.704	10817
629.767	10147
629.830	10778
629.892	10623
629.955	9699
630.018	12528
630.081	10394
630.144	11152
630.207	10846
630.269	12849
630.332	13111
630.395	11227
630.458	10275
630.520	9257
630.583	10658
630.646	10226
630.708	10011
630.771	9159
630.834	10696
630.896	9407
630.959	10587
631.021	9099
631.084	10693
631.146	11032
631.209	12956
631.272	9815
631.334	10126
631.397	9129
631.459	9017
631.522	9752
631.584	9214
631.646	10384
631.709	9891
631.771	11102
631.834	10336
631.896	9295
631.958	8611
632.021	9508
632.083	8004
632.145	8974
632.208	8860
632.270	9319
632.332	8174
632.395	7734
632.457	10546
632.519	8124
632.581	10403
632.643	8101
632.706	9214
632.768	7682
632.830	9360
632.892	8319
632.954	8541
633.016	9566
633.078	8007
633.141	7379
633.203	8142
633.265	8453
633.327	8829
633.389	7709
633.451	10227
633.513	8366
633.575	11072
633.637	8024
633.698	8074
633.760	8715
633.822	8845
633.884	8683
633.946	8099
634.008	7386
634.070	9204
634.132	8958
634.193	8281
634.255	8744
634.317	9183
634.379	9751
634.441	8170
634.502	7401
634.564	8784
634.626	6763
634.687	7870
634.749	7136
634.811	8474
634.873	6166
634.934	7621
634.996	7908
635.057	7610
635.119	6426
635.181	8193
635.242	8266
635.304	5436
635.365	8840
635.427	6291
635.488	7268
635.550	7037
635.611	7713
635.673	6245
635.734	8953
635.796	7638
635.857	9143
635.918	7873
635.980	8942
636.041	7643
636.102	8975
636.164	9029
636.225	10189
636.286	6877
636.348	7851
636.409	8056
636.470	6870
636.531	8541
636.593	8377
636.654	9478
636.715	6974
636.776	7003
636.838	6131
636.899	7651
636.960	6787
637.021	6481
637.082	6949
637.143	7985
637.204	5535
637.265	6270
637.326	6969
637.387	6360
637.448	4431
637.509	7351
637.570	6109
637.631	6448
637.692	5091
637.753	5427
637.814	6114
637.875	6480
637.936	6290
637.997	5480
638.058	6118
638.119	7394
638.179	6998
638.240	5477
638.301	5447
638.362	5566
638.423	6235
638.483	7488
638.544	4421
638.605	7195
638.666	5105
638.726	6543
638.787	6772
638.848	6034
638.908	5702
638.969	7017
639.030	6027
639.090	4796
639.151	4647
639.211	6803
639.272	6206
639.332	8116
639.393	6841
639.453	5258
639.514	6177
639.574	6197
639.635	4822
639.695	5702
639.756	4811
639.816	5493
639.877	5576
639.937	8094
639.997	8026
640.058	5476
640.118	4908
640.178	6445
640.239	4598
640.299	5153
640.359	5224
640.420	5920
640.480	5241
640.540	5792
640.600	4923
640.661	5695
640.721	4721
640.781	7516
640.841	4180
640.901	5884
640.961	6327
641.021	5891
641.082	5287
641.142	6305
641.202	6067
641.262	4267
641.322	6076
641.382	4792
641.442	5451
641.502	4853
641.562	5867
641.622	5011
641.682	4478
641.742	6256
641.802	4539
641.861	6092
641.921	5508
641.981	6736
642.041	5798
642.101	5711
642.161	3718
642.221	4931
642.280	4598
642.340	5137
642.400	4168
642.460	6614
642.519	4281
642.579	4934
642.639	5402
642.698	2881
642.758	6137
642.818	4951
642.877	3226
642.937	5494
642.997	5680
643.056	6857
643.116	3245
643.175	6228
643.235	4449
643.294	5323
643.354	5079
643.414	6553
643.473	7209
643.532	7241
643.592	8378
643.651	13369
643.711	23962
643.770	46576
643.830	106025
643.889	214604
643.948	48519
644.008	10788
644.067	6056
644.126	5215
644.186	5372
644.245	5481
644.304	3632
644.363	6795
644.423	3094
644.482	5568
644.541	4951
644.600	3496
644.659	5864
644.719	6006
644.778	7391
644.837	11184
644.896	20754
644.955	42954
645.014	16368
645.073	7134
645.132	4545
645.191	4960
645.250	4620
645.309	6529
645.368	5497
645.427	6300
645.486	6519
645.545	10309
645.604	5136
645.663	5665
645.722	4018
645.781	4714
645.840	4847
645.898	5230
645.957	8213
646.016	10621
646.075	21282
646.134	38706
646.192	99697
646.251	138885
646.310	19993
646.369	7112
646.427	5930
646.486	4406
646.545	5019
646.603	4618
646.662	4420
646.721	4526
646.779	2501
646.838	3798
646.896	4665
646.955	5380
647.014	8108
647.072	11560
647.131	26789
647.189	13934
647.248	3590
647.306	4490
647.365	3719
647.423	2169
647.481	4261
647.540	2999
647.598	3644
647.657	3219
647.715	3098
647.773	2931
647.832	4440
647.890	3082
647.948	2263
648.007	4383
648.065	3074
648.123	2518
648.181	5098
648.240	4667
648.298	3111
648.356	3569
648.414	4172
648.472	3324
648.531	3859
648.589	3531
648.647	2880
648.705	2853
648.763	3074
648.821	4470
648.879	2598
648.937	3854
648.995	4846
649.053	4383
649.111	5708
649.169	10010
649.227	15141
649.285	29271
649.343	77233
649.401	36945
649.459	9670
649.516	8177
649.574	5252
649.632	12443
649.690	12650
649.748	7371
649.806	6853
649.863	11247
649.921	20143
649.979	12326
650.037	3474
650.094	2120
650.152	2896
650.210	2644
650.268	3797
650.325	4007
650.383	3179
650.440	2096
650.498	3155
650.556	3809
650.613	1986
650.671	2836
650.728	3156
650.786	3598
650.843	2908
650.901	1161
650.958	2586
651.016	1921
651.073	2649
651.131	2089
651.188	1097
651.246	2897
651.303	1214
651.360	3327
651.418	2221
651.475	2998
651.532	1250
651.590	3301
651.647	1570
651.704	1987
651.762	2283
651.819	2476
651.876	1229
651.933	2821
651.990	2932
652.048	1422
652.105	2155
652.162	2953
652.219	1425
652.276	2873
652.333	2849
652.390	2337
652.448	2063
652.505	1892
652.562	1378
652.619	2740
652.676	3417
652.733	3830
652.790	1790
652.847	1342
652.904	2117
652.961	949
653.017	623
653.074	2618
653.131	1521
653.188	1420
653.245	957
653.302	2019
653.359	1949
653.415	2411
653.472	950
653.529	2288
653.586	1143
653.642	2346
653.699	1991
653.756	1541
653.813	1496
653.869	2367
653.926	972
653.983	1720
654.039	1621
654.096	1609
654.152	2330
654.209	1539
654.266	2152
654.322	1617
654.379	2853
654.435	3067
654.492	2092
654.548	4162
654.605	6352
654.661	4472
654.717	1930
654.774	2899
654.830	2813
654.887	2752
654.943	2602
655.000	2976
655.056	1651
655.112	3162
655.168	2038
655.225	2148
655.281	3079
655.337	5039
655.394	8391
655.450	5806
655.506	4970
655.562	10027
655.618	7343
655.675	1895
655.731	2258
655.787	2377
655.843	2468
655.899	1296
655.955	2575
656.011	2483
656.067	1180
656.123	2664
656.179	2628
656.235	3855
656.291	906
656.347	3750
656.403	2233
656.459	2337
656.515	3960
656.571	3709
656.627	2354
656.683	2177
656.739	2868
656.795	2508
656.850	2026
656.906	2623
656.962	2674
657.018	1628
657.074	2192
657.129	2416
657.185	3053
657.241	4375
657.297	2235
657.352	3237
657.408	1310
657.464	3247
657.519	1863
657.575	1904
657.630	1799
657.686	2285
657.742	1755
657.797	1710
657.853	1708
657.908	2399
657.964	828
658.019	2158
658.075	2098
658.130	2593
658.186	1623
658.241	3356
658.297	1966
658.352	1642
658.407	1556
658.463	1903
658.518	2078
658.573	2370
658.629	952
658.684	1910
658.739	2059
658.795	1126
658.850	1671
658.905	1428
658.960	2048
659.016	1477
659.071	1650
659.126	2874
659.181	2083
659.236	3794
659.291	2980
659.346	2147
659.401	2050
659.457	3118
659.512	2208
659.567	3547
659.622	2287
659.677	2587
659.732	401
659.787	2858
659.842	2624
659.897	4426
659.952	2124
660.007	2698
660.061	1500
660.116	2063
660.171	1873
660.226	1550
660.281	3827
660.336	1644
660.391	2593
660.445	1776
660.500	1971
660.555	2372
660.610	1531
660.664	2726
660.719	1170
660.774	1945
660.828	1542
660.883	1513
660.938	1851
660.992	1163
661.047	2098
661.101	1125
661.156	1859
661.211	1390
661.265	1997
661.320	1995
661.374	1678
661.429	2130
661.483	2739
661.538	1757
661.592	2092
661.647	1779
661.701	2526
661.755	2369
661.810	1570
661.864	2691
661.919	2159
661.973	2558
662.027	2257
662.081	2007
662.136	1301
662.190	2773
662.244	2570
662.299	2570
662.353	1887
662.407	1386
662.461	1393
662.515	2140
662.569	1821
662.624	2467
662.678	2251
662.732	1999
662.786	1637
662.840	1584
662.894	2290
662.948	2581
663.002	1152
663.056	2239
663.110	1159
663.164	1672
663.218	907
663.272	1622
663.326	1186
663.380	2926
663.434	2404
663.488	2269
663.542	2225
663.595	2186
663.649	1474
663.703	2499
663.757	1718
663.811	1660
663.864	1516
663.918	1842
663.972	1775
664.026	1529
664.079	1776
664.133	2540
664.187	1999
664.240	2419
664.294	1451
664.348	3114
664.401	1943
664.455	2019
664.508	1801
664.562	2431
664.615	2427
664.669	1141
664.722	2096
664.776	1942
664.829	1580
664.883	2778
664.936	2371
664.990	2488
665.043	2506
665.097	3140
665.150	3712
665.203	3449
665.257	2029
665.310	1661
665.363	2713
665.417	3003
665.470	1564
665.523	3383
665.576	1883
665.630	2902
665.683	2624
665.736	2632
665.789	1833
665.842	2492
665.895	3006
665.949	2693
666.002	2164
666.055	2648
666.108	4254
666.161	2426
666.214	3173
666.267	2851
666.320	1973
666.373	2499
666.426	2858
666.479	2411
666.532	2625
666.585	3646
666.638	4266
666.691	3728
666.744	4077
666.796	4434
666.849	2990
666.902	2697
666.955	2234
667.008	2128
667.060	1549
667.113	1852
667.166	2565
667.219	1952
667.271	2322
667.324	2494
667.377	2482
667.430	2225
667.482	2668
667.535	2494
667.587	2746
667.640	2540
667.693	2965
667.745	3588
667.798	3912
667.850	3091
667.903	1686
667.955	2858
668.008	2315
668.060	4016
668.113	2673
668.165	3454
668.218	2791
668.270	4248
668.322	2504
668.375	2821
668.427	2535
668.479	2857
668.532	2955
668.584	3665
668.636	2709
668.689	3312
668.741	2142
668.793	3224
668.845	3322
668.898	3674
668.950	3039
669.002	3058
669.054	2429
669.106	3058
669.158	3357
669.211	3730
669.263	2592
669.315	3681
669.367	3268
669.419	3211
669.471	4191
669.523	4170
669.575	4570
669.627	3735
669.679	3075
669.731	2776
669.783	3173
669.835	4043
669.886	2820
669.938	3315
669.990	2935
670.042	2076
670.094	2876
670.146	2898
670.197	2396
670.249	3843
670.301	3454
670.353	3987
670.404	4369
670.456	5474
670.508	6917
670.560	11323
670.611	19459
670.663	34222
670.715	82848
670.766	130500
670.818	33622
670.869	7368
670.921	4915
670.972	4786
671.024	3205
671.075	3000
671.127	4181
671.178	2966
671.230	2124
671.281	3691
671.333	3065
671.384	3227
671.436	4061
671.487	4769
671.538	4481
671.590	5862
671.641	7317
671.692	9834
671.744	16824
671.795	13153
671.846	5980
671.897	4701
671.949	4145
672.000	3072
672.051	3352
672.102	5346
672.153	3224
672.204	3461
672.256	4244
672.307	4211
672.358	4257
672.409	3038
672.460	2922
672.511	3127
672.562	3169
672.613	3790
672.664	2719
672.715	3647
672.766	2901
672.817	3353
672.868	2939
672.919	3974
672.970	3605
673.021	3183
673.071	2857
673.122	2982
673.173	3026
673.224	3735
673.275	2975
673.326	3531
673.376	3323
673.427	2973
673.478	3029
673.528	4206
673.579	2518
673.630	2836
673.680	2994
673.731	2792
673.782	2553
673.832	3084
673.883	3060
673.934	3824
673.984	2933
674.035	3277
674.085	3377
674.136	4470
674.186	4400
674.237	5003
674.287	7648
674.338	4874
674.388	2864
674.438	3257
674.489	3111
674.539	3730
674.589	2961
674.640	3585
674.690	3152
674.740	3647
674.791	4051
674.841	4116
674.891	2534
674.942	2932
674.992	2559
675.042	2253
675.092	2570
675.142	2585
675.193	2652
675.243	2559
675.293	3116
675.343	2928
675.393	3159
675.443	3284
675.493	2562
675.543	3063
675.593	3098
675.643	2552
675.693	3167
675.743	3450
675.793	2553
675.843	2920
675.893	3095
675.943	3228
675.993	2872
676.043	3447
676.093	2598
676.142	2969
676.192	3387
676.242	3248
676.292	2758
676.341	3757
676.391	2562
676.441	2624
676.491	1839
676.540	2882
676.590	3483
676.640	2812
676.689	2893
676.739	2740
676.789	2133
676.838	2716
676.888	2766
676.937	2407
676.987	3016
677.037	2965
677.086	1375
677.136	2770
677.185	1773
677.235	1469
677.284	2415
677.333	2568
677.383	2274
677.432	1578
677.482	2375
677.531	2998
677.580	1899
677.630	2442
677.679	1102
677.728	2677
677.778	3032
677.827	3101
677.876	1952
677.925	1879
677.975	1877
678.024	2510
678.073	1853
678.122	2643
678.171	2881
678.220	2662
678.269	2895
678.319	3556
678.368	3224
678.417	2885
678.466	3150
678.515	4151
678.564	3120
678.613	3568
678.662	1954
678.711	2511
678.760	3009
678.809	2608
678.857	1949
678.906	3369
678.955	2166
679.004	2999
679.053	2801
679.102	3476
679.151	2735
679.199	1492
679.248	2682
679.297	3279
679.346	3185
679.394	2793
679.443	1915
679.492	3486
679.540	3177
679.589	2949
679.638	2960
679.686	2302
679.735	3270
679.784	2091
679.832	2680
679.881	2530
679.929	2083
679.978	1846
680.026	1653
680.075	2978
680.123	1453
680.172	2148
680.220	2371
680.268	1855
680.317	1631
680.365	1956
680.414	2378
680.462	3047
680.510	2633
680.559	2335
680.607	1431
680.655	2492
680.703	2725
680.752	2131
680.800	2112
680.848	1747
680.896	2045
680.945	1874
680.993	2573
681.041	1746
681.089	2142
681.137	1437
681.185	990
681.233	1859
681.258	2251
681.281	2565
681.329	2182
681.377	1335
681.380	1492
681.425	3266
681.473	1760
681.502	2720
681.521	3271
681.569	3019
681.617	3111
681.624	3159
681.665	3018
681.713	3422
681.745	3709
681.761	3753
681.809	3025
681.857	3599
681.867	3600
681.904	3365
681.952	3930
681.989	3492
682.000	3298
682.048	3249
682.096	4554
682.111	4470
682.143	4077
682.191	4079
682.233	4848
682.239	4908
682.286	4173
682.334	4440
682.354	4235
682.382	3854
682.430	5019
682.476	5726
682.477	5688
682.525	4437
682.572	4966
682.598	4637
682.620	4301
682.667	5161
682.715	5635
682.720	5719
682.763	5973
682.810	4951
682.841	5398
682.857	5569
682.905	5544
682.952	6243
682.963	6308
683.000	6349
683.047	7105
683.085	7253
683.095	7214
683.142	6491
683.190	6481
683.206	6557
683.237	6621
683.284	6563
683.328	6975
683.332	6967
683.379	6958
683.426	6933
683.449	6908
683.473	6804
683.521	7145
683.568	6818
683.571	6878
683.615	7092
683.662	7694
683.693	7907
683.709	7980
683.757	7097
683.804	8249
683.814	8133
683.851	7556
683.898	8256
683.936	8480
683.945	8495
683.992	8092
684.039	8210
684.057	8277
684.086	8313
684.133	7782
684.179	8683
684.180	8674
684.227	9527
684.274	9066
684.300	9044
684.321	9028
684.368	9179
684.415	9962
684.422	9856
684.462	8975
684.509	8462
684.543	9014
684.556	9189
684.603	8747
684.649	9899
684.665	9679
684.696	9216
684.743	10102
684.786	10279
684.790	10274
684.837	10896
684.883	11016
684.908	11402
684.930	11682
684.977	12636
685.023	12271
685.029	12319
685.070	11951
685.117	11432
685.150	11380
685.164	11546
685.210	12419
685.257	12934
685.272	13144
685.303	13062
685.350	12719
685.393	12592
685.396	12581
685.443	12107
685.490	13662
685.514	13316
685.536	12971
685.583	12891
685.629	12693
685.636	12778
685.675	12987
685.722	12527
685.757	12750
685.768	12897
685.815	13341
685.861	13732
685.878	13648
685.908	13465
685.954	14024
686.000	14020
686.000	14021
686.047	16389
686.093	18401
686.121	19102
686.139	18630
686.185	16885
686.232	16334
686.242	16009
686.278	15158
686.324	15050
686.363	13830
686.370	13696
686.416	14096
686.463	14567
686.484	14519
686.509	14520
686.555	14305
686.601	14569
686.606	14623
686.647	14815
686.693	14865
686.727	14467
686.739	14352
686.785	14946
686.831	14503
686.848	14786
686.877	15076
686.923	14035
686.969	14359
686.969	14361
687.015	14264
687.061	14654
687.090	15067
687.107	15165
687.153	15142
687.199	14711
687.211	14624
687.245	14757
687.291	15898
687.332	16996
687.336	17082
687.382	16412
687.428	16614
687.453	16615
687.474	16253
687.520	16025
687.565	15185
687.574	15047
687.611	15349
687.657	15839
687.695	16577
687.702	16820
687.748	17445
687.794	19697
687.816	19713
687.839	18667
687.885	18176
687.931	16783
687.937	16630
687.976	16503
688.022	16333
688.058	16313
688.067	16384
688.113	16293
688.158	16584
688.179	16701
688.204	16876
688.249	16922
688.295	17059
688.300	17095
688.340	17561
688.386	17976
688.421	17904
688.431	17784
688.477	17409
688.522	17579
688.542	17335
688.567	17128
688.613	17325
688.658	16598
688.663	16663
688.703	17576
688.749	17546
688.784	17737
688.794	17758
688.839	17415
688.884	17899
688.905	17840
688.930	17767
688.975	17819
689.020	17613
689.026	17564
689.065	17625
689.110	17496
689.146	17873
689.155	17948
689.201	17967
689.246	18525
689.267	18347
689.291	18164
689.336	18527
689.381	17665
689.388	17724
689.426	18138
689.471	17649
689.509	17881
689.516	17949
689.561	17570
689.606	17694
689.630	17777
689.651	17975
689.696	17528
689.741	17934
689.750	18084
689.785	18746
689.830	18209
689.871	18601
689.875	18631
689.920	17972
689.965	18496
689.992	18344
690.010	18468
690.054	18453
690.099	18279
690.112	18418
690.144	18538
690.189	18078
690.233	18375
690.233	18401
690.278	18014
690.323	18089
690.354	18042
690.367	18238
690.412	18956
690.457	19350
690.474	19623
690.501	19661
690.546	19193
690.590	18727
690.595	18673
690.635	19213
690.680	20192
690.716	20318
690.724	20545
690.769	22659
690.813	24314
690.836	24980
690.857	26195
690.902	28555
690.946	31352
690.957	31927
690.991	39477
691.035	50089
691.077	59729
691.080	59786
691.124	58230
691.168	56714
691.198	55910
691.213	53334
691.257	45188
691.301	37132
691.318	33765
691.346	31534
691.390	28018
691.434	24747
691.439	24354
691.478	23821
691.522	22998
691.559	22428
691.567	22448
691.611	21824
691.655	21324
691.680	21128
691.699	21225
691.743	21961
691.787	21273
691.800	21271
691.831	21717
691.875	22641
691.919	23276
691.921	23245
691.964	23248
692.008	23519
692.041	23384
692.052	23302
692.096	23404
692.139	23010
692.162	22965
692.183	23035
692.227	22342
692.271	22593
692.282	22379
692.315	22300
692.359	22969
692.402	22960
692.403	23001
692.447	23111
692.490	22843
692.523	22506
692.534	22636
692.578	23318
692.622	23789
692.643	24036
692.666	23715
692.709	23076
692.753	22069
692.763	21811
692.797	21818
692.840	21729
692.884	22026
692.884	22075
692.928	22533
692.971	22843
693.004	22850
693.015	22851
693.059	23094
693.102	23146
693.124	23119
693.146	23475
693.189	24004
693.233	24545
693.245	24713
693.276	25619
693.320	26911
693.363	27696
693.365	27667
693.407	28478
693.450	29453
693.485	30366
693.493	30998
693.537	33787
693.580	36663
693.605	38100
693.624	40975
693.667	47801
693.710	54700
693.725	57151
693.753	72503
693.797	95974
693.840	120105
693.845	122641
693.883	118540
693.926	113551
693.966	109339
693.970	107563
694.013	87134
694.056	66172
694.086	51577
694.099	49765
694.142	43717
694.185	38249
694.206	35198
694.229	34265
694.272	32663
694.315	30808
694.326	30355
694.358	29577
694.401	28084
694.444	26764
694.446	26635
694.487	26220
694.530	25853
694.566	25345
694.573	25279
694.616	24508
694.659	23689
694.686	23284
694.702	23309
694.745	22960
694.787	22732
694.806	22508
694.830	22497
694.873	22659
694.916	22475
694.926	22416
694.959	22240
695.002	22098
695.044	21995
695.046	21925
695.087	22277
695.130	22720
695.166	23134
695.172	23226
695.215	23565
695.258	23717
695.286	23761
695.301	23799
695.343	23631
695.386	23700
695.406	23636
695.428	23726
695.471	23754
695.514	23751
695.526	23758
695.556	24089
695.599	24360
695.641	24534
695.646	24489
695.684	24030
695.726	23445
695.766	22888
695.769	22971
695.811	23463
695.854	23754
695.886	24157
695.896	24130
695.938	23362
695.981	23005
696.005	22471
696.023	22622
696.065	23201
696.108	23772
696.125	23906
696.150	24191
696.192	24524
696.235	25072
696.245	25077
696.277	24685
696.319	24223
696.361	23739
696.365	23635
696.404	24058
696.446	24516
696.485	24854
696.488	24912
696.530	24708
696.572	24734
696.604	24594
696.614	24553
696.656	24131
696.698	23687
696.724	23417
696.740	23478
696.783	23315
696.825	23176
696.844	23098
696.867	23381
696.909	23747
696.951	24073
696.964	24104
696.992	23737
697.034	23125
697.076	22643
697.083	22468
697.118	22796
697.160	23336
697.202	23796
697.203	23746
697.244	23747
697.286	23692
697.323	23644
697.327	23712
697.369	23641
697.411	23658
697.442	23587
697.453	23771
697.494	24301
697.536	24750
697.562	25045
697.578	25068
697.620	24857
697.661	24634
697.682	24463
697.703	24393
697.744	24149
697.786	23929
697.801	23784
697.828	24244
697.869	24816
697.911	25463
697.921	25529
697.952	25078
697.994	24469
698.035	23788
698.040	23654
698.077	23846
698.118	23886
698.160	23968
698.160	23902
698.201	23529
698.243	23146
698.279	22682
698.284	22841
698.325	23778
698.367	24705
698.399	25340
698.408	25261
698.449	24596
698.491	23946
698.518	23439
698.532	23683
698.573	24252
698.614	24794
698.638	25050
698.656	25100
698.697	25014
698.738	24981
698.757	24888
698.779	25030
698.820	25174
698.862	25303
698.877	25292
698.903	25791
698.944	26455
698.985	27129
698.996	27244
699.026	27019
699.067	26610
699.116	26052
699.235	24252
699.354	24488
699.474	25551
699.593	28811
699.713	28036
699.832	24839
699.951	25175
700.070	23803
700.190	24121
700.309	24761
700.428	27644
700.547	24565
700.667	24459
700.786	27771
700.905	22763
701.024	25556
701.143	24352
701.262	22042
701.381	21322
701.500	22919
701.619	21990
701.738	21067
701.857	21619
701.976	21020
702.095	20155
702.214	22530
702.333	19948
702.452	21425
702.571	20506
702.690	20522
702.809	20588
702.928	19719
703.047	20419
703.165	19835
703.284	19650
703.403	19864
703.522	23934
703.640	23320
703.759	25991
703.878	37814
703.997	20972
704.115	20344
704.234	19066
704.353	18934
704.471	18876
704.590	19425
704.708	17604
704.827	17210
704.946	19502
705.064	22623
705.183	19034
705.301	25209
705.420	37039
705.538	32392
705.656	26461
705.775	26556
705.893	36029
706.012	42592
706.130	28979
706.249	28105
706.367	27747
706.485	31209
706.604	27972
706.722	28390
706.840	34218
706.958	39345
707.077	30324
707.195	24960
707.313	25014
707.431	23935
707.549	24013
707.668	24396
707.786	25254
707.904	23418
708.022	22604
708.140	23443
708.258	23194
708.376	24108
708.494	24545
708.612	26400
708.730	39769
708.848	36705
708.966	32517
709.084	29919
709.202	29471
709.320	31066
709.438	31971
709.556	31250
709.674	29636
709.791	31059
709.909	30027
710.027	29928
710.145	29609
710.263	30971
710.380	29405
710.498	29344
710.616	28582
710.733	28460
710.851	29170
710.969	31875
711.086	28318
711.204	27377
711.322	27953
711.439	29293
711.557	29297
711.674	29249
711.792	27008
711.909	26658
712.027	26928
712.144	25074
712.262	25596
712.379	30579
712.497	43277
712.614	44573
712.732	36436
712.849	33999
712.966	35581
713.084	40020
713.201	36293
713.318	35800
713.436	34266
713.553	35816
713.670	35736
713.787	40532
713.905	39316
714.022	34308
714.139	32402
714.256	35693
714.373	41099
714.490	53482
714.608	98377
714.725	358701
714.842	372788
714.959	47238
715.076	34007
715.193	31626
715.310	31043
715.427	29633
715.544	28290
715.661	29429
715.778	28614
715.895	32338
716.011	32276
716.128	29328
716.245	28324
716.362	28065
716.479	29898
716.596	28163
716.713	27794
716.829	27604
716.946	27049
717.063	25197
717.180	25816
717.296	25509
717.413	25388
717.530	25238
717.646	24850
717.763	24481
717.880	23755
717.996	23897
718.113	23166
718.229	23395
718.346	22303
718.462	24331
718.579	24171
718.695	28997
718.812	32736
718.928	35272
719.045	26136
719.161	21790
719.277	21581
719.394	21547
719.510	23218
719.626	21904
719.743	29940
719.859	28321
719.975	38833
720.092	103837
720.208	224209
720.324	41228
720.440	24559
720.557	26356
720.673	30163
720.789	50775
720.905	118060
721.021	40480
721.137	22172
721.253	23085
721.369	23269
721.486	26876
721.602	37421
721.718	21489
721.834	18321
721.950	19504
722.066	18044
722.181	19112
722.297	18963
722.413	18538
722.529	18259
722.645	19044
722.761	18282
722.877	18288
722.993	17078
723.108	19200
723.224	18083
723.340	19379
723.456	17272
723.571	18494
723.687	17357
723.803	17514
723.918	15841
724.034	17689
724.150	17648
724.265	20875
724.381	43657
724.497	56170
724.612	18011
724.728	16814
724.843	15901
724.959	20831
725.074	42243
725.190	50200
725.305	18992
725.421	16586
725.536	14154
725.651	15263
725.767	14487
725.882	14480
725.997	14316
726.113	15486
726.228	14274
726.343	14699
726.459	12993
726.574	15403
726.689	14476
726.804	13597
726.920	14760
727.035	14233
727.150	14416
727.265	14200
727.380	14117
727.495	13687
727.610	12707
727.725	13790
727.841	14349
727.956	19570
728.071	19978
728.186	13604
728.301	11561
728.416	12337
728.531	11915
728.645	11160
728.760	13132
728.875	14086
728.990	12003
729.105	12952
729.220	11531
729.335	12069
729.449	11141
729.564	10926
729.679	10533
729.794	12093
729.908	13146
730.023	12540
730.138	10045
730.253	10596
730.367	11244
730.482	10922
730.596	11500
730.711	11242
730.826	12037
730.940	12744
731.055	11459
731.169	10124
731.284	10513
731.398	10430
731.513	13033
731.627	12687
731.742	14339
731.856	16725
731.970	11073
732.085	12554
732.199	14350
732.313	21295
732.428	40960
732.542	107902
732.656	65864
732.771	17845
732.885	12510
732.999	12412
733.113	13826
733.227	13111
733.342	11399
733.456	11379
733.570	10885
733.684	10518
733.798	10241
733.912	11014
734.026	9829
734.140	10055
734.254	12483
734.368	22957
734.482	30634
734.596	10122
734.710	10425
734.824	9489
734.938	9756
735.052	10185
735.166	12193
735.280	10770
735.393	9142
735.507	9395
735.621	13827
735.735	30034
735.849	12889
735.962	8956
736.076	10384
736.190	11656
736.303	16302
736.417	21418
736.531	9295
736.644	10149
736.758	7389
736.872	8421
736.985	7551
737.099	7926
737.212	7770
737.326	8600
737.439	7934
737.553	8589
737.666	8248
737.780	7781
737.893	8155
738.007	7509
738.120	7441
738.233	8375
738.347	7500
738.460	7780
738.573	8394
738.687	7998
738.800	7664
738.913	8969
739.026	7853
739.140	8322
739.253	8323
739.366	7653
739.479	6554
739.592	6580
739.705	6717
739.818	8068
739.932	7574
740.045	7174
740.158	7110
740.271	8890
740.384	7624
740.497	8698
740.610	8696
740.723	9451
740.836	8145
740.949	8794
741.062	8969
741.174	9347
741.287	8586
741.400	7694
741.513	8047
741.626	9143
741.739	6946
741.851	8077
741.964	6728
742.077	7308
742.189	8210
742.302	9459
742.415	8188
742.527	7802
742.640	6838
742.753	7251
742.865	6324
742.978	6491
743.090	6708
743.203	6962
743.316	5935
743.428	7145
743.541	6910
743.653	6885
743.766	6754
743.878	7526
743.990	10218
744.103	9454
744.215	6476
744.327	6591
744.440	6701
744.552	9207
744.664	6223
744.777	5580
744.889	5524
745.001	6455
745.113	5641
745.226	5776
745.338	5330
745.450	6196
745.562	6289
745.674	6127
745.786	5408
745.898	5916
746.010	5630
746.122	6203
746.234	6559
746.347	6187
746.459	5879
746.570	5961
746.682	6616
746.794	6328
746.906	5809
747.018	6008
747.130	6342
747.242	5988
747.354	5747
747.466	6911
747.577	5523
747.689	5941
747.801	6529
747.913	5146
748.024	4853
748.136	5392
748.248	5420
748.359	6386
748.471	5711
748.583	5748
748.694	5681
748.806	6576
748.918	7988
749.029	6409
749.141	5577
749.252	5692
749.364	5784
749.475	8019
749.587	8880
749.698	5932
749.809	5473
749.921	4918
750.032	5061
750.144	5239
750.255	4460
750.366	4764
750.478	5512
750.589	6176
750.700	4560
750.811	5554
750.923	5321
751.034	8719
751.145	8299
751.256	5946
751.367	5262
751.479	5147
751.590	4721
751.701	5863
751.812	4555
751.923	4979
752.034	5076
752.145	4563
752.256	5230
752.367	5569
752.478	4111
752.589	5355
752.700	4680
752.811	5060
752.922	4339
753.032	5005
753.143	5612
753.254	4331
753.365	5167
753.476	5186
753.586	4095
753.697	5316
753.808	4401
753.919	4849
754.029	4989
754.140	4424
754.251	5906
754.361	4893
754.472	4147
754.582	4541
754.693	4385
754.804	4850
754.914	4348
755.025	4698
755.135	3993
755.246	5544
755.356	4150
755.466	4722
755.577	4474
755.687	5357
755.798	4646
755.908	4731
756.018	3930
756.129	4612
756.239	4357
756.349	5197
756.460	4307
756.570	5764
756.680	4013
756.790	5473
756.900	5173
757.011	5070
757.121	4920
757.231	4676
757.341	3919
757.451	4528
757.561	4127
757.671	5141
757.781	4380
757.891	5522
758.001	6008
758.111	5376
758.221	5692
758.331	5490
758.441	5019
758.551	6245
758.661	5532
758.771	5712
758.880	5463
758.990	6384
759.100	6294
759.210	5643
759.320	5181
759.429	6442
759.539	6591
759.649	6274
759.758	6365
759.868	6443
759.978	6323
760.087	7403
760.197	6768
760.307	7300
760.416	6163
760.526	6493
760.635	6598
760.745	6575
760.854	8107
760.964	7964
761.073	7240
761.182	7514
761.292	8110
761.401	8583
761.511	7274
761.620	7897
761.729	7343
761.839	7983
761.948	6958
762.057	8012
762.166	8191
762.276	7611
762.385	8413
762.494	7803
762.603	7677
762.712	8594
762.822	8782
762.931	9930
763.040	8608
763.149	9279
763.258	9546
763.367	10693
763.476	10557
763.585	10426
763.694	11146
763.803	12250
763.912	13018
764.021	13398
764.130	13362
764.238	15064
764.347	14643
764.456	16536
764.565	17178
764.674	18266
764.783	19651
764.891	21257
765.000	24098
765.109	26986
765.217	29169
765.326	35800
765.435	44406
765.543	51712
765.652	62400
765.761	83998
765.869	113614
765.978	166353
766.086	260385
766.195	440274
766.303	786590
766.412	1037881
766.520	939176
766.629	735677
766.737	392765
766.846	234721
766.954	155302
767.062	111864
767.171	85475
767.279	66634
767.387	52026
767.496	44772
767.604	37690
767.712	34171
767.820	30164
767.928	29110
768.037	25322
768.145	26251
768.253	23418
768.361	22706
768.469	22789
768.577	23221
768.685	24519
768.793	25099
768.901	27118
769.009	33280
769.117	37832
769.225	49494
769.333	66543
769.441	104008
769.549	176358
769.657	350119
769.765	723902
769.873	879392
769.981	687096
770.088	309692
770.196	158906
770.304	100677
770.412	70711
770.519	53134
770.627	41268
770.735	34735
770.842	29442
770.950	25530
771.058	21991
771.165	21149
771.273	18737
771.380	17760
771.488	16535
771.595	16083
771.703	14691
771.810	14891
771.918	12546
772.025	13321
772.133	12156
772.240	11627
772.348	11409
772.455	12291
772.562	9918
772.670	10088
772.777	10529
772.884	9427
772.991	9853
773.099	10183
773.206	8088
773.313	9527
773.420	9758
773.528	8310
773.635	7919
773.742	8242
773.849	8144
773.956	8241
774.063	8149
774.170	7991
774.277	9265
774.384	7755
774.491	7235
774.598	8054
774.705	7534
774.812	7950
774.919	8425
775.026	8608
775.133	8690
775.239	7284
775.346	7965
775.453	7489
775.560	6981
775.667	7085
775.773	7101
775.880	7673
775.987	7296
776.093	7363
776.200	5790
776.307	6871
776.413	6763
776.520	6096
776.627	6502
776.733	7085
776.840	5096
776.946	7472
777.053	7273
777.159	8582
777.266	6117
777.372	8659
777.478	7420
777.585	6988
777.691	4925
777.798	5856
777.904	6455
778.010	6815
778.117	6438
778.223	6551
778.329	5683
778.435	5465
778.542	5791
778.648	6472
778.754	5310
778.860	5889
778.966	6045
779.072	5789
779.178	6022
779.284	6045
779.391	5104
779.497	4719
779.603	7363
779.708	7947
779.815	15552
779.920	49044
780.026	112836
780.132	17399
780.238	6647
780.344	6181
780.450	6222
780.556	5359
780.661	5238
780.767	5398
780.873	3788
780.979	5556
781.085	5549
781.190	4705
781.296	4203
781.402	4468
781.507	4013
781.613	4607
781.719	3817
781.824	4408
781.930	4904
782.035	5390
782.141	4939
782.246	5190
782.352	4605
782.457	4894
782.563	4367
782.668	4892
782.773	4377
782.879	4559
782.984	4165
783.090	5295
783.195	6549
783.300	5229
783.405	4767
783.511	5450
783.616	4831
783.721	5288
783.826	4012
783.932	5475
784.037	4773
784.142	3890
784.247	4793
784.352	5514
784.457	4235
784.562	3983
784.667	4167
784.772	4072
784.877	3781
784.982	4372
785.087	3857
785.192	5169
785.297	4705
785.402	4539
785.507	4606
785.611	4257
785.716	4542
785.821	4450
785.926	3252
786.031	4064
786.135	4252
786.240	4381
786.345	2245
786.450	4975
786.554	3322
786.659	3124
786.763	2681
786.868	4131
786.973	3743
787.077	3720
787.182	3234
787.286	3244
787.391	2381
787.495	2979
787.600	3173
787.704	3819
787.809	3161
787.913	3175
788.017	3291
788.122	3913
788.226	2845
788.330	2641
788.435	3426
788.539	3702
788.643	3561
788.747	3372
788.852	3049
788.956	2812
789.060	3382
789.164	3476
789.268	1997
789.372	3776
789.476	3127
789.580	2208
789.684	2469
789.788	3694
789.892	2393
789.996	3565
790.100	3288
790.204	3441
790.308	3938
790.412	3597
790.516	2442
790.620	3383
790.724	3649
790.828	3446
790.931	3084
791.035	5277
791.139	3057
791.242	2376
791.346	3084
791.450	2792
791.554	3325
791.657	2297
791.761	4441
791.864	3672
791.968	2719
792.072	3052
792.175	3237
792.279	2923
792.382	2488
792.486	3527
792.589	2679
792.693	4788
792.796	2201
792.899	3994
793.003	3568
793.106	1553
793.209	4023
793.313	3715
793.416	913
793.519	4287
793.623	4429
793.726	4002
793.829	2947
793.932	3930
794.035	2265
794.138	4084
794.242	3694
794.345	4980
794.448	5769
794.551	7895
794.654	25470
794.757	60463
794.860	13680
794.963	5139
795.066	2946
795.169	3718
795.272	1450
795.375	3227
795.477	1831
795.580	3662
795.683	1264
795.786	3157
795.889	2394
795.991	5148
796.094	4684
796.197	3376
796.300	3263
796.402	2418
796.505	2880
796.608	2146
796.710	3717
796.813	2652
796.915	1772
797.018	2949
797.120	3191
797.223	1424
797.326	2599
797.428	3155
797.530	2649
797.633	3030
797.735	4487
797.838	7633
797.940	7001
798.042	2339
798.145	1740
798.247	2687
798.349	639
798.452	3035
798.554	1883
798.656	2689
798.758	3214
798.860	2604
798.962	1367
799.065	2003
799.167	1062
799.269	3577
799.371	2329
799.473	3213
799.575	3372
799.677	4871
799.779	3861
799.881	1508
799.983	2082
800.085	2163
800.187	3025
800.289	1959
800.390	2379
800.492	2171
800.594	3248
800.696	1864
800.798	1678
800.899	2459
801.001	1207
801.103	1792
801.205	980
801.306	1564
801.408	518
801.509	2331
801.611	2158
801.713	2230
801.814	1273
801.916	1981
802.017	2014
802.119	1339
802.220	1829
802.322	1703
802.423	6603
802.525	2064
802.626	1582
802.727	1751
802.829	2369
802.930	606
803.031	2423
803.133	1792
803.234	1207
803.335	2017
803.436	415
803.538	1940
803.639	312
803.740	1950
803.841	1024
803.942	1565
804.043	1552
804.144	854
804.245	1668
804.346	1419
804.447	834
804.548	2534
804.649	2524
804.750	660
804.851	1211
804.952	1455
805.053	1563
805.154	1155
805.255	1674
805.355	1868
805.456	879
805.557	1333
805.658	505
805.758	2004
805.859	525
805.960	2122
806.061	870
806.161	1340
806.262	1976
806.362	909
806.463	1091
806.564	2598
806.664	2420
806.765	2899
806.865	3079
806.966	2407
807.066	1707
807.166	2098
807.267	2333
807.367	1365
807.468	1037
807.568	358
807.668	1490
807.769	2416
807.869	1039
807.969	1854
808.069	2340
808.170	1664
808.270	682
808.370	1866
808.470	2186
808.570	1286
808.670	1157
808.770	1903
808.870	1173
808.970	2019
809.070	11
809.170	1238
809.271	1842
809.370	1472
809.470	2058
809.570	1175
809.670	1003
809.770	1436
809.870	1477
809.970	1704
810.070	1107
810.169	1883
810.269	-528
810.369	2386
810.469	98
810.568	1273
810.668	420
810.768	1651
810.867	401
810.967	1588
811.066	1705
811.166	475
811.265	1454
811.365	1524
811.464	965
811.564	1734
811.663	1088
811.763	446
811.862	1637
811.962	2561
812.061	520
812.160	560
812.260	1333
812.359	1903
812.458	1242
812.557	2290
812.657	1571
812.756	2444
812.855	756
812.954	1306
813.053	2058
813.153	2005
813.252	496
813.351	1913
813.450	1516
813.549	1112
813.648	2130
813.747	701
813.846	1814
813.945	2074
814.044	2121
814.143	2004
814.242	1862
814.341	900
814.439	1346
814.538	1970
814.637	2166
814.736	1654
814.835	3196
814.933	1593
815.032	2108
815.131	1806
815.229	2688
815.328	4140
815.427	3032
815.525	4050
815.624	2863
815.722	2375
815.821	3515
815.919	4054
816.018	3338
816.116	4429
816.215	3444
816.313	3833
816.412	3902
816.510	4578
816.609	5290
816.707	5909
816.805	5000
816.904	5453
817.002	6652
817.100	7072
817.198	7378
817.296	7817
817.395	9957
817.493	12207
817.591	13204
817.689	18487
817.787	24629
817.885	37618
817.983	64491
818.081	127688
818.179	284741
818.277	641387
818.375	599926
818.473	220452
818.571	95727
818.669	61635
818.767	50613
818.865	50640
818.963	57558
819.061	77666
819.158	125881
819.256	238455
819.354	491457
819.452	892340
819.549	683199
819.647	279564
819.745	131177
819.842	78179
819.940	52646
820.038	38447
820.135	30148
820.233	24478
820.330	18567
820.428	15039
820.525	13954
820.623	13320
820.720	9874
820.818	10074
820.915	7829
821.012	7648
821.110	6073
821.207	7852
821.304	5045
821.402	6124
821.499	6613
821.596	6424
821.693	5398
821.791	6000
821.888	4425
821.985	5903
822.082	4012
822.179	4641
822.276	3839
822.373	3491
822.470	2728
822.567	4536
822.664	1722
822.761	4012
822.858	2409
822.955	2981
823.052	2377
823.149	2363
823.246	2329
823.343	2310
823.440	2927
823.536	2828
823.633	2599
823.730	2232
823.827	2182
823.923	1952
824.020	2473
824.117	2228
824.213	1178
824.310	2577
824.407	1486
824.503	2342
824.600	1767
824.696	2416
824.793	2951
824.889	1429
824.986	1443
825.082	1568
825.179	2013
825.275	1179
825.371	928
825.468	3048
825.564	446
825.660	1596
825.757	867
825.853	2316
825.949	424
826.045	1892
826.142	1409
826.238	1989
826.334	1142
826.430	1345
826.526	1632
826.622	1681
826.718	1426
826.814	1315
826.910	1975
827.006	617
827.102	245
827.198	2148
827.294	1088
827.390	697
827.486	1538
827.582	-206
827.678	321
827.774	2405
827.869	567
827.965	2065
828.061	-130
828.157	628
828.252	1167
828.348	692
828.444	2064
828.539	395
828.635	199
828.731	2036
828.826	235
828.922	1432
829.017	934
829.113	2380
829.208	986
829.304	642
829.399	2213
829.495	905
829.590	1418
829.685	155
829.781	928
829.876	742
829.971	397
830.066	1173
830.162	511
830.257	1220
830.352	-132
830.447	2349
830.543	1782
830.638	1343
830.733	1733
830.828	185
830.923	994
831.018	1030
831.113	1062
831.208	872
831.303	76
831.398	707
831.493	1253
831.588	1112
831.683	186
831.778	1215
831.873	631
831.967	1717
832.062	176
832.157	620
832.252	943
832.346	1074
832.441	1427
832.536	1539
832.631	3396
832.725	1952
832.820	-254
832.914	1120
833.009	-257
833.104	1470
833.198	1883
833.293	-225
833.387	1368
833.482	816
833.576	289
833.670	1679
833.765	651
833.859	721
833.954	973
834.048	1628
834.142	1057
834.237	744
834.331	172
834.425	1643
834.519	-89
834.613	1777
834.708	166
834.802	978
834.896	-417
834.990	769
835.084	877
835.178	947
835.272	255
835.366	289
835.460	402
835.554	478
835.648	-776
835.742	472
835.836	513
835.930	699
836.024	892
836.117	1528
836.211	1492
836.305	3444
836.399	3624
836.493	901
836.586	1059
836.680	352
836.774	-345
836.867	1308
836.961	218
837.055	-896
837.148	-675
837.242	377
837.335	332
837.429	729
837.522	841
837.616	2516
837.709	5663
837.803	4029
837.896	1199
837.989	1030
838.083	3572
838.176	8932
838.269	7479
838.363	1647
838.456	186
838.549	1566
838.642	1117
838.735	3003
838.829	2050
838.922	232
839.015	440
839.108	780
839.201	707
839.294	984
839.387	626
839.480	1183
839.573	2550
839.666	3999
839.759	1360
839.852	-73
839.945	7
840.038	1002
840.131	549
840.223	684
840.316	877
840.409	908
840.502	342
840.594	1468
840.687	-620
840.780	834
840.873	850
840.965	1552
841.058	2499
841.150	7383
841.243	4257
841.336	1247
841.428	136
841.521	881
841.613	134
841.706	1012
841.798	53
841.890	976
841.983	-364
842.075	2159
842.167	776
842.260	1268
842.352	2959
842.444	3572
842.537	8660
842.629	12730
842.721	2056
842.813	965
842.905	-338
842.997	1429
843.090	1543
843.182	4430
843.274	8651
843.366	21165
843.458	40507
843.550	25217
843.642	2959
843.734	1355
843.826	2082
843.918	2715
844.009	706
844.101	323
844.193	226
844.285	1151
844.377	-44
844.469	1213
844.560	352
844.652	550
844.744	838
844.835	576
844.927	550
845.019	1674
845.110	2124
845.202	841
845.293	4
845.385	-141
845.476	955
845.568	887
845.659	734
845.751	861
845.842	-57
845.934	157
846.025	145
846.116	1104
846.208	335
846.299	-108
846.390	1361
846.482	314
846.573	523
846.664	2511
846.755	2415
846.846	3929
846.937	-668
847.029	213
847.120	134
847.211	-134
847.302	874
847.393	-62
847.484	454
847.575	-466
847.666	-911
847.757	381
847.847	72
847.938	2210
848.029	-78
848.120	-574
848.211	170
848.302	524
848.392	-147
848.483	706
848.574	-1031
848.664	339
848.755	-213
848.846	91
848.936	163
849.027	201
849.118	-269
849.208	607
849.299	899
849.389	1711
849.480	3404
849.570	7455
849.661	11921
849.751	20950
849.841	6914
849.932	864
850.022	525
850.112	531
850.203	-150
850.293	419
850.383	-41
850.474	63
850.564	831
850.654	1017
850.744	209
850.834	415
850.924	-268
851.014	749
851.104	-370
851.194	-25
851.284	336
851.374	1269
851.464	905
851.554	649
851.644	556
851.734	3425
851.824	2161
851.914	442
852.004	577
852.094	1056
852.183	-206
852.273	923
852.363	196
852.452	552
852.542	-110
852.632	365
852.721	-500
852.811	-391
852.901	-81
852.990	709
853.080	-3
853.169	1042
853.259	233
853.348	1010
853.438	1440
853.527	1508
853.617	1929
853.706	5287
853.795	8822
853.885	23367
853.974	44484
854.063	82054
854.152	134376
854.242	48845
854.331	7586
854.420	2797
854.509	2215
854.598	2514
854.687	1878
854.777	2944
854.866	-432
854.955	870
855.044	-74
855.133	-232
855.222	60
855.311	-6
855.400	-346
855.488	274
855.577	453
855.666	1130
855.755	1356
855.844	1011
855.933	977
856.021	333
856.110	219
856.199	-130
856.288	594
856.376	96
856.465	-300
856.554	717
856.642	139
856.731	690
856.819	-32
856.908	295
856.996	454
857.085	-531
857.173	-266
857.262	-129
857.350	12
857.438	467
857.527	-301
857.615	1111
857.703	-176
857.792	-747
857.880	-469
857.968	92
858.056	22
858.145	840
858.233	-629
858.321	312
858.409	392
858.497	-4
858.585	-573
858.673	-225
858.761	-801
858.849	-377
858.937	-498
859.025	260
859.113	301
859.201	-300
859.289	539
859.377	402
859.465	-10
859.552	-10
859.640	-373
859.728	871
859.816	-16
859.903	651
859.991	-355
860.079	2
860.166	-27
860.254	-89
860.342	-170
860.429	-376
860.517	-195
860.604	160
860.692	-205
860.779	-687
860.867	-393
860.954	-178
861.042	-562
861.129	385
861.216	145
861.304	-108
861.391	-412
861.478	128
861.565	-59
861.653	208
861.740	-616
861.827	-593
861.914	390
862.001	-163
862.089	-308
862.176	55
862.263	-1038
862.350	-600
862.437	-886
862.524	-627
862.611	-677
862.698	399
862.785	31
862.871	460
862.958	-815
863.045	-731
863.132	463
863.219	-371
863.306	-359
863.392	-8
863.479	401
863.566	585
863.652	-320
863.739	-285
863.826	-52
863.912	-394
863.999	-1141
864.086	-148
864.172	-549
864.259	-71
864.345	-117
864.432	946
864.518	-695
864.604	-352
864.691	126
864.777	590
864.863	-78
864.950	501
865.036	-155
865.122	1637
865.209	1246
865.295	754
865.381	1744
865.467	1715
865.553	1536
865.639	3019
865.726	5279
865.812	11273
865.898	20952
865.984	32379
866.070	61025
866.156	67023
866.242	16419
866.328	4300
866.414	1022
866.499	2072
866.585	1258
866.671	808
866.757	1022
866.843	1260
866.928	475
867.014	624
867.100	1267
867.186	818
867.271	1899
867.357	3124
867.442	3262
867.528	2346
867.614	654
867.699	1464
867.785	1365
867.870	981
867.956	1852
868.041	1436
868.127	1974
868.212	2438
868.297	1393
868.383	734
868.468	968
868.553	2217
868.639	1616
868.724	3201
868.809	3493
868.894	689
868.979	369
869.065	1412
869.150	-103
869.235	634
869.320	484
869.405	-308
869.490	-450
869.575	181
869.660	-511
869.745	1188
869.830	204
869.915	36
870.000	169
870.085	617
870.169	767
870.254	1321
870.339	-54
870.424	-113
870.509	-344
870.593	126
870.678	126
870.763	32
870.847	-374
870.932	-104
871.016	700
871.101	428
871.186	880
871.270	1086
871.355	-362
871.439	-154
871.523	-205
871.608	35
871.692	193
871.777	284
871.861	537
871.945	72
872.030	535
872.114	-367
872.198	-173
872.282	299
872.367	-261
872.451	179
872.535	-155
872.619	73
872.703	-54
872.787	-143
872.871	216
872.955	-331
873.039	-734
873.123	449
873.207	770
873.291	129
873.375	-551
873.459	640
873.543	-175
873.627	100
873.711	-24
873.794	606
873.878	-657
873.962	-179
874.045	117
874.129	367
874.137	310
874.213	-264
874.245	44
874.296	544
874.352	70
874.380	-165
874.460	77
874.464	87
874.547	121
874.568	287
874.631	772
874.676	69
874.714	-514
874.784	419
874.798	603
874.881	1225
874.892	1069
874.965	-16
874.999	66
875.048	164
875.107	385
875.131	485
875.215	240
875.215	239
875.298	-63
875.323	-164
875.381	-417
875.430	62
875.465	405
875.538	-189
875.548	-273
875.631	16
875.646	-14
875.714	-164
875.753	112
875.798	462
875.861	-55
875.881	-247
875.964	848
875.968	776
876.047	-328
876.076	-190
876.130	-28
876.183	-323
876.213	-461
876.291	345
876.296	397
876.379	234
876.398	149
876.462	-134
876.506	-19
876.545	120
876.613	500
876.628	563
876.711	-378
876.721	-328
876.794	166
876.828	293
876.877	433
876.935	225
876.960	123
877.043	257
877.043	257
877.125	370
877.150	473
877.208	498
877.258	509
877.291	593
877.365	535
877.374	534
877.456	444
877.472	488
877.539	614
877.579	787
877.622	901
877.687	79
877.704	-125
877.787	395
877.794	409
877.869	610
877.901	610
877.952	535
878.008	-2
878.034	-189
878.115	643
878.117	657
878.199	-693
878.222	-451
878.282	262
878.329	343
878.364	326
878.437	18
878.447	-9
878.529	-609
878.544	-421
878.611	467
878.651	342
878.694	174
878.758	521
878.776	606
878.858	-366
878.865	-384
878.941	-490
878.972	-348
879.023	-213
879.078	-352
879.105	-274
879.185	430
879.187	435
879.269	488
879.292	229
879.351	-280
879.399	-50
879.433	96
879.506	-156
879.516	-173
879.598	132
879.613	71
879.680	-238
879.720	-47
879.762	166
879.827	-235
879.844	-357
879.926	-657
879.933	-671
880.007	-879
880.040	-689
880.089	-159
880.147	3
880.171	-52
880.253	385
880.254	381
880.335	-169
880.360	67
880.417	480
880.467	836
880.499	1203
880.574	1953
880.580	1944
880.662	431
880.680	218
880.744	107
880.787	111
880.825	-236
880.893	-411
880.907	-371
880.989	-290
881.000	-314
881.070	43
881.106	326
881.152	227
881.213	-25
881.233	-83
881.315	-171
881.319	-178
881.396	124
881.426	53
881.478	-206
881.532	272
881.559	520
881.639	-93
881.641	-108
881.722	195
881.745	120
881.803	-90
881.852	-283
881.885	-306
881.958	-32
881.966	-0
882.047	520
882.064	476
882.129	215
882.171	360
882.210	627
882.277	861
882.291	812
882.372	220
882.383	166
882.454	77
882.489	-12
882.535	-91
882.596	114
882.616	164
882.697	191
882.702	156
882.778	-103
882.808	-1
882.859	59
882.914	222
882.940	181
883.020	-135
883.021	-132
883.102	-99
883.127	46
883.183	194
883.233	-57
883.264	-37
883.339	608
883.345	625
883.426	235
883.445	237
883.507	393
883.551	288
883.587	17
883.657	-29
883.668	35
883.749	-136
883.763	-101
883.830	152
883.869	158
883.910	-50
883.975	-45
883.991	-2
884.072	-437
884.081	-411
884.152	87
884.187	195
884.233	145
884.292	192
884.314	229
884.394	-99
884.398	-114
884.475	-345
884.504	-320
884.555	35
884.610	455
884.636	383
884.716	-291
884.716	-288
884.797	126
884.821	72
884.877	-29
884.927	-117
884.958	-106
885.033	32
885.038	32
885.118	72
885.139	36
885.199	-56
885.244	48
885.279	271
885.350	465
885.359	443
885.439	335
885.456	223
885.520	-12
885.561	123
885.600	36
885.667	-70
885.680	-12
885.760	-103
885.773	-91
885.840	376
885.878	657
885.920	557
885.984	219
886.000	159
886.080	202
886.089	187
886.160	353
886.195	364
886.240	218
886.300	189
886.320	325
886.400	889
886.406	912
886.480	679
886.511	625
886.560	619
886.616	494
886.640	569
886.720	821
886.722	825
886.800	-208
886.827	-592
886.879	-576
886.932	-709
886.959	-509
887.038	499
887.039	502
887.119	105
887.143	72
887.198	441
887.248	645
887.278	610
887.354	400
887.358	421
887.437	913
887.459	1066
887.517	768
887.564	395
887.596	285
887.669	33
887.676	11
887.755	-204
887.774	-252
887.835	-21
887.880	71
887.914	39
887.985	178
887.994	143
888.073	-324
888.090	-440
888.153	-96
888.195	179
888.232	142
888.300	74
888.311	129
888.391	498
888.405	566
888.470	449
888.510	353
888.549	585
888.615	1053
888.628	1061
888.708	951
888.720	947
888.787	649
888.825	440
888.866	373
888.930	305
888.945	296
889.024	185
889.035	178
889.103	-31
889.140	-163
889.182	76
889.245	456
889.261	533
889.340	865
889.349	903
889.419	552
889.454	374
889.498	509
889.559	694
889.577	557
889.656	-50
889.664	-108
889.735	304
889.768	499
889.814	687
889.873	934
889.978	190
890.083	478
890.187	546
890.292	218
890.397	-56
890.501	907
890.606	-2
890.710	887
890.815	569
890.919	-405
891.024	771
891.128	8
891.233	-347
891.337	182
891.442	169
891.546	254
891.650	322
891.755	-48
891.859	1474
891.963	399
892.068	828
892.172	410
892.276	299
892.380	636
892.484	817
892.589	912
892.693	829
892.797	813
892.901	659
893.005	1095
893.109	637
893.213	97
893.317	677
893.421	-819
893.525	-125
893.629	107
893.733	56
893.837	193
893.941	543
894.045	981
894.148	-329
894.252	525
894.356	155
894.460	1026
894.564	679
894.667	220
894.771	-64
894.875	467
894.978	344
895.082	-210
895.186	392
895.289	768
895.393	1195
895.496	492
895.600	-613
895.703	490
895.807	367
895.910	250
896.014	-12
896.117	-398
896.221	683
896.324	-209
896.427	-3
896.531	282
896.634	269
896.737	687
896.840	-319
896.944	387
897.047	3
897.150	-82
897.253	447
897.356	126
897.460	-294
897.563	-172
897.666	524
897.769	100
897.872	-8
897.975	735
898.078	658
898.181	521
898.284	459
898.387	1017
898.490	606
898.593	547
898.695	118
898.798	141
898.901	1071
899.004	616
899.107	-46
899.209	334
899.312	185
899.415	-333
899.518	829
899.620	179
899.723	-259
899.826	869
899.928	761
900.031	574
900.133	897
900.236	187
900.338	493
900.441	17
900.543	37
900.646	17
900.748	-208
900.851	306
900.953	338
901.055	149
901.158	735
901.260	316
901.362	88
901.465	155
901.567	-818
901.669	1457
901.771	-500
901.873	400
901.976	125
902.078	408
902.180	-485
902.282	-377
902.384	169
902.486	-204
902.588	752
902.690	1180
902.792	587
902.894	1392
902.996	-480
903.098	-261
903.200	-542
903.302	19
903.404	150
903.505	-504
903.607	-560
903.709	640
903.811	707
903.913	11
904.014	-26
904.116	64
904.218	157
904.319	-152
904.421	718
904.523	-84
904.624	-52
904.726	-469
904.827	468
904.929	431
905.030	394
905.132	610
905.233	303
905.335	-260
905.436	181
905.537	-631
905.639	580
905.740	-884
905.841	-102
905.943	190
906.044	370
906.145	-49
906.247	-733
906.348	-191
906.449	283
906.550	-280
906.651	-59
906.752	153
906.854	-41
906.955	-841
907.056	271
907.157	11
907.258	226
907.359	-164
907.460	33
907.561	32
907.662	-102
907.762	-648
907.863	-305
907.964	-9
908.065	-262
908.166	-1276
908.267	-263
908.367	273
908.468	366
908.569	-91
908.670	-83
908.770	279
908.871	659
908.971	584
909.072	1090
909.173	146
909.273	357
909.374	-130
909.474	-6
909.575	529
909.675	113
909.776	174
909.876	-555
909.977	345
910.077	200
910.177	89
910.278	-151
910.378	-599
910.478	131
910.579	-355
910.679	-389
910.779	-40
910.879	119
910.980	183
911.080	-245
911.180	-29
911.280	-34
911.380	-721
911.480	-62
911.580	-848
911.680	199
911.780	360
911.880	-434
911.980	302
912.080	-333
912.180	616
912.280	-5
912.380	444
912.480	-435
912.580	-143
912.679	-509
912.779	476
912.879	131
912.979	-99
913.078	-377
913.178	-10
913.278	-260
913.377	-950
913.477	-68
913.577	64
913.676	-344
913.776	-634
913.875	243
913.975	80
914.074	-669
914.174	195
914.273	-1032
914.373	228
914.472	-586
914.572	-741
914.671	-104
914.770	66
914.870	-32
914.969	-433
915.068	-289
915.167	532
915.267	-72
915.366	-299
915.465	-256
915.564	433
915.663	675
915.763	-384
915.862	109
915.961	-510
916.060	148
916.159	-278
916.258	-732
916.357	-462
916.456	783
916.555	-571
916.654	650
916.752	483
916.851	-395
916.950	-236
917.049	244
917.148	-503
917.247	980
917.345	-538
917.444	380
917.543	634
917.642	21
917.740	175
917.839	89
917.937	256
918.036	377
918.135	-189
918.233	-551
918.332	-909
918.430	-709
918.529	390
918.627	-502
918.726	111
918.824	171
918.923	-58
919.021	-829
919.119	-868
919.218	-736
919.316	-804
919.414	-431
919.512	-590
919.611	160
919.709	264
919.807	222
919.905	63
920.003	-930
920.102	175
920.200	-259
920.298	666
920.396	-166
920.494	134
920.592	-495
920.690	941
920.788	-254
920.886	-394
920.984	-420
921.082	-1322
921.180	315
921.277	173
921.375	299
921.473	-681
921.571	-274
921.669	250
921.766	353
921.864	329
921.962	-269
922.060	-261
922.157	-315
922.255	573
922.352	479
922.450	82
922.548	-140
922.645	15
922.743	138
922.840	589
922.938	953
923.035	677
923.133	106
923.230	-558
923.327	1168
923.425	1423
923.522	280
923.619	824
923.717	120
923.814	473
923.911	497
924.008	947
924.106	-102
924.203	822
924.300	833
924.397	1042
924.494	1155
924.591	579
924.688	562
924.786	238
924.883	387
924.979	719
925.077	-101
925.173	741
925.270	-24
925.367	1209
925.464	1230
925.561	915
925.658	969
925.755	982
925.852	616
925.948	469
926.045	1306
926.142	1043
926.239	-72
926.335	749
926.432	671
926.529	1154
926.625	1258
926.722	-118
926.818	559
926.915	-49
927.011	515
927.108	45
927.204	232
927.301	118
927.397	-358
927.494	660
927.590	1080
927.687	365
927.783	291
927.879	902
927.976	-648
928.072	554
928.168	271
928.264	1185
928.361	190
928.457	491
928.553	219
928.649	312
928.745	660
928.841	257
928.937	10
929.033	73
929.129	746
929.225	20
929.321	76
929.417	223
929.513	-34
929.609	344
929.705	-421
929.801	-359
929.897	-482
929.993	560
930.089	492
930.184	-39
930.280	220
930.376	855
930.471	539
930.567	588
930.663	291
930.758	700
930.854	-284
930.950	280
931.045	325
931.141	-23
931.236	832
931.332	-748
931.427	40
931.523	-157
931.618	181
931.714	426
931.809	261
931.905	183
932.000	-123
932.095	-83
932.191	316
932.286	-275
932.381	313
932.476	37
932.572	187
932.667	-70
932.762	311
932.857	865
932.952	931
933.047	-151
933.142	20
933.237	-69
933.332	-155
933.427	415
933.522	268
933.617	-395
933.712	584
933.807	576
933.902	-475
933.997	644
934.092	-408
934.187	312
934.282	932
934.376	-260
934.471	719
934.566	791
934.661	-1303
934.755	-187
934.850	253
934.945	558
935.039	334
935.134	566
935.228	-442
935.323	304
935.417	205
935.512	-123
935.606	-298
935.701	300
935.795	-30
935.890	-682
935.984	-359
936.079	-110
936.173	605
936.267	45
936.362	-547
936.456	-402
936.550	-288
936.644	-299
936.738	-412
936.833	446
936.927	-759
937.021	-79
937.115	292
937.209	-619
937.303	205
937.397	-500
937.491	-318
937.585	483
937.679	-647
937.773	-261
937.867	-390
937.961	-518
938.055	-620
938.149	68
938.243	120
938.337	-742
938.430	-78
938.524	35
938.618	-50
938.712	-12
938.805	-497
938.899	-232
938.993	373
939.086	-247
939.180	-147
939.274	360
939.367	-361
939.461	-148
939.554	-78
939.648	52
939.741	286
939.835	123
939.928	444
940.022	651
940.115	-686
940.208	36
940.302	201
940.395	82
940.488	-811
940.582	961
940.675	-189
940.768	-290
940.861	277
940.954	540
941.048	-418
941.141	176
941.234	-268
941.327	661
941.420	1695
941.513	833
941.606	-19
941.699	223
941.792	141
941.885	39
941.978	-481
942.071	379
942.164	222
942.257	-672
942.349	-1347
942.442	344
942.535	-586
942.628	32
942.721	496
942.813	-1591
942.906	415
942.999	-297
943.091	-379
943.184	-587
943.277	-361
943.369	83
943.462	-176
943.554	-1
943.647	-779
943.739	1126
943.832	903
943.924	-1672
944.017	513
944.109	-1040
944.201	-588
944.294	153
944.386	359
944.478	190
944.571	-455
944.663	-21
944.755	-397
944.847	933
944.940	72
945.032	-769
945.124	-387
945.216	80
945.308	-585
945.400	94
945.492	-326
945.584	-378
945.676	1007
945.768	-254
945.860	581
945.952	-539
946.044	-544
946.136	-627
946.228	229
946.320	-274
946.412	-870
946.503	-142
946.595	309
946.687	-478
946.779	-410
946.870	226
946.962	-616
947.054	440
947.145	103
947.237	-162
947.329	-57
947.420	447
947.512	-719
947.603	-199
947.695	-226
947.786	-862
947.878	-1122
947.969	-110
948.061	-171
948.152	-616
948.243	387
948.335	-236
948.426	-310
948.517	-323
948.609	98
948.700	-518
948.791	-549
948.882	-21
948.973	207
949.065	-946
949.156	-212
949.247	-884
949.338	-290
949.429	-754
949.520	464
949.611	-958
949.702	606
949.793	-225
949.884	34
949.975	-336
950.066	-502
950.157	-956
950.247	104
950.338	-295
950.429	315
950.520	-384
950.611	843
950.701	-500
950.792	-49
950.883	955
950.973	-502
951.064	373
951.155	270
951.245	679
951.336	-181
951.427	-686
951.517	125
951.608	62
951.698	-399
951.788	183
951.879	-453
951.969	-796
952.060	-220
952.150	262
952.240	173
952.331	-1097
952.421	522
952.511	-828
952.602	-427
952.692	-545
952.782	-438
952.872	-776
952.962	-1135
953.052	518
953.143	-952
953.233	-51
953.323	367
953.413	-804
953.503	-189
953.593	-235
953.683	-640
953.773	-1040
953.863	60
953.953	-247
954.042	304
954.132	-199
954.222	-730
954.312	387
954.402	-237
954.492	1159
954.581	3691
954.671	81
954.761	-1671
954.850	193
954.940	-403
955.030	-620
955.119	-241
955.209	-564
955.298	-568
955.388	-252
955.477	-127
955.567	-1448
955.656	681
955.746	415
955.835	-454
955.925	-1355
956.014	-1165
956.103	-313
956.193	-410
956.282	-83
956.371	-29
956.461	-679
956.550	-873
956.639	-6
956.728	-481
956.817	-110
956.906	315
956.995	-61
957.085	-1077
957.174	153
957.263	-465
957.352	-491
957.441	-288
957.530	148
957.619	-160
957.708	160
957.796	-853
957.885	-856
957.974	323
958.063	91
958.152	78
958.241	-708
958.329	-471
958.418	-279
958.507	-417
958.596	357
958.684	-1083
958.773	-1
958.861	-386
958.950	494
959.039	-644
959.127	-850
959.216	-213
959.304	-812
959.393	182
959.481	263
959.570	138
959.658	-756
959.746	136
959.835	1520
959.923	4442
960.011	1716
960.100	515
960.188	-57
960.276	-783
960.365	-989
960.453	-358
960.541	-802
960.629	-575
960.717	-108
960.805	-96
960.893	-249
960.981	-920
961.069	-96
961.158	-202
961.245	-14
961.333	-643
961.421	-634
961.509	97
961.597	-450
961.685	-768
961.773	-804
961.861	-1019
961.949	230
962.036	-936
962.124	-67
962.212	-572
962.299	-886
962.387	-226
962.475	27
962.562	-895
962.650	-146
962.738	-685
962.825	-638
962.913	-885
963.000	-690
963.088	-708
963.175	-112
963.263	102
963.350	-332
963.438	274
963.525	577
963.612	2507
963.700	6929
963.787	23014
963.874	9862
963.962	243
964.049	-412
964.136	37
964.223	-1112
964.310	-824
964.398	-13
964.485	-1164
964.572	1402
964.659	3203
964.746	2687
964.833	-610
964.920	-349
965.007	-443
965.094	-1141
965.181	-1395
965.268	-826
965.355	-769
965.441	-603
965.528	-538
965.615	411
965.702	-628
965.789	-1297
965.875	-119
965.962	-324
966.049	-880
966.136	77
966.222	-1187
966.309	-218
966.395	-783
966.482	468
966.569	-1245
966.655	-929
966.742	-453
966.828	-1010
966.915	-1141
967.001	-461
967.087	-519
967.174	587
967.260	901
967.347	1354
967.433	6179
967.519	15414
967.605	4688
967.692	-75
967.778	-503
967.864	-232
967.950	-362
968.036	-1324
968.123	110
968.209	-978
968.295	-947
968.381	145
968.467	-174
968.553	-1596
968.639	18
968.725	-107
968.811	2277
968.897	1598
968.983	-316
969.069	-956
969.154	-99
969.240	-169
969.326	-717
969.412	-1065
969.497	-801
969.583	-1270
969.669	-454
969.755	-920
969.840	-928
969.926	-1051
970.012	-819
970.097	450
970.183	-162
970.268	-271
970.354	469
970.439	2107
970.525	10600
970.610	2847
970.696	-546
970.781	-784
970.866	-1280
970.952	-1031
971.037	-2418
971.122	-489
971.208	-506
971.293	-1038
971.378	-1631
971.463	-115
971.549	-398
971.634	-105
971.719	189
971.804	-369
971.889	1432
971.974	-276
972.059	-616
972.144	-808
972.229	-634
972.314	-1433
972.399	-74
972.484	-362
972.569	236
972.654	-394
972.739	3558
972.824	4499
972.908	353
972.993	-479
973.078	76
973.163	-670
973.247	-653
973.332	-2141
973.417	-317
973.501	-1382
973.586	-905
973.671	-1403
973.755	-1256
973.840	-165
973.924	-160
974.009	-424
974.093	-1299
974.178	1609
974.262	2415
974.346	2740
974.431	40
974.515	-1068
974.600	-1037
974.684	-651
974.768	-846
974.852	427
974.937	-1286
975.021	-1035
975.105	-1177
975.189	-1057
975.273	-1518
975.358	-1515
975.442	-1137
975.526	-576
975.610	-1241
975.694	-1654
975.778	-22
975.862	-1270
975.946	-2823
976.030	33
976.114	-1440
976.198	-639
976.281	-1144
976.365	-355
976.449	-1038
976.533	-31
976.617	-647
976.700	-1478
976.784	-446
976.868	-385
976.951	1833
977.035	573
977.119	246
977.202	-1364
977.286	-997
977.369	-1312
977.453	-681
977.536	-1299
977.620	-1289
977.703	-785
977.787	-1532
977.870	-537
977.953	219
978.037	-1110
978.120	394
978.203	437
978.287	4466
978.370	1449
978.453	-477
978.536	526
978.620	780
978.703	1974
978.786	320
978.869	-1313
978.952	-1946
979.035	-247
979.118	-485
979.201	-2202
979.284	-546
979.367	-1528
979.450	104
979.533	-2088
979.616	-1376
979.699	-916
979.782	-711
979.865	-242
979.948	-906
980.030	-1586
980.113	-723
980.196	-1737
980.279	-793
980.361	-1322
980.444	-1632
980.526	-781
980.609	-1297
980.692	-1187
980.774	-1009
980.857	-1577
980.939	-265
981.022	-670
981.104	-1378
981.187	-1429
981.269	-749
981.352	-962
981.434	-1797
981.516	-1918
981.599	728
981.681	-324
981.763	-945
981.846	-899
981.928	-1346
982.010	-289
982.092	-2636
982.174	-595
982.256	-1452
982.339	-754
982.421	-1180
982.503	-621
982.585	-2137
982.667	-656
982.749	-1143
982.831	-751
982.913	-1746
982.995	486
983.077	-1280
983.158	124
983.240	-2333
983.322	-1367
983.404	-267
983.486	-1477
983.568	-530
983.649	-1379
983.731	-783
983.813	-1516
983.894	-658
983.976	-2265
984.058	-1374
984.139	-528
984.221	-1478
984.302	-207
984.384	-1110
984.465	-1468
984.547	-249
984.628	-2216
984.710	-981
984.791	-961
984.872	-1144
984.954	-1784
985.035	-1102
985.116	-1855
985.198	-1748
985.279	-128
985.360	-1878
985.441	-1894
985.522	-1137
985.604	-544
985.685	-2366
985.766	-456
985.847	-391
985.928	-1378
986.009	-986
986.090	-1945
986.171	-1199
986.252	-1008
986.333	-1395
986.414	-1642
986.495	-984
986.576	-878
986.656	-729
986.737	-629
986.818	-1404
986.899	-1937
986.980	-1075
987.060	-512
987.141	-2480
987.222	-822
987.302	-328
987.383	-944
987.464	-1433
987.544	-1309
987.625	-1326
987.705	-990
987.786	-769
987.866	-1740
987.947	-1212
988.027	-548
988.108	-1687
988.188	-1327
988.268	-1327
988.349	-751
988.429	-1264
988.509	-939
988.589	-593
988.670	-2552
988.750	-231
988.830	-1236
988.910	-1604
988.990	-1415
989.070	-1927
989.151	-1434
989.231	-1838
989.311	-157
989.391	-1359
989.471	-1111
989.551	-1955
989.631	-1376
989.711	-985
989.791	-1147
989.870	-1252
989.950	-877
990.030	-2286
990.110	-728
990.190	-1914
990.269	-820
990.349	-1911
990.429	-596
990.509	-647
990.588	-2223
990.668	-1379
990.747	-1172
990.827	-1822
990.907	-1176
990.986	-1108
991.066	-772
991.145	-1442
991.225	-1145
991.304	-1807
991.383	-959
991.463	-1891
991.542	-1280
991.622	-1385
991.701	-1366
991.780	-1584
991.859	-1234
991.939	-874
992.018	-822
992.097	-1442
992.176	-1160
992.256	-1404
992.335	-1792
992.414	-712
992.493	-1929
992.572	-1670
992.651	283
992.730	-509
992.809	-1562
992.888	-2551
992.967	-1773
993.046	272
993.125	-2341
993.203	-1051
993.282	-1197
993.361	-1535
993.440	-1361
993.519	-1533
993.597	-1871
993.676	-2331
993.755	-528
993.834	-1453
993.912	-1610
993.991	-307
994.069	-1912
994.148	-1199
994.226	-1479
994.305	-1537
994.384	-887
994.462	-1403
994.540	-1282
994.619	-1877
994.697	-602
994.776	-1799
994.854	-756
994.932	-1735
995.011	-1635
995.089	-1907
995.167	-1148
995.245	-971
995.324	-1774
995.402	-823
995.480	-2535
995.558	-835
995.636	-2105
995.714	-1758
995.792	-779
995.870	-1388
995.948	-2182
996.026	-1424
996.104	-2342
996.182	-779
996.260	-511
996.338	-719
996.416	-2157
996.494	-1240
996.572	-797
996.649	-2024
996.727	-2294
996.805	-1628
996.883	-1063
996.960	-1275
997.038	-789
997.116	-1258
997.193	-1486
997.271	-1534
997.348	-2328
997.426	-1194
997.504	-1730
997.581	-1288
997.658	-664
997.736	-2548
997.813	-1470
997.891	-572
997.968	-1409
998.046	-792
998.123	-1100
998.200	-426
998.277	-2092
998.355	-844
998.432	-2062
998.509	-2064
998.586	-707
998.663	-1568
998.741	-817
998.818	-1164
998.895	-1603
998.972	-426
999.049	-1166
999.126	-1713
999.203	-1060
999.280	-2033
999.357	-1968
999.434	-2033
999.511	-1962
999.587	-255
999.664	-2041
999.741	-1921
999.818	270
999.895	-1560
999.971	-1648
1000.048	-759
1000.125	-1122
1000.202	-1197
1000.278	-579
1000.355	-991
1000.431	-1695
1000.508	-1836
1000.584	-1661
1000.661	-886
1000.738	-1448
1000.814	-1717
1000.890	-1046
1000.967	-1682
1001.043	-1375
1001.120	-1872
1001.196	-1221
1001.272	-2168
1001.349	-1810
1001.425	-1010
1001.501	-1039
1001.577	-2430
1001.654	-1711
1001.730	-1480
1001.806	-1228
1001.882	-1938
1001.958	-1140
1002.034	-1284
1002.110	-1498
1002.186	-2416
1002.262	-1116
1002.338	-2144
1002.414	-1372
1002.490	-1537
1002.566	-1914
1002.642	-2179
1002.718	-976
1002.794	-1637
1002.870	-1797
1002.945	-1634
1003.021	-2608
1003.097	-1656
1003.173	-1393
1003.248	-1721
1003.324	-1553
1003.400	-1134
1003.475	-1416
1003.551	-2186
1003.626	-1642
1003.702	-1899
1003.777	-1986
1003.853	-1415
1003.928	-1222
1004.004	-1531
1004.079	-1258
1004.155	-1548
1004.230	-2788
1004.305	-664
1004.381	-1887
1004.456	-472
1004.531	-1152
1004.607	-1151
1004.682	-1555
1004.757	-876
1004.832	-1805
1004.907	-1608
1004.982	-979
1005.057	-1268
1005.133	-1113
1005.208	-1412
1005.283	-1452
1005.358	-858
1005.433	-1784
1005.508	-1894
1005.583	-2211
1005.657	-1588
1005.732	-1317
1005.807	-2621
1005.882	-939
1005.957	-1551
1006.032	-1295
1006.106	-1657
1006.181	-1424
1006.256	-1763
1006.331	-1503
1006.405	-2185
1006.480	-1074
1006.554	-1952
1006.629	-1827
1006.704	-1970
1006.778	-1493
1006.853	-1804
1006.927	-2352
1007.002	-2434
1007.076	-1820
1007.150	-873
1007.225	-1681
1007.299	-1879
1007.373	-2675
1007.448	-1383
1007.522	-1539
1007.596	-1343
1007.671	-2680
1007.745	-1237
1007.819	-2343
1007.893	-1175
1007.967	-1422
1008.041	-2404
1008.115	-1221
1008.190	-2260
1008.264	-1766
1008.338	-2721
1008.412	-1915
1008.486	-1360
1008.560	-2418
1008.633	-2016
1008.707	-1412
1008.781	-1180
1008.855	-1291
1008.929	-2252
1009.003	-1646
1009.076	-1251
1009.150	-1918
1009.224	-2165
1009.298	-1957
1009.371	-1673
1009.445	-1070
1009.519	-1996
1009.592	-2357
1009.666	-1616
1009.739	-1250
1009.813	-1807
1009.886	-1586
1009.960	-2147
1010.033	-1495
1010.107	-1185
1010.180	-2509
1010.253	-1554
1010.327	-1510
1010.400	-1727
1010.473	-2375
1010.547	-1349
1010.620	-2266
1010.693	-2709
1010.766	-1476
1010.840	-808
1010.913	-1204
1010.986	-2386
1011.059	-2187
1011.132	-1722
1011.205	-1158
1011.278	-1525
1011.351	-2168
1011.424	-2149
1011.497	-2100
1011.570	-1936
1011.643	-1866
1011.716	-2326
1011.789	-2502
1011.862	-1498
1011.934	-1381
1012.007	-2847
1012.080	-1513
1012.153	-2586
1012.225	-1761
1012.298	-2475
1012.371	-2723
1012.443	-1371
1012.516	-2567
1012.588	-2235
1012.661	-1201
1012.733	-2581
1012.806	-1696
1012.879	-2117
1012.951	-1564
1013.023	-1372
1013.096	-1869
1013.168	-2023
1013.241	-1819
1013.313	-2027
1013.385	-2432
1013.458	-2571
1013.530	-1495
1013.602	-2866
1013.674	-1361
1013.746	-2228
1013.819	-2326
1013.891	-1115
1013.963	-2295
1014.035	-1501
1014.107	-1536
1014.179	-1247
1014.251	-2016
1014.323	-1739
1014.395	-1597
1014.467	-1527
1014.539	-1969
1014.611	-2759
1014.683	-1606
1014.754	-2272
1014.826	-2371
1014.898	-1855
1014.970	-1889
1015.042	-1335
1015.113	-1450
1015.185	-1861
1015.257	-2644
1015.328	-1210
1015.400	-1464
1015.471	-2331
1015.543	-2279
1015.615	-1732
1015.686	-2751
1015.757	-2497
1015.829	-1677
1015.901	-1802
1015.972	-2080
1016.043	-2614
1016.115	-2354
1016.186	-1597
1016.257	-2599
1016.328	-1962
1016.400	-1170
1016.471	-2648
1016.542	-1763
1016.613	-2779
1016.685	-1439
1016.756	-1107
1016.827	-2089
1016.898	-2565
1016.969	-1289
1017.040	-2166
1017.111	-2461
1017.182	-2571
1017.253	-1998
1017.324	-1617
1017.395	-1923
1017.466	-1554
1017.537	-1851
1017.608	-1456
1017.678	-1566
1017.749	-2130
1017.820	-1225
1017.891	-2591
1017.961	-2255
1018.032	-1214
1018.103	-1663
1018.173	-1610
1018.244	-2635
1018.315	-2641
1018.385	-1250
1018.456	-2379
1018.526	-2388
1018.597	-1684
1018.667	-2300
1018.738	-2251
1018.808	-1512
1018.878	-2729
1018.949	-2014
1019.019	-2159
1019.089	-1728
1019.160	-1740
1019.230	-2384
1019.300	-794
1019.371	-2799
1019.441	-2658
1019.511	-2507
1019.581	-1786
1019.651	-1648
1019.721	-1854
1019.791	-1875
1019.861	-1861
1019.931	-1958
1020.001	-1589
1020.071	-2213
1020.141	-2299
1020.211	-2237
1020.281	-3164
1020.351	-2390
1020.421	-2136
1020.491	-1865
1020.560	-2170
1020.630	-2269
1020.700	-1479
1020.770	-2419
1020.839	-1959
1020.909	-1319
1020.979	-2069
1021.048	-2387
1021.118	-2812
1021.187	-1772
1021.257	-2322
1021.326	-2183
1021.396	-1400
1021.465	-2596
1021.535	-2331
1021.604	-2388
1021.674	-2578
1021.743	-2476
1021.812	-1594
1021.882	-1885
1021.951	-1618
1022.020	-1467
1022.089	-1467
1022.159	-2513
1022.228	-1969
1022.297	-2519
1022.366	-2407
1022.435	-2012
1022.504	-1745
1022.573	-2064
1022.642	-2842
1022.711	-2291
1022.781	-1626
1022.849	-2081
1022.918	-2047
1022.987	-1980
1023.056	-965
1023.125	-1716
1023.194	-2129
1023.263	-1815
1023.331	-1951
1023.400	-2919
1023.469	-1543
1023.538	-1341
1023.606	-1833
1023.675	-1799
1023.744	-1943
1023.812	-2802
1023.881	-1653
1023.949	-2671
1024.018	-1875
1024.086	-2475
1024.155	-2479
1024.223	-2448
1024.292	-1745
1024.360	-2075
1024.429	-2691
1024.497	-2202
1024.565	-2545
1024.634	-2461
1024.702	-1918
1024.770	-2230
1024.838	-2404
1024.907	-1944
1024.975	-2691
1025.043	-1900
1025.111	-1983
1025.179	-1652
1025.247	-1991
1025.315	-1571
1025.383	-2805
1025.451	-1438
1025.519	-2418
1025.587	-2046
1025.655	-2149
1025.723	-2197
1025.791	-2293
1025.859	-2104
1025.927	-1652
1025.995	-1889
1026.062	-2319
1026.130	-2528
1026.198	-2577
1026.266	-2087
1026.333	-2284
1026.401	-2802
1026.469	-2908
1026.536	-2538
1026.604	-2458
1026.671	-2529
1026.739	-2676
1026.806	-1632
1026.874	-2038
1026.941	-1433
1027.009	-2278
1027.076	-2973
1027.144	-1958
1027.211	-2241
1027.278	-2386
1027.345	-1189
1027.413	-1840
1027.480	-2126
1027.547	-1442
1027.614	-2614
1027.682	-2059
1027.749	-2346
1027.816	-2005
1027.883	-2367
1027.950	-2448
1028.017	-2392
1028.084	-1929
1028.151	-2735
1028.218	-2533
1028.285	-2202
1028.352	-2510
1028.419	-3077
1028.486	-2171
1028.553	-2449
1028.619	-2192
1028.686	-1637
1028.753	-2606
1028.820	-2751
1028.886	-2680
1028.953	-2500
1029.020	-1954
1029.086	-2414
1029.153	-2742
1029.220	-2710
1029.286	-1692
1029.353	-2108
1029.419	-2553
1029.486	-2401
1029.552	-1797
1029.619	-2889
1029.685	-1882
1029.751	-2063
1029.818	-1812
1029.884	-2518
1029.951	-1194
1030.017	-1561
1030.083	-3386
1030.149	-2288
1030.216	-2696
1030.282	-1745
1030.348	-2452
1030.414	-3030
1030.480	-2560
1030.546	-2250
1030.612	-2079
1030.678	-2868
1030.744	-2609
1030.810	-2408
1030.876	-2116
1030.942	-2925
1031.008	-1888
1031.074	-2816
1031.140	-2382
1031.206	-1740
1031.272	-3004
1031.337	-2006
1031.403	-1992
1031.469	-2573
1031.534	-1319
1031.600	-2042
1031.666	-2302
1031.731	-2403
1031.797	-1955
1031.863	-2350
1031.928	-2352
1031.994	-2442
1032.059	-2614
1032.125	-2684
1032.190	-2844
1032.256	-2605
1032.321	-3531
1032.386	-2050
1032.452	-2459
1032.517	-2566
1032.582	-2390
1032.647	-2336
1032.713	-2161
1032.778	-1592
1032.843	-3013
1032.908	-3035
1032.974	-2668
1033.039	-2960
1033.104	-2140
1033.169	-2652
1033.234	-2588
1033.299	-1634
1033.364	-2750
1033.429	-2957
1033.494	-1993
1033.559	-2504
1033.624	-2231
1033.688	-2701
1033.753	-2960
1033.818	-2468
1033.883	-2083
1033.948	-2683
1034.013	-2867
1034.077	-2517
1034.142	-1248
1034.207	-2460
1034.271	-1808
1034.336	-1126
1034.400	-1809
1034.465	-1827
1034.530	-2288
1034.594	-2538
1034.658	-2421
1034.723	-2450
1034.787	-2217
1034.852	-2957
1034.916	-2268
1034.981	-2010
1035.045	-2315
1035.109	-2382
1035.173	-1869
1035.238	-2003
1035.302	-2631
1035.366	-2461
1035.430	-2592
1035.495	-2670
1035.559	-1804
1035.623	-2203
1035.687	-2424
1035.751	-2268
1035.815	-2940
1035.879	-2821
1035.943	-1909
1036.007	-2299
1036.071	-2467
1036.135	-2648
1036.198	-2516
1036.262	-2920
1036.326	-2481
1036.390	-2729
1036.454	-1689
1036.517	-2224
1036.581	-3150
1036.645	-2480
1036.709	-2150
1036.772	-2388
1036.836	-1664
1036.900	-1329
1036.963	-2980
1037.026	-2063
1037.090	-2359
1037.154	-1244
1037.217	-2204
1037.280	-1797
1037.344	-2600
1037.407	-2827
1037.471	-2781
1037.534	-1879
1037.597	-2554
1037.661	-2131
1037.724	-2512
1037.787	-2735
1037.850	-3274
1037.913	-2557
1037.977	-2246
1038.040	-1611
1038.103	-2613
1038.166	-2028
1038.229	-1989
1038.292	-1979
1038.355	-2693
1038.418	-2229
1038.481	-1869
1038.544	-1604
1038.607	-1462
1038.670	-2094
1038.732	-1921
1038.795	-3287
1038.858	-1913
1038.921	-1941
1038.984	-2470
1039.046	-3408
1039.109	-2406
1039.172	-2091
1039.234	-2330
1039.297	-2319
1039.360	-1864
1039.422	-2107
1039.485	-2455
1039.547	-2142
1039.610	-1907
1039.672	-2530
1039.734	-2202
1039.797	-2810
1039.859	-2611
1039.922	-2699
1039.984	-2048
1040.046	-2581
1040.109	-2162
1040.171	-2483
1040.233	-2332
1040.295	-2816
1040.358	-2306
1040.420	-1995
1040.482	-2340
1040.544	-2007
1040.606	-2267
1040.668	-2381
1040.730	-2164
1040.792	-3185
1040.854	-2029
1040.916	-2516
1040.978	-2663
1041.040	-1847
1041.102	-2651
1041.164	-2585
1041.225	-2126
1041.287	-1695
1041.349	-1961
1041.411	-2646
1041.472	-3130
1041.534	-1841
1041.596	-2496
1041.657	-1902
1041.719	-2338
1041.781	-1701
1041.842	-2373
1041.904	-2007
1041.965	-2893
1042.027	-2587
1042.088	-1172
1042.150	-2390
1042.211	-2141
1042.272	-2410
1042.334	-3025
1042.395	-2140
1042.456	-2468
1042.518	-2404
1042.579	-1368
1042.640	-2180
1042.701	-2567
1042.763	-2258
1042.824	-2248
1042.885	-2478
1042.946	-2895
1043.007	-2158
1043.068	-2426
1043.129	-2843
1043.190	-2418
1043.251	-2103
1043.312	-2225
1043.373	-1474
1043.434	-2392
1043.495	-2617
1043.556	-2321
1043.616	-1910
1043.677	-1756
1043.738	-1535
1043.799	-3097
1043.859	-2439
1043.920	-3081
1043.981	-2108
1044.041	-2594
1044.102	-2336
1044.162	-2403
1044.223	-2715
1044.284	-2012
1044.344	-2166
1044.405	-1469
1044.465	-2418
1044.525	-2771
1044.586	-1929
1044.646	-1925
1044.707	-1696
1044.767	-2352
1044.827	-2410
1044.887	-2106
1044.948	-2002
1045.008	-2494
1045.068	-2184
1045.128	-1594
1045.188	-1865
1045.249	-2059
1045.309	-2449
1045.369	-1428
1045.429	-1947
1045.489	-2216
1045.549	-1819
1045.609	-2355
1045.669	-2257
1045.729	-2351
1045.789	-2306
1045.848	-1924
1045.908	-1844
1045.968	-2070
1046.028	-1737
1046.088	-1976
1046.147	-1285
1046.207	-2099
1046.267	-2210
1046.326	-1739
1046.386	-2558
1046.446	-1129
1046.505	-1249
1046.565	-1908
1046.624	-1639
1046.684	-860
1046.743	-1804
1046.803	-654
1046.862	-375
1046.922	0
