'Start Wavelength	183.907
'End Wavelength	1046.922
'Gate Delay	5.000
'Gate Width (ms)	1.050
'Laser Output Level	0.000
'X Position	0.000
'Y Position	0.000
'Z Position	0.000
'Grid Point Number	1.000
'Shot Number	100.000
183.907	-115.000
183.977	-298.000
184.047	137
184.116	674
184.186	365
184.256	0
184.325	367
184.395	-152
184.465	436
184.534	331
184.604	-606
184.674	149
184.743	-476
184.813	486
184.883	-577
184.952	-85
185.022	-724
185.092	898
185.161	43
185.231	-541
185.301	-332
185.370	211
185.440	-683
185.509	95
185.579	-19
185.649	147
185.718	437
185.788	701
185.857	-953
185.927	261
185.996	178
186.066	-126
186.136	-208
186.205	-79
186.275	-625
186.344	-142
186.414	-388
186.483	-191
186.553	340
186.622	-125
186.692	-528
186.761	367
186.831	-248
186.900	-128
186.970	142
187.039	753
187.109	650
187.178	660
187.248	-256
187.317	210
187.387	292
187.456	192
187.526	247
187.595	-107
187.664	-501
187.734	519
187.803	-593
187.873	-562
187.942	69
188.012	-460
188.081	-520
188.150	265
188.220	-433
188.289	-455
188.358	-433
188.428	390
188.497	-173
188.567	323
188.636	-216
188.705	-40
188.775	-417
188.844	-282
188.913	-36
188.983	346
189.052	-81
189.121	-27
189.191	-373
189.260	-178
189.329	56
189.399	-285
189.468	-356
189.537	-713
189.606	238
189.676	-102
189.745	-843
189.814	77
189.883	-428
189.953	509
190.022	92
190.091	698
190.161	886
190.230	445
190.299	-34
190.368	-284
190.437	-258
190.507	-77
190.576	-467
190.645	415
190.714	-119
190.783	-37
190.853	31
190.922	412
190.991	-590
191.060	233
191.129	-697
191.198	-52
191.268	-838
191.337	-507
191.406	-652
191.475	290
191.544	-189
191.613	312
191.682	-231
191.752	759
191.821	-670
191.890	-142
191.959	-329
192.028	-577
192.097	-83
192.166	759
192.235	-902
192.304	-286
192.373	-392
192.442	-259
192.511	251
192.580	-344
192.650	-751
192.719	240
192.788	235
192.857	-10
192.926	-902
192.995	494
193.064	-200
193.133	604
193.202	393
193.271	518
193.340	-8
193.409	-203
193.478	-138
193.547	293
193.615	7
193.684	874
193.753	-297
193.822	599
193.891	-781
193.960	445
194.029	209
194.098	344
194.167	-494
194.236	-111
194.305	-325
194.374	255
194.443	-436
194.512	-339
194.580	196
194.649	846
194.718	-345
194.787	876
194.856	-170
194.925	324
194.994	-984
195.062	371
195.131	-418
195.200	-388
195.269	-524
195.338	266
195.407	-9
195.475	372
195.544	104
195.613	-289
195.682	669
195.751	1186
195.819	-417
195.888	-75
195.957	555
196.026	388
196.094	479
196.163	-304
196.232	338
196.301	-42
196.369	-30
196.438	-525
196.507	74
196.576	-325
196.644	704
196.713	426
196.782	-645
196.850	24
196.919	-121
196.988	204
197.056	-708
197.125	492
197.194	-83
197.262	166
197.331	174
197.400	616
197.468	-509
197.537	-517
197.606	258
197.674	465
197.743	22
197.812	143
197.880	432
197.949	1081
198.017	270
198.086	411
198.155	-141
198.223	406
198.292	1134
198.360	-392
198.429	-113
198.497	227
198.566	-170
198.635	605
198.703	253
198.772	322
198.840	94
198.909	719
198.977	-39
199.046	625
199.114	112
199.183	132
199.251	-145
199.320	775
199.388	225
199.457	-55
199.525	53
199.594	241
199.662	-362
199.731	-192
199.799	-453
199.867	-195
199.936	-513
200.004	517
200.073	-296
200.141	-242
200.210	-80
200.278	-940
200.346	-235
200.415	538
200.483	-299
200.552	-239
200.620	-583
200.688	509
200.757	-14
200.825	295
200.893	-721
200.962	-78
201.030	-354
201.098	246
201.167	185
201.235	77
201.303	-50
201.372	909
201.440	113
201.508	36
201.577	-283
201.645	245
201.713	-233
201.781	358
201.850	509
201.918	440
201.986	-437
202.055	928
202.123	-197
202.191	106
202.259	-41
202.327	174
202.396	-302
202.464	586
202.532	-235
202.600	787
202.669	205
202.737	119
202.805	478
202.873	816
202.941	-146
203.009	-324
203.078	-204
203.146	432
203.214	-633
203.282	283
203.350	314
203.418	273
203.487	-857
203.555	299
203.623	-385
203.691	427
203.759	-21
203.827	515
203.895	236
203.963	-857
204.031	-337
204.099	317
204.168	-205
204.236	854
204.304	-413
204.372	-183
204.440	-365
204.508	394
204.576	-38
204.644	280
204.712	-785
204.780	653
204.848	-118
204.916	534
204.984	-202
205.052	907
205.120	642
205.188	912
205.256	270
205.324	106
205.392	103
205.460	944
205.528	-548
205.596	665
205.664	-480
205.732	-213
205.799	88
205.867	2180
205.935	1
206.003	1561
206.071	147
206.139	111
206.207	-117
206.275	459
206.343	-862
206.411	823
206.478	103
206.546	-303
206.614	570
206.682	290
206.750	-3
206.818	-270
206.885	131
206.953	-590
207.021	766
207.089	218
207.157	184
207.225	-29
207.292	-39
207.360	-88
207.428	-544
207.496	209
207.563	-173
207.631	672
207.699	-356
207.767	660
207.834	-301
207.902	650
207.970	-228
208.038	317
208.105	-437
208.173	163
208.241	198
208.309	30
208.376	427
208.444	961
208.512	124
208.579	-325
208.647	52
208.715	367
208.782	-511
208.850	410
208.918	261
208.985	234
209.053	535
209.120	60
209.188	-339
209.256	523
209.323	-565
209.391	636
209.459	1280
209.526	648
209.594	-17
209.661	387
209.729	415
209.796	185
209.864	114
209.932	-103
209.999	1002
210.067	534
210.134	-59
210.202	407
210.269	724
210.337	484
210.404	-1044
210.472	433
210.539	135
210.607	425
210.674	-167
210.742	426
210.809	331
210.877	271
210.944	1137
211.012	-679
211.079	1035
211.146	783
211.214	-205
211.281	18
211.349	281
211.416	654
211.484	749
211.551	336
211.618	462
211.686	249
211.753	-618
211.821	333
211.888	49
211.955	499
212.023	929
212.090	861
212.157	420
212.225	-309
212.292	630
212.359	1286
212.427	3297
212.494	1202
212.561	552
212.629	542
212.696	560
212.763	977
212.831	-96
212.898	1281
212.965	269
213.032	573
213.100	-518
213.167	880
213.234	1048
213.301	817
213.369	256
213.436	1209
213.503	404
213.570	352
213.638	123
213.705	-84
213.772	-457
213.839	114
213.906	1116
213.973	1022
214.041	-564
214.108	1281
214.175	260
214.242	237
214.309	-178
214.376	925
214.444	-44
214.511	1031
214.578	443
214.645	961
214.712	875
214.779	867
214.846	222
214.913	1295
214.980	683
215.048	894
215.115	878
215.182	758
215.249	1049
215.316	265
215.383	866
215.450	623
215.517	574
215.584	817
215.651	-74
215.718	1079
215.785	121
215.852	-549
215.919	781
215.986	945
216.053	-224
216.120	-129
216.187	-740
216.254	582
216.321	-119
216.388	260
216.455	630
216.522	342
216.589	287
216.656	1077
216.722	1833
216.789	1577
216.856	730
216.923	840
216.990	565
217.057	1147
217.124	781
217.191	1171
217.258	920
217.324	1293
217.391	2432
217.458	1982
217.525	969
217.592	590
217.659	-665
217.725	1706
217.792	812
217.859	1434
217.926	68
217.993	515
218.059	1329
218.126	237
218.193	337
218.260	234
218.327	517
218.393	93
218.460	-82
218.527	511
218.594	-89
218.660	374
218.727	1531
218.794	620
218.860	911
218.927	240
218.994	-172
219.061	588
219.127	961
219.194	1141
219.261	-306
219.327	667
219.394	124
219.461	-387
219.527	155
219.594	247
219.661	-544
219.727	805
219.794	456
219.860	-208
219.927	-470
219.994	242
220.060	772
220.127	1504
220.193	736
220.260	445
220.326	1553
220.393	2769
220.460	2746
220.526	2251
220.593	977
220.659	2373
220.726	978
220.792	2992
220.859	1443
220.925	4003
220.992	5268
221.058	4797
221.125	3775
221.191	3048
221.258	1095
221.324	1660
221.391	491
221.457	236
221.524	474
221.590	808
221.657	2296
221.723	1701
221.789	837
221.856	1313
221.922	289
221.989	546
222.055	-24
222.121	21
222.188	1623
222.254	-23
222.321	64
222.387	359
222.453	-444
222.520	544
222.586	-136
222.652	650
222.719	-944
222.785	1217
222.851	-201
222.918	-287
222.984	188
223.050	997
223.116	-1152
223.183	1287
223.249	-419
223.315	259
223.382	6
223.448	811
223.514	75
223.580	218
223.647	67
223.713	419
223.779	-241
223.845	754
223.911	-125
223.978	-774
224.044	75
224.110	-34
224.176	-518
224.242	277
224.309	-579
224.375	167
224.441	-25
224.507	224
224.573	-941
224.639	607
224.705	-562
224.772	181
224.838	221
224.904	616
224.970	102
225.036	24
225.102	-718
225.168	902
225.234	591
225.300	9
225.366	-174
225.432	613
225.499	-199
225.565	51
225.631	-444
225.697	-418
225.763	351
225.829	1069
225.895	870
225.961	1439
226.027	-112
226.093	562
226.159	1536
226.225	2340
226.291	4128
226.357	8454
226.423	4341
226.489	2289
226.554	698
226.620	1080
226.686	1429
226.752	2363
226.818	4046
226.884	9028
226.950	8938
227.016	3325
227.082	2147
227.148	1605
227.214	752
227.279	707
227.345	60
227.411	1236
227.477	-69
227.543	1178
227.609	-205
227.674	1700
227.740	908
227.806	880
227.872	-515
227.938	497
228.003	392
228.069	717
228.135	344
228.201	51
228.267	-320
228.332	251
228.398	-343
228.464	1175
228.530	-173
228.595	505
228.661	-1527
228.727	820
228.792	1205
228.858	512
228.924	-1078
228.990	2230
229.055	-1027
229.121	1441
229.187	408
229.252	-41
229.318	17
229.384	297
229.449	-342
229.515	-426
229.581	-643
229.646	1669
229.712	-633
229.777	449
229.843	236
229.909	1139
229.974	752
230.040	864
230.105	692
230.171	-53
230.236	1238
230.302	1755
230.368	386
230.433	885
230.499	715
230.564	1469
230.630	-888
230.695	668
230.761	878
230.826	-221
230.892	637
230.957	-259
231.023	-424
231.088	-269
231.154	-255
231.219	1496
231.284	-763
231.350	1204
231.415	-879
231.481	864
231.546	-167
231.612	-23
231.677	-44
231.742	-657
231.808	1145
231.873	-1183
231.939	-1712
232.004	1735
232.069	437
232.135	151
232.200	-563
232.265	627
232.331	-611
232.396	499
232.461	-301
232.527	320
232.592	0
232.657	-126
232.723	-28
232.788	55
232.853	393
232.918	489
232.984	-777
233.049	-44
233.114	-1180
233.179	476
233.245	596
233.310	931
233.375	-1035
233.440	770
233.506	-768
233.571	209
233.636	-892
233.701	1000
233.766	-202
233.832	1370
233.897	-614
233.962	-969
234.027	753
234.092	957
234.157	-314
234.222	-57
234.288	-99
234.353	1851
234.418	1254
234.483	2139
234.548	325
234.613	353
234.678	958
234.743	589
234.808	2659
234.873	488
234.938	1257
235.004	866
235.069	18
235.134	-272
235.199	555
235.264	358
235.329	-1142
235.394	943
235.459	823
235.524	-49
235.589	1409
235.654	214
235.719	-1074
235.784	831
235.849	147
235.913	1802
235.978	1032
236.043	957
236.108	-675
236.173	622
236.238	932
236.303	688
236.368	44
236.433	1345
236.498	480
236.563	1721
236.627	2653
236.692	11594
236.757	9918
236.822	3942
236.887	1585
236.952	1685
237.017	-318
237.081	2727
237.146	1781
237.211	7014
237.276	10567
237.341	16514
237.405	7531
237.470	3820
237.535	2755
237.600	1478
237.664	1195
237.729	611
237.794	820
237.859	4459
237.923	1858
237.988	1209
238.053	1482
238.118	716
238.182	2221
238.247	3933
238.312	-141
238.376	1463
238.441	-1250
238.506	2240
238.570	6
238.635	2100
238.700	-268
238.764	235
238.829	-243
238.893	417
238.958	1299
239.023	1187
239.087	515
239.152	894
239.216	-258
239.281	1156
239.346	531
239.410	775
239.475	-435
239.539	2834
239.604	974
239.668	1835
239.733	197
239.797	498
239.862	873
239.926	1177
239.991	1241
240.055	350
240.120	-620
240.184	25
240.249	-651
240.313	-169
240.378	78
240.442	1140
240.507	2632
240.571	391
240.635	543
240.700	649
240.764	663
240.829	-233
240.893	-871
240.957	845
241.022	763
241.086	2744
241.151	151
241.215	-982
241.279	776
241.344	854
241.408	515
241.472	401
241.537	1737
241.601	470
241.665	-931
241.730	857
241.794	1579
241.858	665
241.922	-257
241.987	667
242.051	57
242.115	-771
242.179	1026
242.244	-136
242.308	1060
242.372	216
242.436	-180
242.501	957
242.565	-354
242.629	219
242.693	416
242.757	99
242.822	45
242.886	1405
242.950	119
243.014	-359
243.078	460
243.142	856
243.206	-483
243.271	1238
243.335	-596
243.399	1608
243.463	3768
243.527	12432
243.591	3025
243.655	971
243.719	-305
243.783	2244
243.847	1218
243.911	2181
243.975	802
244.040	-5
244.104	1689
244.168	657
244.232	262
244.296	1671
244.360	2552
244.424	174
244.488	85
244.552	851
244.615	-854
244.679	386
244.743	-286
244.807	-435
244.871	836
244.935	1336
244.999	-957
245.063	-21
245.127	891
245.191	1459
245.255	357
245.319	826
245.383	-1234
245.446	1147
245.510	-834
245.574	949
245.638	569
245.702	-426
245.766	1391
245.829	2168
245.893	-594
245.957	-239
246.021	1646
246.085	645
246.149	889
246.212	2729
246.276	1602
246.340	920
246.404	908
246.467	1581
246.531	-405
246.595	1928
246.659	1374
246.722	611
246.786	767
246.850	1714
246.913	1538
246.977	131
247.041	784
247.104	1524
247.168	436
247.232	2461
247.295	4412
247.359	2802
247.423	228
247.486	1737
247.550	970
247.614	551
247.677	695
247.741	969
247.804	505
247.868	1145
247.932	677
247.995	5200
248.059	863
248.122	804
248.186	681
248.249	2528
248.313	6905
248.376	8026
248.440	4708
248.503	532
248.567	2237
248.630	1035
248.694	2836
248.757	4276
248.821	8599
248.884	6107
248.948	3028
249.011	7243
249.075	9384
249.138	8191
249.202	2474
249.265	1454
249.328	2062
249.392	1349
249.455	2056
249.519	1793
249.582	1231
249.645	2697
249.709	2085
249.772	1365
249.835	1900
249.899	1415
249.962	705
250.025	773
250.089	2524
250.152	4995
250.215	2138
250.279	1499
250.342	1862
250.405	2014
250.468	1023
250.532	2009
250.595	3905
250.658	10996
250.721	20869
250.785	7445
250.848	4270
250.911	1701
250.974	2654
251.038	3023
251.101	5002
251.164	3494
251.227	2321
251.290	3470
251.354	4328
251.417	17807
251.480	18067
251.543	11982
251.606	31881
251.669	24113
251.732	9231
251.795	8220
251.859	7216
251.922	19991
251.985	11759
252.048	5499
252.111	3258
252.174	2560
252.237	4674
252.300	11080
252.363	10331
252.426	26869
252.489	9933
252.552	4812
252.615	2992
252.678	4272
252.741	7708
252.804	10450
252.867	26069
252.930	14794
252.993	6968
253.056	4926
253.119	2919
253.182	2799
253.245	3697
253.308	4380
253.371	2117
253.434	3325
253.497	2799
253.559	6081
253.622	2847
253.685	3264
253.748	2991
253.811	1719
253.874	2551
253.937	1843
254.000	863
254.062	2589
254.125	5216
254.188	5512
254.251	2665
254.314	2050
254.376	2960
254.439	3149
254.502	2441
254.565	2379
254.628	5971
254.690	2823
254.753	544
254.816	1544
254.878	1519
254.941	3644
255.004	2676
255.067	887
255.129	1254
255.192	1126
255.255	177
255.317	1280
255.380	932
255.443	-2
255.505	-21
255.568	517
255.631	268
255.693	1078
255.756	-308
255.819	1218
255.881	149
255.944	819
256.006	80
256.069	368
256.132	439
256.194	899
256.257	2020
256.319	1296
256.382	820
256.444	1776
256.507	666
256.569	886
256.632	1228
256.694	1170
256.757	6492
256.819	20687
256.882	7565
256.944	3493
257.007	3220
257.069	1705
257.132	1125
257.194	1798
257.257	175
257.319	997
257.381	820
257.444	5165
257.506	21452
257.569	24921
257.631	7898
257.693	4081
257.756	2255
257.818	1658
257.880	378
257.943	1260
258.005	2
258.067	864
258.130	502
258.192	1573
258.254	799
258.317	963
258.379	627
258.441	2838
258.503	2278
258.566	2964
258.628	4100
258.690	436
258.753	1264
258.815	2688
258.877	407
258.939	701
259.001	499
259.064	1283
259.126	-264
259.188	1458
259.250	517
259.312	1309
259.375	1394
259.437	1898
259.499	196
259.561	467
259.623	283
259.685	-45
259.747	-198
259.809	3105
259.872	4503
259.934	8749
259.996	7476
260.058	2688
260.120	-208
260.182	1500
260.244	499
260.306	97
260.368	177
260.430	72
260.492	1331
260.554	3877
260.616	1592
260.678	4299
260.740	5560
260.802	1327
260.864	1039
260.926	-363
260.988	465
261.050	705
261.112	2265
261.174	7478
261.236	4124
261.298	1483
261.359	2215
261.421	3719
261.483	-131
261.545	1998
261.607	-865
261.669	793
261.731	571
261.793	3479
261.854	536
261.916	932
261.978	-172
262.040	1908
262.102	557
262.164	715
262.225	-352
262.287	1125
262.349	1514
262.411	1962
262.472	706
262.534	215
262.596	2129
262.658	750
262.719	49
262.781	1375
262.843	1644
262.904	1767
262.966	952
263.028	1342
263.090	6225
263.151	18564
263.213	5789
263.275	2913
263.336	207
263.398	1740
263.459	-803
263.521	391
263.583	1966
263.644	988
263.706	49
263.767	70
263.829	425
263.891	225
263.952	259
264.014	-374
264.075	506
264.137	3836
264.198	1444
264.260	-524
264.321	249
264.383	1686
264.444	6376
264.506	1618
264.567	1019
264.629	2244
264.690	4167
264.752	1435
264.813	222
264.875	200
264.936	796
264.998	759
265.059	-324
265.120	1298
265.182	1375
265.243	10936
265.305	11143
265.366	2233
265.427	749
265.489	1547
265.550	-1330
265.611	422
265.673	-95
265.734	726
265.795	284
265.857	941
265.918	-267
265.979	2562
266.040	17407
266.102	15836
266.163	3672
266.224	2625
266.286	861
266.347	-613
266.408	610
266.469	486
266.530	440
266.592	280
266.653	239
266.714	2106
266.775	-151
266.836	112
266.898	-987
266.959	1383
267.020	-176
267.081	494
267.142	-204
267.203	-222
267.264	-679
267.326	550
267.387	-1190
267.448	-429
267.509	-362
267.570	794
267.631	-391
267.692	-511
267.753	-425
267.814	-193
267.875	1021
267.936	2878
267.997	1477
268.058	1370
268.119	-643
268.180	-615
268.241	-1289
268.302	498
268.363	-670
268.424	-335
268.485	-145
268.546	142
268.607	-343
268.668	38
268.729	-436
268.790	162
268.851	-220
268.912	958
268.972	1812
269.033	209
269.094	-421
269.155	288
269.216	-1486
269.277	-627
269.338	-540
269.398	-115
269.459	-743
269.520	892
269.581	491
269.642	1183
269.702	327
269.763	260
269.824	-549
269.885	234
269.945	1322
270.006	215
270.067	-640
270.128	-77
270.188	-984
270.249	236
270.310	-452
270.370	15
270.431	-543
270.492	-718
270.553	-755
270.613	806
270.674	2968
270.734	735
270.795	-268
270.856	542
270.916	-260
270.977	42
271.038	399
271.098	495
271.159	200
271.219	1459
271.280	-176
271.340	356
271.401	-1050
271.462	951
271.522	97
271.583	576
271.643	-221
271.704	559
271.764	-315
271.825	828
271.885	7424
271.946	10827
272.006	3086
272.066	4552
272.127	8316
272.187	1512
272.248	343
272.308	1532
272.369	5507
272.429	3417
272.489	1524
272.550	2332
272.610	1611
272.671	1384
272.731	675
272.791	1697
272.852	369
272.912	918
272.972	-454
273.033	338
273.093	-221
273.153	1561
273.214	619
273.274	494
273.334	4376
273.394	9088
273.455	2701
273.515	2804
273.575	7621
273.635	2506
273.696	3077
273.756	7834
273.816	1730
273.876	2043
273.936	1368
273.997	5968
274.057	1449
274.117	1286
274.177	1487
274.237	10039
274.297	8761
274.358	4741
274.418	5751
274.478	5457
274.538	1505
274.598	697
274.658	3797
274.718	5647
274.778	1781
274.838	1278
274.898	1323
274.958	6969
275.018	7855
275.078	5349
275.138	698
275.198	666
275.258	460
275.318	844
275.378	1748
275.438	2550
275.498	843
275.558	2796
275.618	8361
275.678	5944
275.738	2752
275.798	2132
275.858	766
275.918	-198
275.978	1212
276.038	164
276.098	-304
276.157	1561
276.217	5142
276.277	3042
276.337	549
276.397	218
276.457	199
276.517	495
276.576	-213
276.636	-228
276.696	326
276.756	3140
276.815	1887
276.875	158
276.935	107
276.995	1083
277.055	96
277.114	157
277.174	398
277.234	4686
277.293	1416
277.353	532
277.413	708
277.472	705
277.532	86
277.592	890
277.651	2444
277.711	6974
277.771	1235
277.830	8098
277.890	5903
277.950	3901
278.009	14611
278.069	5735
278.128	3757
278.188	6262
278.248	1603
278.307	5624
278.367	3890
278.426	1010
278.486	15
278.545	560
278.605	-155
278.664	68
278.724	-18
278.783	3109
278.843	9300
278.902	2722
278.962	965
279.021	1776
279.081	1255
279.140	1982
279.199	1017
279.259	2086
279.318	1887
279.378	2450
279.437	3810
279.496	12835
279.556	40070
279.615	33157
279.675	7350
279.734	4865
279.793	5649
279.853	10672
279.912	4207
279.971	2467
280.031	2052
280.090	4876
280.149	7958
280.208	5546
280.268	26446
280.327	31108
280.386	5727
280.445	5187
280.505	4423
280.564	1971
280.623	1229
280.682	2679
280.742	4996
280.801	1654
280.860	590
280.919	1129
280.978	-87
281.037	537
281.097	-218
281.156	258
281.215	408
281.274	244
281.333	5540
281.392	5189
281.451	727
281.510	96
281.569	-554
281.628	82
281.688	49
281.747	1121
281.806	1
281.865	1104
281.924	-674
281.983	-348
282.042	-591
282.101	-65
282.160	-229
282.219	105
282.278	-875
282.337	2953
282.396	2119
282.454	349
282.513	213
282.572	5074
282.631	3136
282.690	453
282.749	-371
282.808	988
282.867	139
282.926	1051
282.985	-73
283.043	-275
283.102	-503
283.161	91
283.220	2283
283.279	7697
283.338	1895
283.396	629
283.455	641
283.514	776
283.573	988
283.631	1370
283.690	-102
283.749	-28
283.808	642
283.866	3185
283.925	-251
283.984	-60
284.043	889
284.101	710
284.160	-284
284.219	2012
284.277	775
284.336	1542
284.395	7466
284.453	6920
284.512	1678
284.570	2142
284.629	1024
284.688	1834
284.746	852
284.805	1441
284.863	2051
284.922	3939
284.981	3852
285.039	5586
285.098	10300
285.156	25259
285.215	59629
285.273	59682
285.332	35036
285.390	15489
285.449	9302
285.507	6105
285.566	3935
285.624	3428
285.683	2694
285.741	1817
285.799	2030
285.858	1698
285.916	416
285.975	1074
286.033	88
286.091	-291
286.150	-311
286.208	393
286.267	1391
286.325	1875
286.383	1455
286.442	1291
286.500	199
286.558	1062
286.616	-157
286.675	1152
286.733	670
286.791	1293
286.850	744
286.908	1142
286.966	2107
287.024	1032
287.083	-734
287.141	246
287.199	453
287.257	2022
287.315	820
287.374	707
287.432	3007
287.490	3455
287.548	202
287.606	568
287.664	638
287.723	1900
287.781	1560
287.839	1563
287.897	996
287.955	2939
288.013	3616
288.071	7860
288.129	31710
288.187	93936
288.245	49678
288.303	15674
288.361	7514
288.419	5085
288.477	2779
288.535	2444
288.593	1078
288.651	1716
288.709	249
288.767	861
288.825	237
288.883	727
288.941	1329
288.999	368
289.057	996
289.115	539
289.173	-320
289.231	1357
289.289	591
289.346	370
289.404	161
289.462	1784
289.520	1344
289.578	584
289.636	-338
289.694	145
289.751	497
289.809	-738
289.867	-435
289.925	1385
289.983	387
290.040	417
290.098	-243
290.156	714
290.214	368
290.271	405
290.329	-263
290.387	-510
290.444	-346
290.502	-533
290.560	-398
290.617	96
290.675	-602
290.733	673
290.790	-34
290.848	-385
290.906	118
290.963	-235
291.021	-23
291.078	530
291.136	-270
291.194	3082
291.251	9673
291.309	2878
291.366	654
291.424	87
291.481	405
291.539	336
291.596	23
291.654	-328
291.711	-457
291.769	300
291.826	890
291.884	1472
291.941	-645
291.999	129
292.056	274
292.114	301
292.171	-475
292.228	323
292.286	316
292.343	1748
292.401	1919
292.458	1643
292.515	167
292.573	1276
292.630	694
292.687	626
292.745	-779
292.802	864
292.859	4306
292.917	9229
292.974	4639
293.031	1333
293.089	-262
293.146	41
293.203	319
293.260	903
293.318	104
293.375	1424
293.432	434
293.489	707
293.546	235
293.604	299
293.661	2696
293.718	12899
293.775	7079
293.832	3293
293.889	785
293.947	1655
294.004	1209
294.061	1152
294.118	2874
294.175	9460
294.232	14189
294.289	5437
294.346	1949
294.403	2768
294.460	1488
294.517	1195
294.574	493
294.631	1743
294.688	737
294.745	3507
294.802	15949
294.859	23877
294.916	7873
294.973	3234
295.030	2926
295.087	2419
295.144	730
295.201	1812
295.258	1146
295.315	1547
295.372	4711
295.429	11255
295.486	5603
295.542	2545
295.599	8257
295.656	18249
295.713	10761
295.770	12758
295.827	5279
295.883	2265
295.940	1666
295.997	4034
296.054	1884
296.111	1418
296.167	488
296.224	1095
296.281	59
296.338	706
296.394	378
296.451	2038
296.508	4415
296.564	10355
296.621	6987
296.678	13153
296.734	19654
296.791	8686
296.848	3864
296.904	3264
296.961	7764
297.018	14551
297.074	11732
297.131	4716
297.187	2386
297.244	3845
297.301	10823
297.357	23790
297.414	9214
297.470	3783
297.527	1895
297.583	1696
297.640	1299
297.696	689
297.753	397
297.809	811
297.866	417
297.922	728
297.979	-155
298.035	1059
298.092	2137
298.148	7828
298.204	7764
298.261	3267
298.317	4884
298.374	15970
298.430	10135
298.486	3863
298.543	2477
298.599	3222
298.656	3053
298.712	5194
298.768	13521
298.824	12492
298.881	4106
298.937	2384
298.993	1715
299.050	2008
299.106	1764
299.162	1805
299.218	1888
299.275	1294
299.331	1903
299.387	3273
299.443	11723
299.500	16152
299.556	6100
299.612	2778
299.668	2058
299.724	2017
299.780	1901
299.837	2079
299.893	2684
299.949	11385
300.005	14825
300.061	11553
300.117	20594
300.173	12465
300.229	4083
300.285	5184
300.341	5874
300.397	3432
300.453	1446
300.510	1068
300.566	1164
300.622	2167
300.678	3583
300.734	9469
300.790	11523
300.845	14717
300.901	8732
300.957	12067
301.013	11515
301.069	5279
301.125	2715
301.181	2176
301.237	2196
301.293	1243
301.349	689
301.405	1038
301.461	1118
301.516	2656
301.572	1965
301.628	3353
301.684	3302
301.740	5172
301.796	9542
301.851	7615
301.907	9895
301.963	11197
302.019	13968
302.074	39022
302.130	43869
302.186	22582
302.242	8834
302.297	5053
302.353	3824
302.409	9693
302.464	8231
302.520	6342
302.576	14419
302.631	19914
302.687	11855
302.743	5311
302.798	2535
302.854	2607
302.910	1740
302.965	2977
303.021	5155
303.076	5277
303.132	6485
303.187	8275
303.243	4905
303.299	3147
303.354	1752
303.410	2560
303.465	882
303.521	1890
303.576	1360
303.632	2951
303.687	3712
303.743	12684
303.798	13612
303.853	6373
303.909	2507
303.964	2586
304.020	2603
304.075	6074
304.130	4499
304.186	9186
304.241	11122
304.297	9473
304.352	4774
304.358	4579
304.407	2997
304.449	2447
304.463	2265
304.518	3035
304.539	2614
304.573	1925
304.629	2464
304.630	2484
304.684	3516
304.720	7096
304.739	8835
304.794	15692
304.811	14015
304.850	10060
304.902	4116
304.905	3731
304.960	3223
304.992	2896
305.015	2623
305.071	3516
305.083	3382
305.126	2921
305.173	1938
305.181	1778
305.236	1136
305.264	1360
305.292	1598
305.347	1277
305.354	1500
305.402	2935
305.445	2459
305.457	2315
305.512	4117
305.535	3761
305.567	3284
305.622	4194
305.626	4270
305.678	6581
305.716	14055
305.733	16620
305.788	20195
305.807	17456
305.843	13114
305.897	13744
305.898	13728
305.953	14643
305.988	10462
306.008	8341
306.063	5055
306.078	4625
306.118	3454
306.168	2704
306.173	2659
306.228	2420
306.259	1956
306.283	1602
306.338	2027
306.349	2111
306.393	2459
306.440	3038
306.448	3122
306.503	4257
306.530	3567
306.558	3558
306.613	8339
306.620	9046
306.668	13157
306.711	16299
306.723	16544
306.778	13927
306.801	11023
306.833	7846
306.888	3654
306.892	3526
306.943	2693
306.982	2528
306.997	2429
307.052	2882
307.072	2800
307.107	2917
307.162	3356
307.163	3382
307.217	6014
307.253	6712
307.272	6677
307.327	7633
307.343	6986
307.381	6184
307.434	4776
307.436	4820
307.491	8829
307.524	13549
307.546	14889
307.600	16213
307.614	14455
307.655	9518
307.704	6076
307.710	5903
307.765	5779
307.795	6800
307.819	7843
307.874	13566
307.885	13788
307.929	12856
307.975	10890
307.984	11057
308.038	14832
308.065	17461
308.093	28004
308.148	57416
308.156	64216
308.202	94091
308.246	112924
308.257	111470
308.312	70074
308.336	51366
308.366	38336
308.421	22752
308.426	21670
308.475	14709
308.517	10486
308.530	9385
308.585	7392
308.607	6830
308.639	6950
308.694	7821
308.697	7947
308.748	12159
308.787	17187
308.803	17494
308.857	14210
308.877	12437
308.912	11107
308.967	10640
308.967	10663
309.021	14292
309.058	17636
309.076	21960
309.130	37511
309.148	44210
309.185	73703
309.238	126047
309.239	126304
309.293	131789
309.328	121260
309.348	108550
309.402	60011
309.418	47533
309.457	33168
309.508	19977
309.511	19474
309.566	16004
309.598	14256
309.620	13820
309.674	15156
309.688	15630
309.729	14840
309.778	12669
309.783	12455
309.837	9851
309.868	8672
309.892	10802
309.946	16976
309.959	18964
310.001	23144
310.049	26843
310.055	26067
310.109	16467
310.139	10282
310.163	8206
310.218	5707
310.229	5312
310.272	4535
310.319	4062
310.326	3901
310.381	2622
310.409	2349
310.435	2517
310.489	2479
310.499	2536
310.543	2836
310.589	2885
310.598	2899
310.652	3491
310.679	3439
310.706	3084
310.760	2632
310.769	2577
310.814	2206
310.859	1787
310.868	1785
310.923	1752
310.948	1752
310.977	2037
311.031	2803
311.038	2901
311.085	2454
311.128	1768
311.139	1780
311.193	2185
311.218	2266
311.247	2159
311.301	2023
311.308	2007
311.356	2154
311.398	2325
311.410	2301
311.464	2152
311.488	2046
311.518	2053
311.572	2146
311.578	2159
311.626	3179
311.668	4070
311.680	4082
311.734	4051
311.758	4034
311.788	3775
311.842	3319
311.847	3268
311.896	4725
311.937	6057
311.950	5854
312.004	4899
312.027	4480
312.058	3710
312.112	2332
312.117	2203
312.165	2625
312.207	3000
312.297	4466
312.386	2371
312.476	3030
312.566	4657
312.656	2796
312.745	2243
312.835	3006
312.925	3004
313.015	2960
313.104	2857
313.194	2106
313.284	1962
313.374	2704
313.463	2735
313.553	2269
313.643	1533
313.732	2252
313.822	1957
313.912	2836
314.001	2745
314.091	3865
314.180	4068
314.270	3601
314.360	4406
314.449	3169
314.539	2401
314.628	2766
314.718	2317
314.808	2402
314.897	1796
314.987	2794
315.076	2475
315.166	3249
315.255	3012
315.345	3312
315.434	2943
315.524	2858
315.613	2671
315.703	3788
315.792	3814
315.881	4672
315.971	2653
316.060	5505
316.150	7874
316.239	7483
316.328	2639
316.418	1936
316.507	1800
316.597	2843
316.686	2126
316.775	4636
316.865	8532
316.954	2514
317.043	1327
317.133	1806
317.222	2402
317.311	2630
317.400	774
317.490	3209
317.579	2683
317.668	2398
317.757	2490
317.847	4630
317.936	6771
318.025	6952
318.114	2818
318.203	3411
318.293	5856
318.382	11937
318.471	7649
318.560	15029
318.649	30144
318.738	5383
318.828	3333
318.917	3891
319.006	4919
319.095	11437
319.184	37740
319.273	16464
319.362	6402
319.451	2352
319.540	2949
319.629	6119
319.718	9229
319.807	5396
319.896	11183
319.985	44345
320.074	11202
320.163	3731
320.252	4998
320.341	6242
320.430	4112
320.519	5868
320.608	3013
320.697	3465
320.786	2402
320.875	2564
320.964	3918
321.053	6141
321.142	8683
321.230	8340
321.319	7177
321.408	17713
321.497	6457
321.586	6228
321.675	8939
321.764	8252
321.852	5356
321.941	9895
322.030	5506
322.119	8257
322.207	17009
322.296	10929
322.385	6555
322.474	6963
322.562	20633
322.651	9168
322.740	6372
322.829	9402
322.917	10339
323.006	6070
323.095	5105
323.183	4541
323.272	6952
323.361	13683
323.449	35129
323.538	9782
323.626	26272
323.715	11644
323.804	6838
323.892	23137
323.981	9310
324.069	4812
324.158	13968
324.246	9376
324.335	4212
324.424	6471
324.512	3308
324.601	4558
324.689	11723
324.778	19574
324.866	7627
324.954	2695
325.043	3455
325.131	4887
325.220	10010
325.308	9951
325.397	8350
325.485	4101
325.574	2017
325.662	1620
325.750	2002
325.839	2136
325.927	2196
326.015	2707
326.104	4473
326.192	4967
326.280	2044
326.369	2296
326.457	2886
326.545	5793
326.634	2090
326.722	1771
326.810	2335
326.898	2225
326.987	2849
327.075	4859
327.163	5393
327.251	2955
327.340	9659
327.428	11516
327.516	1858
327.604	1423
327.692	2149
327.781	2424
327.869	4304
327.957	2604
328.045	3239
328.133	1858
328.221	2351
328.309	2042
328.397	2207
328.485	2224
328.574	3316
328.662	11012
328.750	5756
328.838	3244
328.926	2478
329.014	2423
329.102	2978
329.190	8659
329.278	4446
329.366	1628
329.454	2645
329.542	2011
329.630	1351
329.718	1869
329.806	2751
329.893	3480
329.981	3711
330.069	8819
330.157	33971
330.245	81310
330.333	39481
330.421	7482
330.509	5062
330.597	14214
330.684	8656
330.772	4567
330.860	5916
330.948	8102
331.036	2674
331.123	1812
331.211	1681
331.299	2545
331.387	7970
331.475	10894
331.562	2807
331.650	1579
331.738	2250
331.825	3122
331.913	1600
332.001	1843
332.089	2645
332.176	4996
332.264	12750
332.352	7402
332.439	2886
332.527	2870
332.614	1634
332.702	2988
332.790	1700
332.877	6099
332.965	9099
333.052	1811
333.140	3103
333.228	4902
333.315	2054
333.403	1984
333.490	7224
333.578	4966
333.665	4932
333.753	3548
333.840	1719
333.928	3118
334.015	7589
334.103	13559
334.190	42731
334.278	8534
334.365	4052
334.452	2433
334.540	2208
334.627	2747
334.715	3660
334.802	7386
334.889	43507
334.977	32736
335.064	4226
335.151	1910
335.239	3423
335.326	5340
335.413	25474
335.501	27667
335.588	4244
335.675	2123
335.762	4047
335.850	6309
335.937	3837
336.024	10549
336.111	45351
336.199	14286
336.286	3059
336.373	2087
336.460	1242
336.547	1796
336.635	2641
336.722	2211
336.809	2610
336.896	3229
336.983	14462
337.070	34086
337.157	46163
337.245	29227
337.332	15858
337.419	2417
337.506	1844
337.593	3508
337.680	12024
337.767	34044
337.854	8824
337.941	9003
338.028	9612
338.115	3968
338.202	5118
338.289	8461
338.376	26278
338.463	7782
338.550	21844
338.637	19300
338.724	6250
338.811	7343
338.898	1443
338.984	1191
339.071	2602
339.158	3656
339.245	6618
339.332	4255
339.419	5899
339.506	6135
339.593	1399
339.679	1777
339.766	1200
339.853	3346
339.940	4698
340.027	1735
340.113	2379
340.200	2790
340.287	2102
340.374	2179
340.460	4129
340.547	1945
340.634	3972
340.720	13698
340.807	5911
340.894	1558
340.980	1371
341.067	636
341.154	2233
341.240	3424
341.327	5855
341.414	2686
341.500	3156
341.587	2433
341.674	1579
341.760	4378
341.847	3983
341.933	2024
342.020	637
342.106	687
342.193	1819
342.279	3055
342.366	3099
342.452	4416
342.539	1771
342.625	6384
342.712	12374
342.798	3987
342.885	1691
342.971	878
343.058	1115
343.144	1508
343.230	1439
343.317	2034
343.403	1116
343.490	787
343.576	1251
343.662	2187
343.749	2106
343.835	2356
343.921	4635
344.008	28853
344.094	55201
344.180	10527
344.267	5164
344.353	18292
344.439	16214
344.525	6270
344.612	6952
344.698	6249
344.784	3135
344.870	2443
344.957	1844
345.043	3034
345.129	1283
345.215	4524
345.301	2906
345.387	2703
345.474	1577
345.560	1166
345.646	1685
345.732	1906
345.818	2154
345.904	1186
345.990	1671
346.076	2255
346.162	4003
346.249	2072
346.335	1015
346.421	1671
346.507	7596
346.593	22662
346.679	4071
346.765	2770
346.851	1947
346.937	458
347.023	1980
347.108	1137
347.194	2096
347.280	2115
347.366	2443
347.452	7599
347.538	27846
347.624	20456
347.710	16378
347.796	1938
347.882	975
347.967	1796
348.053	3183
348.139	1364
348.225	796
348.311	661
348.397	1564
348.482	1846
348.568	1682
348.654	971
348.740	965
348.825	702
348.911	3866
348.997	14573
349.083	23942
349.168	3664
349.254	1978
349.340	2260
349.425	731
349.511	2204
349.597	2177
349.682	4895
349.768	16783
349.854	7083
349.939	1529
350.025	732
350.110	2456
350.196	1297
350.282	1124
350.367	1291
350.453	2611
350.538	2506
350.624	2163
350.709	2533
350.795	293
350.880	1047
350.966	2492
351.051	2823
351.137	1401
351.222	1455
351.308	5851
351.393	13673
351.479	3619
351.564	1837
351.649	665
351.735	1075
351.820	2036
351.906	1886
351.991	2483
352.076	10461
352.162	12466
352.247	2660
352.332	1862
352.418	4509
352.503	6038
352.588	21891
352.673	14705
352.759	3649
352.844	1865
352.929	2101
353.014	2552
353.100	2154
353.185	2136
353.270	4205
353.355	4350
353.441	1767
353.526	1892
353.611	3511
353.696	3625
353.781	2828
353.866	498
353.952	1950
354.037	4508
354.122	8692
354.207	7515
354.292	3638
354.377	1330
354.462	1482
354.547	1102
354.632	1956
354.717	3272
354.802	2583
354.887	1125
354.972	1226
355.057	1227
355.142	406
355.227	1608
355.312	2348
355.397	5153
355.482	13184
355.567	5406
355.652	5741
355.737	5971
355.822	20464
355.907	13184
355.991	2643
356.076	789
356.161	1869
356.246	692
356.331	2024
356.416	3452
356.501	32993
356.585	27050
356.670	3230
356.755	3737
356.840	4181
356.924	22084
357.009	68208
357.094	22630
357.179	4276
357.263	3219
357.348	3269
357.433	2728
357.517	3653
357.602	2327
357.687	1895
357.771	4919
357.856	17679
357.941	8969
358.025	17336
358.110	66153
358.195	26686
358.279	4199
358.364	3724
358.448	13466
358.533	35275
358.617	23772
358.702	24930
358.787	8092
358.871	4980
358.956	3289
359.040	1025
359.125	1027
359.209	2244
359.294	8592
359.378	12239
359.462	4134
359.547	2508
359.631	1328
359.716	613
359.800	1238
359.885	3812
359.969	542
360.053	1852
360.138	1893
360.222	2848
360.306	4156
360.391	2663
360.475	9204
360.559	16617
360.644	13005
360.728	7043
360.812	18195
360.896	44778
360.981	18155
361.065	8086
361.149	2907
361.233	2477
361.318	1692
361.402	1419
361.486	3139
361.570	938
361.654	1918
361.739	6301
361.823	30743
361.907	43373
361.991	6699
362.075	3349
362.159	6722
362.243	5539
362.327	3094
362.411	4540
362.495	1786
362.580	1826
362.664	1634
362.748	450
362.832	1658
362.916	1106
363.000	8375
363.084	31167
363.168	47746
363.252	10245
363.336	4556
363.420	6751
363.503	32679
363.587	35143
363.671	5031
363.755	2370
363.839	4970
363.923	1473
364.007	5239
364.091	5185
364.175	10897
364.258	50357
364.342	21425
364.426	12023
364.510	5034
364.594	6499
364.677	9874
364.761	39743
364.845	25681
364.929	8118
365.013	6888
365.096	5167
365.180	6441
365.264	14790
365.347	50316
365.431	18638
365.515	4022
365.598	1034
365.682	2899
365.766	5009
365.849	5809
365.933	2068
366.017	4690
366.100	2771
366.184	192
366.267	2167
366.351	987
366.435	1203
366.518	837
366.602	828
366.685	1360
366.769	1607
366.852	4407
366.936	6489
367.019	3033
367.103	3101
367.186	7835
367.270	1696
367.353	180
367.436	1571
367.520	239
367.603	1796
367.687	1981
367.770	4560
367.853	3677
367.937	13047
368.020	18994
368.104	3380
368.187	3992
368.270	6928
368.353	5072
368.437	7580
368.520	16107
368.603	9277
368.687	14105
368.770	24528
368.853	5850
368.936	6483
369.020	6704
369.103	1894
369.186	635
369.269	1531
369.352	3951
369.436	3901
369.519	2734
369.602	646
369.685	2473
369.768	681
369.851	1288
369.934	650
370.018	1707
370.101	3949
370.184	5198
370.267	2897
370.350	4933
370.433	7706
370.516	20871
370.599	22440
370.682	4649
370.765	13723
370.848	18860
370.931	32453
371.014	12632
371.097	1304
371.180	1919
371.263	1693
371.346	-123
371.429	1036
371.511	752
371.594	2036
371.677	5680
371.760	7308
371.843	5188
371.926	26228
372.009	54006
372.091	18043
372.174	12884
372.257	29911
372.340	10428
372.423	9504
372.505	11551
372.588	4335
372.671	11090
372.754	30335
372.836	14835
372.919	16407
373.002	29358
373.085	6036
373.167	5655
373.250	13444
373.332	29177
373.415	40000
373.498	72268
373.580	24937
373.663	33912
373.746	42857
373.828	9132
373.911	5474
373.993	6236
374.076	30362
374.159	24357
374.241	9395
374.324	26106
374.406	17170
374.489	25056
374.571	62773
374.654	24484
374.736	14170
374.819	38977
374.901	57016
374.983	52262
375.066	8305
375.148	4807
375.231	25218
375.313	44362
375.395	13535
375.478	1936
375.560	2214
375.643	2657
375.725	12581
375.807	49165
375.890	37881
375.972	14113
376.054	8546
376.136	13498
376.219	5116
376.301	15781
376.383	41468
376.465	15256
376.548	7193
376.630	12510
376.712	35745
376.794	15380
376.877	1949
376.959	267
377.041	1865
377.123	5909
377.205	7223
377.287	338
377.369	1979
377.452	248
377.534	1232
377.616	1571
377.698	583
377.780	34
377.862	182
377.944	1819
378.026	94
378.108	1579
378.190	533
378.272	586
378.354	845
378.436	756
378.518	2436
378.600	11231
378.682	9504
378.764	17272
378.846	12972
378.928	3664
379.010	3743
379.091	3009
379.173	729
379.255	205
379.337	1387
379.419	8934
379.501	26052
379.583	9002
379.664	2196
379.746	4426
379.828	19101
379.910	24975
379.991	20305
380.073	2426
380.155	1981
380.237	805
380.318	287
380.400	978
380.482	3901
380.564	5202
380.645	3914
380.727	3584
380.809	2884
380.890	1295
380.972	-90
381.053	1040
381.135	1933
381.217	6567
381.298	18194
381.380	7439
381.461	8089
381.543	37040
381.624	41336
381.706	6907
381.787	4022
381.869	4643
381.951	16415
382.032	55950
382.113	34518
382.195	5723
382.276	4909
382.358	11361
382.439	31687
382.521	37297
382.602	52831
382.684	23773
382.765	43145
382.846	38344
382.928	36433
383.009	18759
383.090	15521
383.172	59332
383.253	81553
383.334	34150
383.416	46702
383.497	21574
383.578	7847
383.659	14049
383.741	55691
383.822	130698
383.903	62582
383.984	30972
384.066	60268
384.147	33835
384.228	6429
384.309	3892
384.390	1859
384.471	2340
384.553	2507
384.634	4261
384.715	3983
384.796	1420
384.877	3186
384.958	17359
385.039	17749
385.120	5497
385.201	3375
385.282	3609
385.363	5102
385.444	2289
385.525	7258
385.606	24895
385.687	21722
385.768	4703
385.849	6471
385.930	29255
386.011	45346
386.092	10794
386.173	3397
386.254	2237
386.335	2734
386.416	2308
386.496	11416
386.577	17905
386.658	6670
386.739	2860
386.820	4044
386.901	2953
386.981	2595
387.062	1650
387.143	3602
387.224	17380
387.304	16372
387.385	4887
387.466	2228
387.547	5149
387.627	2299
387.708	7611
387.789	33426
387.869	36751
387.950	10021
388.031	937
388.111	257
388.192	7601
388.273	10900
388.353	4527
388.434	2339
388.514	6246
388.595	29950
388.676	37309
388.756	17484
388.837	15372
388.917	8552
388.998	311
389.078	2413
389.159	1449
389.239	767
389.320	3527
389.400	1313
389.480	7773
389.561	18762
389.641	9540
389.722	2671
389.802	4023
389.883	9069
389.963	23438
390.043	14494
390.124	3760
390.204	8259
390.284	19146
390.365	12318
390.445	19766
390.525	45285
390.605	35528
390.686	9626
390.766	3407
390.846	1962
390.927	267
391.007	863
391.087	1922
391.167	1529
391.247	526
391.328	4082
391.408	5245
391.488	4613
391.568	-333
391.648	1546
391.728	2441
391.808	2780
391.888	3021
391.969	10926
392.049	17010
392.129	7727
392.209	8943
392.289	21992
392.369	12056
392.449	12099
392.529	6688
392.609	4099
392.689	6795
392.769	21061
392.849	16334
392.929	14351
393.009	30897
393.089	18209
393.169	8068
393.248	30322
393.328	141183
393.408	143466
393.488	26912
393.568	7136
393.648	4171
393.728	3064
393.807	1074
393.887	2677
393.967	3197
394.047	4155
394.127	5907
394.206	13887
394.286	53168
394.366	189902
394.446	193000
394.525	50712
394.605	12125
394.685	10961
394.764	19956
394.844	30798
394.924	20605
395.003	5166
395.083	3732
395.163	3129
395.242	3306
395.322	3008
395.402	1185
395.481	4657
395.561	13902
395.640	33285
395.720	24709
395.799	37944
395.879	32154
395.958	22711
396.038	81037
396.117	245316
396.197	252447
396.276	88603
396.356	28255
396.435	17714
396.515	9718
396.594	7576
396.673	11582
396.753	40715
396.832	132468
396.912	96927
396.991	21368
397.070	6005
397.150	1402
397.229	3082
397.308	1974
397.388	3125
397.467	2482
397.546	1387
397.625	-623
397.705	2829
397.784	1831
397.863	907
397.942	626
398.022	1595
398.101	12109
398.180	32556
398.259	15837
398.338	4138
398.417	686
398.497	828
398.576	1488
398.655	-88
398.734	1399
398.813	2084
398.892	11771
398.971	36701
399.050	16529
399.129	746
399.208	428
399.287	2348
399.366	228
399.445	820
399.524	534
399.603	-1057
399.682	3007
399.761	10697
399.840	37940
399.919	27923
399.998	3404
400.077	-754
400.156	-662
400.235	2686
400.313	50
400.392	573
400.471	9827
400.550	14013
400.629	2465
400.708	2075
400.786	2115
400.865	7196
400.944	6643
401.023	3374
401.102	-294
401.180	311
401.259	186
401.338	788
401.416	1203
401.495	838
401.574	1589
401.652	289
401.731	1917
401.810	217
401.888	-173
401.967	-369
402.046	132
402.124	1228
402.203	929
402.281	1208
402.360	1604
402.438	9555
402.517	5094
402.596	1534
402.674	1218
402.753	284
402.831	1326
402.910	1293
402.988	4470
403.066	16951
403.145	10724
403.223	7233
403.302	14013
403.380	10407
403.459	8403
403.537	2999
403.615	1236
403.694	-429
403.772	-203
403.850	26
403.929	-94
404.007	-259
404.085	2542
404.164	801
404.242	1326
404.320	11141
404.398	31571
404.477	31653
404.555	49960
404.633	44504
404.711	24384
404.789	14926
404.868	2291
404.946	128
405.024	212
405.102	-560
405.180	-356
405.258	-763
405.336	615
405.415	11
405.493	2884
405.571	1749
405.649	17
405.727	-243
405.805	2070
405.883	1056
405.961	1439
406.039	1390
406.117	-48
406.195	2220
406.273	11245
406.351	38790
406.429	23225
406.507	3281
406.585	-105
406.663	1337
406.740	792
406.818	-274
406.896	-424
406.974	892
407.052	1347
407.130	22774
407.208	30109
407.285	5477
407.363	-638
407.441	162
407.519	-691
407.596	788
407.674	2682
407.752	8895
407.830	11256
407.907	4254
407.985	291
408.063	-547
408.141	19
408.218	1929
408.296	881
408.373	-63
408.451	281
408.529	774
408.606	-1305
408.684	-669
408.762	-215
408.839	-1237
408.917	-703
408.994	-697
409.072	-1258
409.149	-1000
409.227	378
409.304	133
409.382	-12
409.459	-9
409.537	1358
409.614	-107
409.692	-436
409.769	-442
409.846	557
409.924	1967
410.001	-528
410.079	387
410.156	856
410.233	148
410.311	-398
410.388	-713
410.465	767
410.543	-369
410.620	264
410.697	-381
410.775	187
410.852	-2066
410.929	187
411.006	1548
411.083	-514
411.161	1536
411.238	2861
411.315	1232
411.392	-429
411.469	1891
411.547	1258
411.624	-794
411.701	54
411.778	227
411.855	1003
411.932	-275
412.009	-697
412.086	606
412.163	-133
412.240	-198
412.317	1391
412.394	273
412.471	-48
412.548	-575
412.625	-342
412.702	674
412.779	2226
412.856	1398
412.933	-337
413.010	119
413.087	1559
413.164	7553
413.241	11752
413.318	1410
413.395	1553
413.471	1676
413.548	101
413.625	692
413.702	-576
413.779	640
413.855	-510
413.932	-760
414.009	-1399
414.086	-87
414.162	190
414.239	973
414.316	7499
414.393	17975
414.469	5463
414.546	37
414.623	-707
414.699	142
414.776	-381
414.853	-343
414.929	607
415.006	-466
415.082	492
415.159	137
415.236	495
415.312	184
415.389	1042
415.465	970
415.542	14
415.618	-883
415.695	533
415.771	-44
415.848	-348
415.924	-195
416.000	46
416.077	286
416.153	-1202
416.230	-1313
416.306	-710
416.383	-1232
416.459	-246
416.535	-1027
416.612	-1023
416.688	-972
416.764	-1561
416.841	-933
416.917	-525
416.993	289
417.069	329
417.146	904
417.222	1582
417.298	1340
417.374	-89
417.451	371
417.527	259
417.603	-35
417.679	-436
417.755	-923
417.831	-1157
417.908	-126
417.984	-1024
418.060	-1297
418.136	907
418.212	1390
418.288	293
418.364	651
418.440	-706
418.516	727
418.592	1965
418.668	3255
418.744	4152
418.820	3236
418.896	173
418.972	-1176
419.048	-801
419.124	2178
419.200	-131
419.276	-299
419.352	-1251
419.428	-415
419.504	-460
419.579	-311
419.655	-713
419.731	-697
419.807	2385
419.883	4581
419.959	2444
420.034	705
420.110	2536
420.186	10717
420.262	8456
420.337	784
420.413	-157
420.489	-426
420.565	234
420.640	-585
420.716	-395
420.792	-1414
420.867	103
420.943	-357
421.019	669
421.094	-811
421.170	-13
421.245	-1131
421.321	-642
421.397	-1236
421.472	1158
421.548	3063
421.623	2507
421.699	235
421.774	-95
421.850	-966
421.925	763
422.001	673
422.076	-460
422.152	-273
422.227	1394
422.302	2311
422.378	2367
422.453	4805
422.529	17098
422.604	70171
422.679	137609
422.755	74345
422.830	17416
422.905	5701
422.981	1627
423.056	1302
423.131	1123
423.207	-148
423.282	1031
423.357	2954
423.432	504
423.508	1348
423.583	4084
423.658	2823
423.733	344
423.808	609
423.883	1361
423.959	392
424.034	-404
424.109	630
424.184	-1309
424.259	-619
424.334	-430
424.409	-638
424.484	-509
424.559	-375
424.634	-728
424.709	67
424.784	94
424.859	-370
424.934	583
425.009	7456
425.084	11810
425.159	2840
425.234	-2
425.309	-246
425.384	4004
425.459	6072
425.534	1202
425.609	99
425.683	-105
425.758	-1206
425.833	-505
425.908	364
425.983	3980
426.058	12606
426.132	4406
426.207	36
426.282	2794
426.357	937
426.431	-225
426.506	-93
426.581	-440
426.655	251
426.730	-406
426.805	-1218
426.879	474
426.954	-193
427.029	1530
427.103	13463
427.178	33356
427.253	13816
427.327	1339
427.402	2607
427.476	8346
427.551	3344
427.625	402
427.700	918
427.774	20
427.849	169
427.923	-1192
427.998	-376
428.072	-905
428.147	1546
428.221	6973
428.296	16597
428.370	6931
428.444	901
428.519	2025
428.593	6262
428.667	5062
428.742	6668
428.816	5537
428.890	14841
428.965	21132
429.039	7720
429.113	6854
429.188	1504
429.262	-199
429.336	1721
429.410	5654
429.485	3736
429.559	5218
429.633	4115
429.707	1186
429.781	3623
429.855	18161
429.930	24297
430.004	18885
430.078	34841
430.152	25262
430.226	27200
430.300	25211
430.374	3268
430.448	2199
430.522	11032
430.596	33216
430.670	18082
430.744	27417
430.818	39481
430.892	7697
430.966	122
431.040	746
431.114	-716
431.188	-677
431.262	-808
431.336	-116
431.410	2808
431.484	8108
431.557	4372
431.631	-448
431.705	-1257
431.779	1863
431.853	14384
431.927	9356
432.000	249
432.074	-435
432.148	862
432.222	252
432.295	-562
432.369	-247
432.443	1104
432.516	15023
432.590	33938
432.664	12193
432.737	364
432.811	-1051
432.885	-805
432.958	-146
433.032	-1220
433.106	-1098
433.179	-1233
433.253	-656
433.326	-1464
433.400	-837
433.473	-239
433.547	-1273
433.620	-397
433.694	313
433.767	591
433.841	-715
433.914	-416
433.988	-885
434.061	-439
434.134	-641
434.208	-958
434.281	-1017
434.355	-612
434.428	-265
434.501	-1019
434.575	-514
434.648	-282
434.721	95
434.795	-752
434.868	-1012
434.941	-1331
435.014	-1028
435.088	-730
435.161	-171
435.234	73
435.307	-76
435.381	-439
435.454	-508
435.527	-386
435.600	-924
435.673	-319
435.746	-567
435.819	-774
435.892	-1082
435.966	-402
436.039	-719
436.112	253
436.185	-952
436.258	-604
436.331	-604
436.404	-781
436.477	-1318
436.550	-885
436.623	-730
436.696	-1567
436.769	-956
436.842	-412
436.915	358
436.987	67
437.060	-197
437.133	-901
437.206	-1415
437.279	-78
437.352	-1061
437.425	-755
437.498	-219
437.570	1820
437.643	1003
437.716	-636
437.789	-432
437.861	1442
437.934	3873
438.007	1046
438.080	22
438.152	236
438.225	1825
438.298	20328
438.370	49005
438.443	20267
438.516	3699
438.588	56
438.661	-843
438.734	-558
438.806	-196
438.879	744
438.951	762
439.024	1111
439.096	-269
439.169	-742
439.241	-368
439.314	-360
439.386	734
439.459	610
439.531	2407
439.604	-565
439.676	-788
439.749	-66
439.821	-1021
439.893	-53
439.966	-363
440.038	-131
440.110	-159
440.183	-520
440.255	-1118
440.327	1040
440.400	8582
440.472	32252
440.544	19060
440.617	1634
440.689	1841
440.761	1699
440.833	3741
440.905	2776
440.978	-524
441.050	-637
441.122	-41
441.194	-1190
441.266	-538
441.338	-1138
441.411	700
441.483	9128
441.555	13215
441.627	2477
441.699	1378
441.771	986
441.843	-357
441.915	-1062
441.987	-294
442.059	29
442.131	380
442.203	653
442.275	651
442.347	446
442.419	447
442.491	5682
442.563	12675
442.635	7445
442.706	8497
442.778	6525
442.850	265
442.922	98
442.994	-182
443.066	715
443.137	365
443.209	86
443.281	-78
443.353	2466
443.425	8962
443.496	27041
443.568	25000
443.640	8257
443.711	1544
443.783	494
443.855	-128
443.926	-269
443.998	382
444.070	722
444.141	835
444.213	1381
444.285	1351
444.356	753
444.428	270
444.499	-602
444.571	-435
444.642	-401
444.714	-429
444.785	401
444.857	1895
444.928	6520
445.000	3628
445.071	5196
445.143	4750
445.214	1636
445.285	3531
445.357	11711
445.428	25693
445.500	52218
445.571	33440
445.642	13197
445.714	8902
445.785	11074
445.856	2281
445.928	2197
445.999	1143
446.070	642
446.141	1224
446.213	2396
446.284	403
446.355	1243
446.426	286
446.497	84
446.569	1593
446.640	2300
446.711	944
446.782	201
446.853	821
446.924	712
446.995	133
447.066	498
447.138	2213
447.209	749
447.280	-108
447.351	671
447.422	-584
447.493	1002
447.564	1513
447.635	676
447.706	157
447.777	-466
447.847	593
447.918	-476
447.989	510
448.060	2158
448.131	4792
448.202	3841
448.273	1436
448.344	973
448.414	395
448.485	-33
448.556	-170
448.627	-1150
448.698	679
448.768	195
448.839	134
448.910	2891
448.981	2243
449.051	159
449.122	-158
449.193	-99
449.263	851
449.334	366
449.405	1045
449.475	3016
449.546	2136
449.616	3116
449.687	2944
449.758	728
449.828	726
449.899	180
449.969	376
450.040	170
450.110	1437
450.181	678
450.251	194
450.322	1494
450.392	1070
450.463	-323
450.533	388
450.604	514
450.674	171
450.744	965
450.815	162
450.885	733
450.955	646
451.026	-120
451.096	-12
451.166	604
451.237	3266
451.307	8873
451.377	3006
451.447	551
451.518	512
451.588	345
451.658	229
451.728	2199
451.799	9674
451.869	9946
451.939	2570
452.009	926
452.079	442
452.149	1149
452.219	2756
452.289	10570
452.360	7308
452.430	2051
452.500	979
452.570	1059
452.640	1803
452.710	5835
452.780	9586
452.850	6284
452.920	4488
452.990	2292
453.060	1541
453.129	1128
453.199	2836
453.269	14382
453.339	26380
453.409	38432
453.479	41143
453.549	58203
453.619	60058
453.688	21390
453.758	3546
453.828	1197
453.898	1413
453.968	1118
454.037	585
454.087	747
454.107	798
454.168	207
454.177	107
454.247	931
454.249	927
454.316	167
454.330	486
454.386	1477
454.411	3227
454.456	5790
454.492	7009
454.525	8149
454.574	4693
454.595	3218
454.655	1484
454.665	1231
454.734	2086
454.736	2218
454.804	4610
454.817	6128
454.873	11217
454.898	11268
454.943	11234
454.979	6921
455.013	3325
455.060	2766
455.082	2697
455.141	3845
455.152	4097
455.221	11370
455.222	11633
455.291	19855
455.303	20851
455.360	23360
455.384	29859
455.430	37380
455.465	26962
455.499	18590
455.546	13765
455.569	11290
455.627	6937
455.638	6335
455.707	1741
455.708	1759
455.777	1529
455.789	1533
455.846	1422
455.869	1489
455.916	1596
455.950	1465
455.985	1241
456.031	1421
456.054	1560
456.112	1726
456.124	1755
456.193	1495
456.193	1475
456.262	1837
456.274	2027
456.332	2790
456.355	2677
456.401	1984
456.436	1843
456.470	1929
456.516	1645
456.540	1441
456.597	526
456.609	362
456.678	1469
456.678	1459
456.747	1444
456.759	1285
456.817	675
456.840	902
456.886	1122
456.920	1271
456.955	1730
457.001	2330
457.024	2552
457.082	2412
457.093	2401
457.162	3858
457.163	3885
457.232	3228
457.243	2896
457.301	1530
457.324	1329
457.370	1152
457.405	1352
457.439	1699
457.485	1439
457.508	1193
457.566	1647
457.577	1815
457.646	2918
457.647	2935
457.715	2836
457.727	2973
457.784	3858
457.808	4132
457.853	4276
457.889	4767
457.922	4932
457.969	4361
457.991	4389
458.050	5060
458.060	5173
458.129	6313
458.130	6364
458.198	5484
458.211	5020
458.267	3688
458.292	3072
458.336	2495
458.372	2620
458.405	3411
458.453	4571
458.474	4991
458.533	6858
458.543	7052
458.611	9453
458.614	9549
458.680	6914
458.694	5620
458.749	3439
458.775	3098
458.818	2493
458.855	2600
458.887	2850
458.936	2636
458.955	2471
459.016	2398
459.024	2425
459.093	2756
459.097	2791
459.162	3200
459.177	3243
459.230	3432
459.257	3622
459.299	3659
459.338	3677
459.368	3757
459.418	4110
459.437	3972
459.499	3106
459.505	3142
459.574	3688
459.579	3749
459.643	3544
459.659	3315
459.711	2951
459.740	3020
459.780	3172
459.820	3382
459.849	3612
459.900	3944
459.917	3828
459.981	3593
459.986	3602
460.054	3549
460.061	3567
460.123	3875
460.141	4033
460.191	5041
460.222	5476
460.260	5086
460.302	4817
460.328	4764
460.382	4720
460.397	4745
460.462	4550
460.465	4684
460.534	8293
460.543	8703
460.602	16580
460.623	20030
460.671	30516
460.703	39823
460.739	33309
460.783	22159
460.808	19967
460.864	7446
460.876	6078
460.944	4379
460.945	4357
461.013	4090
461.024	4091
461.081	4128
461.104	4214
461.150	4216
461.184	4122
461.218	3862
461.264	3496
461.286	3660
461.345	3983
461.355	3903
461.423	3776
461.425	3763
461.491	4845
461.505	5243
461.559	10573
461.585	12761
461.628	17889
461.665	23400
461.696	23272
461.745	24077
461.764	21204
461.825	6917
461.832	6639
461.901	4725
461.905	4750
461.969	4519
461.985	4435
462.037	4962
462.065	5074
462.105	6058
462.145	7316
462.173	9170
462.225	12812
462.241	13887
462.305	18861
462.310	18282
462.378	8332
462.385	7034
462.446	5062
462.465	4710
462.514	4729
462.545	5150
462.582	4977
462.625	4452
462.650	4294
462.705	3952
462.718	4155
462.785	5326
462.786	5372
462.854	8098
462.865	8574
462.922	9755
462.945	10221
462.990	7529
463.025	4880
463.058	4393
463.104	4018
463.126	4034
463.184	4495
463.194	4690
463.262	5647
463.264	5683
463.330	5161
463.344	5039
463.398	6014
463.424	6530
463.466	5906
463.504	5328
463.533	5486
463.583	5347
463.601	5415
463.663	6108
463.669	6364
463.737	9242
463.743	9500
463.805	14658
463.823	16192
463.873	23981
463.903	28806
463.940	27629
463.982	26711
464.008	21295
464.062	8009
464.076	7571
464.142	5458
464.144	5429
464.211	5003
464.221	4964
464.279	5615
464.301	5822
464.347	6526
464.381	7243
464.414	7608
464.461	7873
464.482	8193
464.540	9251
464.550	9009
464.617	6961
464.620	6881
464.685	8328
464.699	8654
464.753	10474
464.779	11415
464.820	12408
464.859	13487
464.888	12906
464.938	11583
464.956	11801
465.018	12405
465.023	12275
465.091	10384
465.098	10184
465.158	10560
465.177	10670
465.226	9941
465.257	9494
465.293	10220
465.336	10963
465.361	11569
465.416	12908
465.428	14022
465.495	20182
465.496	20272
465.563	29465
465.575	31122
465.631	34041
465.654	35323
465.698	22670
465.734	11337
465.765	10805
465.813	10274
465.833	10120
465.893	9914
465.900	9969
465.968	10463
465.972	10485
466.035	10091
466.052	9943
466.102	10867
466.131	11361
466.170	11097
466.210	10843
466.237	11554
466.290	12981
466.304	12879
466.369	12131
466.372	12160
466.439	12627
466.449	12669
466.506	14866
466.528	15698
466.573	22452
466.607	27436
466.641	34496
466.687	44307
466.708	46379
466.766	52031
466.775	48269
466.842	19095
466.845	17683
466.909	15856
466.925	15456
466.977	15512
467.004	15550
467.044	16585
467.083	17588
467.111	18668
467.163	20616
467.178	20868
467.242	21760
467.245	21689
467.312	19534
467.321	19222
467.379	19246
467.400	19203
467.446	19690
467.480	19988
467.559	17169
467.638	15023
467.717	15606
467.796	16748
467.875	17246
467.955	16394
468.034	29820
468.113	50341
468.192	64862
468.271	15947
468.350	13770
468.429	13240
468.508	13206
468.588	12523
468.667	14134
468.746	14282
468.825	13165
468.904	11503
468.983	16194
469.062	22350
469.141	23649
469.220	11568
469.299	12787
469.378	13420
469.456	17983
469.535	14468
469.614	13772
469.693	14975
469.772	19115
469.851	24806
469.930	15349
470.009	12868
470.088	12584
470.166	13309
470.245	15448
470.324	16260
470.403	13561
470.482	12593
470.560	12569
470.639	12418
470.718	14611
470.797	12304
470.875	15689
470.954	18805
471.033	19234
471.111	9600
471.190	11020
471.269	8992
471.347	11123
471.426	11377
471.505	15152
471.583	14947
471.662	14231
471.740	11750
471.819	12971
471.898	10589
471.976	12175
472.055	10405
472.133	13251
472.212	16018
472.290	15666
472.369	10618
472.447	11013
472.526	9328
472.604	11768
472.683	11545
472.761	10133
472.839	10858
472.918	10814
472.996	10533
473.075	12942
473.153	11124
473.231	11193
473.310	11075
473.388	11243
473.466	11633
473.545	13103
473.623	15507
473.701	13876
473.780	9725
473.858	11173
473.936	12156
474.014	11014
474.093	12700
474.171	18204
474.249	21757
474.327	12751
474.405	9351
474.484	10368
474.562	10383
474.640	10150
474.718	11707
474.796	11497
474.874	11203
474.952	9967
475.030	9820
475.108	11266
475.187	11481
475.265	13691
475.343	13527
475.421	14170
475.499	10153
475.577	11259
475.655	14979
475.733	28314
475.811	43628
475.889	39619
475.966	19464
476.044	10170
476.122	10610
476.200	12332
476.278	9945
476.356	9650
476.434	10306
476.512	11467
476.590	11410
476.667	11201
476.745	7964
476.823	9646
476.901	9003
476.979	10728
477.056	9242
477.134	9794
477.212	9941
477.290	9473
477.367	8104
477.445	9530
477.523	8392
477.601	8405
477.678	9275
477.756	11897
477.834	10744
477.911	8299
477.989	7866
478.066	8473
478.144	9967
478.222	9557
478.299	11313
478.377	10608
478.454	7038
478.532	7831
478.609	8015
478.687	9649
478.764	7123
478.842	8138
478.919	7978
478.997	8654
479.074	7361
479.152	10614
479.229	11616
479.307	8088
479.384	5688
479.461	6904
479.539	8360
479.616	10203
479.694	7076
479.771	9818
479.848	9317
479.926	12392
480.003	12647
480.080	8134
480.157	7370
480.235	6983
480.312	6954
480.389	9622
480.467	15705
480.544	16338
480.621	8050
480.698	8870
480.775	9920
480.853	10127
480.930	7121
481.007	9598
481.084	9899
481.161	11133
481.238	8289
481.315	8086
481.392	6947
481.470	8429
481.547	8145
481.624	7705
481.701	7266
481.778	7682
481.855	9557
481.932	15503
482.009	23019
482.086	11843
482.163	6905
482.240	9599
482.317	12395
482.393	9536
482.470	8035
482.547	8028
482.624	6070
482.701	8807
482.778	6555
482.855	5857
482.932	6398
483.009	5982
483.085	7507
483.162	8147
483.239	7516
483.316	6043
483.393	5812
483.469	7156
483.546	8877
483.623	9664
483.699	7372
483.776	8345
483.853	9113
483.930	18123
484.006	39963
484.083	61724
484.160	36215
484.236	53858
484.313	36299
484.389	29219
484.466	26128
484.543	24414
484.619	23604
484.696	25922
484.772	26699
484.849	27998
484.925	23263
485.002	24699
485.078	24250
485.155	24681
485.231	22729
485.308	23033
485.384	22683
485.461	29167
485.537	42776
485.614	43226
485.690	21561
485.766	21390
485.843	21815
485.919	28610
485.995	26490
486.072	20503
486.148	18787
486.224	21070
486.301	20416
486.377	23067
486.453	21308
486.530	25749
486.606	32366
486.682	35069
486.758	39849
486.835	40935
486.911	35991
486.987	53542
487.063	46973
487.139	52185
487.215	35326
487.292	23612
487.368	21663
487.444	23755
487.520	26124
487.596	22468
487.672	26887
487.748	40775
487.824	44484
487.900	23715
487.976	22204
488.052	22941
488.128	26237
488.204	21874
488.280	19030
488.356	28306
488.432	50729
488.508	61080
488.584	21655
488.660	19198
488.736	19171
488.812	20241
488.888	23947
488.964	31016
489.039	55741
489.115	69208
489.191	34361
489.267	19486
489.343	18471
489.418	15958
489.494	16711
489.570	15375
489.646	16724
489.722	16568
489.797	18109
489.873	30251
489.949	53996
490.024	33384
490.100	15946
490.176	16665
490.251	17438
490.327	22182
490.403	12720
490.478	14725
490.554	12940
490.629	13974
490.705	11581
490.781	15168
490.856	13630
490.932	16328
491.007	15214
491.083	15458
491.158	14696
491.234	23847
491.309	40425
491.385	32438
491.460	13337
491.536	16552
491.611	12709
491.686	15074
491.762	19934
491.837	35614
491.913	52871
491.988	74913
492.063	72066
492.139	27570
492.214	16355
492.289	11591
492.365	12081
492.440	14821
492.515	13773
492.590	13272
492.666	11331
492.741	18429
492.816	22391
492.891	12210
492.967	11866
493.042	11351
493.117	12955
493.192	16548
493.267	42010
493.342	123418
493.418	123003
493.493	15888
493.568	8982
493.643	11654
493.718	14183
493.793	19114
493.868	17735
493.943	11430
494.018	10184
494.093	9377
494.168	9565
494.243	8698
494.318	8271
494.393	9013
494.468	8968
494.543	8980
494.618	9608
494.693	9393
494.768	9928
494.842	9129
494.917	7700
494.992	10046
495.067	8010
495.142	8921
495.217	8669
495.292	9358
495.366	10698
495.441	12815
495.516	14938
495.591	25722
495.665	74939
495.740	133615
495.815	34764
495.890	13327
495.964	8867
496.039	13507
496.114	10521
496.188	12748
496.263	12474
496.338	11798
496.412	14237
496.487	16600
496.561	15316
496.636	15039
496.710	13364
496.785	15768
496.860	16612
496.934	14087
497.009	13502
497.083	14453
497.158	14389
497.232	18877
497.307	20631
497.381	18690
497.455	22549
497.530	28077
497.604	21701
497.679	25378
497.753	36371
497.827	41470
497.902	38946
497.976	51356
498.050	131438
498.125	362695
498.199	233499
498.273	49945
498.348	42459
498.422	39467
498.496	36702
498.570	31388
498.645	27025
498.719	25610
498.793	28791
498.867	39024
498.941	55661
499.016	173854
499.090	333083
499.164	63255
499.238	16928
499.312	16284
499.386	18153
499.460	16622
499.534	15165
499.609	19554
499.683	25315
499.757	27730
499.831	83520
499.905	254654
499.979	143791
500.053	29205
500.127	27924
500.201	18310
500.275	14525
500.349	14041
500.422	15290
500.496	23834
500.570	53702
500.644	148580
500.718	203210
500.792	26129
500.866	15595
500.940	19156
501.013	13807
501.087	16517
501.161	24972
501.235	33742
501.309	95100
501.382	224758
501.456	118569
501.530	41202
501.603	61200
501.677	17460
501.751	9357
501.825	16270
501.898	35685
501.972	85144
502.046	30783
502.119	16200
502.193	43976
502.266	84887
502.340	28903
502.413	47254
502.487	68924
502.561	32811
502.634	10307
502.708	11389
502.781	8083
502.855	8766
502.928	6430
503.002	8967
503.075	7570
503.149	8231
503.222	8779
503.295	10100
503.369	11088
503.442	21673
503.516	76662
503.589	149668
503.662	67972
503.736	32074
503.809	70493
503.882	47585
503.956	86730
504.029	47927
504.102	22866
504.175	21583
504.249	9050
504.322	12560
504.395	8289
504.468	7936
504.542	7404
504.615	6147
504.688	6209
504.761	4684
504.834	8911
504.907	10609
504.980	12898
505.053	7845
505.127	7727
505.200	12879
505.273	11846
505.346	7335
505.419	5426
505.492	6292
505.565	4131
505.638	6019
505.711	4404
505.784	6358
505.857	4852
505.930	7457
506.003	3975
506.076	9301
506.149	9075
506.221	8943
506.294	12260
506.367	42829
506.440	113377
506.513	33401
506.586	11195
506.659	7231
506.731	5737
506.804	8086
506.877	9480
506.950	7173
507.022	6664
507.095	8983
507.168	8981
507.241	6396
507.313	4909
507.386	7342
507.459	7606
507.531	5978
507.604	4506
507.677	5726
507.749	2977
507.822	9485
507.894	17924
507.967	19343
508.040	10783
508.112	11584
508.185	9673
508.257	8471
508.330	12869
508.402	9130
508.475	8816
508.547	9955
508.620	10711
508.692	15058
508.765	8309
508.837	8059
508.909	7747
508.982	7408
509.054	8733
509.127	7356
509.199	7101
509.271	6775
509.344	6960
509.416	7358
509.488	7345
509.560	7565
509.633	7833
509.705	9739
509.777	9415
509.849	12169
509.922	8392
509.994	8586
510.066	8750
510.138	10541
510.210	22232
510.283	16723
510.355	13383
510.427	12999
510.499	10954
510.571	11686
510.643	11181
510.715	16196
510.787	10286
510.859	12647
510.931	12767
511.003	15530
511.076	11941
511.148	9872
511.219	10554
511.291	18985
511.363	16049
511.435	10041
511.507	8836
511.579	10184
511.651	10398
511.723	9554
511.795	7619
511.867	9716
511.939	12137
512.010	23162
512.082	13392
512.154	8538
512.226	9461
512.298	16341
512.369	19835
512.441	16089
512.513	13184
512.585	11435
512.656	13281
512.728	12238
512.800	9527
512.871	10957
512.943	10456
513.015	8910
513.086	10022
513.158	11548
513.230	10288
513.301	14841
513.373	13992
513.444	10433
513.516	8930
513.588	9926
513.659	10497
513.731	11394
513.802	11472
513.874	23182
513.945	25058
514.016	10349
514.088	9226
514.159	10587
514.231	14141
514.302	17551
514.374	14235
514.445	14491
514.516	26555
514.588	15260
514.659	14424
514.730	23457
514.802	16127
514.873	14446
514.944	16545
515.016	14870
515.087	13896
515.158	19771
515.229	22099
515.301	18317
515.372	22711
515.443	15438
515.514	10709
515.585	9056
515.656	9971
515.728	10454
515.799	8295
515.870	8990
515.941	10117
516.012	10081
516.083	14551
516.154	14536
516.225	15968
516.296	15067
516.367	12814
516.438	13293
516.509	14043
516.580	23406
516.651	70107
516.722	169393
516.793	46278
516.864	21042
516.935	18695
517.006	21628
517.077	30269
517.148	68140
517.219	213916
517.289	213104
517.360	106934
517.431	26084
517.502	12168
517.573	15047
517.643	12888
517.714	15726
517.785	14932
517.856	14699
517.926	17437
517.997	17922
518.068	17807
518.138	24811
518.209	40309
518.280	173547
518.350	403359
518.421	78418
518.492	17361
518.562	15773
518.633	14636
518.703	12042
518.774	18561
518.845	27502
518.915	20827
518.986	14031
519.056	16843
519.127	31054
519.197	53719
519.268	122207
519.338	43226
519.408	17294
519.479	17266
519.549	12201
519.620	10357
519.690	9343
519.760	9002
519.831	9953
519.901	8173
519.971	8638
520.042	8845
520.112	10819
520.182	11439
520.253	12484
520.323	10085
520.393	15163
520.463	19054
520.534	16175
520.604	26114
520.674	12014
520.744	15193
520.814	32455
520.885	23547
520.955	54782
521.025	133760
521.095	27478
521.165	10962
521.235	9548
521.305	7528
521.375	8129
521.445	10003
521.515	10655
521.585	12629
521.655	8609
521.725	11308
521.795	10630
521.865	6733
521.935	14739
522.005	8893
522.075	7711
522.145	9116
522.215	9053
522.285	12893
522.355	20682
522.424	35394
522.494	21512
522.564	12364
522.634	31174
522.704	57499
522.774	13379
522.843	7737
522.913	7618
522.983	8866
523.053	7614
523.122	7449
523.192	13475
523.262	38378
523.331	21056
523.401	7099
523.471	5574
523.540	7126
523.610	4495
523.680	5676
523.749	7015
523.819	8813
523.888	7485
523.958	5736
524.027	6352
524.097	5825
524.166	6333
524.236	5376
524.305	8250
524.375	4912
524.444	5102
524.514	8434
524.583	6676
524.653	8186
524.722	9284
524.791	5149
524.861	7396
524.930	3417
524.999	6399
525.069	8525
525.138	8479
525.207	7971
525.277	6514
525.346	4981
525.415	6430
525.484	5690
525.554	8022
525.623	6241
525.692	6830
525.761	5033
525.830	6746
525.900	6166
525.969	9865
526.038	10501
526.107	18269
526.176	37939
526.245	23479
526.314	18262
526.383	27339
526.452	24762
526.522	59157
526.591	46902
526.660	25807
526.729	11353
526.797	18638
526.867	54657
526.935	185314
527.004	145023
527.073	41768
527.142	7794
527.211	5685
527.280	8100
527.349	6944
527.418	3837
527.487	6083
527.555	4364
527.624	5092
527.693	2617
527.762	5973
527.831	2818
527.899	6047
527.968	4452
528.037	3856
528.106	6628
528.174	11346
528.243	9171
528.312	16323
528.380	12011
528.449	5460
528.518	4838
528.586	3204
528.655	5399
528.723	3689
528.792	3307
528.861	4151
528.929	2595
528.998	4712
529.066	3475
529.135	4352
529.203	3177
529.272	3056
529.340	4251
529.409	5527
529.477	3366
529.545	6845
529.614	7386
529.682	8119
529.751	7772
529.819	10584
529.887	3304
529.956	4380
530.024	4982
530.092	3806
530.161	5830
530.229	7986
530.297	3352
530.365	4823
530.434	4211
530.502	3280
530.570	3981
530.638	2510
530.707	4632
530.775	5680
530.843	3110
530.911	4389
530.979	3233
531.047	3771
531.115	4076
531.183	4038
531.252	4502
531.320	5143
531.388	2528
531.456	5039
531.524	1123
531.592	4681
531.660	6145
531.728	3835
531.796	2883
531.864	4790
531.932	3866
532.000	4297
532.067	4245
532.135	5678
532.203	6327
532.271	6870
532.339	14809
532.407	27598
532.475	10474
532.542	8074
532.610	8252
532.678	14850
532.746	70370
532.814	93692
532.881	14397
532.949	6106
533.017	5017
533.084	5708
533.152	3553
533.220	6117
533.287	3545
533.355	3712
533.423	4644
533.490	3859
533.558	4524
533.625	4821
533.693	6165
533.761	5838
533.828	6710
533.896	6250
533.963	13897
534.031	15280
534.098	15775
534.166	7555
534.233	4943
534.300	8593
534.368	6770
534.435	5407
534.503	5384
534.570	6666
534.637	3552
534.705	5487
534.772	5380
534.840	7060
534.907	23064
534.974	15407
535.041	5289
535.109	6574
535.176	2667
535.243	5505
535.310	4786
535.378	3470
535.445	4000
535.512	4073
535.579	4136
535.646	3871
535.714	4804
535.781	7573
535.848	6344
535.915	9245
535.982	8356
536.049	7563
536.116	8128
536.183	6520
536.250	5895
536.317	5433
536.384	6560
536.451	10018
536.518	7720
536.585	4745
536.652	10015
536.719	11717
536.786	6297
536.853	7560
536.920	13204
536.987	16888
537.053	17969
537.120	69422
537.187	27696
537.254	5640
537.321	4750
537.388	6314
537.454	4140
537.521	4020
537.588	3518
537.654	7353
537.721	6805
537.788	7410
537.855	4967
537.921	6506
537.988	3688
538.055	5750
538.121	4276
538.188	5778
538.254	10071
538.321	16080
538.388	7846
538.454	5602
538.521	5068
538.587	5217
538.654	4959
538.720	4694
538.787	4417
538.853	6515
538.920	6695
538.986	6693
539.053	5471
539.119	6540
539.185	4524
539.252	8865
539.318	8297
539.385	8916
539.451	7033
539.517	7292
539.583	10429
539.650	26725
539.716	36202
539.782	8061
539.849	4999
539.915	6486
539.981	5281
540.047	7262
540.114	5024
540.180	7967
540.246	5165
540.312	9499
540.378	16968
540.444	14567
540.510	25451
540.576	42004
540.643	7942
540.709	4613
540.775	5092
540.841	6391
540.907	9953
540.973	14614
541.039	10470
541.105	8819
541.171	5439
541.237	5395
541.303	6285
541.369	8359
541.435	10129
541.500	13244
541.566	5473
541.632	6025
541.698	3968
541.764	6162
541.830	4632
541.896	4351
541.961	5167
542.027	5007
542.093	5266
542.159	6259
542.224	6179
542.290	12040
542.356	15135
542.421	14169
542.487	8316
542.553	6721
542.618	6412
542.684	5938
542.750	5017
542.815	9111
542.881	15977
542.947	47284
543.012	16757
543.078	6257
543.143	4057
543.209	5950
543.274	4284
543.340	8888
543.405	20506
543.471	17936
543.536	6054
543.602	6323
543.667	3735
543.732	6199
543.798	5723
543.863	6355
543.928	5169
543.994	5417
544.059	3998
544.124	5577
544.190	3753
544.255	6022
544.320	5492
544.386	5240
544.451	8095
544.516	8809
544.581	10236
544.646	33310
544.712	29514
544.777	8734
544.842	7119
544.907	7791
544.972	6835
545.037	7250
545.102	7340
545.168	7250
545.233	7577
545.298	8387
545.363	8933
545.428	10579
545.493	21646
545.558	29157
545.623	9949
545.688	6953
545.753	7084
545.818	7762
545.883	8490
545.947	7996
546.012	8405
546.077	7580
546.142	7528
546.207	6417
546.272	9298
546.337	8012
546.401	6776
546.466	7466
546.531	6420
546.596	8946
546.661	6422
546.725	7886
546.790	6140
546.855	7319
546.919	5296
546.984	7845
547.049	7309
547.113	9532
547.178	6916
547.243	9988
547.307	9892
547.372	11735
547.436	9916
547.501	8343
547.565	8471
547.630	10881
547.695	10097
547.759	12397
547.823	8424
547.888	7913
547.952	7761
548.017	9561
548.081	11231
548.146	14043
548.210	10609
548.274	7568
548.339	7791
548.403	8930
548.468	6543
548.532	7717
548.596	7704
548.660	8974
548.725	9857
548.789	10382
548.853	10789
548.917	9596
548.982	13815
549.046	12084
549.110	7029
549.174	8251
549.238	7224
549.303	8141
549.367	8693
549.431	7078
549.495	7655
549.559	8369
549.623	8201
549.687	11028
549.751	13199
549.815	10372
549.879	9280
549.943	9189
550.007	9821
550.071	10518
550.135	12125
550.199	9939
550.263	9400
550.327	11912
550.391	13226
550.455	10204
550.519	9540
550.582	11115
550.646	14223
550.710	13133
550.774	10283
550.838	11399
550.901	10547
550.965	13147
551.029	12408
551.093	15122
551.156	20003
551.220	36712
551.284	25367
551.347	19329
551.411	45216
551.475	29301
551.538	11695
551.602	10517
551.666	9913
551.729	10378
551.793	10064
551.856	11033
551.920	10767
551.983	10526
552.047	10172
552.110	9664
552.174	9487
552.237	9773
552.301	9317
552.364	9627
552.428	9230
552.491	9352
552.554	8953
552.618	9531
552.681	9678
552.745	11235
552.808	15099
552.871	15917
552.934	11711
552.998	10916
553.061	10631
553.124	11666
553.187	11946
553.251	13171
553.314	12772
553.377	15877
553.440	32854
553.503	116858
553.567	100178
553.630	16048
553.693	11332
553.756	10043
553.819	9106
553.882	8728
553.945	9571
554.008	9704
554.071	7639
554.134	10179
554.197	7631
554.260	9098
554.323	9865
554.386	9554
554.449	9171
554.512	9594
554.575	7833
554.638	9495
554.701	7715
554.764	8688
554.827	8940
554.889	7451
554.952	6024
555.015	7319
555.078	7121
555.141	7610
555.203	7219
555.266	7479
555.329	8875
555.391	7367
555.454	7558
555.517	7881
555.580	6914
555.642	7264
555.705	7339
555.768	8098
555.830	7734
555.893	7542
555.955	6948
556.018	7003
556.080	7126
556.143	6718
556.206	6678
556.268	7661
556.330	7663
556.393	7872
556.455	8243
556.518	12819
556.580	9035
556.643	7017
556.705	6734
556.767	6897
556.830	7192
556.892	9373
556.955	9846
557.017	7865
557.079	6081
557.142	7111
557.204	8707
557.266	15856
557.328	9419
557.391	5854
557.453	6321
557.515	7157
557.577	8106
557.639	8266
557.701	6746
557.764	5415
557.826	6561
557.888	7337
557.950	5082
558.012	6697
558.074	8426
558.136	17257
558.198	23014
558.260	10172
558.322	6926
558.384	8728
558.446	8353
558.508	10198
558.570	12949
558.632	21708
558.694	22785
558.756	27860
558.818	87048
558.880	120069
558.942	26075
559.003	27456
559.065	10182
559.127	8952
559.189	8840
559.251	9782
559.312	14860
559.374	40585
559.436	82342
559.498	22306
559.559	9210
559.621	8379
559.683	11590
559.744	22119
559.806	52248
559.868	41513
559.929	10564
559.991	11326
560.052	15268
560.114	27710
560.176	14427
560.237	21719
560.299	20468
560.360	7659
560.422	6000
560.483	7534
560.545	6537
560.606	6561
560.667	6163
560.729	6352
560.790	6521
560.852	6777
560.913	6782
560.974	6294
561.036	6095
561.097	6630
561.158	6510
561.220	7780
561.281	6208
561.342	7509
561.403	9232
561.465	11989
561.526	25040
561.587	20152
561.648	7223
561.709	6691
561.771	7648
561.832	7053
561.893	6481
561.954	7076
562.015	6722
562.076	6898
562.137	6905
562.198	6771
562.259	7083
562.320	6904
562.381	7945
562.442	10693
562.503	7777
562.564	8066
562.625	6073
562.686	7172
562.747	6727
562.808	7258
562.869	7818
562.930	9321
562.991	8201
563.051	7934
563.112	7037
563.173	7059
563.234	6481
563.294	7895
563.355	7306
563.416	7412
563.477	6126
563.537	6982
563.598	7662
563.659	7644
563.720	6431
563.780	8201
563.841	7854
563.901	8420
563.962	7571
564.023	8496
564.083	7830
564.144	8218
564.204	7523
564.265	8643
564.325	10962
564.386	20833
564.446	12031
564.507	8175
564.567	7610
564.628	8121
564.688	7554
564.749	8464
564.809	10332
564.869	10343
564.930	7263
564.990	8767
565.050	7468
565.111	7908
565.171	7943
565.231	7856
565.292	8037
565.352	8333
565.412	8425
565.472	9262
565.532	8480
565.593	8292
565.653	7201
565.713	8467
565.773	9111
565.833	12122
565.893	11284
565.953	9811
566.013	9132
566.074	10073
566.134	14078
566.194	19850
566.254	16544
566.314	12552
566.374	11302
566.434	12656
566.494	11857
566.554	11837
566.614	11184
566.673	13861
566.733	14196
566.793	14770
566.853	15696
566.913	16004
566.973	16066
567.033	17192
567.092	14418
567.152	16182
567.212	16056
567.272	17387
567.331	17935
567.391	19182
567.451	20658
567.511	24357
567.570	21456
567.630	17267
567.690	17173
567.749	18059
567.809	19346
567.868	22736
567.928	24331
567.988	29143
568.047	33232
568.107	43085
568.166	60364
568.226	88405
568.285	108733
568.345	95061
568.404	81247
568.464	70635
568.523	66013
568.582	68520
568.642	76630
568.701	96669
568.761	137158
568.820	189245
568.879	178481
568.939	142490
568.998	106865
569.057	85452
569.116	68266
569.176	55786
569.235	47241
569.294	41386
569.353	34657
569.413	31657
569.472	26960
569.531	25828
569.590	21815
569.649	21746
569.708	19199
569.767	19803
569.827	18805
569.886	17148
569.945	14464
570.004	14233
570.063	14099
570.122	15532
570.181	13945
570.240	15685
570.299	13865
570.358	13208
570.417	11481
570.475	12230
570.534	11290
570.593	11583
570.652	11798
570.711	10771
570.770	10689
570.829	11502
570.887	10739
570.946	11487
571.005	8630
571.064	9859
571.122	10072
571.181	10960
571.240	8604
571.299	9797
571.357	10356
571.416	10299
571.475	11501
571.533	10635
571.592	9162
571.650	10500
571.709	7521
571.768	9430
571.826	8769
571.885	9171
571.943	7833
572.002	8824
572.060	8279
572.119	7001
572.177	7585
572.236	7461
572.294	7177
572.352	7897
572.411	7886
572.469	7533
572.528	6788
572.586	8636
572.644	9163
572.703	10522
572.761	7485
572.819	8020
572.877	7000
572.936	8510
572.994	7269
573.052	7679
573.110	7992
573.169	7955
573.227	6960
573.285	6902
573.343	7683
573.401	8109
573.459	7742
573.517	7383
573.576	6577
573.634	8427
573.692	7412
573.750	7365
573.808	7154
573.866	8531
573.924	10377
573.982	9563
574.040	7224
574.098	7994
574.155	6875
574.213	6734
574.271	6834
574.329	7582
574.387	7295
574.445	6471
574.503	6540
574.560	6121
574.618	5979
574.676	6724
574.734	6351
574.792	7153
574.849	6537
574.907	6962
574.965	6080
575.022	6473
575.080	6844
575.138	7930
575.195	7033
575.253	8042
575.311	6914
575.368	7000
575.426	7133
575.483	7475
575.541	6809
575.598	6730
575.656	7770
575.713	7548
575.771	6919
575.828	7739
575.886	7065
575.943	8903
576.001	6947
576.058	8113
576.115	7336
576.173	9948
576.230	9506
576.287	10593
576.345	8681
576.402	8637
576.459	8033
576.517	8515
576.574	8909
576.631	9836
576.688	7202
576.746	7562
576.803	7636
576.860	7804
576.917	7646
576.974	8396
577.031	7478
577.089	8918
577.146	8574
577.203	9421
577.260	8351
577.317	8639
577.374	10484
577.431	9368
577.488	8084
577.545	8930
577.602	8676
577.659	10354
577.716	10243
577.773	11089
577.830	9529
577.886	9866
577.943	9038
578.000	9898
578.057	9477
578.114	11619
578.171	14005
578.227	17105
578.284	14603
578.341	13517
578.398	11721
578.454	11720
578.511	12196
578.568	11436
578.625	9564
578.681	9734
578.738	8218
578.794	9603
578.851	8607
578.908	9937
578.964	9750
579.021	10240
579.077	8546
579.134	9054
579.190	8928
579.247	8186
579.303	8788
579.360	9698
579.416	8310
579.473	9955
579.529	8433
579.586	10087
579.642	9587
579.698	10568
579.755	10530
579.811	11212
579.867	10653
579.924	10895
579.980	11275
580.036	15322
580.093	17690
580.149	25474
580.205	25760
580.261	20348
580.317	16424
580.374	15535
580.430	15207
580.486	14465
580.542	11993
580.598	12429
580.619	11939
580.654	11098
580.692	10949
580.710	10890
580.765	11511
580.767	11541
580.823	11390
580.838	11171
580.879	10606
580.911	11330
580.935	11882
580.984	10503
580.991	10328
581.047	12698
581.057	12545
581.103	11907
581.130	12704
581.159	13534
581.203	14196
581.215	14385
581.270	14910
581.276	14716
581.326	12894
581.349	12764
581.382	12632
581.422	12000
581.438	11720
581.494	12312
581.494	12296
581.550	11446
581.567	11679
581.606	12115
581.640	12138
581.661	12155
581.713	12919
581.717	12990
581.773	11081
581.786	11305
581.829	11994
581.859	12033
581.885	12137
581.932	11983
581.940	11947
581.996	12998
582.004	12973
582.052	12784
582.077	12046
582.107	11225
582.150	12652
582.163	13094
582.219	11713
582.223	11830
582.274	13379
582.296	13452
582.330	13426
582.368	13482
582.386	13580
582.441	12889
582.441	12889
582.497	13834
582.514	13950
582.552	14515
582.587	15150
582.608	15366
582.659	14391
582.663	14325
582.719	13418
582.732	13578
582.774	14101
582.805	14351
582.830	14654
582.877	13700
582.885	13493
582.941	14424
582.950	14418
582.996	14742
583.023	16051
583.052	17523
583.095	17629
583.107	17718
583.162	21452
583.168	21508
583.218	21380
583.240	20626
583.273	19447
583.313	17958
583.328	17452
583.384	17502
583.385	17491
583.439	17025
583.458	16865
583.494	16541
583.531	16406
583.549	16418
583.603	16541
583.605	16544
583.660	15706
583.676	15984
583.715	16745
583.748	16529
583.770	16457
583.820	17350
583.825	17399
583.881	17332
583.893	17323
583.936	17451
583.965	17281
583.991	17153
584.038	17721
584.046	17832
584.101	16863
584.110	17041
584.156	17918
584.183	17960
584.211	17788
584.255	17925
584.266	18068
584.321	17680
584.328	17790
584.376	18747
584.400	18762
584.431	18682
584.472	19286
584.486	19454
584.541	19399
584.545	19394
584.596	19511
584.617	19730
584.651	20147
584.689	20761
584.706	20993
584.761	21354
584.762	21354
584.816	21876
584.834	22167
584.871	22520
584.906	22541
584.926	22493
584.978	21977
584.980	21971
585.035	23770
585.051	23545
585.090	23238
585.123	24780
585.145	25798
585.195	26182
585.200	26252
585.254	28273
585.267	28698
585.309	30459
585.340	32140
585.364	32644
585.412	30408
585.419	30075
585.473	30150
585.484	30042
585.528	31065
585.556	33270
585.583	36182
585.628	41250
585.637	43026
585.692	60075
585.700	61970
585.747	68601
585.772	63563
585.801	50600
585.845	37224
585.856	35767
585.910	34616
585.917	34354
585.965	33754
585.989	33816
586.019	34647
586.061	35133
586.074	35107
586.128	36786
586.133	36802
586.183	37048
586.205	37330
586.237	38281
586.277	38868
586.292	39006
586.346	40701
586.349	40736
586.401	41527
586.421	42152
586.455	43645
586.493	45943
586.509	47816
586.564	53756
586.565	53962
586.618	66773
586.637	67499
586.672	59651
586.709	53001
586.727	51665
586.781	50351
586.781	50375
586.835	52110
586.853	52779
586.889	54547
586.925	54805
586.944	54960
586.996	58107
586.998	58224
587.052	60880
587.068	61593
587.106	63717
587.140	65106
587.161	65640
587.212	68440
587.215	68646
587.269	71880
587.284	72794
587.323	75706
587.356	77787
587.377	79317
587.427	83779
587.431	84140
587.485	88975
587.499	90369
587.539	94795
587.571	97586
587.593	100068
587.643	106430
587.648	107063
587.702	114580
587.715	116523
587.755	124098
587.786	129744
587.810	134042
587.858	142911
587.864	144244
587.917	157439
587.930	160860
587.971	173722
588.001	182744
588.025	190471
588.073	206897
588.079	209358
588.133	231481
588.145	236414
588.187	257791
588.217	274091
588.241	289419
588.288	320764
588.295	325968
588.348	370051
588.360	379653
588.402	424122
588.431	456190
588.456	489308
588.503	556460
588.510	569122
588.564	671681
588.575	693964
588.617	814016
588.646	897862
588.671	993983
588.718	1176584
588.725	1212094
588.778	1473882
588.789	1522154
588.832	1635257
588.861	1683563
588.886	1563927
588.932	1279543
588.939	1257152
588.993	1143592
589.004	1139362
589.047	1543154
589.075	1766488
589.100	1751947
589.147	1671455
589.154	1642607
589.207	1389818
589.218	1337946
589.261	1249946
589.290	1194874
589.314	1217102
589.361	1265823
589.368	1289728
589.421	1478848
589.433	1514844
589.475	1591283
589.504	1609905
589.528	1489805
589.576	1251884
589.582	1276281
589.635	1559011
589.647	1602162
589.689	1519400
589.718	1437118
589.742	1284490
589.790	973837
589.795	953165
589.849	750041
589.861	703243
589.902	608813
589.932	538094
589.955	498753
590.004	418233
590.009	413563
590.062	359552
590.075	346305
590.115	315336
590.146	291672
590.168	279630
590.218	251959
590.222	250393
590.275	227590
590.289	221569
590.328	208650
590.360	197635
590.381	191051
590.431	175674
590.435	175115
590.488	162322
590.503	158670
590.541	152020
590.574	146111
590.594	143045
590.645	135015
590.647	134819
590.700	125464
590.716	122476
590.753	118809
590.787	115191
590.806	112951
590.859	106800
590.859	106836
590.912	101116
590.930	99215
590.965	97045
591.001	94597
591.018	93506
591.071	90143
591.072	89995
591.124	86994
591.143	85648
591.177	83675
591.214	81632
591.230	81231
591.283	79670
591.285	79487
591.336	77021
591.356	75971
591.389	74944
591.427	73311
591.442	72718
591.495	70532
591.498	70241
591.547	67932
591.569	66908
591.600	65549
591.640	63394
591.653	63563
591.706	64085
591.711	64031
591.759	63627
591.782	63320
591.811	63669
591.853	63907
591.864	63233
591.917	59300
591.924	58625
591.969	57906
591.995	57415
592.022	57070
592.066	56223
592.075	56548
592.127	58041
592.137	58224
592.180	59284
592.208	59741
592.233	56993
592.279	51475
592.285	51419
592.338	50347
592.350	50009
592.390	49363
592.421	48798
592.443	48631
592.491	47947
592.495	47961
592.548	47086
592.562	46777
592.600	46207
592.633	45564
592.653	45231
592.704	43949
592.705	44210
592.775	44689
592.846	44110
592.916	43868
592.987	43850
593.058	42008
593.128	40032
593.199	41091
593.270	38767
593.341	39437
593.411	38688
593.482	37245
593.553	37363
593.623	36073
593.694	36161
593.764	37313
593.835	36350
593.906	35040
593.976	34575
594.047	34493
594.117	38486
594.188	38912
594.258	32341
594.329	32033
594.399	33161
594.470	31589
594.540	31470
594.611	30662
594.681	31525
594.751	30351
594.822	32580
594.892	32761
594.963	32116
595.033	31942
595.103	31259
595.174	33299
595.244	41977
595.314	49588
595.384	30846
595.455	29723
595.525	28893
595.595	30629
595.665	29979
595.736	29241
595.806	29525
595.876	29765
595.946	28784
596.016	27818
596.087	27872
596.157	28687
596.227	28929
596.297	29019
596.367	29771
596.437	31832
596.507	37862
596.577	46854
596.647	31195
596.717	29379
596.787	27976
596.857	28659
596.927	29040
596.997	28010
597.067	29804
597.137	33437
597.207	31037
597.277	28560
597.347	27363
597.417	28362
597.487	27980
597.557	29467
597.626	28758
597.696	30649
597.766	35314
597.836	42125
597.906	30045
597.975	27089
598.045	26516
598.115	27625
598.185	26920
598.254	28681
598.324	30255
598.394	30126
598.464	29306
598.533	28184
598.603	27360
598.672	27551
598.742	27806
598.812	27150
598.881	28273
598.951	27027
599.020	25635
599.090	26848
599.159	27391
599.229	25391
599.299	25880
599.368	26897
599.437	27005
599.507	26511
599.576	27612
599.646	28772
599.715	29836
599.785	26739
599.854	26925
599.924	28938
599.993	26972
600.062	25053
600.132	25357
600.201	26567
600.270	28023
600.340	27952
600.409	27051
600.478	27133
600.547	26634
600.617	26903
600.686	26237
600.755	25186
600.824	25749
600.894	25536
600.963	24927
601.032	24081
601.101	24306
601.170	24299
601.239	24880
601.308	25779
601.378	25178
601.447	23556
601.516	23676
601.585	25024
601.654	25092
601.723	26515
601.792	25317
601.861	27939
601.930	32333
601.999	29326
602.068	26255
602.137	27162
602.206	26447
602.275	26668
602.343	28593
602.412	28277
602.481	25232
602.550	25892
602.619	25147
602.688	26588
602.756	26000
602.825	26679
602.894	26018
602.963	26046
603.032	27078
603.100	25610
603.169	25687
603.238	26635
603.307	24804
603.375	25623
603.444	26895
603.513	25793
603.581	25019
603.650	26207
603.719	24194
603.787	24277
603.856	24292
603.924	25198
603.993	25141
604.061	24779
604.130	25961
604.198	26632
604.267	24851
604.335	25662
604.404	24899
604.472	26358
604.541	26336
604.609	25910
604.678	26410
604.746	26399
604.815	27365
604.883	26588
604.951	27201
605.020	26887
605.088	27741
605.156	27314
605.225	25894
605.293	25770
605.361	26334
605.429	25644
605.498	26427
605.566	27367
605.634	27372
605.702	27743
605.771	26913
605.839	27805
605.907	26940
605.975	25923
606.043	25731
606.111	26735
606.180	30199
606.248	32559
606.316	34018
606.384	27944
606.452	30947
606.520	29240
606.588	25538
606.656	23035
606.724	22980
606.792	22559
606.860	20903
606.928	19062
606.996	19678
607.064	20401
607.132	19983
607.200	21032
607.267	21155
607.335	20901
607.403	21314
607.471	20850
607.539	20591
607.607	20411
607.674	20605
607.742	19816
607.810	20276
607.878	20059
607.946	19179
608.013	21014
608.081	20307
608.149	20654
608.216	19605
608.284	21891
608.352	20827
608.419	22200
608.487	29246
608.555	23004
608.622	20398
608.690	20820
608.757	20989
608.825	22512
608.893	22591
608.960	24297
609.028	27309
609.095	30639
609.163	22312
609.230	20671
609.298	20230
609.365	20082
609.432	20216
609.500	22446
609.567	22905
609.635	24645
609.702	24534
609.769	25028
609.837	25686
609.904	21633
609.971	21552
610.039	26661
610.106	34195
610.173	60822
610.241	134288
610.308	147212
610.375	86544
610.442	32752
610.509	23738
610.577	22622
610.644	21286
610.711	21282
610.778	21274
610.845	21848
610.912	22774
610.980	27578
611.047	37758
611.114	28735
611.181	21949
611.248	20849
611.315	21964
611.382	21201
611.449	22193
611.516	22817
611.583	22895
611.650	22084
611.717	22660
611.784	22817
611.851	24711
611.918	27440
611.984	29751
612.051	44206
612.118	85439
612.185	208772
612.252	138323
612.319	35764
612.386	27967
612.452	25582
612.519	27573
612.586	34313
612.653	28396
612.719	24553
612.786	22752
612.853	22004
612.919	21457
612.986	22705
613.053	20441
613.120	20343
613.186	19216
613.253	21804
613.319	19740
613.386	19978
613.453	21421
613.519	23923
613.586	25324
613.652	32947
613.719	28648
613.785	26117
613.852	21848
613.918	22099
613.985	26832
614.051	39116
614.118	77367
614.184	74066
614.250	24644
614.317	21958
614.383	20919
614.449	21345
614.516	21592
614.582	21772
614.648	21338
614.715	21185
614.781	20570
614.847	22206
614.914	22306
614.980	21731
615.046	21983
615.112	22972
615.179	24006
615.245	28845
615.311	38906
615.377	67335
615.443	82148
615.509	46372
615.575	32319
615.642	28032
615.708	27979
615.774	31017
615.840	35916
615.906	47161
615.972	77219
616.038	152777
616.104	224814
616.170	322049
616.236	262921
616.302	65790
616.368	42478
616.434	33181
616.500	31216
616.565	31312
616.631	33962
616.697	30768
616.763	30975
616.829	38957
616.895	59164
616.961	60800
617.026	35391
617.092	25242
617.158	24316
617.224	23096
617.289	22695
617.355	22856
617.421	22455
617.487	23743
617.552	21094
617.618	20576
617.684	20757
617.749	23564
617.815	20858
617.880	20270
617.946	20209
618.012	21328
618.077	21830
618.143	21322
618.208	20738
618.274	21991
618.339	23823
618.405	20581
618.470	22195
618.536	21740
618.601	24203
618.667	22657
618.732	20764
618.798	20746
618.863	21102
618.928	20084
618.994	21339
619.059	24109
619.124	28835
619.190	23394
619.255	19631
619.320	21865
619.386	21082
619.451	18960
619.516	20389
619.581	20371
619.647	19413
619.712	19913
619.777	19978
619.842	20899
619.907	20861
619.972	20477
620.038	20943
620.103	19862
620.168	18527
620.233	20739
620.298	20062
620.363	19474
620.428	20556
620.493	20561
620.558	19960
620.623	19977
620.688	19677
620.753	19758
620.818	20627
620.883	20123
620.948	20625
621.013	20245
621.078	20896
621.143	20240
621.207	22848
621.272	21226
621.337	23311
621.402	23887
621.467	30037
621.532	30809
621.596	25743
621.661	24192
621.726	23309
621.791	22637
621.855	23292
621.920	24971
621.985	24601
622.049	28709
622.114	27339
622.179	25354
622.243	26047
622.308	24408
622.373	26684
622.437	25474
622.502	24866
622.566	24263
622.631	23078
622.695	25046
622.760	24442
622.824	24145
622.889	25316
622.953	25132
623.018	33931
623.082	31987
623.147	24455
623.211	23752
623.276	24765
623.340	22046
623.404	23641
623.469	22761
623.533	22209
623.597	22369
623.662	22727
623.726	21841
623.790	21089
623.854	21351
623.919	22033
623.983	21809
624.047	21751
624.111	21294
624.176	23482
624.240	23721
624.304	25555
624.368	21372
624.432	21847
624.496	23183
624.560	23646
624.625	24347
624.689	22435
624.753	21641
624.817	20250
624.881	21410
624.945	20766
625.009	20188
625.073	20759
625.137	21406
625.201	25931
625.265	25716
625.329	21785
625.393	21824
625.456	22339
625.520	21469
625.584	23630
625.648	28786
625.712	43210
625.776	92808
625.839	103447
625.903	40748
625.967	24901
626.031	41912
626.095	59299
626.158	24421
626.222	18362
626.286	18557
626.349	16574
626.413	16510
626.477	20004
626.540	17010
626.604	17270
626.668	18109
626.731	17606
626.795	17299
626.858	17960
626.922	16748
626.986	16199
627.049	14833
627.113	16176
627.176	15766
627.240	15852
627.303	16388
627.366	15542
627.430	16215
627.493	16880
627.557	16092
627.620	16795
627.684	15398
627.747	16184
627.810	13394
627.874	15600
627.937	14772
628.000	16537
628.064	16019
628.127	13115
628.190	15983
628.253	14006
628.317	14512
628.380	14149
628.443	14011
628.506	13815
628.569	14161
628.632	13198
628.696	13146
628.759	12755
628.822	12989
628.885	12641
628.948	13560
629.011	13321
629.074	13396
629.137	12405
629.200	12547
629.263	14949
629.326	11234
629.389	12468
629.452	13559
629.515	12544
629.578	12292
629.641	14566
629.704	13307
629.767	13959
629.830	12943
629.892	11790
629.955	11204
630.018	13516
630.081	13763
630.144	15839
630.207	12273
630.269	14526
630.332	14737
630.395	12607
630.458	11147
630.520	10368
630.583	13486
630.646	10904
630.708	10883
630.771	11700
630.834	12214
630.896	11565
630.959	11726
631.021	10658
631.084	12037
631.146	12224
631.209	15385
631.272	11046
631.334	11295
631.397	10682
631.459	10641
631.522	11142
631.584	10473
631.646	11116
631.709	12410
631.771	14339
631.834	12485
631.896	10500
631.958	8855
632.021	10832
632.083	9645
632.145	11841
632.208	10184
632.270	12263
632.332	9604
632.395	9457
632.457	10850
632.519	10223
632.581	11569
632.643	9348
632.706	10097
632.768	9574
632.830	10227
632.892	9022
632.954	8811
633.016	10642
633.078	10092
633.141	9549
633.203	9755
633.265	9759
633.327	9750
633.389	9146
633.451	11859
633.513	12597
633.575	12886
633.637	10417
633.698	11227
633.760	10242
633.822	9351
633.884	10084
633.946	9956
634.008	9831
634.070	11224
634.132	13670
634.193	11093
634.255	9994
634.317	9113
634.379	11454
634.441	9704
634.502	8235
634.564	9691
634.626	9352
634.687	9659
634.749	9362
634.811	9846
634.873	7876
634.934	8966
634.996	9959
635.057	8688
635.119	7859
635.181	9166
635.242	9652
635.304	7000
635.365	10207
635.427	8272
635.488	8993
635.550	8594
635.611	9549
635.673	6967
635.734	10174
635.796	9110
635.857	10383
635.918	8713
635.980	10647
636.041	8870
636.102	9386
636.164	9944
636.225	9808
636.286	8140
636.348	9272
636.409	8652
636.470	8744
636.531	8591
636.593	10667
636.654	9827
636.715	8182
636.776	8016
636.838	7136
636.899	9573
636.960	8306
637.021	7912
637.082	6861
637.143	7845
637.204	6931
637.265	7381
637.326	8074
637.387	7685
637.448	6306
637.509	7765
637.570	7515
637.631	8506
637.692	5761
637.753	6004
637.814	7801
637.875	7139
637.936	8054
637.997	7701
638.058	7328
638.119	8703
638.179	7668
638.240	6467
638.301	7157
638.362	7196
638.423	7431
638.483	8879
638.544	5108
638.605	7102
638.666	6424
638.726	6390
638.787	8162
638.848	7333
638.908	6463
638.969	8188
639.030	6745
639.090	5697
639.151	6776
639.211	7872
639.272	9537
639.332	13710
639.393	9726
639.453	6401
639.514	7236
639.574	6823
639.635	5985
639.695	8192
639.756	6305
639.816	7720
639.877	8069
639.937	13269
639.997	15650
640.058	6590
640.118	5705
640.178	7549
640.239	6154
640.299	6076
640.359	5487
640.420	5836
640.480	7025
640.540	6653
640.600	5873
640.661	7328
640.721	5447
640.781	9248
640.841	6401
640.901	7091
640.961	6359
641.021	6588
641.082	7373
641.142	9855
641.202	9188
641.262	4336
641.322	6407
641.382	4525
641.442	5907
641.502	6519
641.562	6867
641.622	5729
641.682	6397
641.742	6676
641.802	6578
641.861	7014
641.921	6608
641.981	8627
642.041	8079
642.101	9083
642.161	5794
642.221	5512
642.280	6038
642.340	5833
642.400	4941
642.460	6634
642.519	5755
642.579	6145
642.639	7227
642.698	4473
642.758	7336
642.818	5736
642.877	5433
642.937	6414
642.997	7177
643.056	10199
643.116	5220
643.175	7299
643.235	5655
643.294	5999
643.354	6072
643.414	6507
643.473	7606
643.532	7613
643.592	7690
643.651	12433
643.711	21776
643.770	39548
643.830	92393
643.889	195504
643.948	43178
644.008	9374
644.067	7326
644.126	5193
644.186	6145
644.245	6156
644.304	3632
644.363	7046
644.423	4443
644.482	5444
644.541	6079
644.600	3881
644.659	6332
644.719	6422
644.778	7944
644.837	11059
644.896	17746
644.955	37205
645.014	15824
645.073	9870
645.132	6449
645.191	6528
645.250	4657
645.309	6565
645.368	4683
645.427	7009
645.486	6074
645.545	10366
645.604	5216
645.663	5321
645.722	4386
645.781	5692
645.840	5264
645.898	6206
645.957	9557
646.016	10031
646.075	18104
646.134	33623
646.192	86577
646.251	125293
646.310	18724
646.369	7492
646.427	6569
646.486	4538
646.545	4650
646.603	4830
646.662	5452
646.721	4628
646.779	4574
646.838	3425
646.896	5552
646.955	6139
647.014	7447
647.072	10316
647.131	23040
647.189	12190
647.248	4070
647.306	4923
647.365	4473
647.423	3138
647.481	5517
647.540	2971
647.598	4074
647.657	4111
647.715	4091
647.773	3110
647.832	4707
647.890	3295
647.948	4137
648.007	5544
648.065	4981
648.123	4401
648.181	6595
648.240	8095
648.298	7009
648.356	4284
648.414	5562
648.472	3921
648.531	4903
648.589	5021
648.647	3412
648.705	4274
648.763	4571
648.821	4474
648.879	3691
648.937	4782
648.995	4861
649.053	5164
649.111	6961
649.169	9522
649.227	13672
649.285	25225
649.343	68227
649.401	35152
649.459	20116
649.516	14174
649.574	12241
649.632	29571
649.690	36500
649.748	12912
649.806	14190
649.863	23357
649.921	18978
649.979	11625
650.037	6111
650.094	2826
650.152	4590
650.210	3681
650.268	4286
650.325	4007
650.383	4092
650.440	3423
650.498	3975
650.556	3512
650.613	3044
650.671	3906
650.728	4126
650.786	3747
650.843	3784
650.901	2203
650.958	3587
651.016	3543
651.073	3528
651.131	2503
651.188	3007
651.246	3981
651.303	2645
651.360	3502
651.418	2888
651.475	4200
651.532	1873
651.590	3959
651.647	3052
651.704	3297
651.762	3167
651.819	3260
651.876	2952
651.933	3181
651.990	4903
652.048	1581
652.105	3231
652.162	3757
652.219	2981
652.276	3697
652.333	3904
652.390	2992
652.448	4119
652.505	3739
652.562	3997
652.619	5447
652.676	9708
652.733	10577
652.790	3802
652.847	2425
652.904	3855
652.961	2562
653.017	1953
653.074	3414
653.131	2670
653.188	2792
653.245	3238
653.302	2909
653.359	3323
653.415	2874
653.472	2235
653.529	3304
653.586	2828
653.642	2455
653.699	3409
653.756	2609
653.813	1728
653.869	2956
653.926	2076
653.983	2352
654.039	2552
654.096	3017
654.152	3659
654.209	1506
654.266	3249
654.322	2429
654.379	3989
654.435	4031
654.492	4251
654.548	5545
654.605	8118
654.661	4934
654.717	2885
654.774	3393
654.830	3421
654.887	3478
654.943	3020
655.000	3383
655.056	3202
655.112	3739
655.168	2232
655.225	3660
655.281	3833
655.337	4829
655.394	8216
655.450	5608
655.506	5031
655.562	8976
655.618	7870
655.675	2430
655.731	3179
655.787	2688
655.843	3596
655.899	1823
655.955	2975
656.011	3447
656.067	1838
656.123	3021
656.179	2636
656.235	5236
656.291	909
656.347	3715
656.403	3230
656.459	3290
656.515	3921
656.571	3987
656.627	2479
656.683	3185
656.739	2785
656.795	3720
656.850	3793
656.906	3233
656.962	3276
657.018	1646
657.074	2129
657.129	3630
657.185	3294
657.241	3583
657.297	3412
657.352	2378
657.408	2274
657.464	4348
657.519	2823
657.575	2063
657.630	2671
657.686	3103
657.742	2057
657.797	2451
657.853	2408
657.908	3086
657.964	1801
658.019	3095
658.075	2663
658.130	2628
658.186	1477
658.241	3123
658.297	1315
658.352	2298
658.407	2919
658.463	2230
658.518	2869
658.573	2588
658.629	1516
658.684	2190
658.739	2654
658.795	1683
658.850	2028
658.905	1292
658.960	2895
659.016	2534
659.071	1998
659.126	2445
659.181	3017
659.236	5143
659.291	6018
659.346	3581
659.401	4697
659.457	5914
659.512	7766
659.567	4725
659.622	2771
659.677	2789
659.732	1354
659.787	2785
659.842	3517
659.897	4077
659.952	3343
660.007	2467
660.061	2959
660.116	2358
660.171	1633
660.226	2364
660.281	3677
660.336	2148
660.391	2720
660.445	2173
660.500	3012
660.555	2736
660.610	2369
660.664	2348
660.719	2336
660.774	2370
660.828	1804
660.883	1641
660.938	2306
660.992	1604
661.047	2257
661.101	1717
661.156	3605
661.211	2392
661.265	1885
661.320	3085
661.374	2117
661.429	1389
661.483	2788
661.538	1489
661.592	2451
661.647	2768
661.701	2805
661.755	2642
661.810	2393
661.864	1768
661.919	1687
661.973	2929
662.027	2815
662.081	2705
662.136	2325
662.190	3084
662.244	1939
662.299	2601
662.353	2680
662.407	1825
662.461	2365
662.515	2496
662.569	2156
662.624	2672
662.678	2072
662.732	2082
662.786	2521
662.840	2430
662.894	2375
662.948	1999
663.002	2218
663.056	2505
663.110	1784
663.164	2326
663.218	1906
663.272	2794
663.326	2641
663.380	2599
663.434	3221
663.488	1964
663.542	3211
663.595	2492
663.649	1977
663.703	3278
663.757	2744
663.811	1981
663.864	1917
663.918	2198
663.972	1648
664.026	3222
664.079	1604
664.133	2100
664.187	3003
664.240	2214
664.294	2510
664.348	2206
664.401	2486
664.455	2548
664.508	2286
664.562	2417
664.615	1592
664.669	2121
664.722	2799
664.776	1661
664.829	1878
664.883	2185
664.936	2045
664.990	2132
665.043	2924
665.097	2918
665.150	3632
665.203	3131
665.257	1855
665.310	2478
665.363	2776
665.417	3636
665.470	2593
665.523	2731
665.576	1599
665.630	1906
665.683	2669
665.736	3217
665.789	2345
665.842	1315
665.895	1683
665.949	2951
666.002	2424
666.055	2278
666.108	3515
666.161	1940
666.214	3278
666.267	3125
666.320	3035
666.373	2443
666.426	2068
666.479	3066
666.532	2532
666.585	3513
666.638	3336
666.691	2931
666.744	3572
666.796	3535
666.849	2807
666.902	2894
666.955	3176
667.008	2168
667.060	1829
667.113	1640
667.166	1766
667.219	2537
667.271	2937
667.324	2286
667.377	2693
667.430	2632
667.482	4336
667.535	3279
667.587	2848
667.640	2711
667.693	2896
667.745	5699
667.798	4825
667.850	2621
667.903	2744
667.955	2379
668.008	2443
668.060	2458
668.113	3600
668.165	3419
668.218	2922
668.270	3500
668.322	3267
668.375	2356
668.427	2424
668.479	2882
668.532	2913
668.584	3313
668.636	2763
668.689	2368
668.741	1941
668.793	3241
668.845	2980
668.898	3117
668.950	2193
669.002	2321
669.054	2270
669.106	2274
669.158	2683
669.211	3130
669.263	2854
669.315	5498
669.367	5165
669.419	2914
669.471	4645
669.523	4742
669.575	5671
669.627	4699
669.679	3714
669.731	2709
669.783	3864
669.835	4287
669.886	3741
669.938	3098
669.990	3367
670.042	2260
670.094	3343
670.146	4287
670.197	4856
670.249	6671
670.301	7163
670.353	9130
670.404	14167
670.456	19231
670.508	32474
670.560	55076
670.611	98278
670.663	173469
670.715	403340
670.766	565666
670.818	174985
670.869	36272
670.921	19444
670.972	12901
671.024	9617
671.075	7320
671.127	5671
671.178	5047
671.230	5136
671.281	5026
671.333	4203
671.384	3318
671.436	4217
671.487	4942
671.538	4311
671.590	5178
671.641	6267
671.692	7117
671.744	10466
671.795	7981
671.846	4721
671.897	2946
671.949	3485
672.000	3896
672.051	2675
672.102	4182
672.153	2640
672.204	2840
672.256	1997
672.307	3158
672.358	2813
672.409	2763
672.460	2771
672.511	2180
672.562	2156
672.613	2993
672.664	1476
672.715	2047
672.766	1922
672.817	3112
672.868	1593
672.919	2560
672.970	1209
673.021	2840
673.071	2187
673.122	3097
673.173	2058
673.224	1709
673.275	1983
673.326	1967
673.376	1504
673.427	2830
673.478	1896
673.528	3050
673.579	2586
673.630	2979
673.680	3000
673.731	1690
673.782	1989
673.832	2719
673.883	2034
673.934	1952
673.984	2247
674.035	1490
674.085	2436
674.136	2863
674.186	2496
674.237	3472
674.287	5315
674.338	2500
674.388	1493
674.438	1759
674.489	2320
674.539	2839
674.589	2136
674.640	2830
674.690	1551
674.740	1635
674.791	3291
674.841	1976
674.891	2241
674.942	1891
674.992	1577
675.042	1935
675.092	1295
675.142	2470
675.193	1237
675.243	1904
675.293	2321
675.343	1856
675.393	2215
675.443	1818
675.493	1034
675.543	1816
675.593	2635
675.643	2474
675.693	2176
675.743	1376
675.793	2235
675.843	937
675.893	1306
675.943	1883
675.993	1825
676.043	2444
676.093	1308
676.142	1688
676.192	1499
676.242	1491
676.292	1111
676.341	1655
676.391	1924
676.441	1419
676.491	1836
676.540	1535
676.590	1677
676.640	1117
676.689	1836
676.739	528
676.789	853
676.838	1275
676.888	1476
676.937	1635
676.987	1711
677.037	836
677.086	763
677.136	1336
677.185	500
677.235	1207
677.284	1884
677.333	781
677.383	1046
677.432	822
677.482	406
677.531	1140
677.580	1214
677.630	1775
677.679	1027
677.728	1499
677.778	1210
677.827	1091
677.876	453
677.925	703
677.975	1367
678.024	1128
678.073	513
678.122	1448
678.171	1209
678.220	1657
678.269	2069
678.319	1726
678.368	989
678.417	2509
678.466	1748
678.515	1840
678.564	2120
678.613	1238
678.662	295
678.711	1361
678.760	1180
678.809	1839
678.857	1016
678.906	2194
678.955	1201
679.004	2327
679.053	671
679.102	1069
679.151	1753
679.199	1279
679.248	766
679.297	1548
679.346	990
679.394	1453
679.443	743
679.492	876
679.540	1841
679.589	1703
679.638	1348
679.686	1326
679.735	1104
679.784	895
679.832	1157
679.881	800
679.929	1026
679.978	688
680.026	441
680.075	1319
680.123	1342
680.172	1870
680.220	1649
680.268	1598
680.317	850
680.365	923
680.414	696
680.462	1343
680.510	864
680.559	1138
680.607	655
680.655	1498
680.703	805
680.752	939
680.800	880
680.848	647
680.896	774
680.945	634
680.993	678
681.041	277
681.089	658
681.137	2161
681.185	1097
681.233	1227
681.258	1041
681.281	820
681.329	1184
681.377	917
681.380	996
681.425	1554
681.473	1682
681.502	1848
681.521	1867
681.569	1265
681.617	1867
681.624	1858
681.665	1455
681.713	2214
681.745	2544
681.761	2631
681.809	1722
681.857	2912
681.867	2629
681.904	1469
681.952	2529
681.989	2579
682.000	2540
682.048	2652
682.096	2142
682.111	2167
682.143	2064
682.191	1998
682.233	2708
682.239	2766
682.286	2606
682.334	2220
682.354	2270
682.382	2235
682.430	3772
682.476	3441
682.477	3392
682.525	2415
682.572	3146
682.598	2984
682.620	2792
682.667	3643
682.715	3926
682.720	3994
682.763	4216
682.810	3646
682.841	4234
682.857	4485
682.905	3628
682.952	3988
682.963	4137
683.000	4481
683.047	4358
683.085	4013
683.095	3880
683.142	5025
683.190	4415
683.206	4434
683.237	4336
683.284	4475
683.328	4499
683.332	4466
683.379	5434
683.426	4714
683.449	4583
683.473	4359
683.521	4978
683.568	4619
683.571	4712
683.615	5531
683.662	6070
683.693	5264
683.709	4781
683.757	5484
683.804	6185
683.814	6160
683.851	5903
683.898	6225
683.936	5954
683.945	5861
683.992	6021
684.039	5295
684.057	5643
684.086	6136
684.133	6706
684.179	6510
684.180	6474
684.227	7105
684.274	7389
684.300	7534
684.321	7596
684.368	6994
684.415	7280
684.422	7338
684.462	7407
684.509	6502
684.543	6721
684.556	6799
684.603	7542
684.649	6864
684.665	7011
684.696	7319
684.743	7594
684.786	7377
684.790	7343
684.837	8505
684.883	8495
684.908	8227
684.930	7861
684.977	8574
685.023	9383
685.029	9309
685.070	8456
685.117	8535
685.150	8653
685.164	8755
685.210	9723
685.257	10014
685.272	10347
685.303	10714
685.350	9310
685.393	9830
685.396	9879
685.443	10078
685.490	9617
685.514	9914
685.536	10085
685.583	10396
685.629	10336
685.636	10314
685.675	9937
685.722	10660
685.757	10386
685.768	10302
685.815	10329
685.861	10648
685.878	10692
685.908	10884
685.954	10544
686.000	11910
686.000	11922
686.047	11497
686.093	12415
686.121	12785
686.139	12723
686.185	11618
686.232	11601
686.242	11476
686.278	11228
686.324	11613
686.363	11352
686.370	11322
686.416	11441
686.463	11272
686.484	11453
686.509	11679
686.555	11755
686.601	11868
686.606	11878
686.647	11591
686.693	11219
686.727	11249
686.739	11305
686.785	11508
686.831	11461
686.848	11569
686.877	11723
686.923	11363
686.969	11443
686.969	11442
687.015	11481
687.061	12171
687.090	12188
687.107	12085
687.153	11829
687.199	11921
687.211	11970
687.245	12270
687.291	11784
687.332	12577
687.336	12668
687.382	12771
687.428	12971
687.453	13016
687.474	12846
687.520	12862
687.565	12419
687.574	12462
687.611	12911
687.657	12633
687.695	13159
687.702	13300
687.748	13275
687.794	13786
687.816	14136
687.839	13938
687.885	13280
687.931	12018
687.937	12024
687.976	13224
688.022	12919
688.058	14019
688.067	14140
688.113	13650
688.158	13505
688.179	13446
688.204	13601
688.249	13444
688.295	14326
688.300	14270
688.340	13927
688.386	14781
688.421	14857
688.431	14799
688.477	14352
688.522	14000
688.542	13976
688.567	14188
688.613	14215
688.658	14455
688.663	14478
688.703	14643
688.749	14802
688.784	14726
688.794	14740
688.839	14832
688.884	15150
688.905	15016
688.930	14746
688.975	14686
689.020	14882
689.026	14859
689.065	15161
689.110	15454
689.146	15542
689.155	15525
689.201	15275
689.246	15716
689.267	15460
689.291	15246
689.336	15763
689.381	15817
689.388	15729
689.426	15400
689.471	15692
689.509	15967
689.516	16015
689.561	15451
689.606	15145
689.630	15325
689.651	15658
689.696	15989
689.741	16022
689.750	16069
689.785	16273
689.830	15962
689.871	16220
689.875	16246
689.920	16156
689.965	16690
689.992	16223
690.010	16231
690.054	17004
690.099	17349
690.112	17549
690.144	17618
690.189	17615
690.233	17304
690.233	17328
690.278	17685
690.323	17543
690.354	17880
690.367	18231
690.412	18839
690.457	19603
690.474	19918
690.501	20341
690.546	20780
690.590	20978
690.595	21019
690.635	22877
690.680	25057
690.716	26511
690.724	27162
690.769	30336
690.813	34066
690.836	35575
690.857	40437
690.902	51647
690.946	62893
690.957	65569
690.991	89522
691.035	122191
691.077	152425
691.080	152674
691.124	148713
691.168	144934
691.198	143125
691.213	133908
691.257	105683
691.301	77663
691.318	66731
691.346	60410
691.390	49713
691.434	38701
691.439	37444
691.478	34437
691.522	31477
691.559	28222
691.567	27977
691.611	26927
691.655	25519
691.680	24581
691.699	24305
691.743	24033
691.787	23411
691.800	23254
691.831	23253
691.875	22664
691.919	22753
691.921	22702
691.964	22501
692.008	22302
692.041	22164
692.052	22200
692.096	22103
692.139	22015
692.162	21972
692.183	22026
692.227	21666
692.271	21864
692.282	21798
692.315	21881
692.359	22073
692.402	22127
692.403	22169
692.447	21921
692.490	22005
692.523	21746
692.534	21783
692.578	22316
692.622	22484
692.643	22413
692.666	22231
692.709	22248
692.753	21834
692.763	21745
692.797	22167
692.840	22364
692.884	23176
692.884	23230
692.928	23748
692.971	24192
693.004	24443
693.015	24545
693.059	24838
693.102	24973
693.124	25198
693.146	25908
693.189	26850
693.233	27833
693.245	28174
693.276	29950
693.320	32144
693.363	33890
693.365	33903
693.407	37549
693.450	40797
693.485	43487
693.493	45385
693.537	55132
693.580	64816
693.605	70188
693.624	80798
693.667	105834
693.710	130991
693.725	139846
693.753	186574
693.797	259924
693.840	333114
693.845	341082
693.883	334205
693.926	324908
693.966	316954
693.970	311260
694.013	245290
694.056	179390
694.086	133806
694.099	126734
694.142	103330
694.185	79910
694.206	68547
694.229	64402
694.272	56241
694.315	48440
694.326	46261
694.358	43773
694.401	40198
694.444	36607
694.446	36336
694.487	34549
694.530	32925
694.566	31350
694.573	31181
694.616	29488
694.659	28203
694.686	27046
694.702	26827
694.745	26160
694.787	25660
694.806	25406
694.830	25337
694.873	24753
694.916	24628
694.926	24428
694.959	24023
695.002	23584
695.044	23109
695.046	23039
695.087	23404
695.130	23650
695.166	23667
695.172	23716
695.215	24011
695.258	24037
695.286	24090
695.301	24157
695.343	24195
695.386	24225
695.406	24019
695.428	23731
695.471	23230
695.514	22903
695.526	22756
695.556	22963
695.599	23018
695.641	23089
695.646	23034
695.684	23037
695.726	23015
695.766	23099
695.769	23171
695.811	23334
695.854	23284
695.886	23269
695.896	23252
695.938	22989
695.981	22613
696.005	22437
696.023	22728
696.065	23028
696.108	23610
696.125	23733
696.150	23724
696.192	23651
696.235	23427
696.245	23360
696.277	23680
696.319	23878
696.361	24097
696.365	24072
696.404	25238
696.446	26206
696.485	27081
696.488	27106
696.530	26479
696.572	25862
696.604	25319
696.614	25229
696.656	24619
696.698	23912
696.724	23491
696.740	23455
696.783	23059
696.825	22857
696.844	22628
696.867	22682
696.909	22726
696.951	22662
696.964	22655
696.992	22651
697.034	22329
697.076	22051
697.083	21956
697.118	22486
697.160	23036
697.202	23566
697.203	23518
697.244	23382
697.286	23235
697.323	22906
697.327	22922
697.369	22608
697.411	22284
697.442	21896
697.453	21960
697.494	22162
697.536	22264
697.562	22204
697.578	22416
697.620	22952
697.661	23433
697.682	23624
697.703	23632
697.744	23525
697.786	23475
697.801	23318
697.828	23561
697.869	24013
697.911	24356
697.921	24391
697.952	24160
697.994	23816
698.035	23360
698.040	23250
698.077	23219
698.118	23033
698.160	22890
698.160	22825
698.201	22830
698.243	22765
698.279	22651
698.284	22758
698.325	23201
698.367	23584
698.399	23834
698.408	23727
698.449	22933
698.491	22184
698.518	21568
698.532	21768
698.573	22238
698.614	22699
698.638	22897
698.656	23001
698.697	23109
698.738	23214
698.757	23185
698.779	23404
698.820	23718
698.862	24033
698.877	24085
698.903	24397
698.944	24778
698.985	25166
698.996	25205
699.026	25116
699.067	24901
699.116	24577
699.235	24428
699.354	22838
699.474	23257
699.593	25028
699.713	24761
699.832	22922
699.951	24065
700.070	22868
700.190	22208
700.309	23919
700.428	22517
700.547	22794
700.667	22682
700.786	23233
700.905	21700
701.024	23430
701.143	22544
701.262	21916
701.381	20698
701.500	22782
701.619	21679
701.738	21445
701.857	20973
701.976	20751
702.095	20861
702.214	22007
702.333	21862
702.452	20688
702.571	20842
702.690	20256
702.809	20623
702.928	20709
703.047	20718
703.165	20475
703.284	20192
703.403	20941
703.522	21015
703.640	21595
703.759	22546
703.878	26741
703.997	20727
704.115	19765
704.234	19558
704.353	19280
704.471	19952
704.590	19541
704.708	19459
704.827	19109
704.946	19724
705.064	20834
705.183	19804
705.301	23093
705.420	31126
705.538	28054
705.656	26211
705.775	28929
705.893	52130
706.012	65570
706.130	26609
706.249	24984
706.367	24336
706.485	26475
706.604	24559
706.722	25052
706.840	26108
706.958	27722
707.077	24432
707.195	24094
707.313	23000
707.431	22944
707.549	22538
707.668	22206
707.786	23344
707.904	22330
708.022	22087
708.140	22325
708.258	21185
708.376	21666
708.494	22449
708.612	24432
708.730	32169
708.848	30495
708.966	28491
709.084	26855
709.202	24834
709.320	26823
709.438	26408
709.556	27672
709.674	26589
709.791	26201
709.909	25465
710.027	26193
710.145	24841
710.263	26045
710.380	23953
710.498	25539
710.616	25330
710.733	25278
710.851	25002
710.969	25506
711.086	24377
711.204	25336
711.322	23248
711.439	23787
711.557	23938
711.674	23815
711.792	23966
711.909	26999
712.027	28758
712.144	23157
712.262	24377
712.379	24818
712.497	33314
712.614	34543
712.732	29409
712.849	27975
712.966	27289
713.084	30483
713.201	28534
713.318	29566
713.436	28458
713.553	29055
713.670	28496
713.787	31135
713.905	29451
714.022	27475
714.139	27383
714.256	28072
714.373	29440
714.490	32022
714.608	44652
714.725	116584
714.842	125833
714.959	30941
715.076	25584
715.193	25461
715.310	25732
715.427	24552
715.544	23817
715.661	24615
715.778	23752
715.895	26716
716.011	25224
716.128	25356
716.245	25217
716.362	25588
716.479	25539
716.596	23296
716.713	24331
716.829	22858
716.946	23658
717.063	22686
717.180	22523
717.296	23063
717.413	22386
717.530	21720
717.646	22151
717.763	21967
717.880	21142
717.996	20949
718.113	21933
718.229	20926
718.346	21249
718.462	21622
718.579	22270
718.695	26661
718.812	24958
718.928	24437
719.045	22644
719.161	19862
719.277	19270
719.394	19780
719.510	21227
719.626	20898
719.743	23316
719.859	22780
719.975	22945
720.092	39746
720.208	71669
720.324	26406
720.440	20495
720.557	22097
720.673	23467
720.789	31677
720.905	51801
721.021	26160
721.137	19375
721.253	20447
721.369	19611
721.486	21002
721.602	24218
721.718	19371
721.834	17786
721.950	18907
722.066	18020
722.181	18449
722.297	18687
722.413	17972
722.529	17918
722.645	18015
722.761	17616
722.877	17666
722.993	17028
723.108	17701
723.224	16832
723.340	18145
723.456	16667
723.571	17604
723.687	16491
723.803	17213
723.918	16598
724.034	16524
724.150	16312
724.265	18149
724.381	24049
724.497	29784
724.612	16678
724.728	16646
724.843	16291
724.959	17221
725.074	23028
725.190	26889
725.305	17317
725.421	16395
725.536	14684
725.651	15296
725.767	15041
725.882	14154
725.997	16339
726.113	14429
726.228	14553
726.343	15357
726.459	13651
726.574	14892
726.689	14314
726.804	14584
726.920	14964
727.035	14839
727.150	14428
727.265	14486
727.380	14778
727.495	13848
727.610	14281
727.725	16249
727.841	18245
727.956	32254
728.071	26928
728.186	14734
728.301	12955
728.416	14035
728.531	14130
728.645	13751
728.760	13820
728.875	14261
728.990	13597
729.105	13824
729.220	13856
729.335	13370
729.449	12559
729.564	12996
729.679	12309
729.794	12369
729.908	13522
730.023	13191
730.138	12718
730.253	13048
730.367	11902
730.482	12296
730.596	12524
730.711	12996
730.826	12958
730.940	12786
731.055	12391
731.169	12235
731.284	11612
731.398	11774
731.513	12747
731.627	12289
731.742	12732
731.856	13744
731.970	11708
732.085	12965
732.199	12654
732.313	14303
732.428	19277
732.542	33737
732.656	23930
732.771	13981
732.885	12580
732.999	12787
733.113	12231
733.227	12807
733.342	11475
733.456	11991
733.570	10744
733.684	12346
733.798	11949
733.912	12158
734.026	10163
734.140	12092
734.254	12267
734.368	15838
734.482	18480
734.596	11866
734.710	11771
734.824	11268
734.938	11431
735.052	11664
735.166	12262
735.280	11831
735.393	11052
735.507	11542
735.621	12453
735.735	18032
735.849	11787
735.962	11085
736.076	12256
736.190	12010
736.303	12649
736.417	15961
736.531	10264
736.644	10646
736.758	10216
736.872	11516
736.985	10507
737.099	10242
737.212	9876
737.326	10945
737.439	10670
737.553	10538
737.666	10261
737.780	10867
737.893	10311
738.007	10139
738.120	10915
738.233	10443
738.347	10380
738.460	10201
738.573	10603
738.687	10704
738.800	10213
738.913	11276
739.026	10913
739.140	12298
739.253	11562
739.366	11085
739.479	9950
739.592	9877
739.705	9971
739.818	10863
739.932	9895
740.045	9957
740.158	9787
740.271	10546
740.384	9900
740.497	10735
740.610	10777
740.723	9915
740.836	10876
740.949	10253
741.062	11269
741.174	10661
741.287	9793
741.400	11008
741.513	10472
741.626	10184
741.739	10477
741.851	10521
741.964	9249
742.077	10478
742.189	10427
742.302	10684
742.415	10465
742.527	10973
742.640	9907
742.753	10004
742.865	9702
742.978	10097
743.090	10134
743.203	10736
743.316	9926
743.428	9363
743.541	9433
743.653	10738
743.766	9585
743.878	10298
743.990	10794
744.103	11960
744.215	9266
744.327	9842
744.440	10874
744.552	12232
744.664	10489
744.777	10130
744.889	9064
745.001	9989
745.113	9484
745.226	9772
745.338	9332
745.450	9867
745.562	9549
745.674	10433
745.786	9584
745.898	9634
746.010	9660
746.122	10221
746.234	10053
746.347	9246
746.459	9821
746.570	9794
746.682	10363
746.794	10771
746.906	9083
747.018	9867
747.130	9852
747.242	10227
747.354	9299
747.466	10437
747.577	9147
747.689	10451
747.801	9626
747.913	10022
748.024	8880
748.136	10470
748.248	10056
748.359	10498
748.471	10034
748.583	10052
748.694	11668
748.806	13463
748.918	10997
749.029	10408
749.141	10076
749.252	11009
749.364	10178
749.475	12585
749.587	12196
749.698	10925
749.809	10097
749.921	10128
750.032	11015
750.144	10527
750.255	9826
750.366	10144
750.478	10670
750.589	10737
750.700	10601
750.811	10511
750.923	11817
751.034	13739
751.145	14855
751.256	10494
751.367	11300
751.479	11379
751.590	10282
751.701	10171
751.812	10893
751.923	10928
752.034	9902
752.145	10668
752.256	9993
752.367	10855
752.478	10235
752.589	10817
752.700	11523
752.811	10748
752.922	10280
753.032	11488
753.143	12236
753.254	10588
753.365	11799
753.476	11181
753.586	10705
753.697	11970
753.808	11522
753.919	11507
754.029	11569
754.140	11576
754.251	11533
754.361	12117
754.472	12310
754.582	11694
754.693	12034
754.804	12196
754.914	12032
755.025	12357
755.135	12171
755.246	13208
755.356	11684
755.466	13656
755.577	12675
755.687	13001
755.798	13214
755.908	12660
756.018	12340
756.129	13220
756.239	13236
756.349	13491
756.460	12526
756.570	14029
756.680	13299
756.790	13725
756.900	14427
757.011	13554
757.121	14240
757.231	14737
757.341	13743
757.451	13406
757.561	13926
757.671	13637
757.781	13664
757.891	17036
758.001	15188
758.111	16444
758.221	15443
758.331	16420
758.441	15610
758.551	17325
758.661	17873
758.771	17360
758.880	17001
758.990	17752
759.100	17561
759.210	16710
759.320	18447
759.429	18918
759.539	18848
759.649	19485
759.758	19016
759.868	21187
759.978	20006
760.087	20415
760.197	21067
760.307	22155
760.416	21084
760.526	22455
760.635	22666
760.745	23723
760.854	23481
760.964	24061
761.073	25372
761.182	25587
761.292	26145
761.401	26500
761.511	26566
761.620	28476
761.729	29178
761.839	30098
761.948	30947
762.057	31369
762.166	33361
762.276	32150
762.385	36214
762.494	35864
762.603	37489
762.712	39276
762.822	38900
762.931	42381
763.040	43390
763.149	45786
763.258	47037
763.367	49818
763.476	51976
763.585	55755
763.694	59107
763.803	61781
763.912	64840
764.021	67888
764.130	72369
764.238	78619
764.347	83552
764.456	91088
764.565	97096
764.674	107938
764.783	117190
764.891	129696
765.000	145178
765.109	162765
765.217	184381
765.326	213521
765.435	249381
765.543	294199
765.652	356439
765.761	433961
765.869	539393
765.978	677853
766.086	849434
766.195	1013814
766.303	1036864
766.412	740354
766.520	715069
766.629	1006592
766.737	1011585
766.846	848706
766.954	679970
767.062	541627
767.171	435711
767.279	346569
767.387	286647
767.496	244320
767.604	208674
767.712	182898
767.820	165565
767.928	152561
768.037	139843
768.145	132019
768.253	126101
768.361	123277
768.469	122066
768.577	123808
768.685	130856
768.793	137233
768.901	151432
769.009	174501
769.117	205218
769.225	254338
769.333	330401
769.441	454775
769.549	637258
769.657	879858
769.765	958643
769.873	693460
769.981	884338
770.088	879760
770.196	668140
770.304	491126
770.412	376682
770.519	294003
770.627	236011
770.735	200021
770.842	168150
770.950	145804
771.058	127654
771.165	114052
771.273	101999
771.380	92050
771.488	84262
771.595	77555
771.703	71669
771.810	66902
771.918	61801
772.025	56994
772.133	53455
772.240	51219
772.348	48427
772.455	47800
772.562	44333
772.670	42097
772.777	39553
772.884	39160
772.991	37190
773.099	35330
773.206	32562
773.313	33796
773.420	32530
773.528	30387
773.635	29066
773.742	28819
773.849	27911
773.956	26779
774.063	26738
774.170	25949
774.277	25997
774.384	24458
774.491	24192
774.598	23975
774.705	23214
774.812	23680
774.919	23103
775.026	22317
775.133	21146
775.239	22458
775.346	20358
775.453	19968
775.560	20257
775.667	19705
775.773	18729
775.880	19350
775.987	18877
776.093	18720
776.200	17765
776.307	17206
776.413	17374
776.520	16353
776.627	16815
776.733	16557
776.840	14472
776.946	17015
777.053	14611
777.159	16477
777.266	14515
777.372	17054
777.478	15717
777.585	14610
777.691	13876
777.798	14885
777.904	14268
778.010	16290
778.117	15200
778.223	14234
778.329	12949
778.435	12592
778.542	13088
778.648	12280
778.754	12681
778.860	13279
778.966	12806
779.072	13456
779.178	12718
779.284	13333
779.391	13455
779.497	14574
779.603	21117
779.708	28640
779.815	56261
779.920	181022
780.026	346685
780.132	85699
780.238	23647
780.344	17815
780.450	15332
780.556	13175
780.661	12022
780.767	12017
780.873	10259
780.979	10546
781.085	9876
781.190	10750
781.296	9409
781.402	9394
781.507	9414
781.613	8892
781.719	8812
781.824	10119
781.930	9647
782.035	9204
782.141	8634
782.246	9270
782.352	8952
782.457	8767
782.563	9278
782.668	9345
782.773	9164
782.879	8035
782.984	8602
783.090	9132
783.195	9553
783.300	8605
783.405	8420
783.511	8080
783.616	8058
783.721	7443
783.826	7953
783.932	8276
784.037	7235
784.142	7474
784.247	8350
784.352	8545
784.457	7354
784.562	7646
784.667	7755
784.772	7370
784.877	6461
784.982	7878
785.087	6368
785.192	8090
785.297	6756
785.402	6403
785.507	6601
785.611	7100
785.716	6565
785.821	7008
785.926	5664
786.031	6644
786.135	7072
786.240	7163
786.345	5985
786.450	7314
786.554	6835
786.659	5999
786.763	5811
786.868	6831
786.973	7603
787.077	6007
787.182	5872
787.286	7436
787.391	5623
787.495	5080
787.600	6195
787.704	5142
787.809	6372
787.913	6701
788.017	6099
788.122	6278
788.226	5977
788.330	6034
788.435	5617
788.539	6606
788.643	5586
788.747	5739
788.852	5847
788.956	5687
789.060	5998
789.164	4891
789.268	4941
789.372	6037
789.476	5332
789.580	5092
789.684	5213
789.788	5257
789.892	3796
789.996	5560
790.100	4691
790.204	5483
790.308	5290
790.412	6283
790.516	5719
790.620	5502
790.724	5686
790.828	5376
790.931	4417
791.035	6745
791.139	5744
791.242	4446
791.346	5506
791.450	5413
791.554	5273
791.657	4284
791.761	5708
791.864	5952
791.968	4227
792.072	4758
792.175	4755
792.279	5120
792.382	5175
792.486	5702
792.589	4031
792.693	5091
792.796	3173
792.899	6323
793.003	5428
793.106	3592
793.209	4546
793.313	5758
793.416	3989
793.519	5804
793.623	5634
793.726	6584
793.829	4562
793.932	5613
794.035	4574
794.138	6942
794.242	6772
794.345	8983
794.448	14080
794.551	30026
794.654	102200
794.757	224542
794.860	52082
794.963	11981
795.066	6858
795.169	6681
795.272	5504
795.375	5430
795.477	4330
795.580	5039
795.683	4134
795.786	4445
795.889	3719
795.991	5588
796.094	5031
796.197	3206
796.300	4311
796.402	3461
796.505	3800
796.608	2900
796.710	4909
796.813	4663
796.915	4166
797.018	4503
797.120	4343
797.223	2498
797.326	5565
797.428	3844
797.530	3438
797.633	3461
797.735	5052
797.838	6110
797.940	5587
798.042	3262
798.145	3195
798.247	4561
798.349	2573
798.452	4780
798.554	3184
798.656	2201
798.758	4251
798.860	3538
798.962	3507
799.065	2958
799.167	2853
799.269	4635
799.371	3797
799.473	3905
799.575	3231
799.677	3978
799.779	4993
799.881	3351
799.983	4529
800.085	3731
800.187	2921
800.289	2895
800.390	3978
800.492	3823
800.594	4366
800.696	3274
800.798	3652
800.899	2763
801.001	3340
801.103	3785
801.205	3095
801.306	3546
801.408	2224
801.509	4147
801.611	3536
801.713	4463
801.814	2699
801.916	3458
802.017	1779
802.119	2643
802.220	2772
802.322	1709
802.423	5227
802.525	2701
802.626	2464
802.727	3719
802.829	3260
802.930	1557
803.031	4072
803.133	2290
803.234	2579
803.335	3382
803.436	2033
803.538	2787
803.639	1688
803.740	3919
803.841	1887
803.942	3388
804.043	2759
804.144	1909
804.245	2651
804.346	2525
804.447	1987
804.548	2807
804.649	4517
804.750	2946
804.851	2298
804.952	2621
805.053	2316
805.154	1964
805.255	3280
805.355	3309
805.456	2111
805.557	2049
805.658	1664
805.758	3737
805.859	2743
805.960	2971
806.061	1779
806.161	2647
806.262	2257
806.362	2723
806.463	2368
806.564	2909
806.664	2607
806.765	2783
806.865	3287
806.966	2468
807.066	3138
807.166	3481
807.267	3337
807.367	2203
807.468	2728
807.568	1696
807.668	3786
807.769	3360
807.869	2080
807.969	2683
808.069	3215
808.170	3580
808.270	1961
808.370	2493
808.470	2297
808.570	1789
808.670	2368
808.770	3297
808.870	1953
808.970	3514
809.070	1951
809.170	2402
809.271	2834
809.370	2515
809.470	3416
809.570	3328
809.670	1826
809.770	2560
809.870	1798
809.970	2997
810.070	3445
810.169	3116
810.269	1328
810.369	3819
810.469	2529
810.568	2323
810.668	2210
810.768	2673
810.867	2630
810.967	2785
811.066	3217
811.166	2601
811.265	3315
811.365	1664
811.464	2573
811.564	2803
811.663	3431
811.763	2677
811.862	3412
811.962	2823
812.061	1937
812.160	1776
812.260	3202
812.359	2945
812.458	3686
812.557	7877
812.657	10864
812.756	6588
812.855	3390
812.954	3645
813.053	3082
813.153	3126
813.252	2047
813.351	3352
813.450	2751
813.549	2532
813.648	3097
813.747	2431
813.846	2834
813.945	3335
814.044	3066
814.143	4553
814.242	4523
814.341	3027
814.439	3064
814.538	3937
814.637	3593
814.736	3938
814.835	3866
814.933	3645
815.032	4330
815.131	4406
815.229	3849
815.328	4291
815.427	3097
815.525	4819
815.624	5070
815.722	4782
815.821	4952
815.919	5335
816.018	4823
816.116	6243
816.215	5492
816.313	5266
816.412	6007
816.510	7454
816.609	8504
816.707	7413
816.805	8221
816.904	7973
817.002	10020
817.100	11937
817.198	12379
817.296	12675
817.395	15205
817.493	20476
817.591	22566
817.689	30213
817.787	39458
817.885	58576
817.983	92438
818.081	165892
818.179	312376
818.277	551026
818.375	518258
818.473	299990
818.571	164785
818.669	107695
818.767	87105
818.865	83179
818.963	92638
819.061	118908
819.158	172652
819.256	284847
819.354	476319
819.452	645418
819.549	540197
819.647	363012
819.745	218200
819.842	137579
819.940	94797
820.038	69515
820.135	52770
820.233	44337
820.330	33775
820.428	28887
820.525	25387
820.623	22229
820.720	17412
820.818	17200
820.915	15238
821.012	14101
821.110	11484
821.207	11930
821.304	9518
821.402	10172
821.499	9274
821.596	10463
821.693	7735
821.791	8002
821.888	7741
821.985	8711
822.082	7466
822.179	6772
822.276	4910
822.373	6023
822.470	4871
822.567	4892
822.664	4285
822.761	5887
822.858	3410
822.955	4644
823.052	3648
823.149	4902
823.246	3475
823.343	4429
823.440	4020
823.536	3837
823.633	3335
823.730	3496
823.827	3664
823.923	3119
824.020	3753
824.117	2803
824.213	2869
824.310	3984
824.407	2582
824.503	3628
824.600	2990
824.696	2451
824.793	3987
824.889	2489
824.986	2245
825.082	2522
825.179	3188
825.275	1743
825.371	1814
825.468	3342
825.564	1027
825.660	2935
825.757	2667
825.853	2983
825.949	1282
826.045	1899
826.142	1566
826.238	2476
826.334	2059
826.430	1798
826.526	3064
826.622	2000
826.718	2117
826.814	1160
826.910	2878
827.006	2144
827.102	1327
827.198	2228
827.294	946
827.390	1797
827.486	3211
827.582	1159
827.678	475
827.774	2242
827.869	870
827.965	2945
828.061	1124
828.157	1585
828.252	1546
828.348	2283
828.444	2711
828.539	1751
828.635	1575
828.731	2640
828.826	168
828.922	1991
829.017	1315
829.113	2502
829.208	982
829.304	759
829.399	2361
829.495	1769
829.590	2282
829.685	1736
829.781	1651
829.876	2042
829.971	1276
830.066	1991
830.162	1153
830.257	2066
830.352	956
830.447	2302
830.543	1423
830.638	1430
830.733	2159
830.828	826
830.923	1858
831.018	1419
831.113	1340
831.208	1787
831.303	1306
831.398	2505
831.493	828
831.588	1664
831.683	-412
831.778	1604
831.873	1015
831.967	2211
832.062	1411
832.157	495
832.252	1850
832.346	1595
832.441	1306
832.536	2618
832.631	3746
832.725	3453
832.820	1304
832.914	998
833.009	1361
833.104	987
833.198	2119
833.293	946
833.387	2134
833.482	1336
833.576	914
833.670	1777
833.765	1006
833.859	1669
833.954	2266
834.048	1138
834.142	1224
834.237	1353
834.331	1432
834.425	1531
834.519	178
834.613	1849
834.708	936
834.802	1372
834.896	633
834.990	795
835.084	1413
835.178	910
835.272	736
835.366	1460
835.460	1336
835.554	1070
835.648	649
835.742	648
835.836	1123
835.930	638
836.024	1192
836.117	2567
836.211	938
836.305	1838
836.399	2557
836.493	448
836.586	1818
836.680	970
836.774	344
836.867	2331
836.961	443
837.055	458
837.148	1508
837.242	1718
837.335	824
837.429	1238
837.522	929
837.616	1021
837.709	2728
837.803	1679
837.896	1426
837.989	1088
838.083	1471
838.176	3025
838.269	1869
838.363	1761
838.456	573
838.549	2231
838.642	2159
838.735	4554
838.829	2545
838.922	818
839.015	1120
839.108	1495
839.201	1258
839.294	1150
839.387	2231
839.480	611
839.573	1604
839.666	2400
839.759	1271
839.852	187
839.945	1022
840.038	1321
840.131	1987
840.223	716
840.316	1590
840.409	911
840.502	289
840.594	2185
840.687	-539
840.780	1828
840.873	815
840.965	1196
841.058	2109
841.150	2251
841.243	1873
841.336	1361
841.428	1171
841.521	278
841.613	671
841.706	1930
841.798	615
841.890	1022
841.983	-623
842.075	2435
842.167	733
842.260	977
842.352	1514
842.444	3441
842.537	3544
842.629	5964
842.721	1145
842.813	786
842.905	117
842.997	1592
843.090	1202
843.182	3251
843.274	3368
843.366	8137
843.458	13369
843.550	10360
843.642	1751
843.734	1070
843.826	1460
843.918	1388
844.009	1574
844.101	875
844.193	460
844.285	1733
844.377	1332
844.469	1691
844.560	554
844.652	557
844.744	859
844.835	707
844.927	1706
845.019	1726
845.110	541
845.202	1359
845.293	299
845.385	246
845.476	497
845.568	1457
845.659	263
845.751	1574
845.842	1355
845.934	786
846.025	11
846.116	1530
846.208	889
846.299	92
846.390	580
846.482	1574
846.573	1174
846.664	2460
846.755	1601
846.846	1530
846.937	-364
847.029	982
847.120	661
847.211	458
847.302	1884
847.393	-172
847.484	1277
847.575	495
847.666	856
847.757	640
847.847	929
847.938	1800
848.029	118
848.120	740
848.211	786
848.302	530
848.392	715
848.483	2380
848.574	493
848.664	1541
848.755	608
848.846	929
848.936	-99
849.027	1208
849.118	588
849.208	923
849.299	745
849.389	1112
849.480	2146
849.570	1602
849.661	2249
849.751	3912
849.841	1839
849.932	1223
850.022	147
850.112	1472
850.203	1009
850.293	1055
850.383	544
850.474	755
850.564	1148
850.654	561
850.744	905
850.834	1067
850.924	245
851.014	699
851.104	-174
851.194	717
851.284	488
851.374	1747
851.464	590
851.554	992
851.644	1970
851.734	2313
851.824	3520
851.914	5701
852.004	11498
852.094	12010
852.183	3191
852.273	1041
852.363	617
852.452	625
852.542	822
852.632	138
852.721	577
852.811	254
852.901	755
852.990	1299
853.080	-294
853.169	465
853.259	146
853.348	104
853.438	682
853.527	621
853.617	74
853.706	1504
853.795	1811
853.885	4552
853.974	7662
854.063	15263
854.152	22191
854.242	8414
854.331	2106
854.420	83
854.509	604
854.598	1536
854.687	101
854.777	1229
854.866	312
854.955	1473
855.044	-563
855.133	897
855.222	-180
855.311	1103
855.400	266
855.488	920
855.577	-105
855.666	1483
855.755	2415
855.844	2151
855.933	1793
856.021	1275
856.110	582
856.199	341
856.288	362
856.376	533
856.465	243
856.554	1287
856.642	-295
856.731	440
856.819	-147
856.908	649
856.996	453
857.085	508
857.173	572
857.262	885
857.350	828
857.438	863
857.527	597
857.615	338
857.703	1180
857.792	871
857.880	-125
857.968	385
858.056	212
858.145	419
858.233	80
858.321	86
858.409	307
858.497	180
858.585	387
858.673	708
858.761	-189
858.849	1157
858.937	-248
859.025	266
859.113	640
859.201	-359
859.289	775
859.377	54
859.465	53
859.552	683
859.640	328
859.728	1017
859.816	152
859.903	1214
859.991	132
860.079	-109
860.166	-30
860.254	1053
860.342	543
860.429	737
860.517	-446
860.604	616
860.692	174
860.779	135
860.867	-161
860.954	228
861.042	780
861.129	1240
861.216	942
861.304	153
861.391	353
861.478	813
861.565	-101
861.653	835
861.740	100
861.827	-189
861.914	522
862.001	926
862.089	-207
862.176	358
862.263	121
862.350	706
862.437	-388
862.524	136
862.611	838
862.698	840
862.785	-186
862.871	1283
862.958	192
863.045	414
863.132	255
863.219	500
863.306	-612
863.392	768
863.479	415
863.566	1067
863.652	734
863.739	267
863.826	304
863.912	271
863.999	-87
864.086	1161
864.172	330
864.259	-82
864.345	765
864.432	972
864.518	277
864.604	363
864.691	-431
864.777	366
864.863	209
864.950	557
865.036	193
865.122	933
865.209	29
865.295	290
865.381	-168
865.467	906
865.553	951
865.639	581
865.726	648
865.812	1764
865.898	3543
865.984	5554
866.070	10574
866.156	11402
866.242	1785
866.328	667
866.414	880
866.499	921
866.585	1020
866.671	342
866.757	243
866.843	-205
866.928	770
867.014	345
867.100	855
867.186	1128
867.271	318
867.357	846
867.442	1186
867.528	1560
867.614	531
867.699	278
867.785	-47
867.870	531
867.956	69
868.041	1274
868.127	854
868.212	956
868.297	531
868.383	-3
868.468	1410
868.553	1447
868.639	1207
868.724	3904
868.809	3223
868.894	981
868.979	785
869.065	-185
869.150	-586
869.235	800
869.320	733
869.405	117
869.490	-300
869.575	-289
869.660	-432
869.745	381
869.830	-386
869.915	128
870.000	266
870.085	-72
870.169	-662
870.254	24
870.339	-215
870.424	-185
870.509	437
870.593	-585
870.678	-7
870.763	-233
870.847	250
870.932	55
871.016	388
871.101	232
871.186	-503
871.270	818
871.355	-795
871.439	493
871.523	-244
871.608	572
871.692	74
871.777	329
871.861	142
871.945	-211
872.030	49
872.114	241
872.198	-536
872.282	122
872.367	-318
872.451	-227
872.535	245
872.619	579
872.703	-876
872.787	117
872.871	922
872.955	-263
873.039	-1541
873.123	-303
873.207	602
873.291	113
873.375	-133
873.459	678
873.543	-20
873.627	1506
873.711	-791
873.794	-466
873.878	-445
873.962	382
874.045	316
874.129	-682
874.137	-601
874.213	216
874.245	141
874.296	18
874.352	-517
874.380	-781
874.460	-531
874.464	-521
874.547	-415
874.568	-18
874.631	1158
874.676	360
874.714	-313
874.784	-685
874.798	-758
874.881	880
874.892	719
874.965	-404
874.999	-235
875.048	24
875.107	350
875.131	472
875.215	272
875.215	272
875.298	-794
875.323	-421
875.381	451
875.430	332
875.465	266
875.538	24
875.548	-10
875.631	-158
875.646	-192
875.714	-338
875.753	-129
875.798	61
875.861	-100
875.881	-126
875.964	246
875.968	236
876.047	131
876.076	174
876.130	151
876.183	-0
876.213	-81
876.291	560
876.296	604
876.379	-712
876.398	-453
876.462	508
876.506	275
876.545	10
876.613	-17
876.628	-50
876.711	-143
876.721	-138
876.794	106
876.828	-134
876.877	-453
876.935	50
876.960	247
877.043	-83
877.043	-82
877.125	126
877.150	166
877.208	301
877.258	434
877.291	544
877.365	703
877.374	709
877.456	-67
877.472	-195
877.539	-585
877.579	-487
877.622	-472
877.687	232
877.704	474
877.787	92
877.794	114
877.869	71
877.901	220
877.952	533
878.008	201
878.034	43
878.115	-185
878.117	-189
878.199	-30
878.222	-2
878.282	120
878.329	76
878.364	11
878.437	620
878.447	696
878.529	-316
878.544	-203
878.611	383
878.651	198
878.694	-40
878.758	110
878.776	199
878.858	400
878.865	427
878.941	647
878.972	510
879.023	165
879.078	-32
879.105	-100
879.185	178
879.187	187
879.269	37
879.292	-64
879.351	-445
879.399	-351
879.433	-267
879.506	99
879.516	159
879.598	217
879.613	238
879.680	464
879.720	506
879.762	325
879.827	-64
879.844	-113
879.926	216
879.933	183
880.007	-199
880.040	-133
880.089	-89
880.147	-334
880.171	-378
880.253	617
880.254	614
880.335	-85
880.360	266
880.417	1086
880.467	1622
880.499	1984
880.574	2189
880.580	2183
880.662	390
880.680	334
880.744	25
880.787	45
880.825	388
880.893	419
880.907	299
880.989	153
881.000	112
881.070	283
881.106	233
881.152	15
881.213	81
881.233	138
881.315	310
881.319	315
881.396	556
881.426	477
881.478	142
881.532	243
881.559	245
881.639	-644
881.641	-656
881.722	198
881.745	48
881.803	-265
881.852	-96
881.885	-75
881.958	-256
881.966	-277
882.047	475
882.064	341
882.129	91
882.171	300
882.210	303
882.277	222
882.291	278
882.372	580
882.383	595
882.454	331
882.489	81
882.535	-98
882.596	-329
882.616	-456
882.697	-199
882.702	-204
882.778	72
882.808	259
882.859	369
882.914	-40
882.940	-229
883.020	-190
883.021	-187
883.102	71
883.127	129
883.183	58
883.233	-107
883.264	-75
883.339	104
883.345	102
883.426	220
883.445	264
883.507	210
883.551	-187
883.587	-315
883.657	-80
883.668	-46
883.749	-374
883.763	-267
883.830	-151
883.869	-330
883.910	-235
883.975	-175
883.991	-149
884.072	-80
884.081	-24
884.152	360
884.187	303
884.233	69
884.292	214
884.314	313
884.394	270
884.398	267
884.475	-1
884.504	-35
884.555	313
884.610	350
884.636	267
884.716	537
884.716	540
884.797	316
884.821	168
884.877	117
884.927	46
884.958	8
885.033	-8
885.038	-25
885.118	-461
885.139	-568
885.199	-345
885.244	101
885.279	265
885.350	79
885.359	58
885.439	345
885.456	316
885.520	148
885.561	131
885.600	153
885.667	72
885.680	140
885.760	738
885.773	821
885.840	688
885.878	609
885.920	699
885.984	677
886.000	521
886.080	-142
886.089	-198
886.160	-452
886.195	-588
886.240	-21
886.300	688
886.320	691
886.400	732
886.406	722
886.480	622
886.511	624
886.560	615
886.616	443
886.640	315
886.720	252
886.722	244
886.800	293
886.827	391
886.879	450
886.932	366
886.959	432
887.038	577
887.039	577
887.119	456
887.143	486
887.198	457
887.248	318
887.278	303
887.354	165
887.358	153
887.437	176
887.459	95
887.517	376
887.564	714
887.596	720
887.669	647
887.676	568
887.755	-393
887.774	-626
887.835	223
887.880	908
887.914	639
887.985	12
887.994	47
888.073	296
888.090	353
888.153	106
888.195	-16
888.232	227
888.300	643
888.311	580
888.391	87
888.405	6
888.470	478
888.510	757
888.549	816
888.615	940
888.628	846
888.708	212
888.720	121
888.787	618
888.825	869
888.866	513
888.930	27
888.945	194
889.024	1004
889.035	1118
889.103	470
889.140	102
889.182	232
889.245	459
889.261	504
889.340	686
889.349	711
889.419	328
889.454	118
889.498	284
889.559	545
889.577	508
889.656	346
889.664	334
889.735	783
889.768	995
889.814	737
889.873	397
889.978	314
890.083	58
890.187	4
890.292	547
890.397	118
890.501	1360
890.606	1216
890.710	871
890.815	-148
890.919	329
891.024	188
891.128	1130
891.233	870
891.337	592
891.442	1
891.546	490
891.650	764
891.755	251
891.859	1765
891.963	431
892.068	1008
892.172	179
892.276	152
892.380	442
892.484	1038
892.589	922
892.693	495
892.797	-155
892.901	584
893.005	676
893.109	553
893.213	536
893.317	548
893.421	949
893.525	1116
893.629	927
893.733	1528
893.837	639
893.941	-151
894.045	1205
894.148	828
894.252	1760
894.356	1216
894.460	559
894.564	1208
894.667	87
894.771	434
894.875	-89
894.978	458
895.082	-434
895.186	1049
895.289	1086
895.393	395
895.496	385
895.600	-13
895.703	605
895.807	-13
895.910	-36
896.014	390
896.117	-20
896.221	469
896.324	1204
896.427	736
896.531	134
896.634	-502
896.737	652
896.840	863
896.944	276
897.047	104
897.150	184
897.253	-42
897.356	853
897.460	841
897.563	279
897.666	-30
897.769	143
897.872	4
897.975	639
898.078	419
898.181	246
898.284	-26
898.387	794
898.490	444
898.593	207
898.695	643
898.798	496
898.901	781
899.004	553
899.107	840
899.209	491
899.312	-349
899.415	824
899.518	465
899.620	564
899.723	-246
899.826	592
899.928	386
900.031	103
900.133	-522
900.236	-54
900.338	-49
900.441	171
900.543	154
900.646	288
900.748	427
900.851	650
900.953	524
901.055	357
901.158	553
901.260	335
901.362	979
901.465	-499
901.567	455
901.669	1003
901.771	-145
901.873	478
901.976	-145
902.078	570
902.180	365
902.282	-508
902.384	409
902.486	101
902.588	741
902.690	-432
902.792	551
902.894	630
902.996	-163
903.098	363
903.200	1073
903.302	-105
903.404	870
903.505	512
903.607	15
903.709	29
903.811	367
903.913	555
904.014	-7
904.116	194
904.218	377
904.319	380
904.421	1004
904.523	-270
904.624	124
904.726	-5
904.827	282
904.929	870
905.030	95
905.132	196
905.233	474
905.335	-225
905.436	-24
905.537	-373
905.639	110
905.740	-196
905.841	-135
905.943	-86
906.044	324
906.145	253
906.247	-215
906.348	264
906.449	485
906.550	-380
906.651	815
906.752	-364
906.854	-333
906.955	-816
907.056	271
907.157	367
907.258	425
907.359	69
907.460	943
907.561	671
907.662	397
907.762	354
907.863	-150
907.964	915
908.065	649
908.166	-1123
908.267	-59
908.367	437
908.468	196
908.569	-163
908.670	-91
908.770	80
908.871	486
908.971	256
909.072	288
909.173	-506
909.273	-394
909.374	377
909.474	534
909.575	37
909.675	531
909.776	439
909.876	-621
909.977	210
910.077	788
910.177	-337
910.278	416
910.378	-378
910.478	311
910.579	-981
910.679	1086
910.779	425
910.879	513
910.980	291
911.080	-428
911.180	248
911.280	-631
911.380	-147
911.480	-261
911.580	778
911.680	-787
911.780	400
911.880	77
911.980	498
912.080	-3
912.180	84
912.280	-178
912.380	95
912.480	591
912.580	-727
912.679	-611
912.779	-12
912.879	-299
912.979	-661
913.078	-259
913.178	144
913.278	4
913.377	-402
913.477	89
913.577	686
913.676	222
913.776	-150
913.875	-529
913.975	-306
914.074	-200
914.174	160
914.273	-274
914.373	408
914.472	-441
914.572	545
914.671	386
914.770	-222
914.870	-969
914.969	-686
915.068	243
915.167	73
915.267	-218
915.366	150
915.465	-12
915.564	166
915.663	140
915.763	33
915.862	121
915.961	-346
916.060	-436
916.159	299
916.258	65
916.357	-182
916.456	65
916.555	37
916.654	88
916.752	104
916.851	331
916.950	476
917.049	-749
917.148	-509
917.247	444
917.345	-995
917.444	-305
917.543	56
917.642	-254
917.740	-487
917.839	-1223
917.937	-348
918.036	-64
918.135	-345
918.233	-364
918.332	-593
918.430	22
918.529	-201
918.627	273
918.726	-593
918.824	265
918.923	-216
919.021	-487
919.119	-1085
919.218	-370
919.316	579
919.414	-309
919.512	-61
919.611	-981
919.709	-895
919.807	-160
919.905	1
920.003	-480
920.102	-751
920.200	-846
920.298	409
920.396	485
920.494	542
920.592	-176
920.690	-530
920.788	-335
920.886	-300
920.984	-569
921.082	78
921.180	-91
921.277	-619
921.375	167
921.473	211
921.571	17
921.669	-276
921.766	-231
921.864	-309
921.962	18
922.060	379
922.157	346
922.255	-400
922.352	-216
922.450	144
922.548	-59
922.645	-339
922.743	-836
922.840	-248
922.938	176
923.035	-233
923.133	-442
923.230	-850
923.327	212
923.425	123
923.522	42
923.619	479
923.717	-847
923.814	-454
923.911	-227
924.008	-73
924.106	-619
924.203	-573
924.300	342
924.397	-287
924.494	666
924.591	-305
924.688	-468
924.786	-170
924.883	79
924.979	162
925.077	332
925.173	494
925.270	-33
925.367	-449
925.464	1066
925.561	648
925.658	-3
925.755	-246
925.852	199
925.948	309
926.045	-55
926.142	-197
926.239	-296
926.335	-627
926.432	-76
926.529	-129
926.625	50
926.722	250
926.818	-540
926.915	37
927.011	-253
927.108	251
927.204	-443
927.301	242
927.397	-146
927.494	-22
927.590	-695
927.687	66
927.783	-775
927.879	605
927.976	-250
928.072	-221
928.168	-604
928.264	-449
928.361	-566
928.457	195
928.553	-40
928.649	406
928.745	152
928.841	-323
928.937	50
929.033	494
929.129	-270
929.225	-532
929.321	605
929.417	816
929.513	-742
929.609	-410
929.705	-188
929.801	237
929.897	-180
929.993	-469
930.089	-261
930.184	-345
930.280	-468
930.376	430
930.471	-304
930.567	676
930.663	-180
930.758	-483
930.854	-558
930.950	-268
931.045	-543
931.141	-665
931.236	-72
931.332	-169
931.427	-958
931.523	-797
931.618	-375
931.714	-840
931.809	-75
931.905	-226
932.000	-345
932.095	-376
932.191	-507
932.286	54
932.381	-586
932.476	104
932.572	-1096
932.667	-341
932.762	-111
932.857	-696
932.952	-925
933.047	-383
933.142	-571
933.237	210
933.332	-353
933.427	297
933.522	-14
933.617	778
933.712	-691
933.807	-237
933.902	-221
933.997	-496
934.092	-328
934.187	-242
934.282	-32
934.376	-102
934.471	-843
934.566	80
934.661	-387
934.755	162
934.850	-630
934.945	327
935.039	179
935.134	-301
935.228	-424
935.323	506
935.417	-285
935.512	-345
935.606	157
935.701	-310
935.795	237
935.890	354
935.984	-56
936.079	-772
936.173	-88
936.267	-356
936.362	-329
936.456	-393
936.550	158
936.644	-831
936.738	-30
936.833	-206
936.927	-13
937.021	-469
937.115	-408
937.209	-374
937.303	338
937.397	-508
937.491	299
937.585	-354
937.679	-374
937.773	34
937.867	-1013
937.961	114
938.055	-139
938.149	-40
938.243	779
938.337	-571
938.430	208
938.524	136
938.618	-837
938.712	-351
938.805	-742
938.899	-543
938.993	-565
939.086	136
939.180	-325
939.274	102
939.367	-128
939.461	-323
939.554	-236
939.648	51
939.741	85
939.835	102
939.928	-276
940.022	-673
940.115	246
940.208	46
940.302	250
940.395	-905
940.488	-917
940.582	202
940.675	-103
940.768	-42
940.861	-35
940.954	97
941.048	-553
941.141	-489
941.234	-597
941.327	-56
941.420	911
941.513	71
941.606	-175
941.699	86
941.792	5
941.885	-343
941.978	-470
942.071	-433
942.164	-799
942.257	531
942.349	-278
942.442	-576
942.535	78
942.628	-1303
942.721	-403
942.813	-1252
942.906	352
942.999	-719
943.091	-198
943.184	-337
943.277	-631
943.369	246
943.462	-239
943.554	-363
943.647	-972
943.739	-736
943.832	103
943.924	-505
944.017	-517
944.109	-921
944.201	-419
944.294	366
944.386	-54
944.478	-1312
944.571	-786
944.663	-150
944.755	-278
944.847	-15
944.940	-718
945.032	-833
945.124	-131
945.216	882
945.308	-241
945.400	-569
945.492	149
945.584	-441
945.676	-495
945.768	-568
945.860	-35
945.952	-1192
946.044	-516
946.136	-595
946.228	-177
946.320	-302
946.412	-574
946.503	-402
946.595	-751
946.687	-269
946.779	-199
946.870	-370
946.962	-889
947.054	-868
947.145	-509
947.237	-153
947.329	-355
947.420	-857
947.512	-564
947.603	-303
947.695	-121
947.786	-1090
947.878	-897
947.969	88
948.061	-1243
948.152	-441
948.243	-68
948.335	-281
948.426	-556
948.517	-1050
948.609	-40
948.700	234
948.791	-522
948.882	-270
948.973	-977
949.065	-568
949.156	50
949.247	-1395
949.338	-596
949.429	-551
949.520	908
949.611	-2179
949.702	-783
949.793	-199
949.884	-889
949.975	342
950.066	-492
950.157	-559
950.247	-763
950.338	-739
950.429	194
950.520	-699
950.611	334
950.701	-121
950.792	187
950.883	71
950.973	-846
951.064	-967
951.155	-559
951.245	-195
951.336	-1469
951.427	-942
951.517	-782
951.608	478
951.698	-601
951.788	-288
951.879	-399
951.969	-1344
952.060	58
952.150	-251
952.240	-426
952.331	-2458
952.421	60
952.511	-757
952.602	-778
952.692	-992
952.782	-823
952.872	-884
952.962	-548
953.052	-1623
953.143	-807
953.233	-246
953.323	-713
953.413	-614
953.503	-434
953.593	-802
953.683	-1222
953.773	-1117
953.863	-244
953.953	-1096
954.042	-209
954.132	-713
954.222	-597
954.312	-347
954.402	-256
954.492	-758
954.581	249
954.671	-1007
954.761	-1361
954.850	-225
954.940	-541
955.030	-417
955.119	-504
955.209	-557
955.298	-1129
955.388	-744
955.477	377
955.567	-1132
955.656	-541
955.746	-52
955.835	-1179
955.925	-921
956.014	-335
956.103	-868
956.193	-394
956.282	-921
956.371	-750
956.461	-320
956.550	-1007
956.639	-1130
956.728	-1158
956.817	-707
956.906	-1061
956.995	-15
957.085	-914
957.174	-717
957.263	5
957.352	-675
957.441	-939
957.530	-338
957.619	-498
957.708	-908
957.796	-746
957.885	-1009
957.974	-1062
958.063	-30
958.152	-1008
958.241	-793
958.329	-1207
958.418	43
958.507	-1575
958.596	-189
958.684	-1289
958.773	5
958.861	-586
958.950	-394
959.039	24
959.127	243
959.216	-625
959.304	-108
959.393	-287
959.481	-486
959.570	82
959.658	-686
959.746	41
959.835	442
959.923	-663
960.011	-429
960.100	146
960.188	-1012
960.276	-430
960.365	-1520
960.453	-651
960.541	-603
960.629	71
960.717	-1197
960.805	-1054
960.893	-364
960.981	-1186
961.069	-266
961.158	-1036
961.245	203
961.333	-1345
961.421	-408
961.509	-511
961.597	-370
961.685	-878
961.773	-661
961.861	-542
961.949	-1097
962.036	-2145
962.124	-376
962.212	-426
962.299	-935
962.387	-288
962.475	-288
962.562	-884
962.650	-561
962.738	-390
962.825	-312
962.913	-176
963.000	-1081
963.088	-565
963.175	-1050
963.263	-418
963.350	-1059
963.438	-1055
963.525	-976
963.612	-415
963.700	-497
963.787	1877
963.874	64
963.962	-1067
964.049	-277
964.136	-204
964.223	-1147
964.310	-845
964.398	-43
964.485	-810
964.572	-470
964.659	-427
964.746	-941
964.833	-782
964.920	-1192
965.007	-904
965.094	-401
965.181	-342
965.268	-693
965.355	-972
965.441	-225
965.528	-1767
965.615	-123
965.702	-8
965.789	-1286
965.875	-1465
965.962	-595
966.049	-1027
966.136	-881
966.222	-987
966.309	-308
966.395	-874
966.482	-502
966.569	-743
966.655	-848
966.742	-969
966.828	-498
966.915	-650
967.001	-580
967.087	-987
967.174	-366
967.260	-384
967.347	-590
967.433	-435
967.519	1088
967.605	-438
967.692	-888
967.778	-891
967.864	-780
967.950	-1292
968.036	-533
968.123	-639
968.209	-1108
968.295	-1600
968.381	298
968.467	230
968.553	-1477
968.639	-124
968.725	-892
968.811	-75
968.897	-558
968.983	-1052
969.069	-1327
969.154	-291
969.240	-582
969.326	-896
969.412	-633
969.497	-1579
969.583	-1862
969.669	-188
969.755	-881
969.840	-1281
969.926	-419
970.012	-802
970.097	15
970.183	-1916
970.268	-306
970.354	-683
970.439	-692
970.525	677
970.610	-1767
970.696	-583
970.781	-831
970.866	-1359
970.952	-95
971.037	-1056
971.122	-577
971.208	-1520
971.293	-139
971.378	-2278
971.463	-811
971.549	14
971.634	-597
971.719	-1316
971.804	-862
971.889	-170
971.974	-995
972.059	-1086
972.144	-493
972.229	-801
972.314	-935
972.399	134
972.484	-643
972.569	-162
972.654	-1147
972.739	599
972.824	-307
972.908	-1038
972.993	-837
973.078	-1346
973.163	-1240
973.247	-1212
973.332	-1788
973.417	486
973.501	-2396
973.586	-506
973.671	-619
973.755	-722
973.840	342
973.924	45
974.009	-470
974.093	-1169
974.178	230
974.262	-742
974.346	-689
974.431	-1440
974.515	-1092
974.600	-397
974.684	-988
974.768	-1818
974.852	-733
974.937	-2120
975.021	-161
975.105	-654
975.189	-935
975.273	-235
975.358	-1897
975.442	-1425
975.526	164
975.610	-1101
975.694	-1445
975.778	231
975.862	-875
975.946	-3032
976.030	1106
976.114	-1047
976.198	-1345
976.281	-781
976.365	-467
976.449	-1005
976.533	-491
976.617	-1117
976.700	-1915
976.784	-913
976.868	-1636
976.951	-542
977.035	-1060
977.119	-753
977.202	-348
977.286	-591
977.369	-1154
977.453	-397
977.536	-889
977.620	-1910
977.703	-223
977.787	-1206
977.870	-496
977.953	415
978.037	-1558
978.120	-270
978.203	-1325
978.287	-413
978.370	-1083
978.453	-1499
978.536	-1683
978.620	81
978.703	-1124
978.786	-1020
978.869	-1674
978.952	-1720
979.035	129
979.118	-1496
979.201	-980
979.284	-362
979.367	-1683
979.450	-413
979.533	-849
979.616	-746
979.699	-1463
979.782	-1081
979.865	291
979.948	-1303
980.030	-1477
980.113	-800
980.196	-2256
980.279	-493
980.361	-735
980.444	-1903
980.526	-736
980.609	-584
980.692	-1028
980.774	-863
980.857	-2010
980.939	-309
981.022	-1265
981.104	-1106
981.187	-1054
981.269	192
981.352	-684
981.434	-1656
981.516	-1593
981.599	-471
981.681	-698
981.763	-1689
981.846	-751
981.928	-676
982.010	-1240
982.092	-1881
982.174	-472
982.256	-1604
982.339	-1684
982.421	-1780
982.503	-858
982.585	-2326
982.667	-965
982.749	-998
982.831	-189
982.913	-1575
982.995	-352
983.077	-1036
983.158	-493
983.240	-2089
983.322	-1658
983.404	-1400
983.486	-1625
983.568	-1149
983.649	-763
983.731	-649
983.813	-1190
983.894	-431
983.976	-2641
984.058	-1093
984.139	276
984.221	-2279
984.302	-867
984.384	-1815
984.465	-1446
984.547	-1579
984.628	-1972
984.710	-993
984.791	-1019
984.872	-804
984.954	-987
985.035	-1134
985.116	-2529
985.198	-1292
985.279	-795
985.360	-1442
985.441	-1888
985.522	-533
985.604	-1326
985.685	-3207
985.766	29
985.847	470
985.928	-1588
986.009	-1169
986.090	-857
986.171	-850
986.252	-1760
986.333	-1701
986.414	-1534
986.495	-1606
986.576	-1465
986.656	-1085
986.737	-657
986.818	-1466
986.899	-1338
986.980	-1228
987.060	-624
987.141	-2658
987.222	-1561
987.302	-1327
987.383	-879
987.464	-1252
987.544	-1165
987.625	-929
987.705	-306
987.786	-1179
987.866	-1028
987.947	-1615
988.027	-1990
988.108	-1805
988.188	-1365
988.268	-1001
988.349	-1369
988.429	-982
988.509	-670
988.589	-1310
988.670	-2976
988.750	-844
988.830	-1571
988.910	-1459
988.990	-974
989.070	-1724
989.151	-942
989.231	-2338
989.311	-801
989.391	-1049
989.471	-2367
989.551	-1705
989.631	-1908
989.711	-892
989.791	-1524
989.870	-962
989.950	-279
990.030	-1800
990.110	-1559
990.190	-1788
990.269	-2072
990.349	-1456
990.429	-1091
990.509	-1169
990.588	-1858
990.668	-1548
990.747	-1741
990.827	-1560
990.907	-562
990.986	-1865
991.066	-1320
991.145	-1292
991.225	-854
991.304	-1187
991.383	-1770
991.463	-1286
991.542	-1514
991.622	-1185
991.701	-2372
991.780	-1567
991.859	-1768
991.939	-1128
992.018	-1883
992.097	-1980
992.176	-1420
992.256	-1102
992.335	-1569
992.414	-812
992.493	-1591
992.572	-2187
992.651	-357
992.730	-1715
992.809	-411
992.888	-2035
992.967	-1978
993.046	-574
993.125	-2685
993.203	-1553
993.282	-1178
993.361	-2066
993.440	-1635
993.519	-2628
993.597	-1544
993.676	-1915
993.755	-1129
993.834	-599
993.912	-1941
993.991	-394
994.069	-990
994.148	-1217
994.226	-1800
994.305	-1347
994.384	-1324
994.462	-689
994.540	-2511
994.619	-1401
994.697	-1628
994.776	-1842
994.854	-1373
994.932	-2022
995.011	-1091
995.089	-1248
995.167	-1535
995.245	-481
995.324	-1785
995.402	-765
995.480	-1608
995.558	-1292
995.636	-2267
995.714	-1556
995.792	-1210
995.870	-2493
995.948	-1583
996.026	-1576
996.104	-2888
996.182	-1440
996.260	-1265
996.338	-1400
996.416	-2472
996.494	-1694
996.572	-841
996.649	-2151
996.727	-2108
996.805	-872
996.883	-1856
996.960	-1331
997.038	-1522
997.116	-1305
997.193	-1972
997.271	-1558
997.348	-1319
997.426	-1403
997.504	-2189
997.581	-1249
997.658	-1184
997.736	-2615
997.813	-2562
997.891	-1786
997.968	-2542
998.046	-1321
998.123	-1585
998.200	-1934
998.277	-2344
998.355	-764
998.432	-2357
998.509	-1042
998.586	-818
998.663	-1816
998.741	-1799
998.818	-1952
998.895	-1858
998.972	-1531
999.049	-1911
999.126	-1994
999.203	-1400
999.280	-1187
999.357	-1220
999.434	-1645
999.511	-1404
999.587	-1313
999.664	-2378
999.741	-1930
999.818	-1552
999.895	-2047
999.971	-1964
1000.048	-962
1000.125	-624
1000.202	-2197
1000.278	-2199
1000.355	-1994
1000.431	-2294
1000.508	-1945
1000.584	-2041
1000.661	-1653
1000.738	-2306
1000.814	-1723
1000.890	-1240
1000.967	-2523
1001.043	-1347
1001.120	-2136
1001.196	-2194
1001.272	-2370
1001.349	-2448
1001.425	-1181
1001.501	-2710
1001.577	-2140
1001.654	-2203
1001.730	-2547
1001.806	-1556
1001.882	-2040
1001.958	-1560
1002.034	-1573
1002.110	-1196
1002.186	-1871
1002.262	-1414
1002.338	-2184
1002.414	-1616
1002.490	-1957
1002.566	-2278
1002.642	-2138
1002.718	-919
1002.794	-2151
1002.870	-1984
1002.945	-1932
1003.021	-1535
1003.097	-1924
1003.173	-437
1003.248	-2593
1003.324	-1723
1003.400	-1988
1003.475	-2475
1003.551	-1660
1003.626	-2130
1003.702	-1698
1003.777	-2205
1003.853	-2110
1003.928	-1498
1004.004	-1933
1004.079	-1312
1004.155	-2198
1004.230	-3179
1004.305	-1289
1004.381	-1871
1004.456	-1642
1004.531	-1641
1004.607	-1242
1004.682	-1665
1004.757	-1927
1004.832	-1360
1004.907	-2023
1004.982	-1604
1005.057	-2040
1005.133	-1717
1005.208	-1522
1005.283	-2029
1005.358	-1384
1005.433	-2192
1005.508	-1823
1005.583	-2143
1005.657	-2249
1005.732	-1761
1005.807	-1499
1005.882	-1521
1005.957	-1938
1006.032	-1850
1006.106	-1584
1006.181	-1493
1006.256	-1274
1006.331	-1896
1006.405	-2545
1006.480	-2077
1006.554	-2599
1006.629	-1000
1006.704	-3085
1006.778	-1517
1006.853	-1473
1006.927	-1850
1007.002	-2622
1007.076	-2107
1007.150	-2665
1007.225	-1880
1007.299	-1802
1007.373	-2943
1007.448	-2659
1007.522	-1587
1007.596	-1958
1007.671	-2212
1007.745	-1632
1007.819	-2944
1007.893	-2079
1007.967	-1631
1008.041	-2757
1008.115	-1488
1008.190	-1842
1008.264	-1448
1008.338	-3191
1008.412	-2699
1008.486	-1906
1008.560	-1978
1008.633	-2832
1008.707	-2309
1008.781	-1804
1008.855	-1487
1008.929	-1688
1009.003	-2681
1009.076	-1920
1009.150	-2472
1009.224	-2086
1009.298	-1584
1009.371	-2512
1009.445	-1335
1009.519	-1964
1009.592	-2830
1009.666	-1780
1009.739	-958
1009.813	-2728
1009.886	-1158
1009.960	-2960
1010.033	-1488
1010.107	-2005
1010.180	-1950
1010.253	-1780
1010.327	-2688
1010.400	-2295
1010.473	-2026
1010.547	-668
1010.620	-2040
1010.693	-1284
1010.766	-3003
1010.840	-2492
1010.913	-1919
1010.986	-2577
1011.059	-2548
1011.132	-2075
1011.205	-1839
1011.278	-2054
1011.351	-2645
1011.424	-2433
1011.497	-2613
1011.570	-1967
1011.643	-1711
1011.716	-2370
1011.789	-2015
1011.862	-2171
1011.934	-1400
1012.007	-2588
1012.080	-2281
1012.153	-1481
1012.225	-628
1012.298	-2659
1012.371	-2514
1012.443	-1783
1012.516	-2470
1012.588	-1589
1012.661	-1865
1012.733	-2921
1012.806	-1015
1012.879	-2199
1012.951	-2027
1013.023	-2067
1013.096	-1678
1013.168	-2065
1013.241	-1421
1013.313	-1500
1013.385	-2077
1013.458	-1805
1013.530	-1757
1013.602	-2942
1013.674	-1275
1013.746	-2502
1013.819	-2159
1013.891	-1147
1013.963	-2820
1014.035	-2412
1014.107	-2460
1014.179	-1750
1014.251	-2695
1014.323	-1256
1014.395	-1837
1014.467	-1989
1014.539	-1683
1014.611	-2487
1014.683	-1720
1014.754	-2103
1014.826	-2901
1014.898	-1825
1014.970	-3115
1015.042	-1609
1015.113	-1784
1015.185	-1168
1015.257	-2283
1015.328	-1784
1015.400	-2592
1015.471	-2361
1015.543	-2339
1015.615	-2632
1015.686	-2020
1015.757	-1823
1015.829	-2048
1015.901	-2113
1015.972	-2320
1016.043	-1703
1016.115	-1202
1016.186	-1639
1016.257	-2670
1016.328	-2285
1016.400	-1515
1016.471	-1754
1016.542	-1719
1016.613	-2105
1016.685	-2088
1016.756	-2062
1016.827	-1943
1016.898	-3421
1016.969	-1661
1017.040	-2659
1017.111	-2308
1017.182	-2975
1017.253	-2096
1017.324	-1897
1017.395	-1779
1017.466	-2232
1017.537	-2120
1017.608	-1672
1017.678	-2420
1017.749	-2436
1017.820	-1856
1017.891	-2560
1017.961	-2321
1018.032	-2125
1018.103	-1769
1018.173	-2141
1018.244	-2745
1018.315	-2480
1018.385	-2087
1018.456	-2696
1018.526	-1960
1018.597	-3087
1018.667	-1768
1018.738	-2627
1018.808	-2278
1018.878	-1542
1018.949	-2375
1019.019	-2081
1019.089	-2868
1019.160	-2208
1019.230	-2665
1019.300	-2309
1019.371	-2679
1019.441	-2123
1019.511	-2676
1019.581	-2660
1019.651	-2298
1019.721	-2495
1019.791	-2523
1019.861	-1814
1019.931	-2519
1020.001	-2756
1020.071	-2315
1020.141	-3107
1020.211	-2227
1020.281	-3156
1020.351	-2872
1020.421	-1267
1020.491	-975
1020.560	-3082
1020.630	-2091
1020.700	-2020
1020.770	-2165
1020.839	-2050
1020.909	-2774
1020.979	-2437
1021.048	-3150
1021.118	-1742
1021.187	-2150
1021.257	-1678
1021.326	-2358
1021.396	-2989
1021.465	-2187
1021.535	-2050
1021.604	-2406
1021.674	-3089
1021.743	-2092
1021.812	-2268
1021.882	-2796
1021.951	-3061
1022.020	-1692
1022.089	-2247
1022.159	-1825
1022.228	-1822
1022.297	-2412
1022.366	-3066
1022.435	-3317
1022.504	-2653
1022.573	-2403
1022.642	-2537
1022.711	-2614
1022.781	-1589
1022.849	-2373
1022.918	-3192
1022.987	-2238
1023.056	-2403
1023.125	-2330
1023.194	-1779
1023.263	-2263
1023.331	-2113
1023.400	-2098
1023.469	-3246
1023.538	-2645
1023.606	-2382
1023.675	-2717
1023.744	-2103
1023.812	-2558
1023.881	-2090
1023.949	-2802
1024.018	-2396
1024.086	-2796
1024.155	-2239
1024.223	-2478
1024.292	-2531
1024.360	-2055
1024.429	-2429
1024.497	-1676
1024.565	-3151
1024.634	-2011
1024.702	-2186
1024.770	-2569
1024.838	-2416
1024.907	-1954
1024.975	-1956
1025.043	-2025
1025.111	-1695
1025.179	-1210
1025.247	-2243
1025.315	-1723
1025.383	-1794
1025.451	-2718
1025.519	-2643
1025.587	-2443
1025.655	-2732
1025.723	-2901
1025.791	-2592
1025.859	-2271
1025.927	-2530
1025.995	-2716
1026.062	-2745
1026.130	-2763
1026.198	-3113
1026.266	-2617
1026.333	-2482
1026.401	-2199
1026.469	-3002
1026.536	-2206
1026.604	-2072
1026.671	-3289
1026.739	-2975
1026.806	-2777
1026.874	-2517
1026.941	-2764
1027.009	-2711
1027.076	-2432
1027.144	-1867
1027.211	-2203
1027.278	-2716
1027.345	-2146
1027.413	-2650
1027.480	-3333
1027.547	-1629
1027.614	-2344
1027.682	-3060
1027.749	-1953
1027.816	-2226
1027.883	-2299
1027.950	-2282
1028.017	-2469
1028.084	-1918
1028.151	-3198
1028.218	-3376
1028.285	-2836
1028.352	-2677
1028.419	-2738
1028.486	-2069
1028.553	-1532
1028.619	-3274
1028.686	-3531
1028.753	-3323
1028.820	-1838
1028.886	-2770
1028.953	-2604
1029.020	-2612
1029.086	-1771
1029.153	-3146
1029.220	-3169
1029.286	-1553
1029.353	-1908
1029.419	-2572
1029.486	-2670
1029.552	-2934
1029.619	-2511
1029.685	-2834
1029.751	-1717
1029.818	-1390
1029.884	-3153
1029.951	-1724
1030.017	-2136
1030.083	-1979
1030.149	-2453
1030.216	-2166
1030.282	-2511
1030.348	-3068
1030.414	-2572
1030.480	-2179
1030.546	-1918
1030.612	-2127
1030.678	-3082
1030.744	-2349
1030.810	-2475
1030.876	-1792
1030.942	-2988
1031.008	-2795
1031.074	-2890
1031.140	-2111
1031.206	-2540
1031.272	-2762
1031.337	-2108
1031.403	-2002
1031.469	-3077
1031.534	-2961
1031.600	-1934
1031.666	-3115
1031.731	-2891
1031.797	-1946
1031.863	-2105
1031.928	-2051
1031.994	-2817
1032.059	-2426
1032.125	-2284
1032.190	-2442
1032.256	-1943
1032.321	-2369
1032.386	-2862
1032.452	-1999
1032.517	-1959
1032.582	-2014
1032.647	-2852
1032.713	-2589
1032.778	-2092
1032.843	-2575
1032.908	-2210
1032.974	-1808
1033.039	-2907
1033.104	-2711
1033.169	-2063
1033.234	-3151
1033.299	-2723
1033.364	-2125
1033.429	-2958
1033.494	-2178
1033.559	-2984
1033.624	-2162
1033.688	-2984
1033.753	-2602
1033.818	-2487
1033.883	-2915
1033.948	-2445
1034.013	-2083
1034.077	-2254
1034.142	-2693
1034.207	-2481
1034.271	-3068
1034.336	-2340
1034.400	-2227
1034.465	-2541
1034.530	-1530
1034.594	-2626
1034.658	-2089
1034.723	-2459
1034.787	-2495
1034.852	-1892
1034.916	-2692
1034.981	-2812
1035.045	-3157
1035.109	-1963
1035.173	-2255
1035.238	-2630
1035.302	-3176
1035.366	-2384
1035.430	-2125
1035.495	-2164
1035.559	-2519
1035.623	-2687
1035.687	-3051
1035.751	-2424
1035.815	-2219
1035.879	-2332
1035.943	-2521
1036.007	-3030
1036.071	-2413
1036.135	-2494
1036.198	-2274
1036.262	-2764
1036.326	-2930
1036.390	-2274
1036.454	-2710
1036.517	-2360
1036.581	-2372
1036.645	-2364
1036.709	-2614
1036.772	-2730
1036.836	-2330
1036.900	-2367
1036.963	-3114
1037.026	-2155
1037.090	-2832
1037.154	-2156
1037.217	-2277
1037.280	-2876
1037.344	-2552
1037.407	-2992
1037.471	-1320
1037.534	-2490
1037.597	-3315
1037.661	-2486
1037.724	-2471
1037.787	-2245
1037.850	-2741
1037.913	-2421
1037.977	-1547
1038.040	-2685
1038.103	-2067
1038.166	-1577
1038.229	-1767
1038.292	-2636
1038.355	-2107
1038.418	-2780
1038.481	-2096
1038.544	-2873
1038.607	-2421
1038.670	-2249
1038.732	-2537
1038.795	-2972
1038.858	-2417
1038.921	-2931
1038.984	-2114
1039.046	-3049
1039.109	-2512
1039.172	-1861
1039.234	-2516
1039.297	-2465
1039.360	-2313
1039.422	-1735
1039.485	-2467
1039.547	-3107
1039.610	-2109
1039.672	-2930
1039.734	-2231
1039.797	-3120
1039.859	-3055
1039.922	-2613
1039.984	-2700
1040.046	-2332
1040.109	-2503
1040.171	-3320
1040.233	-3403
1040.295	-2673
1040.358	-2505
1040.420	-2679
1040.482	-2494
1040.544	-2446
1040.606	-1734
1040.668	-2354
1040.730	-2615
1040.792	-1670
1040.854	-2531
1040.916	-2511
1040.978	-2745
1041.040	-1604
1041.102	-1719
1041.164	-2684
1041.225	-2200
1041.287	-2069
1041.349	-2941
1041.411	-2506
1041.472	-2399
1041.534	-1755
1041.596	-3018
1041.657	-1881
1041.719	-2384
1041.781	-2005
1041.842	-2244
1041.904	-2078
1041.965	-2368
1042.027	-2127
1042.088	-1682
1042.150	-2389
1042.211	-2324
1042.272	-2097
1042.334	-2630
1042.395	-2092
1042.456	-3109
1042.518	-1848
1042.579	-2571
1042.640	-2243
1042.701	-2026
1042.763	-2279
1042.824	-2591
1042.885	-2669
1042.946	-2397
1043.007	-1893
1043.068	-2022
1043.129	-2240
1043.190	-2346
1043.251	-1509
1043.312	-2242
1043.373	-1934
1043.434	-2149
1043.495	-3030
1043.556	-2112
1043.616	-2290
1043.677	-1556
1043.738	-2487
1043.799	-2111
1043.859	-2567
1043.920	-2186
1043.981	-1993
1044.041	-1193
1044.102	-2673
1044.162	-2027
1044.223	-2902
1044.284	-2811
1044.344	-3021
1044.405	-3036
1044.465	-2698
1044.525	-2250
1044.586	-1850
1044.646	-2131
1044.707	-2039
1044.767	-2231
1044.827	-1761
1044.887	-1941
1044.948	-1086
1045.008	-1915
1045.068	-1860
1045.128	-2030
1045.188	-2006
1045.249	-1988
1045.309	-1783
1045.369	-2521
1045.429	-2544
1045.489	-2549
1045.549	-2464
1045.609	-2751
1045.669	-2015
1045.729	-2059
1045.789	-2394
1045.848	-1424
1045.908	-2095
1045.968	-1924
1046.028	-1876
1046.088	-1416
1046.147	-1949
1046.207	-1899
1046.267	-1422
1046.326	-1949
1046.386	-2166
1046.446	-2247
1046.505	-1446
1046.565	-1131
1046.624	-1410
1046.684	-1544
1046.743	-1463
1046.803	-373
1046.862	-1786
1046.922	0
