'Start Wavelength	183.907
'End Wavelength	1046.922
'Gate Delay	5.000
'Gate Width (ms)	1.050
'Laser Output Level	0.000
'X Position	0.000
'Y Position	0.000
'Z Position	0.000
'Grid Point Number	1.000
'Shot Number	100.000
183.907	187.000
183.977	1303.000
184.047	-86
184.116	500
184.186	-87
184.256	626
184.325	-205
184.395	-518
184.465	578
184.534	322
184.604	-981
184.674	-87
184.743	-381
184.813	578
184.883	-317
184.952	390
185.022	-62
185.092	133
185.161	291
185.231	-42
185.301	-57
185.370	763
185.440	473
185.509	-151
185.579	-56
185.649	671
185.718	-343
185.788	30
185.857	-674
185.927	613
185.996	-159
186.066	773
186.136	134
186.205	915
186.275	20
186.344	165
186.414	-85
186.483	333
186.553	661
186.622	716
186.692	654
186.761	138
186.831	1265
186.900	-184
186.970	-108
187.039	1008
187.109	520
187.178	976
187.248	-173
187.317	94
187.387	-2
187.456	488
187.526	158
187.595	753
187.664	-106
187.734	136
187.803	-2
187.873	217
187.942	-371
188.012	755
188.081	291
188.150	11
188.220	-158
188.289	323
188.358	126
188.428	588
188.497	-355
188.567	1145
188.636	-107
188.705	-18
188.775	-262
188.844	356
188.913	1157
188.983	147
189.052	-63
189.121	-307
189.191	-201
189.260	680
189.329	480
189.399	-275
189.468	196
189.537	1413
189.606	629
189.676	1010
189.745	294
189.814	518
189.883	522
189.953	344
190.022	673
190.091	1283
190.161	984
190.230	1151
190.299	-8
190.368	53
190.437	292
190.507	341
190.576	-234
190.645	382
190.714	201
190.783	433
190.853	32
190.922	890
190.991	-37
191.060	1297
191.129	-291
191.198	754
191.268	612
191.337	161
191.406	529
191.475	142
191.544	336
191.613	637
191.682	511
191.752	-96
191.821	284
191.890	-193
191.959	892
192.028	1049
192.097	-436
192.166	1014
192.235	-461
192.304	717
192.373	129
192.442	717
192.511	357
192.580	-1
192.650	404
192.719	535
192.788	1408
192.857	886
192.926	-110
192.995	690
193.064	454
193.133	1536
193.202	1102
193.271	1514
193.340	1076
193.409	1200
193.478	1213
193.547	1887
193.615	562
193.684	2314
193.753	1079
193.822	1527
193.891	450
193.960	264
194.029	427
194.098	1042
194.167	376
194.236	888
194.305	340
194.374	666
194.443	-314
194.512	614
194.580	605
194.649	988
194.718	759
194.787	1180
194.856	809
194.925	1198
194.994	94
195.062	447
195.131	333
195.200	1473
195.269	1585
195.338	825
195.407	557
195.475	41
195.544	1073
195.613	824
195.682	637
195.751	1483
195.819	169
195.888	476
195.957	1497
196.026	882
196.094	1204
196.163	1086
196.232	1160
196.301	1225
196.369	594
196.438	739
196.507	1559
196.576	48
196.644	796
196.713	325
196.782	489
196.850	658
196.919	619
196.988	1152
197.056	289
197.125	863
197.194	821
197.262	1098
197.331	58
197.400	517
197.468	257
197.537	575
197.606	567
197.674	1329
197.743	2127
197.812	1307
197.880	1889
197.949	847
198.017	1473
198.086	1754
198.155	456
198.223	1580
198.292	1368
198.360	1136
198.429	727
198.497	1199
198.566	1092
198.635	2240
198.703	1022
198.772	1535
198.840	2472
198.909	1868
198.977	1408
199.046	1177
199.114	677
199.183	956
199.251	1575
199.320	654
199.388	185
199.457	452
199.525	625
199.594	977
199.662	1072
199.731	961
199.799	919
199.867	1470
199.936	10
200.004	1813
200.073	1397
200.141	709
200.210	962
200.278	949
200.346	875
200.415	1476
200.483	1128
200.552	1495
200.620	180
200.688	1468
200.757	661
200.825	815
200.893	674
200.962	1089
201.030	710
201.098	144
201.167	1567
201.235	986
201.303	593
201.372	1332
201.440	556
201.508	414
201.577	682
201.645	1683
201.713	226
201.781	1542
201.850	1537
201.918	938
201.986	1104
202.055	1538
202.123	1125
202.191	1244
202.259	939
202.327	699
202.396	925
202.464	1266
202.532	730
202.600	1504
202.669	1381
202.737	1236
202.805	240
202.873	1315
202.941	1225
203.009	503
203.078	843
203.146	1269
203.214	407
203.282	174
203.350	1765
203.418	834
203.487	1225
203.555	1245
203.623	684
203.691	1184
203.759	1176
203.827	1418
203.895	522
203.963	847
204.031	918
204.099	1791
204.168	274
204.236	2076
204.304	1021
204.372	894
204.440	1396
204.508	903
204.576	467
204.644	1338
204.712	1001
204.780	1693
204.848	1131
204.916	1021
204.984	1262
205.052	1248
205.120	-173
205.188	993
205.256	836
205.324	1142
205.392	741
205.460	1093
205.528	1295
205.596	1549
205.664	1204
205.732	1104
205.799	2287
205.867	4042
205.935	1701
206.003	1208
206.071	1070
206.139	1516
206.207	1497
206.275	1740
206.343	702
206.411	1660
206.478	1258
206.546	1725
206.614	1505
206.682	1379
206.750	987
206.818	225
206.885	2027
206.953	341
207.021	1850
207.089	1880
207.157	448
207.225	2493
207.292	889
207.360	1024
207.428	1444
207.496	1201
207.563	1519
207.631	743
207.699	676
207.767	1334
207.834	1665
207.902	1703
207.970	697
208.038	1433
208.105	1716
208.173	1941
208.241	1389
208.309	1672
208.376	1663
208.444	2786
208.512	1794
208.579	149
208.647	1198
208.715	2219
208.782	1248
208.850	2048
208.918	1384
208.985	1726
209.053	1846
209.120	1291
209.188	1082
209.256	2617
209.323	775
209.391	2259
209.459	2136
209.526	1854
209.594	1744
209.661	2214
209.729	2241
209.796	1590
209.864	1117
209.932	1225
209.999	2629
210.067	1652
210.134	2191
210.202	1719
210.269	2720
210.337	2538
210.404	2296
210.472	1944
210.539	2253
210.607	1741
210.674	2345
210.742	1127
210.809	1351
210.877	2007
210.944	2916
211.012	915
211.079	2704
211.146	2094
211.214	1714
211.281	1842
211.349	1732
211.416	2082
211.484	2824
211.551	2113
211.618	841
211.686	2148
211.753	1145
211.821	2203
211.888	1160
211.955	2864
212.023	2540
212.090	2585
212.157	2070
212.225	2170
212.292	3363
212.359	5088
212.427	8268
212.494	6216
212.561	3048
212.629	2452
212.696	2874
212.763	2496
212.831	2251
212.898	2582
212.965	1791
213.032	3217
213.100	2522
213.167	1716
213.234	2581
213.301	2854
213.369	3033
213.436	2151
213.503	1112
213.570	2709
213.638	2199
213.705	1082
213.772	1307
213.839	2840
213.906	3315
213.973	2185
214.041	1459
214.108	2984
214.175	2169
214.242	2468
214.309	2512
214.376	1640
214.444	2674
214.511	2416
214.578	2239
214.645	3849
214.712	2935
214.779	3282
214.846	2214
214.913	2914
214.980	2931
215.048	3516
215.115	2791
215.182	3506
215.249	3641
215.316	2491
215.383	2552
215.450	2498
215.517	1898
215.584	2561
215.651	2379
215.718	2035
215.785	2503
215.852	1987
215.919	3193
215.986	3004
216.053	1682
216.120	2365
216.187	2384
216.254	2995
216.321	2636
216.388	2359
216.455	2890
216.522	3770
216.589	3058
216.656	4033
216.722	3622
216.789	4382
216.856	3723
216.923	3561
216.990	3714
217.057	3707
217.124	3480
217.191	4531
217.258	4927
217.324	5102
217.391	5371
217.458	4389
217.525	3736
217.592	3708
217.659	2297
217.725	3617
217.792	4096
217.859	3587
217.926	1676
217.993	2090
218.059	2098
218.126	2135
218.193	2613
218.260	2266
218.327	1801
218.393	2379
218.460	2289
218.527	2626
218.594	2272
218.660	3287
218.727	3483
218.794	2144
218.860	2683
218.927	1956
218.994	2185
219.061	1615
219.127	1985
219.194	3329
219.261	2789
219.327	2054
219.394	1922
219.461	1722
219.527	1742
219.594	3075
219.661	1876
219.727	1324
219.794	2487
219.860	2250
219.927	2766
219.994	2887
220.060	4314
220.127	3730
220.193	3310
220.260	3082
220.326	5019
220.393	5975
220.460	7266
220.526	5772
220.593	3902
220.659	5880
220.726	4633
220.792	7447
220.859	6996
220.925	9829
220.992	12125
221.058	11047
221.125	9371
221.191	7652
221.258	3249
221.324	3566
221.391	3121
221.457	3114
221.524	2231
221.590	3756
221.657	7612
221.723	5552
221.789	5340
221.856	5629
221.922	3073
221.989	3569
222.055	1816
222.121	1808
222.188	4240
222.254	3535
222.321	2853
222.387	2594
222.453	2149
222.520	2823
222.586	1209
222.652	2793
222.719	1365
222.785	2827
222.851	1096
222.918	2067
222.984	2100
223.050	1613
223.116	1597
223.183	2983
223.249	1685
223.315	2283
223.382	1272
223.448	1329
223.514	1264
223.580	1303
223.647	1382
223.713	1919
223.779	1664
223.845	2306
223.911	2597
223.978	826
224.044	1926
224.110	958
224.176	2315
224.242	1478
224.309	926
224.375	2390
224.441	1404
224.507	1403
224.573	1461
224.639	2845
224.705	1493
224.772	2126
224.838	1632
224.904	2636
224.970	1730
225.036	2023
225.102	1464
225.168	2905
225.234	2114
225.300	1976
225.366	2263
225.432	2280
225.499	1763
225.565	1777
225.631	1376
225.697	2334
225.763	2933
225.829	3765
225.895	3223
225.961	4945
226.027	4148
226.093	3529
226.159	5167
226.225	7379
226.291	12892
226.357	17827
226.423	10497
226.489	6893
226.554	5553
226.620	5025
226.686	5754
226.752	8676
226.818	11561
226.884	19752
226.950	18934
227.016	9498
227.082	7211
227.148	4923
227.214	4093
227.279	4097
227.345	4330
227.411	3676
227.477	3132
227.543	5808
227.609	5305
227.674	4401
227.740	3044
227.806	3468
227.872	2147
227.938	2951
228.003	4403
228.069	2798
228.135	2418
228.201	2571
228.267	1663
228.332	2550
228.398	2109
228.464	3367
228.530	1716
228.595	1755
228.661	1514
228.727	3072
228.792	3576
228.858	2439
228.924	1006
228.990	4786
229.055	2940
229.121	3159
229.187	1803
229.252	1881
229.318	995
229.384	2921
229.449	2428
229.515	1037
229.581	724
229.646	3478
229.712	1926
229.777	4168
229.843	4187
229.909	3896
229.974	4085
230.040	3662
230.105	3704
230.171	3592
230.236	4378
230.302	6147
230.368	3621
230.433	3416
230.499	2750
230.564	4373
230.630	2530
230.695	2861
230.761	3045
230.826	1878
230.892	4174
230.957	1786
231.023	2122
231.088	2232
231.154	2832
231.219	2814
231.284	2536
231.350	3958
231.415	2214
231.481	2735
231.546	1521
231.612	2311
231.677	1831
231.742	1703
231.808	3900
231.873	1566
231.939	122
232.004	3834
232.069	4405
232.135	2599
232.200	2419
232.265	2536
232.331	2086
232.396	1073
232.461	2129
232.527	2298
232.592	1729
232.657	2078
232.723	2273
232.788	2434
232.853	2039
232.918	2539
232.984	1102
233.049	2661
233.114	2291
233.179	3368
233.245	4046
233.310	4771
233.375	1772
233.440	2222
233.506	2168
233.571	1871
233.636	1536
233.701	2307
233.766	3568
233.832	3702
233.897	2444
233.962	1922
234.027	3415
234.092	2845
234.157	2484
234.222	2489
234.288	3406
234.353	9618
234.418	7829
234.483	6202
234.548	4579
234.613	3642
234.678	3128
234.743	3826
234.808	10107
234.873	6696
234.938	4338
235.004	3741
235.069	3497
235.134	2899
235.199	3714
235.264	3208
235.329	2414
235.394	3854
235.459	4360
235.524	3611
235.589	3309
235.654	2864
235.719	1478
235.784	3638
235.849	2653
235.913	5740
235.978	5164
236.043	7093
236.108	4085
236.173	3375
236.238	4210
236.303	2500
236.368	3141
236.433	5394
236.498	6576
236.563	6817
236.627	11542
236.692	26735
236.757	23836
236.822	12654
236.887	8325
236.952	8349
237.017	5414
237.081	8500
237.146	8534
237.211	16965
237.276	26672
237.341	35156
237.405	21779
237.470	12788
237.535	7976
237.600	6525
237.664	4912
237.729	4433
237.794	5081
237.859	11772
237.923	7791
237.988	4878
238.053	5445
238.118	6313
238.182	11614
238.247	12136
238.312	5021
238.376	5019
238.441	3035
238.506	4249
238.570	1774
238.635	4271
238.700	3413
238.764	2412
238.829	6123
238.893	6610
238.958	4267
239.023	4612
239.087	3237
239.152	4185
239.216	2307
239.281	3010
239.346	3277
239.410	2595
239.475	3000
239.539	11384
239.604	8223
239.668	4031
239.733	3487
239.797	4521
239.862	9264
239.926	11120
239.991	5124
240.055	4266
240.120	2645
240.184	3308
240.249	2413
240.313	2311
240.378	2768
240.442	7855
240.507	10318
240.571	5052
240.635	4408
240.700	7555
240.764	2817
240.829	3052
240.893	1229
240.957	3225
241.022	7181
241.086	10537
241.151	5022
241.215	2648
241.279	3984
241.344	5499
241.408	4998
241.472	3482
241.537	5260
241.601	4268
241.665	3102
241.730	3596
241.794	4565
241.858	4026
241.922	3160
241.987	4176
242.051	2630
242.115	2853
242.179	3502
242.244	3734
242.308	3221
242.372	4314
242.436	3448
242.501	4026
242.565	2268
242.629	2957
242.693	3732
242.757	2605
242.822	3433
242.886	4282
242.950	4028
243.014	3726
243.078	3891
243.142	4694
243.206	2806
243.271	4686
243.335	4381
243.399	6405
243.463	13941
243.527	35669
243.591	12927
243.655	7376
243.719	3943
243.783	4910
243.847	6577
243.911	9999
243.975	10321
244.040	6819
244.104	5799
244.168	4825
244.232	5001
244.296	7266
244.360	7846
244.424	4557
244.488	4432
244.552	4284
244.615	2343
244.679	4261
244.743	3352
244.807	3489
244.871	3584
244.935	4298
244.999	2209
245.063	3695
245.127	4323
245.191	5699
245.255	6090
245.319	5024
245.383	3208
245.446	5240
245.510	1949
245.574	3578
245.638	4979
245.702	2899
245.766	7438
245.829	6384
245.893	3303
245.957	3694
246.021	4619
246.085	4807
246.149	4175
246.212	9886
246.276	11676
246.340	7510
246.404	6087
246.467	6639
246.531	6296
246.595	6076
246.659	6390
246.722	4925
246.786	6130
246.850	6108
246.913	6998
246.977	3652
247.041	4230
247.104	4342
247.168	4571
247.232	9085
247.295	16255
247.359	10346
247.423	4196
247.486	8010
247.550	6886
247.614	4451
247.677	6328
247.741	4555
247.804	4256
247.868	6313
247.932	8159
247.995	17753
248.059	7858
248.122	4517
248.186	7131
248.249	10620
248.313	23568
248.376	25758
248.440	18181
248.503	7566
248.567	7928
248.630	8941
248.694	12940
248.757	15317
248.821	26516
248.884	19247
248.948	16763
249.011	22823
249.075	29173
249.138	27203
249.202	13500
249.265	9061
249.328	10367
249.392	8117
249.455	7868
249.519	6688
249.582	6945
249.645	12046
249.709	9318
249.772	8543
249.835	7114
249.899	7680
249.962	6287
250.025	6096
250.089	11359
250.152	16165
250.215	8948
250.279	7085
250.342	7333
250.405	7705
250.468	6227
250.532	9054
250.595	12756
250.658	34600
250.721	54743
250.785	22531
250.848	13700
250.911	8761
250.974	8161
251.038	10648
251.101	17531
251.164	11920
251.227	11889
251.290	11218
251.354	17259
251.417	47798
251.480	48526
251.543	36650
251.606	78333
251.669	61902
251.732	29689
251.795	28213
251.859	27717
251.922	52995
251.985	34924
252.048	16343
252.111	13686
252.174	11577
252.237	19125
252.300	34078
252.363	37697
252.426	64982
252.489	29641
252.552	18619
252.615	12754
252.678	15051
252.741	26904
252.804	33691
252.867	68391
252.930	43043
252.993	23704
253.056	16138
253.119	11646
253.182	9602
253.245	15804
253.308	12624
253.371	10936
253.434	10624
253.497	10022
253.559	16421
253.622	13605
253.685	16398
253.748	16299
253.811	8991
253.874	9938
253.937	9850
254.000	7913
254.062	12752
254.125	17592
254.188	17337
254.251	13911
254.314	8189
254.376	13048
254.439	15355
254.502	12416
254.565	12836
254.628	21497
254.690	13610
254.753	8061
254.816	7342
254.878	7349
254.941	12973
255.004	12566
255.067	7228
255.129	6587
255.192	5348
255.255	3405
255.317	6213
255.380	3535
255.443	3602
255.505	2811
255.568	2718
255.631	3542
255.693	4421
255.756	3676
255.819	4480
255.881	3250
255.944	3714
256.006	2745
256.069	2972
256.132	3192
256.194	5195
256.257	9526
256.319	8548
256.382	7325
256.444	6573
256.507	4899
256.569	5712
256.632	5820
256.694	8122
256.757	18358
256.819	48885
256.882	23317
256.944	10769
257.007	8209
257.069	8256
257.132	6315
257.194	6708
257.257	5894
257.319	6040
257.381	7502
257.444	15662
257.506	52249
257.569	59860
257.631	32179
257.693	17192
257.756	8659
257.818	8063
257.880	5212
257.943	5961
258.005	4182
258.067	4639
258.130	4563
258.192	6819
258.254	9780
258.317	7097
258.379	5749
258.441	10863
258.503	10783
258.566	12207
258.628	16173
258.690	4663
258.753	6219
258.815	10544
258.877	5860
258.939	5332
259.001	4576
259.064	4299
259.126	4404
259.188	7718
259.250	5877
259.312	7482
259.375	13662
259.437	9739
259.499	5325
259.561	5429
259.623	5168
259.685	4980
259.747	5739
259.809	12347
259.872	20305
259.934	30006
259.996	27477
260.058	9824
260.120	4359
260.182	4295
260.244	3426
260.306	4023
260.368	5181
260.430	4271
260.492	8395
260.554	16190
260.616	9781
260.678	16184
260.740	20021
260.802	7538
260.864	6214
260.926	4661
260.988	6200
261.050	5065
261.112	11173
261.174	25385
261.236	17772
261.298	8065
261.359	10361
261.421	13653
261.483	5368
261.545	5866
261.607	2971
261.669	4462
261.731	5997
261.793	15387
261.854	8069
261.916	5997
261.978	5225
262.040	5597
262.102	4090
262.164	6233
262.225	5645
262.287	4430
262.349	9695
262.411	7957
262.472	4909
262.534	6649
262.596	12640
262.658	4898
262.719	3775
262.781	5621
262.843	12418
262.904	7147
262.966	6471
263.028	6928
263.090	23830
263.151	57902
263.213	20656
263.275	12214
263.336	5473
263.398	5576
263.459	3512
263.521	3692
263.583	8741
263.644	7128
263.706	3491
263.767	2590
263.829	3200
263.891	2654
263.952	2734
264.014	2481
264.075	4513
264.137	12239
264.198	6865
264.260	3936
264.321	3901
264.383	7590
264.444	17816
264.506	6445
264.567	4455
264.629	7864
264.690	14226
264.752	6526
264.813	5341
264.875	3295
264.936	4236
264.998	3322
265.059	3642
265.120	5703
265.182	6031
265.243	29165
265.305	29897
265.366	9041
265.427	4620
265.489	4589
265.550	3147
265.611	4749
265.673	3837
265.734	4621
265.795	3593
265.857	3770
265.918	4564
265.979	10096
266.040	40932
266.102	37689
266.163	11822
266.224	9273
266.286	6221
266.347	3707
266.408	3044
266.469	5075
266.530	3488
266.592	3649
266.653	5849
266.714	10252
266.775	3548
266.836	3826
266.898	2587
266.959	5937
267.020	4015
267.081	4608
267.142	3229
267.203	3145
267.264	2974
267.326	4447
267.387	3185
267.448	2961
267.509	3315
267.570	2921
267.631	2765
267.692	2295
267.753	3250
267.814	2950
267.875	5596
267.936	11647
267.997	7579
268.058	7014
268.119	4168
268.180	4591
268.241	3096
268.302	3011
268.363	1782
268.424	3437
268.485	3495
268.546	2908
268.607	2709
268.668	2790
268.729	2121
268.790	3115
268.851	4065
268.912	7348
268.972	9065
269.033	6408
269.094	2810
269.155	3107
269.216	2476
269.277	3671
269.338	2756
269.398	3592
269.459	3464
269.520	5798
269.581	6947
269.642	7899
269.702	5658
269.763	4349
269.824	3831
269.885	4992
269.945	7889
270.006	5219
270.067	2278
270.128	3362
270.188	2996
270.249	2689
270.310	3195
270.370	3281
270.431	2551
270.492	2764
270.553	3375
270.613	6385
270.674	12490
270.734	5526
270.795	3528
270.856	5720
270.916	4602
270.977	3881
271.038	3981
271.098	5156
271.159	5965
271.219	6334
271.280	3527
271.340	2822
271.401	3821
271.462	7733
271.522	5552
271.583	3933
271.643	4034
271.704	4127
271.764	4933
271.825	10309
271.885	26293
271.946	33616
272.006	13473
272.066	16741
272.127	25934
272.187	9980
272.248	6617
272.308	6277
272.369	17158
272.429	11806
272.489	9279
272.550	10417
272.610	9468
272.671	8403
272.731	6710
272.791	10428
272.852	6609
272.912	6654
272.972	3634
273.033	3921
273.093	6453
273.153	6621
273.214	4855
273.274	4493
273.334	14415
273.394	26052
273.455	12549
273.515	11639
273.575	23335
273.635	10659
273.696	13613
273.756	24473
273.816	12161
273.876	7061
273.936	11989
273.997	20344
274.057	7162
274.117	5750
274.177	8027
274.237	31582
274.297	26265
274.358	18898
274.418	20650
274.478	16807
274.538	7211
274.598	5498
274.658	16663
274.718	21207
274.778	9717
274.838	6812
274.898	10606
274.958	26724
275.018	24789
275.078	17122
275.138	8377
275.198	5838
275.258	4119
275.318	6089
275.378	9536
275.438	11405
275.498	7056
275.558	14576
275.618	25686
275.678	18577
275.738	12529
275.798	11352
275.858	6022
275.918	3834
275.978	5129
276.038	5366
276.098	3464
276.157	7149
276.217	20768
276.277	10165
276.337	7170
276.397	4806
276.457	4564
276.517	4741
276.576	3582
276.636	3352
276.696	6213
276.756	12876
276.815	8852
276.875	5512
276.935	5378
276.995	6047
277.055	4078
277.114	3606
277.174	5284
277.234	14983
277.293	7168
277.353	5590
277.413	4127
277.472	4676
277.532	4153
277.592	6265
277.651	12116
277.711	19576
277.771	8212
277.830	24657
277.890	20433
277.950	13922
278.009	37295
278.069	15060
278.128	14439
278.188	20761
278.248	10229
278.307	22173
278.367	14003
278.426	5632
278.486	4676
278.545	3449
278.605	3609
278.664	4036
278.724	4329
278.783	10934
278.843	24586
278.902	8932
278.962	6105
279.021	6705
279.081	7156
279.140	7627
279.199	7428
279.259	7676
279.318	6591
279.378	9567
279.437	13454
279.496	41072
279.556	101690
279.615	74232
279.675	22455
279.734	14671
279.793	21710
279.853	34610
279.912	15206
279.971	10072
280.031	9397
280.090	15793
280.149	25609
280.208	18253
280.268	67846
280.327	67857
280.386	17927
280.445	15194
280.505	13858
280.564	7762
280.623	6015
280.682	9841
280.742	14707
280.801	5477
280.860	5234
280.919	4396
280.978	3726
281.037	3799
281.097	3509
281.156	4353
281.215	3368
281.274	4176
281.333	16340
281.392	13711
281.451	4548
281.510	4198
281.569	3720
281.628	2846
281.688	3173
281.747	3734
281.806	3600
281.865	3239
281.924	2840
281.983	3707
282.042	2630
282.101	3380
282.160	3216
282.219	3547
282.278	3648
282.337	10257
282.396	8436
282.454	4457
282.513	5066
282.572	15309
282.631	9208
282.690	4313
282.749	2469
282.808	4530
282.867	4136
282.926	4694
282.985	2432
283.043	2106
283.102	2873
283.161	3650
283.220	7245
283.279	16527
283.338	6004
283.396	3994
283.455	3736
283.514	4735
283.573	6587
283.631	5695
283.690	3914
283.749	3287
283.808	6898
283.866	9285
283.925	3550
283.984	3755
284.043	5461
284.101	6284
284.160	3620
284.219	5511
284.277	4859
284.336	6694
284.395	21104
284.453	16986
284.512	6668
284.570	10036
284.629	7681
284.688	7597
284.746	6876
284.805	9259
284.863	10580
284.922	13643
284.981	16104
285.039	21204
285.098	33114
285.156	69467
285.215	103310
285.273	97105
285.332	74279
285.390	44306
285.449	26464
285.507	17958
285.566	14004
285.624	11774
285.683	9480
285.741	8121
285.799	7283
285.858	6248
285.916	6122
285.975	5207
286.033	3845
286.091	4762
286.150	4164
286.208	4237
286.267	4450
286.325	4634
286.383	7288
286.442	7043
286.500	3329
286.558	3877
286.616	2203
286.675	4984
286.733	4162
286.791	3935
286.850	4355
286.908	5804
286.966	9937
287.024	4637
287.083	3706
287.141	3438
287.199	4348
287.257	5232
287.315	3938
287.374	4524
287.432	11136
287.490	8394
287.548	4337
287.606	4152
287.664	4006
287.723	5217
287.781	7318
287.839	5285
287.897	6613
287.955	9509
288.013	11090
288.071	21232
288.129	68622
288.187	156696
288.245	82215
288.303	30766
288.361	17383
288.419	12231
288.477	8028
288.535	7552
288.593	6277
288.651	5138
288.709	4527
288.767	4470
288.825	4262
288.883	4056
288.941	3675
288.999	2996
289.057	3151
289.115	3107
289.173	2891
289.231	3635
289.289	3342
289.346	3873
289.404	3598
289.462	6986
289.520	6906
289.578	4176
289.636	2266
289.694	2516
289.751	2567
289.809	2641
289.867	2813
289.925	4078
289.983	4718
290.040	4053
290.098	2309
290.156	3781
290.214	4088
290.271	3056
290.329	3404
290.387	2948
290.444	1576
290.502	2494
290.560	3190
290.617	2680
290.675	2556
290.733	2490
290.790	2788
290.848	3076
290.906	2993
290.963	3832
291.021	2916
291.078	2959
291.136	3640
291.194	8279
291.251	18162
291.309	6298
291.366	3814
291.424	2689
291.481	2946
291.539	3281
291.596	2900
291.654	2234
291.711	2959
291.769	3530
291.826	6147
291.884	4922
291.941	2225
291.999	3642
292.056	3089
292.114	3698
292.171	2732
292.228	3942
292.286	3553
292.343	7520
292.401	8185
292.458	5115
292.515	3610
292.573	5170
292.630	5196
292.687	5039
292.745	3151
292.802	4825
292.859	10752
292.917	18304
292.974	11303
293.031	4864
293.089	4156
293.146	3589
293.203	2876
293.260	3113
293.318	3448
293.375	6125
293.432	3611
293.489	3871
293.546	3008
293.604	5104
293.661	10502
293.718	26532
293.775	14847
293.832	8801
293.889	6382
293.947	6785
294.004	5504
294.061	5723
294.118	8732
294.175	18587
294.232	22863
294.289	10772
294.346	6759
294.403	7332
294.460	5437
294.517	5069
294.574	4060
294.631	5053
294.688	4745
294.745	8471
294.802	30954
294.859	35653
294.916	16140
294.973	9142
295.030	7606
295.087	6191
295.144	4635
295.201	5268
295.258	4240
295.315	5485
295.372	12994
295.429	21913
295.486	11181
295.542	7588
295.599	15027
295.656	26857
295.713	16500
295.770	21236
295.827	9699
295.883	6374
295.940	4725
295.997	7867
296.054	8240
296.111	4548
296.167	4594
296.224	3906
296.281	3520
296.338	3829
296.394	3942
296.451	4526
296.508	10296
296.564	19488
296.621	13959
296.678	24091
296.734	34227
296.791	15670
296.848	8913
296.904	8480
296.961	17739
297.018	25509
297.074	19483
297.131	9050
297.187	7716
297.244	7424
297.301	21475
297.357	38095
297.414	15444
297.470	7336
297.527	5433
297.583	4957
297.640	4647
297.696	4348
297.753	2738
297.809	4084
297.866	2144
297.922	3517
297.979	3178
298.035	3519
298.092	6167
298.148	14965
298.204	14316
298.261	8542
298.317	12054
298.374	28995
298.430	17832
298.486	8667
298.543	6928
298.599	7109
298.656	8193
298.712	12549
298.768	27889
298.824	21797
298.881	7778
298.937	5285
298.993	5020
299.050	6125
299.106	5965
299.162	5265
299.218	5289
299.275	5031
299.331	4735
299.387	8339
299.443	24170
299.500	27585
299.556	12538
299.612	7185
299.668	6689
299.724	8007
299.780	8504
299.837	5929
299.893	7531
299.949	24017
300.005	26979
300.061	23526
300.117	36018
300.173	18336
300.229	8462
300.285	12023
300.341	13475
300.397	8023
300.453	4963
300.510	4800
300.566	6099
300.622	6328
300.678	14126
300.734	27390
300.790	23270
300.845	25969
300.901	17779
300.957	25253
301.013	19926
301.069	9024
301.125	6155
301.181	7409
301.237	5771
301.293	3681
301.349	4246
301.405	4021
301.461	4257
301.516	5743
301.572	5316
301.628	9945
301.684	8255
301.740	11279
301.796	16439
301.851	12965
301.907	19609
301.963	19867
302.019	25085
302.074	61897
302.130	64122
302.186	33113
302.242	15236
302.297	10323
302.353	9287
302.409	16577
302.464	14502
302.520	12700
302.576	26996
302.631	31108
302.687	19789
302.743	9817
302.798	6294
302.854	6458
302.910	6077
302.965	6263
303.021	10935
303.076	11034
303.132	13195
303.187	16456
303.243	8897
303.299	6184
303.354	4600
303.410	5866
303.465	4818
303.521	4743
303.576	5131
303.632	5975
303.687	8372
303.743	23333
303.798	20374
303.853	9996
303.909	6280
303.964	6531
304.020	8269
304.075	12815
304.130	11411
304.186	19685
304.241	20476
304.297	17391
304.352	9113
304.358	8905
304.407	7227
304.449	6905
304.463	6798
304.518	7630
304.539	6990
304.573	5970
304.629	6260
304.630	6277
304.684	7389
304.720	14109
304.739	17384
304.794	26684
304.811	23003
304.850	14303
304.902	7720
304.905	7307
304.960	5422
304.992	6004
305.015	6365
305.071	6529
305.083	6107
305.126	4608
305.173	4265
305.181	4219
305.236	3410
305.264	4082
305.292	4800
305.347	5264
305.354	5264
305.402	5299
305.445	6906
305.457	7320
305.512	8067
305.535	7944
305.567	7946
305.622	7442
305.626	7645
305.678	12743
305.716	23654
305.733	27198
305.788	29750
305.807	25367
305.843	18418
305.897	22974
305.898	23005
305.953	23464
305.988	16289
306.008	12572
306.063	8669
306.078	7972
306.118	6392
306.168	4364
306.173	4193
306.228	4451
306.259	4223
306.283	4051
306.338	3742
306.349	3974
306.393	4995
306.440	5442
306.448	5503
306.503	5886
306.530	5951
306.558	7126
306.613	13429
306.620	14307
306.668	19738
306.711	25672
306.723	26054
306.778	21285
306.801	16550
306.833	11661
306.888	6706
306.892	6489
306.943	4806
306.982	4762
306.997	4803
307.052	5010
307.072	4948
307.107	5236
307.162	6574
307.163	6593
307.217	8664
307.253	10216
307.272	10497
307.327	10573
307.343	9977
307.381	9163
307.434	8161
307.436	8340
307.491	15523
307.524	22392
307.546	23647
307.600	22790
307.614	20297
307.655	13514
307.704	8858
307.710	8799
307.765	9914
307.795	12521
307.819	14318
307.874	19238
307.885	19345
307.929	17571
307.975	15859
307.984	16637
308.038	24247
308.065	29539
308.093	48418
308.148	96822
308.156	106200
308.202	137070
308.246	152698
308.257	148918
308.312	91965
308.336	68464
308.366	52949
308.421	32745
308.426	30926
308.475	20261
308.517	14954
308.530	13909
308.585	11867
308.607	11317
308.639	11778
308.694	13108
308.697	13232
308.748	19365
308.787	26231
308.803	25917
308.857	19954
308.877	17379
308.912	16577
308.967	17672
308.967	17704
309.021	24443
309.058	30080
309.076	38872
309.130	69720
309.148	81439
309.185	125565
309.238	198663
309.239	198951
309.293	191655
309.328	172620
309.348	153226
309.402	85627
309.418	68068
309.457	49927
309.508	31782
309.511	31247
309.566	26507
309.598	24622
309.620	25307
309.674	29409
309.688	30555
309.729	28475
309.778	24167
309.783	23836
309.837	19554
309.868	17562
309.892	22108
309.946	34315
309.959	38097
310.001	44572
310.049	48926
310.055	47243
310.109	27552
310.139	16525
310.163	13559
310.218	9229
310.229	8535
310.272	7519
310.319	7014
310.326	6829
310.381	5572
310.409	4939
310.435	4846
310.489	4834
310.499	4888
310.543	5022
310.589	4743
310.598	4693
310.652	4881
310.679	4835
310.706	4516
310.760	4003
310.769	3877
310.814	3439
310.859	3366
310.868	3470
310.923	3850
310.948	4110
310.977	4367
311.031	4789
311.038	4884
311.085	4699
311.128	4055
311.139	4097
311.193	4726
311.218	4928
311.247	4390
311.301	3465
311.308	3345
311.356	3473
311.398	3651
311.410	3637
311.464	3489
311.488	3454
311.518	3602
311.572	3806
311.578	3849
311.626	5544
311.668	6976
311.680	6943
311.734	6666
311.758	6561
311.788	6260
311.842	5684
311.847	5620
311.896	7407
311.937	9050
311.950	8746
312.004	7314
312.027	6671
312.058	5761
312.112	4161
312.117	4007
312.165	4037
312.207	4076
312.297	6287
312.386	5105
312.476	6257
312.566	9561
312.656	4542
312.745	3641
312.835	4987
312.925	4514
313.015	4621
313.104	4371
313.194	3912
313.284	4381
313.374	5269
313.463	4468
313.553	3967
313.643	3372
313.732	3057
313.822	3196
313.912	4077
314.001	4763
314.091	5127
314.180	6680
314.270	6217
314.360	7084
314.449	5630
314.539	3708
314.628	3600
314.718	5040
314.808	5389
314.897	3218
314.987	4265
315.076	6122
315.166	6587
315.255	5600
315.345	6011
315.434	5574
315.524	5613
315.613	6449
315.703	8098
315.792	10577
315.881	19978
315.971	8210
316.060	12084
316.150	15871
316.239	14307
316.328	5131
316.418	3729
316.507	4433
316.597	4973
316.686	5304
316.775	8912
316.865	13720
316.954	4372
317.043	3209
317.133	3830
317.222	3077
317.311	3030
317.400	3883
317.490	6358
317.579	5598
317.668	4659
317.757	7274
317.847	15794
317.936	34558
318.025	17012
318.114	9077
318.203	6788
318.293	10599
318.382	17441
318.471	14828
318.560	24571
318.649	41251
318.738	8626
318.828	6807
318.917	6811
319.006	8475
319.095	23459
319.184	56205
319.273	27432
319.362	13049
319.451	5914
319.540	5902
319.629	16061
319.718	19552
319.807	8097
319.896	24563
319.985	68449
320.074	19187
320.163	7457
320.252	9945
320.341	8503
320.430	8664
320.519	11251
320.608	5354
320.697	5361
320.786	5066
320.875	7403
320.964	9971
321.053	15837
321.142	22396
321.230	19662
321.319	18710
321.408	37108
321.497	13550
321.586	15401
321.675	18096
321.764	14648
321.852	12570
321.941	22374
322.030	12232
322.119	19011
322.207	39366
322.296	21569
322.385	12301
322.474	17991
322.562	48969
322.651	19270
322.740	20231
322.829	23922
322.917	21300
323.006	13154
323.095	12243
323.183	9298
323.272	13971
323.361	29921
323.449	63770
323.538	21078
323.626	50622
323.715	22985
323.804	14853
323.892	42979
323.981	18710
324.069	8594
324.158	25970
324.246	16310
324.335	9276
324.424	13686
324.512	5580
324.601	9220
324.689	17582
324.778	21384
324.866	15446
324.954	4506
325.043	6015
325.131	11483
325.220	18383
325.308	17935
325.397	15206
325.485	7790
325.574	4419
325.662	3820
325.750	4823
325.839	4960
325.927	3639
326.015	6072
326.104	8073
326.192	8653
326.280	2846
326.369	4037
326.457	7692
326.545	12279
326.634	4284
326.722	2725
326.810	3814
326.898	3793
326.987	4805
327.075	11044
327.163	9771
327.251	5365
327.340	11811
327.428	10306
327.516	3054
327.604	3993
327.692	3613
327.781	5032
327.869	7209
327.957	5094
328.045	4235
328.133	3809
328.221	4122
328.309	4125
328.397	3751
328.485	4744
328.574	8619
328.662	25406
328.750	11635
328.838	4916
328.926	2930
329.014	3083
329.102	6188
329.190	15065
329.278	7841
329.366	3194
329.454	3015
329.542	3583
329.630	2649
329.718	3719
329.806	4670
329.893	5672
329.981	5741
330.069	14267
330.157	52428
330.245	115401
330.333	55726
330.421	12493
330.509	11938
330.597	33134
330.684	16843
330.772	7620
330.860	9070
330.948	11175
331.036	4618
331.123	2482
331.211	3498
331.299	5315
331.387	12102
331.475	15995
331.562	4971
331.650	3001
331.738	4373
331.825	5450
331.913	2740
332.001	3506
332.089	4702
332.176	10281
332.264	22605
332.352	13566
332.439	5621
332.527	4277
332.614	3884
332.702	3867
332.790	4148
332.877	12473
332.965	16920
333.052	4671
333.140	6573
333.228	11266
333.315	3156
333.403	4498
333.490	13320
333.578	8476
333.665	12736
333.753	6874
333.840	3817
333.928	5794
334.015	13542
334.103	27580
334.190	64969
334.278	12983
334.365	7200
334.452	5191
334.540	4178
334.627	5939
334.715	8171
334.802	19550
334.889	87707
334.977	59356
335.064	9268
335.151	5683
335.239	5263
335.326	8802
335.413	41046
335.501	38679
335.588	6128
335.675	5269
335.762	7091
335.850	10897
335.937	8736
336.024	27548
336.111	82141
336.199	25146
336.286	6160
336.373	4031
336.460	3087
336.547	3486
336.635	5216
336.722	4285
336.809	4570
336.896	7450
336.983	25304
337.070	54877
337.157	67985
337.245	53581
337.332	27805
337.419	4337
337.506	4064
337.593	5164
337.680	22070
337.767	44904
337.854	12923
337.941	15404
338.028	16214
338.115	5931
338.202	8544
338.289	19191
338.376	48425
338.463	13981
338.550	33325
338.637	25425
338.724	12218
338.811	13017
338.898	3649
338.984	3572
339.071	3617
339.158	6114
339.245	15296
339.332	8477
339.419	12361
339.506	8320
339.593	1453
339.679	3225
339.766	2615
339.853	5551
339.940	10490
340.027	3905
340.113	3644
340.200	5494
340.287	4086
340.374	6216
340.460	8828
340.547	3805
340.634	9591
340.720	31455
340.807	12386
340.894	3473
340.980	3414
341.067	3462
341.154	4266
341.240	7737
341.327	13563
341.414	4655
341.500	4952
341.587	3921
341.674	3513
341.760	10521
341.847	10979
341.933	3527
342.020	1191
342.106	2569
342.193	4827
342.279	7205
342.366	6702
342.452	9262
342.539	5883
342.625	16432
342.712	30423
342.798	11983
342.885	4827
342.971	2637
343.058	2267
343.144	2274
343.230	2795
343.317	3390
343.403	2655
343.490	2205
343.576	2122
343.662	3636
343.749	3388
343.835	5063
343.921	10836
344.008	60345
344.094	92800
344.180	19133
344.267	12057
344.353	34632
344.439	28350
344.525	14151
344.612	10047
344.698	9305
344.784	5433
344.870	3283
344.957	3496
345.043	6408
345.129	4474
345.215	9854
345.301	4439
345.387	2867
345.474	2126
345.560	2582
345.646	2579
345.732	2870
345.818	3964
345.904	3404
345.990	4383
346.076	4962
346.162	7486
346.249	3839
346.335	3265
346.421	4541
346.507	18041
346.593	39444
346.679	8242
346.765	4017
346.851	3997
346.937	3374
347.023	3877
347.108	4455
347.194	3319
347.280	3366
347.366	5116
347.452	17638
347.538	49736
347.624	39223
347.710	27114
347.796	5098
347.882	3743
347.967	3067
348.053	4994
348.139	3429
348.225	2485
348.311	2886
348.397	2258
348.482	4606
348.568	4557
348.654	2371
348.740	3361
348.825	3427
348.911	8208
348.997	29415
349.083	39953
349.168	6078
349.254	3595
349.340	4176
349.425	2794
349.511	4630
349.597	5456
349.682	13057
349.768	33186
349.854	12378
349.939	3140
350.025	3907
350.110	4036
350.196	2821
350.282	1629
350.367	3052
350.453	5489
350.538	5216
350.624	4899
350.709	3947
350.795	1981
350.880	3129
350.966	4022
351.051	5681
351.137	3998
351.222	4214
351.308	14540
351.393	28840
351.479	6428
351.564	2874
351.649	3440
351.735	2919
351.820	2429
351.906	4082
351.991	4376
352.076	23030
352.162	25370
352.247	5861
352.332	4894
352.418	8426
352.503	13681
352.588	48199
352.673	29693
352.759	7365
352.844	4311
352.929	4543
353.014	6263
353.100	5815
353.185	10989
353.270	13101
353.355	10176
353.441	4341
353.526	4876
353.611	11620
353.696	10509
353.781	7205
353.866	3455
353.952	5358
354.037	11998
354.122	23750
354.207	19832
354.292	6939
354.377	3546
354.462	3786
354.547	4883
354.632	4695
354.717	8296
354.802	10087
354.887	4174
354.972	3109
355.057	2852
355.142	2099
355.227	4437
355.312	7929
355.397	18013
355.482	37197
355.567	15136
355.652	13338
355.737	15363
355.822	42730
355.907	25497
355.991	6166
356.076	3092
356.161	3844
356.246	2660
356.331	4365
356.416	12878
356.501	66608
356.585	49224
356.670	8303
356.755	8197
356.840	12710
356.924	60499
357.009	137308
357.094	43236
357.179	12238
357.263	8432
357.348	9303
357.433	8199
357.517	8674
357.602	5954
357.687	5803
357.771	12651
357.856	29144
357.941	16450
358.025	45124
358.110	130870
358.195	52278
358.279	10346
358.364	10523
358.448	36077
358.533	76474
358.617	53825
358.702	49939
358.787	16886
358.871	12364
358.956	9050
359.040	3128
359.125	2968
359.209	4876
359.294	15785
359.378	21487
359.462	10125
359.547	6025
359.631	3379
359.716	3523
359.800	3837
359.885	6110
359.969	4028
360.053	4361
360.138	3912
360.222	7840
360.306	11353
360.391	9579
360.475	19978
360.559	35367
360.644	31400
360.728	20082
360.812	44409
360.896	83497
360.981	37558
361.065	17977
361.149	7257
361.233	5914
361.318	4893
361.402	5841
361.486	5144
361.570	4389
361.654	6246
361.739	19638
361.823	69247
361.907	76033
361.991	13978
362.075	12573
362.159	21522
362.243	15090
362.327	13458
362.411	14925
362.495	8603
362.580	4981
362.664	4464
362.748	3832
362.832	6506
362.916	9371
363.000	30870
363.084	81809
363.168	90760
363.252	22017
363.336	10806
363.420	17733
363.503	57287
363.587	49009
363.671	10084
363.755	8286
363.839	12136
363.923	5985
364.007	13185
364.091	14103
364.175	26571
364.258	81642
364.342	49831
364.426	44908
364.510	22363
364.594	15670
364.677	26079
364.761	80198
364.845	46692
364.929	20642
365.013	15869
365.096	15580
365.180	15915
365.264	29546
365.347	77956
365.431	28164
365.515	7839
365.598	5690
365.682	5359
365.766	9222
365.849	9489
365.933	6188
366.017	8244
366.100	5206
366.184	2456
366.267	4068
366.351	3627
366.435	2874
366.518	2749
366.602	2624
366.685	4124
366.769	4236
366.852	9767
366.936	14349
367.019	7485
367.103	5534
367.186	11200
367.270	3682
367.353	2581
367.436	3481
367.520	3207
367.603	5152
367.687	7777
367.770	13600
367.853	9352
367.937	28428
368.020	34164
368.104	9627
368.187	11267
368.270	14927
368.353	12441
368.437	18962
368.520	34696
368.603	21144
368.687	35419
368.770	47428
368.853	12409
368.936	14634
369.020	12333
369.103	5242
369.186	3525
369.269	4078
369.352	10367
369.436	12470
369.519	7540
369.602	3132
369.685	5632
369.768	4640
369.851	5540
369.934	2924
370.018	5437
370.101	11444
370.184	9326
370.267	6416
370.350	10569
370.433	18522
370.516	42575
370.599	42025
370.682	16311
370.765	33030
370.848	42053
370.931	60294
371.014	20645
371.097	5302
371.180	4693
371.263	3232
371.346	1310
371.429	3696
371.511	3284
371.594	8281
371.677	11616
371.760	13205
371.843	12707
371.926	59557
372.009	96804
372.091	32476
372.174	29111
372.257	53059
372.340	18829
372.423	19877
372.505	19821
372.588	8990
372.671	27948
372.754	62350
372.836	27511
372.919	29868
373.002	43019
373.085	11924
373.167	13878
373.250	32086
373.332	57710
373.415	88106
373.498	138334
373.580	53092
373.663	76690
373.746	79306
373.828	20079
373.911	10936
373.993	15222
374.076	47932
374.159	35731
374.241	23287
374.324	56086
374.406	35270
374.489	56619
374.571	112362
374.654	40375
374.736	31715
374.819	77843
374.901	113042
374.983	93712
375.066	17502
375.148	11040
375.231	43991
375.313	63856
375.395	21185
375.478	5896
375.560	5027
375.643	8135
375.725	33813
375.807	98574
375.890	68730
375.972	28337
376.054	21530
376.136	25934
376.219	13054
376.301	39630
376.383	78979
376.465	28777
376.548	22619
376.630	33021
376.712	71138
376.794	26499
376.877	4594
376.959	3374
377.041	5328
377.123	9670
377.205	10886
377.287	2519
377.369	3530
377.452	3022
377.534	3828
377.616	4435
377.698	3586
377.780	2424
377.862	3799
377.944	4698
378.026	2290
378.108	3352
378.190	2668
378.272	2631
378.354	2720
378.436	2600
378.518	7516
378.600	20264
378.682	20158
378.764	40756
378.846	27016
378.928	10104
379.010	12253
379.091	7397
379.173	4451
379.255	2832
379.337	7020
379.419	24049
379.501	52853
379.583	17848
379.664	7517
379.746	16494
379.828	43233
379.910	53381
379.991	39049
380.073	7301
380.155	5983
380.237	4624
380.318	3174
380.400	4234
380.482	10531
380.564	13902
380.645	15619
380.727	12794
380.809	7456
380.890	5529
380.972	3684
381.053	4799
381.135	7254
381.217	17522
381.298	39584
381.380	17996
381.461	22187
381.543	81899
381.624	78314
381.706	15016
381.787	8650
381.869	11120
381.951	42879
382.032	111781
382.113	63578
382.195	14517
382.276	13108
382.358	31368
382.439	63626
382.521	77129
382.602	98687
382.684	52808
382.765	96121
382.846	88117
382.928	96956
383.009	48656
383.090	52478
383.172	169904
383.253	199516
383.334	81837
383.416	95597
383.497	43119
383.578	21964
383.659	45240
383.741	170374
383.822	322791
383.903	144691
383.984	78200
384.066	124348
384.147	67010
384.228	15386
384.309	12227
384.390	9056
384.471	6636
384.553	7557
384.634	10708
384.715	10673
384.796	5365
384.877	11326
384.958	39356
385.039	38497
385.120	13671
385.201	7896
385.282	8897
385.363	9142
385.444	7739
385.525	18206
385.606	48903
385.687	34714
385.768	10442
385.849	17682
385.930	63769
386.011	81463
386.092	20427
386.173	7275
386.254	5308
386.335	6601
386.416	9200
386.496	27834
386.577	37028
386.658	14485
386.739	8453
386.820	8843
386.901	6029
386.981	6753
387.062	5582
387.143	13102
387.224	40377
387.304	31566
387.385	11831
387.466	7676
387.547	8876
387.627	7692
387.708	21565
387.789	72652
387.869	69381
387.950	17487
388.031	4985
388.111	3935
388.192	13291
388.273	17351
388.353	10005
388.434	6820
388.514	18655
388.595	62232
388.676	69340
388.756	37471
388.837	37227
388.917	20904
388.998	4388
389.078	5847
389.159	5487
389.239	4318
389.320	8376
389.400	6528
389.480	19243
389.561	37643
389.641	16639
389.722	8675
389.802	11925
389.883	21397
389.963	44112
390.043	25597
390.124	9150
390.204	19098
390.284	45774
390.365	27644
390.445	42890
390.525	99289
390.605	75175
390.686	22367
390.766	8749
390.846	6481
390.927	4131
391.007	4357
391.087	6559
391.167	5880
391.247	3951
391.328	9064
391.408	11403
391.488	8317
391.568	3124
391.648	6931
391.728	9319
391.808	9379
391.888	11151
391.969	25109
392.049	31863
392.129	15651
392.209	21054
392.289	42350
392.369	22591
392.449	20442
392.529	12200
392.609	11523
392.689	17394
392.769	43389
392.849	33044
392.929	30956
393.009	59266
393.089	39362
393.169	39535
393.248	146777
393.328	448752
393.408	391975
393.488	93998
393.568	29062
393.648	16252
393.728	11829
393.807	9276
393.887	8813
393.967	9247
394.047	13096
394.127	15658
394.206	30509
394.286	118590
394.366	342793
394.446	305594
394.525	84014
394.605	25197
394.685	21589
394.764	35151
394.844	51263
394.924	32441
395.003	12290
395.083	9776
395.163	9051
395.242	8691
395.322	9063
395.402	5813
395.481	11486
395.561	28586
395.640	57644
395.720	48140
395.799	66325
395.879	50723
395.958	49051
396.038	172840
396.117	438474
396.197	398363
396.276	142739
396.356	51780
396.435	34062
396.515	22715
396.594	23723
396.673	42664
396.753	164454
396.832	398337
396.912	255929
396.991	60347
397.070	18752
397.150	10478
397.229	10038
397.308	11849
397.388	16300
397.467	10336
397.546	5978
397.625	4061
397.705	8964
397.784	7439
397.863	4780
397.942	4328
398.022	5680
398.101	22648
398.180	49740
398.259	22772
398.338	8824
398.417	5684
398.497	3880
398.576	5612
398.655	3790
398.734	4207
398.813	5182
398.892	23145
398.971	55956
399.050	22689
399.129	3407
399.208	4396
399.287	4498
399.366	2757
399.445	3907
399.524	4073
399.603	2876
399.682	8738
399.761	25330
399.840	63038
399.919	39601
399.998	6454
400.077	2895
400.156	2304
400.235	5655
400.313	4092
400.392	6469
400.471	25263
400.550	33307
400.629	8983
400.708	5682
400.786	5431
400.865	12945
400.944	11710
401.023	7498
401.102	2354
401.180	2458
401.259	3303
401.338	4160
401.416	5349
401.495	4308
401.574	4106
401.652	4112
401.731	5964
401.810	5162
401.888	3711
401.967	2120
402.046	3745
402.124	5964
402.203	5688
402.281	5308
402.360	6792
402.438	16228
402.517	9326
402.596	5263
402.674	4302
402.753	2994
402.831	3551
402.910	5797
402.988	22629
403.066	51425
403.145	26917
403.223	23414
403.302	46354
403.380	35564
403.459	33218
403.537	12861
403.615	5919
403.694	2393
403.772	3299
403.850	2584
403.929	2626
404.007	3050
404.085	9860
404.164	9319
404.242	5550
404.320	16976
404.398	44048
404.477	55311
404.555	106302
404.633	77000
404.711	33861
404.789	20025
404.868	6808
404.946	4016
405.024	2545
405.102	2492
405.180	2278
405.258	2628
405.336	3449
405.415	3710
405.493	7326
405.571	7742
405.649	3063
405.727	3246
405.805	5744
405.883	5872
405.961	5722
406.039	4855
406.117	2235
406.195	8152
406.273	32702
406.351	84001
406.429	41684
406.507	7890
406.585	3394
406.663	4918
406.740	5714
406.818	4575
406.896	2936
406.974	4798
407.052	12999
407.130	56947
407.208	62150
407.285	12782
407.363	3129
407.441	3501
407.519	3182
407.596	5120
407.674	16344
407.752	43134
407.830	31699
407.907	11291
407.985	4237
408.063	3425
408.141	2838
408.218	5759
408.296	5113
408.373	4567
408.451	5416
408.529	3906
408.606	2352
408.684	2275
408.762	1878
408.839	1698
408.917	1898
408.994	1658
409.072	2100
409.149	2786
409.227	4298
409.304	4622
409.382	4169
409.459	4013
409.537	5895
409.614	5524
409.692	4009
409.769	4413
409.846	5759
409.924	7619
410.001	4222
410.079	3968
410.156	4883
410.233	4516
410.311	2641
410.388	3314
410.465	3398
410.543	3437
410.620	2925
410.697	3949
410.775	4274
410.852	1901
410.929	3938
411.006	5453
411.083	3461
411.161	5668
411.238	7305
411.315	3994
411.392	2604
411.469	4763
411.547	3931
411.624	2127
411.701	2297
411.778	4772
411.855	7820
411.932	4809
412.009	2693
412.086	4116
412.163	4368
412.240	4029
412.317	4929
412.394	3774
412.471	2391
412.548	2581
412.625	2883
412.702	4986
412.779	6886
412.856	4521
412.933	2150
413.010	3772
413.087	6224
413.164	23117
413.241	26833
413.318	6992
413.395	5762
413.471	7260
413.548	4113
413.625	4335
413.702	3207
413.779	2443
413.855	2615
413.932	2441
414.009	1839
414.086	2167
414.162	2874
414.239	6877
414.316	25269
414.393	43540
414.469	13673
414.546	3241
414.623	2468
414.699	2237
414.776	3235
414.853	2820
414.929	3479
415.006	2641
415.082	3103
415.159	2742
415.236	3969
415.312	3874
415.389	6429
415.465	7855
415.542	3018
415.618	3071
415.695	6248
415.771	3719
415.848	3139
415.924	4019
416.000	2790
416.077	3261
416.153	1612
416.230	1111
416.306	2002
416.383	1897
416.459	3482
416.535	1825
416.612	2422
416.688	2549
416.764	2201
416.841	2608
416.917	2144
416.993	2562
417.069	3419
417.146	5505
417.222	6638
417.298	4091
417.374	2625
417.451	3406
417.527	4042
417.603	4166
417.679	3379
417.755	3579
417.831	1851
417.908	2610
417.984	2255
418.060	2740
418.136	7457
418.212	7602
418.288	3491
418.364	2952
418.440	2712
418.516	5683
418.592	5585
418.668	11924
418.744	15551
418.820	11206
418.896	3474
418.972	1693
419.048	3026
419.124	8119
419.200	4863
419.276	2618
419.352	2241
419.428	3732
419.504	3997
419.579	4316
419.655	3432
419.731	4488
419.807	11681
419.883	17698
419.959	10671
420.034	5390
420.110	11022
420.186	29403
420.262	19193
420.337	4789
420.413	4476
420.489	2770
420.565	3200
420.640	2851
420.716	3108
420.792	2180
420.867	3704
420.943	2821
421.019	4726
421.094	4506
421.170	3293
421.245	2624
421.321	3280
421.397	3170
421.472	12017
421.548	22549
421.623	13123
421.699	5364
421.774	6374
421.850	4625
421.925	7049
422.001	7002
422.076	6167
422.152	6810
422.227	10251
422.302	12906
422.378	17006
422.453	30241
422.529	79867
422.604	203956
422.679	288294
422.755	178509
422.830	65234
422.905	28681
422.981	15638
423.056	11110
423.131	8939
423.207	7654
423.282	7809
423.357	11660
423.432	8091
423.508	9273
423.583	15899
423.658	11495
423.733	5858
423.808	5690
423.883	6593
423.959	6164
424.034	4150
424.109	4413
424.184	2823
424.259	3915
424.334	3435
424.409	2363
424.484	3604
424.559	3562
424.634	3117
424.709	4351
424.784	5536
424.859	4821
424.934	6727
425.009	23604
425.084	32365
425.159	11441
425.234	3647
425.309	3301
425.384	9143
425.459	12534
425.534	5442
425.609	3453
425.683	2914
425.758	3413
425.833	3493
425.908	5072
425.983	17006
426.058	34375
426.132	13771
426.207	4864
426.282	6220
426.357	5962
426.431	3056
426.506	3857
426.581	3606
426.655	3505
426.730	3170
426.805	3071
426.879	3737
426.954	4329
427.029	9132
427.103	40274
427.178	72235
427.253	27599
427.327	5806
427.402	8086
427.476	15096
427.551	7393
427.625	3783
427.700	4307
427.774	2725
427.849	4017
427.923	2505
427.998	2964
428.072	3440
428.147	8100
428.221	29100
428.296	60278
428.370	27393
428.444	6556
428.519	8230
428.593	12566
428.667	11279
428.742	13016
428.816	15810
428.890	46534
428.965	59010
429.039	21576
429.113	13775
429.188	6730
429.262	3921
429.336	7822
429.410	17404
429.485	11617
429.559	11842
429.633	8046
429.707	4545
429.781	13318
429.855	50544
429.930	62291
430.004	38465
430.078	55303
430.152	51296
430.226	88690
430.300	74291
430.374	12719
430.448	8114
430.522	25366
430.596	52514
430.670	36649
430.744	83215
430.818	94559
430.892	18737
430.966	5364
431.040	3758
431.114	3105
431.188	2830
431.262	3477
431.336	3316
431.410	8601
431.484	16370
431.557	10417
431.631	3917
431.705	5132
431.779	17107
431.853	54032
431.927	31496
432.000	5972
432.074	3960
432.148	4024
432.222	3223
432.295	3226
432.369	3353
432.443	8232
432.516	38460
432.590	69184
432.664	23675
432.737	4997
432.811	2378
432.885	2222
432.958	2743
433.032	2336
433.106	2525
433.179	1548
433.253	2482
433.326	2893
433.400	2296
433.473	3048
433.547	2116
433.620	3038
433.694	5568
433.767	5241
433.841	2689
433.914	2727
433.988	2527
434.061	3298
434.134	2080
434.208	2632
434.281	1945
434.355	2766
434.428	3710
434.501	2426
434.575	3252
434.648	2361
434.721	1921
434.795	1918
434.868	2054
434.941	2391
435.014	2472
435.088	2653
435.161	4015
435.234	5483
435.307	5286
435.381	3478
435.454	3579
435.527	4064
435.600	4026
435.673	3834
435.746	3301
435.819	2074
435.892	3035
435.966	2691
436.039	2818
436.112	2872
436.185	2324
436.258	1994
436.331	1643
436.404	1895
436.477	2535
436.550	2591
436.623	3052
436.696	2356
436.769	2444
436.842	2722
436.915	3075
436.987	4388
437.060	2306
437.133	1837
437.206	2248
437.279	2886
437.352	2131
437.425	2223
437.498	3675
437.570	6215
437.643	5278
437.716	2568
437.789	2851
437.861	4899
437.934	8329
438.007	4770
438.080	2911
438.152	3977
438.225	10257
438.298	51556
438.370	93571
438.443	33567
438.516	8841
438.588	3915
438.661	2282
438.734	3171
438.806	3368
438.879	3963
438.951	3896
439.024	5702
439.096	3393
439.169	2953
439.241	1991
439.314	3168
439.386	3892
439.459	5828
439.531	6395
439.604	3314
439.676	2876
439.749	2141
439.821	3189
439.893	2590
439.966	2768
440.038	3313
440.110	3273
440.183	2283
440.255	2797
440.327	5191
440.400	23841
440.472	66444
440.544	35567
440.617	7191
440.689	5646
440.761	6214
440.833	7457
440.905	5610
440.978	3267
441.050	2880
441.122	2733
441.194	2361
441.266	3190
441.338	2775
441.411	6839
441.483	25097
441.555	28855
441.627	8177
441.699	5611
441.771	5050
441.843	3032
441.915	2423
441.987	2602
442.059	3582
442.131	3818
442.203	4859
442.275	5866
442.347	4978
442.419	7688
442.491	29721
442.563	53427
442.635	24902
442.706	16831
442.778	12229
442.850	3664
442.922	3699
442.994	4022
443.066	4884
443.137	4514
443.209	5023
443.281	5310
443.353	11554
443.425	41161
443.496	111429
443.568	92602
443.640	32927
443.711	8325
443.783	4598
443.855	3894
443.926	3409
443.998	3735
444.070	4538
444.141	4135
444.213	5957
444.285	6362
444.356	5303
444.428	4194
444.499	3217
444.571	2051
444.642	3027
444.714	3109
444.785	5238
444.857	6762
444.928	11215
445.000	6876
445.071	9796
445.143	9570
445.214	7753
445.285	12052
445.357	29223
445.428	89761
445.500	166353
445.571	95395
445.642	46857
445.714	22728
445.785	17493
445.856	7700
445.928	7153
445.999	5549
446.070	4362
446.141	6328
446.213	7228
446.284	3880
446.355	4420
446.426	3473
446.497	3705
446.569	4678
446.640	7583
446.711	5207
446.782	3436
446.853	4212
446.924	4782
446.995	3684
447.066	4728
447.138	4846
447.209	4017
447.280	2477
447.351	1915
447.422	2529
447.493	3484
447.564	4410
447.635	5243
447.706	3165
447.777	2926
447.847	2438
447.918	2481
447.989	3469
448.060	4772
448.131	8948
448.202	7999
448.273	5628
448.344	3855
448.414	3433
448.485	3046
448.556	2954
448.627	3337
448.698	3680
448.768	2548
448.839	3543
448.910	4364
448.981	4974
449.051	4138
449.122	2933
449.193	2911
449.263	2797
449.334	2309
449.405	4677
449.475	7751
449.546	5649
449.616	5857
449.687	4903
449.758	2965
449.828	2880
449.899	3152
449.969	2554
450.040	2885
450.110	3677
450.181	3885
450.251	3230
450.322	2983
450.392	3162
450.463	3189
450.533	3198
450.604	2754
450.674	2623
450.744	3380
450.815	3083
450.885	3363
450.955	2768
451.026	3087
451.096	2908
451.166	3255
451.237	7298
451.307	12477
451.377	5563
451.447	2614
451.518	2995
451.588	3048
451.658	3039
451.728	5238
451.799	14321
451.869	12975
451.939	4429
452.009	3486
452.079	2751
452.149	3647
452.219	6498
452.289	15201
452.360	10265
452.430	3689
452.500	4072
452.570	5309
452.640	6283
452.710	12726
452.780	16007
452.850	13254
452.920	11000
452.990	5145
453.060	4410
453.129	5302
453.199	6181
453.269	22076
453.339	34403
453.409	46789
453.479	53001
453.549	70816
453.619	67100
453.688	25301
453.758	6012
453.828	3889
453.898	3664
453.968	3944
454.037	3725
454.087	3377
454.107	3232
454.168	3311
454.177	3323
454.247	3055
454.249	3090
454.316	3783
454.330	3873
454.386	4108
454.411	5910
454.456	8823
454.492	9560
454.525	10296
454.574	6338
454.595	4624
454.655	3935
454.665	3840
454.734	4074
454.736	4158
454.804	6336
454.817	7737
454.873	13162
454.898	13360
454.943	13749
454.979	9290
455.013	5385
455.060	4400
455.082	4030
455.141	5464
455.152	5790
455.221	12885
455.222	13042
455.291	19932
455.303	21703
455.360	28551
455.384	37177
455.430	50725
455.465	37010
455.499	24879
455.546	17105
455.569	13443
455.627	8879
455.638	8115
455.707	3764
455.708	3768
455.777	3409
455.789	3331
455.846	3016
455.869	3100
455.916	3199
455.950	3192
455.985	3073
456.031	2754
456.054	2708
456.112	2533
456.124	2467
456.193	3018
456.193	3013
456.262	3382
456.274	3611
456.332	4602
456.355	4585
456.401	4398
456.436	3725
456.470	3083
456.516	3092
456.540	3038
456.597	2640
456.609	2627
456.678	2685
456.678	2680
456.747	2787
456.759	2648
456.817	2141
456.840	2315
456.886	2487
456.920	2392
456.955	2454
457.001	3003
457.024	3219
457.082	3147
457.093	3130
457.162	4199
457.163	4208
457.232	3632
457.243	3558
457.301	3182
457.324	3187
457.370	3315
457.405	3497
457.439	3684
457.485	3290
457.508	3047
457.566	3860
457.577	4101
457.646	4701
457.647	4707
457.715	5108
457.727	5364
457.784	6678
457.808	7888
457.853	9290
457.889	10797
457.922	11773
457.969	9767
457.991	9626
458.050	10244
458.060	10290
458.129	14451
458.130	14572
458.198	14748
458.211	13454
458.267	8733
458.292	6955
458.336	5403
458.372	5630
458.405	6924
458.453	8843
458.474	9822
458.533	14375
458.543	14667
458.611	21869
458.614	21929
458.680	15706
458.694	13145
458.749	7656
458.775	6517
458.818	5113
458.855	4634
458.887	4107
458.936	3434
458.955	3252
459.016	3144
459.024	3200
459.093	4079
459.097	4108
459.162	4189
459.177	4195
459.230	4206
459.257	4569
459.299	4988
459.338	4638
459.368	4323
459.418	4504
459.437	4505
459.499	4166
459.505	4160
459.574	4060
459.579	4071
459.643	3599
459.659	3361
459.711	3748
459.740	4361
459.780	4665
459.820	4344
459.849	4111
459.900	4574
459.917	4771
459.981	4674
459.986	4655
460.054	4555
460.061	4570
460.123	4888
460.141	5007
460.191	5726
460.222	6051
460.260	6048
460.302	6580
460.328	6510
460.382	5764
460.397	5855
460.462	5972
460.465	6185
460.534	11609
460.543	12323
460.602	26260
460.623	32013
460.671	46733
460.703	62103
460.739	55001
460.783	37128
460.808	32446
460.864	10368
460.876	7861
460.944	4648
460.945	4609
461.013	4905
461.024	4852
461.081	4611
461.104	4691
461.150	4681
461.184	4779
461.218	4661
461.264	3733
461.286	3602
461.345	4165
461.355	4213
461.423	4266
461.425	4256
461.491	4188
461.505	4355
461.559	7481
461.585	8867
461.628	11308
461.665	14015
461.696	14618
461.745	16721
461.764	15534
461.825	7097
461.832	6815
461.901	4768
461.905	4755
461.969	4209
461.985	3962
462.037	4650
462.065	5191
462.105	5234
462.145	5320
462.173	6364
462.225	8373
462.241	8950
462.305	12345
462.310	12102
462.378	7325
462.385	6589
462.446	5020
462.465	4811
462.514	4421
462.545	4458
462.582	4436
462.625	4193
462.650	4120
462.705	4183
462.718	4364
462.785	5191
462.786	5202
462.854	5431
462.865	5622
462.922	6867
462.945	7288
462.990	6113
463.025	4771
463.058	4506
463.104	4279
463.126	4222
463.184	4332
463.194	4387
463.262	4558
463.264	4573
463.330	5061
463.344	5107
463.398	5316
463.424	5437
463.466	4640
463.504	3972
463.533	4496
463.583	5533
463.601	5725
463.663	5822
463.669	5854
463.737	6772
463.743	6844
463.805	9450
463.823	10207
463.873	13586
463.903	15832
463.940	15890
463.982	16353
464.008	14120
464.062	7683
464.076	7199
464.142	4629
464.144	4586
464.211	4008
464.221	3922
464.279	4951
464.301	5358
464.347	5540
464.381	5753
464.414	5966
464.461	6157
464.482	6290
464.540	6947
464.550	6954
464.617	6190
464.620	6180
464.685	7280
464.699	7482
464.753	9023
464.779	9849
464.820	10664
464.859	11398
464.888	10405
464.938	8593
464.956	9003
465.018	10315
465.023	10245
465.091	9137
465.098	9028
465.158	8654
465.177	8580
465.226	8368
465.257	8167
465.293	8565
465.336	8948
465.361	9497
465.416	10825
465.428	11458
465.495	14866
465.496	14906
465.563	18448
465.575	19118
465.631	21981
465.654	23287
465.698	15876
465.734	9013
465.765	8649
465.813	8178
465.833	8043
465.893	8186
465.900	8186
465.968	7991
465.972	7977
466.035	7921
466.052	7885
466.102	8776
466.131	9249
466.170	9200
466.210	9135
466.237	9310
466.290	9732
466.304	9730
466.369	9529
466.372	9538
466.439	9522
466.449	9518
466.506	10936
466.528	11447
466.573	15510
466.607	18531
466.641	22527
466.687	28109
466.708	29556
466.766	33625
466.775	31355
466.842	13689
466.845	12836
466.909	12435
466.925	12388
466.977	11542
467.004	11119
467.044	12756
467.083	14382
467.111	15206
467.163	16690
467.178	16825
467.242	17291
467.245	17235
467.312	15627
467.321	15397
467.379	14589
467.400	14260
467.446	14757
467.480	15082
467.559	13385
467.638	12058
467.717	11470
467.796	13634
467.875	13045
467.955	13100
468.034	19611
468.113	30965
468.192	40301
468.271	13054
468.350	11677
468.429	13105
468.508	11641
468.588	11298
468.667	10758
468.746	10610
468.825	9663
468.904	8954
468.983	11746
469.062	15083
469.141	16757
469.220	9320
469.299	10197
469.378	10638
469.456	15286
469.535	12283
469.614	12015
469.693	12200
469.772	13933
469.851	16444
469.930	12379
470.009	10943
470.088	10020
470.166	11284
470.245	12651
470.324	14417
470.403	12817
470.482	10503
470.560	10951
470.639	9642
470.718	12026
470.797	9640
470.875	12335
470.954	13926
471.033	14234
471.111	8223
471.190	9296
471.269	8450
471.347	8251
471.426	9598
471.505	11704
471.583	12451
471.662	10859
471.740	10538
471.819	10218
471.898	10059
471.976	8830
472.055	8943
472.133	10805
472.212	12376
472.290	11096
472.369	9111
472.447	9707
472.526	7805
472.604	9835
472.683	10072
472.761	9954
472.839	8310
472.918	8640
472.996	9346
473.075	10080
473.153	9490
473.231	8374
473.310	9484
473.388	8821
473.466	9114
473.545	12033
473.623	13528
473.701	11742
473.780	9117
473.858	8478
473.936	11194
474.014	9055
474.093	10178
474.171	13539
474.249	15729
474.327	10306
474.405	8163
474.484	9077
474.562	7959
474.640	8414
474.718	9982
474.796	8170
474.874	9802
474.952	8284
475.030	8360
475.108	8989
475.187	10930
475.265	11269
475.343	14555
475.421	15368
475.499	9192
475.577	9820
475.655	12352
475.733	18624
475.811	27246
475.889	24259
475.966	15004
476.044	9032
476.122	11330
476.200	13742
476.278	9875
476.356	7421
476.434	9445
476.512	10885
476.590	12350
476.667	10980
476.745	6226
476.823	7755
476.901	7514
476.979	7779
477.056	7776
477.134	8588
477.212	7555
477.290	7701
477.367	7384
477.445	6442
477.523	7156
477.601	7307
477.678	6098
477.756	8330
477.834	8549
477.911	7362
477.989	7263
478.066	6831
478.144	8067
478.222	10838
478.299	14747
478.377	13827
478.454	6773
478.532	6263
478.609	7326
478.687	7689
478.764	6023
478.842	7400
478.919	7734
478.997	7909
479.074	5966
479.152	7851
479.229	9737
479.307	6397
479.384	5978
479.461	5218
479.539	6060
479.616	7614
479.694	6649
479.771	7950
479.848	7557
479.926	8049
480.003	9886
480.080	5858
480.157	6797
480.235	6078
480.312	6235
480.389	7548
480.467	10846
480.544	11466
480.621	7477
480.698	7058
480.775	8210
480.853	6901
480.930	7692
481.007	6925
481.084	8831
481.161	10347
481.238	8085
481.315	5906
481.392	5675
481.470	5746
481.547	6135
481.624	5624
481.701	5720
481.778	6527
481.855	6556
481.932	10460
482.009	15085
482.086	9903
482.163	6852
482.240	12375
482.317	19095
482.393	13568
482.470	6446
482.547	7466
482.624	5598
482.701	6623
482.778	5334
482.855	4777
482.932	5072
483.009	5269
483.085	6356
483.162	8143
483.239	7651
483.316	6137
483.393	6440
483.469	6010
483.546	7782
483.623	6930
483.699	5724
483.776	6537
483.853	6880
483.930	12448
484.006	25320
484.083	41996
484.160	31307
484.236	47875
484.313	32988
484.389	25147
484.466	23622
484.543	22113
484.619	22479
484.696	23261
484.772	22573
484.849	23945
484.925	20484
485.002	21313
485.078	20655
485.155	21373
485.231	19271
485.308	19060
485.384	19464
485.461	24059
485.537	30366
485.614	34474
485.690	19421
485.766	18896
485.843	19845
485.919	25111
485.995	24280
486.072	17766
486.148	16951
486.224	17435
486.301	17022
486.377	19029
486.453	18832
486.530	21572
486.606	28339
486.682	30092
486.758	29150
486.835	31431
486.911	27928
486.987	40839
487.063	43645
487.139	52698
487.215	37718
487.292	23206
487.368	19438
487.444	20640
487.520	24111
487.596	24468
487.672	33488
487.748	63333
487.824	79154
487.900	33699
487.976	21390
488.052	20670
488.128	22909
488.204	19356
488.280	16810
488.356	22232
488.432	34518
488.508	44346
488.584	20752
488.660	16833
488.736	17730
488.812	18320
488.888	22355
488.964	29433
489.039	51254
489.115	70504
489.191	40149
489.267	17002
489.343	16424
489.418	14696
489.494	15414
489.570	12601
489.646	15981
489.722	15128
489.797	15200
489.873	22432
489.949	37064
490.024	29195
490.100	13982
490.176	14278
490.251	17190
490.327	20501
490.403	12270
490.478	13562
490.554	12360
490.629	12965
490.705	12194
490.781	14253
490.856	12142
490.932	13670
491.007	14006
491.083	13085
491.158	12258
491.234	17555
491.309	27169
491.385	26614
491.460	12485
491.536	13841
491.611	12374
491.686	13457
491.762	18350
491.837	32154
491.913	53969
491.988	69775
492.063	79480
492.139	23188
492.214	15691
492.289	10707
492.365	10772
492.440	13733
492.515	10659
492.590	12770
492.666	10057
492.741	14875
492.816	17248
492.891	11849
492.967	10646
493.042	11414
493.117	10982
493.192	13290
493.267	32814
493.342	91996
493.418	109857
493.493	15656
493.568	8796
493.643	9441
493.718	12030
493.793	15929
493.868	17544
493.943	11953
494.018	9436
494.093	8674
494.168	9698
494.243	8222
494.318	8620
494.393	9164
494.468	7800
494.543	8346
494.618	9317
494.693	7942
494.768	7349
494.842	8554
494.917	8468
494.992	9312
495.067	7789
495.142	8698
495.217	9426
495.292	8456
495.366	9682
495.441	11683
495.516	13651
495.591	23285
495.665	73785
495.740	141258
495.815	50501
495.890	12016
495.964	8950
496.039	12528
496.114	10898
496.188	13062
496.263	12689
496.338	9420
496.412	11791
496.487	13333
496.561	13226
496.636	14407
496.710	11789
496.785	13578
496.860	14342
496.934	12539
497.009	12434
497.083	12837
497.158	13165
497.232	15021
497.307	17918
497.381	16291
497.455	18182
497.530	22831
497.604	17144
497.679	20661
497.753	28132
497.827	33798
497.902	30709
497.976	37720
498.050	90579
498.125	249572
498.199	220474
498.273	45398
498.348	40196
498.422	34764
498.496	30705
498.570	27930
498.645	21754
498.719	20781
498.793	22738
498.867	27801
498.941	39977
499.016	115858
499.090	241737
499.164	72917
499.238	14957
499.312	14313
499.386	16575
499.460	14560
499.534	13332
499.609	15274
499.683	19119
499.757	20717
499.831	55314
499.905	167107
499.979	133388
500.053	22598
500.127	23675
500.201	17654
500.275	11422
500.349	12120
500.422	12380
500.496	19119
500.570	43104
500.644	104178
500.718	157062
500.792	31078
500.866	11639
500.940	14236
501.013	12160
501.087	12307
501.161	21421
501.235	25971
501.309	61955
501.382	147415
501.456	111148
501.530	30092
501.603	43271
501.677	17576
501.751	8336
501.825	12122
501.898	25252
501.972	55201
502.046	31300
502.119	10623
502.193	30158
502.266	58536
502.340	27119
502.413	30160
502.487	50091
502.561	26630
502.634	10118
502.708	10622
502.781	7355
502.855	8117
502.928	5760
503.002	6976
503.075	6395
503.149	7505
503.222	7830
503.295	7644
503.369	8848
503.442	14505
503.516	47588
503.589	102071
503.662	58426
503.736	22011
503.809	48379
503.882	39686
503.956	59116
504.029	51914
504.102	37571
504.175	41835
504.249	15914
504.322	13095
504.395	9363
504.468	6893
504.542	6422
504.615	4977
504.688	6394
504.761	4539
504.834	8550
504.907	10311
504.980	14055
505.053	8341
505.127	9578
505.200	13191
505.273	9283
505.346	7151
505.419	4868
505.492	6128
505.565	4301
505.638	6635
505.711	4341
505.784	4939
505.857	4384
505.930	6220
506.003	4140
506.076	7741
506.149	7725
506.221	7460
506.294	10905
506.367	28597
506.440	76201
506.513	36107
506.586	9912
506.659	6643
506.731	5893
506.804	7832
506.877	8680
506.950	7533
507.022	6725
507.095	5913
507.168	8968
507.241	6147
507.313	5473
507.386	6208
507.459	9367
507.531	5885
507.604	4911
507.677	6565
507.749	3639
507.822	9118
507.894	18020
507.967	19712
508.040	10757
508.112	9856
508.185	9703
508.257	8118
508.330	13384
508.402	8858
508.475	8261
508.547	8932
508.620	9893
508.692	13435
508.765	8621
508.837	5954
508.909	7642
508.982	7680
509.054	8424
509.127	6350
509.199	6213
509.271	6260
509.344	6822
509.416	6517
509.488	6529
509.560	8245
509.633	8061
509.705	9394
509.777	9383
509.849	11805
509.922	8514
509.994	8377
510.066	9037
510.138	9596
510.210	20823
510.283	16276
510.355	13875
510.427	11611
510.499	10739
510.571	10979
510.643	10776
510.715	16098
510.787	12343
510.859	12270
510.931	11786
511.003	15356
511.076	14903
511.148	9783
511.219	9626
511.291	14841
511.363	15764
511.435	10106
511.507	8076
511.579	10070
511.651	10180
511.723	8350
511.795	9102
511.867	8833
511.939	10767
512.010	17664
512.082	13931
512.154	7824
512.226	10193
512.298	17085
512.369	20460
512.441	16454
512.513	14570
512.585	11379
512.656	12231
512.728	12295
512.800	9410
512.871	11128
512.943	10599
513.015	9354
513.086	10543
513.158	11436
513.230	10468
513.301	14426
513.373	15906
513.444	9867
513.516	9055
513.588	9714
513.659	11134
513.731	12157
513.802	10523
513.874	23612
513.945	32878
514.016	12101
514.088	9827
514.159	10355
514.231	15065
514.302	19037
514.374	13531
514.445	12871
514.516	22224
514.588	15270
514.659	12671
514.730	19075
514.802	17796
514.873	14027
514.944	17848
515.016	14801
515.087	12877
515.158	17286
515.229	20841
515.301	16396
515.372	22299
515.443	15224
515.514	12361
515.585	9634
515.656	10737
515.728	10047
515.799	7784
515.870	9788
515.941	9830
516.012	10888
516.083	15619
516.154	14341
516.225	18040
516.296	17049
516.367	12868
516.438	13622
516.509	16259
516.580	25763
516.651	79330
516.722	213028
516.793	85164
516.864	24365
516.935	20927
517.006	21579
517.077	31205
517.148	78807
517.219	243839
517.289	306972
517.360	101252
517.431	34767
517.502	13559
517.573	14830
517.643	12821
517.714	14927
517.785	15710
517.856	14494
517.926	18171
517.997	19296
518.068	20508
518.138	25953
518.209	45074
518.280	188165
518.350	510539
518.421	168169
518.492	24423
518.562	17959
518.633	16966
518.703	15946
518.774	30156
518.845	56227
518.915	44921
518.986	20214
519.056	18373
519.127	32136
519.197	49122
519.268	94238
519.338	50500
519.408	16421
519.479	20644
519.549	14082
519.620	11614
519.690	8580
519.760	8476
519.831	9487
519.901	8818
519.971	8641
520.042	9564
520.112	8940
520.182	12983
520.253	13025
520.323	8733
520.393	13421
520.463	20255
520.534	13140
520.604	26598
520.674	13723
520.744	14136
520.814	29857
520.885	25586
520.955	38063
521.025	103340
521.095	34436
521.165	10883
521.235	9312
521.305	7612
521.375	8037
521.445	9264
521.515	10761
521.585	13935
521.655	10546
521.725	11650
521.795	10465
521.865	6355
521.935	13504
522.005	9044
522.075	7039
522.145	9227
522.215	8178
522.285	12128
522.355	16151
522.424	28433
522.494	21079
522.564	14949
522.634	32598
522.704	76442
522.774	24830
522.843	9600
522.913	9264
522.983	10122
523.053	7227
523.122	9366
523.192	13844
523.262	43449
523.331	34902
523.401	9281
523.471	6772
523.540	7383
523.610	5046
523.680	6185
523.749	6442
523.819	9025
523.888	7384
523.958	6213
524.027	7049
524.097	6844
524.166	6399
524.236	6675
524.305	8887
524.375	5374
524.444	4614
524.514	9206
524.583	6335
524.653	8282
524.722	9410
524.791	5316
524.861	7804
524.930	5969
524.999	7129
525.069	10125
525.138	8519
525.207	8881
525.277	7461
525.346	7481
525.415	7479
525.484	7861
525.554	8512
525.623	8180
525.692	9006
525.761	8498
525.830	8629
525.900	9603
525.969	14613
526.038	21639
526.107	44415
526.176	109850
526.245	76878
526.314	32989
526.383	64844
526.452	76317
526.522	141647
526.591	117319
526.660	41800
526.729	20492
526.797	25268
526.867	69022
526.935	256394
527.004	336382
527.073	140005
527.142	16447
527.211	10543
527.280	11400
527.349	10491
527.418	5683
527.487	7503
527.555	5966
527.624	5990
527.693	4027
527.762	7233
527.831	4452
527.899	6036
527.968	5039
528.037	4048
528.106	8361
528.174	13439
528.243	10089
528.312	16085
528.380	17820
528.449	5230
528.518	6924
528.586	3399
528.655	5203
528.723	5017
528.792	4419
528.861	4868
528.929	4002
528.998	5677
529.066	4993
529.135	5485
529.203	5328
529.272	5071
529.340	7084
529.409	7823
529.477	5694
529.545	6972
529.614	10697
529.682	8928
529.751	9591
529.819	12332
529.887	9247
529.956	7633
530.024	8245
530.092	6777
530.161	9057
530.229	12473
530.297	8000
530.365	8159
530.434	7431
530.502	7228
530.570	7469
530.638	5461
530.707	7625
530.775	8610
530.843	7071
530.911	7067
530.979	6609
531.047	8740
531.115	7952
531.183	8570
531.252	7347
531.320	6363
531.388	5517
531.456	7756
531.524	5955
531.592	7650
531.660	10458
531.728	6848
531.796	6513
531.864	7822
531.932	7494
532.000	6998
532.067	7790
532.135	9738
532.203	11701
532.271	11059
532.339	19740
532.407	38072
532.475	20841
532.542	12583
532.610	13229
532.678	19319
532.746	82075
532.814	144799
532.881	31623
532.949	10479
533.017	9130
533.084	9053
533.152	7208
533.220	8361
533.287	8255
533.355	7408
533.423	8692
533.490	7313
533.558	8428
533.625	8788
533.693	9207
533.761	8467
533.828	8996
533.896	9045
533.963	18068
534.031	20333
534.098	25905
534.166	12890
534.233	9338
534.300	10954
534.368	9592
534.435	9100
534.503	9651
534.570	9784
534.637	9037
534.705	10623
534.772	10230
534.840	17702
534.907	61167
534.974	57496
535.041	11114
535.109	10056
535.176	6166
535.243	7849
535.310	8504
535.378	6372
535.445	7251
535.512	6207
535.579	6850
535.646	6212
535.714	8379
535.781	9597
535.848	9416
535.915	11950
535.982	10009
536.049	10152
536.116	10689
536.183	8536
536.250	8258
536.317	8811
536.384	9850
536.451	13074
536.518	13404
536.585	8539
536.652	13242
536.719	15477
536.786	11596
536.853	9630
536.920	14852
536.987	21961
537.053	24822
537.120	89841
537.187	54774
537.254	7767
537.321	7106
537.388	7779
537.454	6372
537.521	6896
537.588	6367
537.654	8907
537.721	8918
537.788	10108
537.855	6982
537.921	7406
537.988	7343
538.055	8357
538.121	6816
538.188	7929
538.254	12257
538.321	23492
538.388	12647
538.454	6803
538.521	7502
538.587	7037
538.654	6649
538.720	6381
538.787	6527
538.853	7681
538.920	8613
538.986	9104
539.053	7744
539.119	8597
539.185	8654
539.252	10169
539.318	13845
539.385	11692
539.451	9289
539.517	9695
539.583	12386
539.650	29790
539.716	57372
539.782	14618
539.849	7212
539.915	8702
539.981	8904
540.047	9374
540.114	8462
540.180	10397
540.246	7786
540.312	11862
540.378	22074
540.444	21555
540.510	31557
540.576	66694
540.643	17056
540.709	6531
540.775	7686
540.841	7782
540.907	12514
540.973	15700
541.039	14842
541.105	13603
541.171	8701
541.237	7430
541.303	8492
541.369	10798
541.435	13710
541.500	20094
541.566	10268
541.632	7373
541.698	6184
541.764	8972
541.830	6507
541.896	5867
541.961	8993
542.027	8170
542.093	7041
542.159	7880
542.224	9684
542.290	14026
542.356	20851
542.421	21148
542.487	11784
542.553	9039
542.618	9875
542.684	7880
542.750	8303
542.815	9347
542.881	19764
542.947	64966
543.012	34590
543.078	7941
543.143	7026
543.209	8436
543.274	7520
543.340	10521
543.405	27815
543.471	32277
543.536	8680
543.602	7963
543.667	6880
543.732	8595
543.798	6855
543.863	8744
543.928	6708
543.994	6770
544.059	7399
544.124	7784
544.190	6518
544.255	7850
544.320	8850
544.386	8757
544.451	11057
544.516	12053
544.581	13744
544.646	44944
544.712	52185
544.777	12319
544.842	8947
544.907	9481
544.972	9005
545.037	8798
545.102	9263
545.168	8657
545.233	9642
545.298	11092
545.363	11809
545.428	13407
545.493	27483
545.558	47616
545.623	16572
545.688	9209
545.753	9418
545.818	9499
545.883	10499
545.947	9185
546.012	10435
546.077	10107
546.142	10092
546.207	9717
546.272	13167
546.337	12408
546.401	11094
546.466	11117
546.531	9384
546.596	11626
546.661	11642
546.725	11885
546.790	9970
546.855	10701
546.919	10013
546.984	11773
547.049	12057
547.113	14464
547.178	12050
547.243	14831
547.307	16970
547.372	19767
547.436	19162
547.501	16852
547.565	19147
547.630	20032
547.695	19858
547.759	19614
547.823	16979
547.888	16836
547.952	16246
548.017	18654
548.081	22603
548.146	23751
548.210	20374
548.274	18659
548.339	17624
548.403	18207
548.468	16212
548.532	16715
548.596	16213
548.660	16090
548.725	19014
548.789	20927
548.853	21611
548.917	19656
548.982	22282
549.046	19266
549.110	15522
549.174	16203
549.238	16313
549.303	18288
549.367	18638
549.431	17053
549.495	17357
549.559	16995
549.623	20802
549.687	23308
549.751	27013
549.815	24513
549.879	24571
549.943	22427
550.007	24298
550.071	23904
550.135	25293
550.199	22074
550.263	20919
550.327	22140
550.391	25991
550.455	23023
550.519	23394
550.582	25833
550.646	31803
550.710	31098
550.774	25963
550.838	27006
550.901	28197
550.965	30207
551.029	29255
551.093	34097
551.156	40252
551.220	57733
551.284	55185
551.347	38540
551.411	55743
551.475	48093
551.538	28748
551.602	26816
551.666	25525
551.729	22439
551.793	24941
551.856	23808
551.920	23902
551.983	23946
552.047	22114
552.110	23354
552.174	23968
552.237	22393
552.301	22021
552.364	20300
552.428	20313
552.491	21192
552.554	22747
552.618	22412
552.681	22530
552.745	23070
552.808	29858
552.871	33550
552.934	26810
552.998	23427
553.061	23786
553.124	22619
553.187	23165
553.251	24033
553.314	24651
553.377	28233
553.440	42632
553.503	121388
553.567	137054
553.630	32319
553.693	24211
553.756	24162
553.819	22886
553.882	21741
553.945	21863
554.008	21621
554.071	20606
554.134	21535
554.197	20576
554.260	20666
554.323	22052
554.386	21833
554.449	21858
554.512	22129
554.575	19734
554.638	21123
554.701	21002
554.764	20606
554.827	19679
554.889	18423
554.952	18245
555.015	17557
555.078	17629
555.141	17910
555.203	18111
555.266	17812
555.329	18143
555.391	17393
555.454	18145
555.517	17580
555.580	17739
555.642	16088
555.705	15371
555.768	15869
555.830	16214
555.893	14603
555.955	14465
556.018	14649
556.080	14557
556.143	15342
556.206	15574
556.268	15599
556.330	16017
556.393	14824
556.455	14858
556.518	19779
556.580	16960
556.643	14317
556.705	13791
556.767	12516
556.830	13611
556.892	15931
556.955	20258
557.017	16247
557.079	12533
557.142	13054
557.204	15814
557.266	26850
557.328	18658
557.391	12369
557.453	10974
557.515	12213
557.577	14279
557.639	14652
557.701	10901
557.764	11286
557.826	11621
557.888	13382
557.950	12308
558.012	13993
558.074	19240
558.136	44862
558.198	82486
558.260	27252
558.322	14644
558.384	16526
558.446	18360
558.508	19680
558.570	24853
558.632	39043
558.694	52052
558.756	68389
558.818	229708
558.880	413727
558.942	106994
559.003	92564
559.065	37534
559.127	20455
559.189	19527
559.251	22251
559.312	35820
559.374	106130
559.436	272856
559.498	96198
559.559	20677
559.621	18772
559.683	23356
559.744	45310
559.806	145048
559.868	156216
559.929	27401
559.991	22291
560.052	36440
560.114	85434
560.176	46211
560.237	58491
560.299	71749
560.360	17368
560.422	11029
560.483	11331
560.545	10359
560.606	9129
560.667	8409
560.729	8915
560.790	9087
560.852	9992
560.913	9373
560.974	8594
561.036	9098
561.097	8461
561.158	8734
561.220	8978
561.281	8459
561.342	9559
561.403	11456
561.465	14899
561.526	35324
561.587	35957
561.648	10353
561.709	8865
561.771	8922
561.832	9208
561.893	9803
561.954	8594
562.015	9148
562.076	10054
562.137	8446
562.198	8355
562.259	8478
562.320	8991
562.381	10302
562.442	13856
562.503	10448
562.564	8642
562.625	8630
562.686	8391
562.747	9582
562.808	7928
562.869	8789
562.930	10527
562.991	9934
563.051	8775
563.112	8785
563.173	9311
563.234	8000
563.294	8780
563.355	8112
563.416	10517
563.477	8472
563.537	8549
563.598	9882
563.659	8327
563.720	9673
563.780	9630
563.841	9377
563.901	9810
563.962	8896
564.023	9429
564.083	9182
564.144	8226
564.204	8492
564.265	10221
564.325	11594
564.386	20450
564.446	14888
564.507	8639
564.567	8885
564.628	8049
564.688	9281
564.749	8831
564.809	10752
564.869	11729
564.930	8115
564.990	9611
565.050	9234
565.111	9664
565.171	9166
565.231	8893
565.292	10220
565.352	8362
565.412	9886
565.472	9998
565.532	9499
565.593	9265
565.653	8920
565.713	9280
565.773	10781
565.833	12523
565.893	15083
565.953	10219
566.013	10886
566.074	10650
566.134	14937
566.194	19326
566.254	18990
566.314	13869
566.374	10693
566.434	12281
566.494	12089
566.554	12399
566.614	12912
566.673	12982
566.733	15741
566.793	14950
566.853	15425
566.913	15925
566.973	16194
567.033	16825
567.092	15676
567.152	15643
567.212	16611
567.272	17334
567.331	17791
567.391	17441
567.451	20074
567.511	23614
567.570	21116
567.630	17610
567.690	16717
567.749	17659
567.809	19048
567.868	21354
567.928	22575
567.988	26993
568.047	31622
568.107	38972
568.166	54609
568.226	83420
568.285	105576
568.345	93838
568.404	80035
568.464	69021
568.523	61696
568.582	63444
568.642	69528
568.701	87640
568.761	128324
568.820	181177
568.879	173413
568.939	138118
568.998	105691
569.057	82837
569.116	66084
569.176	53457
569.235	43564
569.294	37835
569.353	32244
569.413	29055
569.472	25862
569.531	23100
569.590	20562
569.649	19903
569.708	17649
569.767	17939
569.827	16902
569.886	15595
569.945	14329
570.004	14240
570.063	13254
570.122	13549
570.181	12649
570.240	13648
570.299	13936
570.358	12978
570.417	10366
570.475	11022
570.534	11525
570.593	10449
570.652	11193
570.711	10319
570.770	9845
570.829	12014
570.887	10463
570.946	12801
571.005	9451
571.064	9861
571.122	10179
571.181	9650
571.240	8624
571.299	9458
571.357	9405
571.416	10164
571.475	10807
571.533	10722
571.592	8735
571.650	9711
571.709	8716
571.768	8772
571.826	8367
571.885	8395
571.943	7949
572.002	8948
572.060	7944
572.119	7823
572.177	7916
572.236	7524
572.294	6791
572.352	8326
572.411	8606
572.469	7415
572.528	7667
572.586	7705
572.644	8373
572.703	9784
572.761	8141
572.819	7379
572.877	8027
572.936	7300
572.994	6478
573.052	7329
573.110	6940
573.169	7591
573.227	6603
573.285	7711
573.343	7019
573.401	6942
573.459	6654
573.517	5912
573.576	7478
573.634	7714
573.692	8252
573.750	6788
573.808	6481
573.866	8043
573.924	9324
573.982	8601
574.040	7400
574.098	7092
574.155	7021
574.213	7497
574.271	6641
574.329	6442
574.387	6586
574.445	7001
574.503	5674
574.560	5909
574.618	5522
574.676	6433
574.734	5935
574.792	6899
574.849	6416
574.907	6180
574.965	6740
575.022	5632
575.080	5515
575.138	6397
575.195	6780
575.253	6484
575.311	6515
575.368	6850
575.426	5844
575.483	7061
575.541	6371
575.598	6677
575.656	6529
575.713	7010
575.771	6344
575.828	6153
575.886	6243
575.943	6917
576.001	6874
576.058	6139
576.115	6857
576.173	8229
576.230	9021
576.287	9556
576.345	7679
576.402	6951
576.459	6768
576.517	7075
576.574	7802
576.631	7870
576.688	6996
576.746	6722
576.803	6577
576.860	6813
576.917	7172
576.974	6065
577.031	6387
577.089	7174
577.146	6407
577.203	6659
577.260	7531
577.317	7752
577.374	8090
577.431	8041
577.488	7422
577.545	6561
577.602	7026
577.659	7156
577.716	8628
577.773	8408
577.830	7565
577.886	7570
577.943	7065
578.000	6722
578.057	8445
578.114	8823
578.171	10284
578.227	13504
578.284	11474
578.341	9932
578.398	9272
578.454	8876
578.511	8661
578.568	9027
578.625	8165
578.681	6714
578.738	6676
578.794	7197
578.851	6845
578.908	7730
578.964	8509
579.021	7630
579.077	6729
579.134	7422
579.190	7261
579.247	7377
579.303	7619
579.360	6892
579.416	6882
579.473	7645
579.529	7339
579.586	7396
579.642	7340
579.698	7386
579.755	7711
579.811	8531
579.867	8135
579.924	8399
579.980	8577
580.036	10532
580.093	12819
580.149	18640
580.205	18176
580.261	13311
580.317	10835
580.374	11299
580.430	10651
580.486	10456
580.542	9075
580.598	9319
580.619	9091
580.654	8700
580.692	8014
580.710	7686
580.765	7628
580.767	7634
580.823	8058
580.838	8202
580.879	8602
580.911	8704
580.935	8787
580.984	7861
580.991	7746
581.047	8160
581.057	8219
581.103	8523
581.130	9536
581.159	10561
581.203	10122
581.215	10040
581.270	10204
581.276	10106
581.326	9136
581.349	8996
581.382	8779
581.422	8663
581.438	8657
581.494	9325
581.494	9306
581.550	7811
581.567	8097
581.606	8697
581.640	8423
581.661	8240
581.713	8808
581.717	8862
581.773	8787
581.786	8592
581.829	7938
581.859	8254
581.885	8577
581.932	9837
581.940	10051
581.996	9195
582.004	9143
582.052	8930
582.077	9012
582.107	9140
582.150	9253
582.163	9284
582.219	9572
582.223	9514
582.274	8895
582.296	8798
582.330	8568
582.368	9254
582.386	9624
582.441	9556
582.441	9557
582.497	9668
582.514	9804
582.552	10122
582.587	11009
582.608	11572
582.659	10192
582.663	10083
582.719	10927
582.732	10657
582.774	9748
582.805	9870
582.830	10016
582.877	10530
582.885	10600
582.941	10749
582.950	10682
582.996	10424
583.023	11068
583.052	11997
583.095	13164
583.107	13431
583.162	15558
583.168	15501
583.218	14662
583.240	14315
583.273	13811
583.313	12799
583.328	12460
583.384	12744
583.385	12685
583.439	10698
583.458	10804
583.494	11180
583.531	11000
583.549	10919
583.603	10841
583.605	10833
583.660	10596
583.676	10680
583.715	11019
583.748	10848
583.770	10707
583.820	11159
583.825	11200
583.881	10751
583.893	10821
583.936	11122
583.965	10680
583.991	10281
584.038	11317
584.046	11521
584.101	11404
584.110	11502
584.156	11884
584.183	11846
584.211	11669
584.255	11589
584.266	11622
584.321	12008
584.328	11976
584.376	11775
584.400	11800
584.431	11889
584.472	12197
584.486	12260
584.541	12985
584.545	12995
584.596	13054
584.617	12842
584.651	12714
584.689	13409
584.706	13617
584.761	13793
584.762	13784
584.816	13063
584.834	13576
584.871	14497
584.906	14266
584.926	14156
584.978	14561
584.980	14572
585.035	15112
585.051	14946
585.090	14991
585.123	15818
585.145	16104
585.195	16222
585.200	16316
585.254	17882
585.267	18534
585.309	20602
585.340	22089
585.364	22838
585.412	20717
585.419	20406
585.473	21847
585.484	22060
585.528	24108
585.556	27807
585.583	33355
585.628	46332
585.637	50599
585.692	93183
585.700	98300
585.747	115960
585.772	97271
585.801	62250
585.845	32075
585.856	28363
585.910	23631
585.917	23010
585.965	21602
585.989	21214
586.019	21112
586.061	21156
586.074	21165
586.128	21562
586.133	21600
586.183	22099
586.205	22157
586.237	22010
586.277	21977
586.292	22064
586.346	22453
586.349	22482
586.401	23729
586.421	24115
586.455	24372
586.493	25641
586.509	26779
586.564	29934
586.565	30069
586.618	36867
586.637	36500
586.672	32193
586.709	29679
586.727	29277
586.781	29357
586.781	29365
586.835	28826
586.853	28799
586.889	29287
586.925	29699
586.944	29906
586.996	31380
586.998	31422
587.052	31573
587.068	31840
587.106	33171
587.140	34027
587.161	34247
587.212	35456
587.215	35607
587.269	37908
587.284	38675
587.323	39875
587.356	40823
587.377	41709
587.427	44086
587.431	44284
587.485	46544
587.499	47272
587.539	49322
587.571	50708
587.593	51976
587.643	55030
587.648	55349
587.702	59003
587.715	60029
587.755	63942
587.786	66580
587.810	68586
587.858	73337
587.864	74037
587.917	81048
587.930	82830
587.971	89015
588.001	93436
588.025	97407
588.073	106118
588.079	107530
588.133	120251
588.145	123204
588.187	134276
588.217	143000
588.241	151767
588.288	169412
588.295	172131
588.348	196116
588.360	201620
588.402	226924
588.431	245668
588.456	263668
588.503	301087
588.510	308089
588.564	370053
588.575	384076
588.617	452234
588.646	504071
588.671	563359
588.718	684659
588.725	709589
588.778	911642
588.789	951826
588.832	1116589
588.861	1206292
588.886	1211812
588.932	1140658
588.939	1122782
588.993	1036424
589.004	1038978
589.047	1199937
589.075	1255854
589.100	1182004
589.147	996165
589.154	971952
589.207	787033
589.218	752441
589.261	695024
589.290	666380
589.314	681173
589.361	722819
589.368	740156
589.421	897926
589.433	932029
589.475	1084358
589.504	1158366
589.528	1136122
589.576	1065398
589.582	1062857
589.635	1114499
589.647	1107565
589.689	936804
589.718	799606
589.742	695716
589.790	499176
589.795	486154
589.849	372906
589.861	348378
589.902	298710
589.932	263193
589.955	243636
590.004	203951
590.009	201214
590.062	173250
590.075	166458
590.115	152064
590.146	141448
590.168	135231
590.218	121139
590.222	120388
590.275	110058
590.289	107468
590.328	101418
590.360	96393
590.381	93465
590.431	86551
590.435	86233
590.488	79830
590.503	77957
590.541	74633
590.574	71906
590.594	70569
590.645	66636
590.647	66530
590.700	62199
590.716	60830
590.753	58884
590.787	57270
590.806	56537
590.859	54340
590.859	54346
590.912	51174
590.930	50221
590.965	49826
591.001	49271
591.018	48684
591.071	46758
591.072	46686
591.124	44738
591.143	44058
591.177	44144
591.214	43993
591.230	43676
591.283	42724
591.285	42623
591.336	41385
591.356	40910
591.389	40212
591.427	39054
591.442	38737
591.495	37592
591.498	37453
591.547	36224
591.569	35702
591.600	35192
591.640	34251
591.653	34206
591.706	33811
591.711	33754
591.759	34007
591.782	34009
591.811	34555
591.853	35184
591.864	34706
591.917	32025
591.924	31598
591.969	31705
591.995	31743
592.022	31612
592.066	31170
592.075	31300
592.127	31980
592.137	32051
592.180	32835
592.208	33236
592.233	32063
592.279	29711
592.285	29587
592.338	28254
592.350	27903
592.390	27734
592.421	27580
592.443	27802
592.491	28139
592.495	28134
592.548	27524
592.562	27318
592.600	27262
592.633	27155
592.653	27022
592.704	26439
592.705	26571
592.775	25572
592.846	26083
592.916	26491
592.987	27501
593.058	25933
593.128	25226
593.199	24423
593.270	24251
593.341	23488
593.411	24901
593.482	23557
593.553	24482
593.623	23251
593.694	23041
593.764	23901
593.835	22637
593.906	22462
593.976	22879
594.047	23011
594.117	25376
594.188	24388
594.258	22569
594.329	22233
594.399	22561
594.470	21877
594.540	22435
594.611	21694
594.681	22295
594.751	21782
594.822	22804
594.892	22932
594.963	23030
595.033	23702
595.103	23410
595.174	23688
595.244	27594
595.314	29597
595.384	24124
595.455	22421
595.525	22886
595.595	23984
595.665	24018
595.736	23021
595.806	23234
595.876	22507
595.946	23981
596.016	23070
596.087	23168
596.157	22921
596.227	23072
596.297	23973
596.367	25354
596.437	26023
596.507	30200
596.577	31118
596.647	26566
596.717	25038
596.787	26416
596.857	26223
596.927	26342
596.997	27545
597.067	27691
597.137	29788
597.207	28621
597.277	26393
597.347	26836
597.417	25271
597.487	26638
597.557	26884
597.626	27309
597.696	27592
597.766	30014
597.836	32845
597.906	26061
597.975	24569
598.045	23923
598.115	25442
598.185	26891
598.254	28862
598.324	30422
598.394	30311
598.464	29560
598.533	29005
598.603	28572
598.672	27794
598.742	27998
598.812	27298
598.881	28852
598.951	28478
599.020	27537
599.090	28118
599.159	29604
599.229	28290
599.299	28616
599.368	28776
599.437	28443
599.507	27085
599.576	28822
599.646	29465
599.715	29158
599.785	27769
599.854	26908
599.924	27466
599.993	27248
600.062	26913
600.132	27655
600.201	29044
600.270	30755
600.340	31690
600.409	31574
600.478	31624
600.547	32173
600.617	30776
600.686	28052
600.755	27191
600.824	27240
600.894	26536
600.963	26455
601.032	25993
601.101	26264
601.170	25912
601.239	26323
601.308	27049
601.378	26929
601.447	26624
601.516	26789
601.585	29187
601.654	30053
601.723	28970
601.792	29664
601.861	30681
601.930	35586
601.999	33981
602.068	31579
602.137	33170
602.206	33498
602.275	31878
602.343	34380
602.412	33926
602.481	31244
602.550	31849
602.619	32772
602.688	32219
602.756	32302
602.825	33055
602.894	32909
602.963	32883
603.032	33548
603.100	32322
603.169	32457
603.238	34237
603.307	34011
603.375	33598
603.444	34412
603.513	34097
603.581	34694
603.650	34548
603.719	30761
603.787	29649
603.856	30882
603.924	32234
603.993	32186
604.061	32663
604.130	34352
604.198	34787
604.267	34795
604.335	35627
604.404	35338
604.472	36073
604.541	36145
604.609	36415
604.678	37562
604.746	39009
604.815	39687
604.883	38039
604.951	40085
605.020	38544
605.088	38862
605.156	36958
605.225	36228
605.293	37069
605.361	37076
605.429	37161
605.498	38279
605.566	37899
605.634	39360
605.702	39545
605.771	40710
605.839	40025
605.907	38119
605.975	39202
606.043	38566
606.111	37429
606.180	40645
606.248	40036
606.316	41876
606.384	38417
606.452	36528
606.520	35433
606.588	33653
606.656	32125
606.724	31188
606.792	29687
606.860	28116
606.928	25969
606.996	24958
607.064	24473
607.132	25447
607.200	25986
607.267	27133
607.335	27843
607.403	28646
607.471	26614
607.539	26615
607.607	26652
607.674	25779
607.742	24890
607.810	24727
607.878	25410
607.946	24134
608.013	25865
608.081	26310
608.149	26109
608.216	26441
608.284	27870
608.352	27473
608.419	26961
608.487	29923
608.555	26619
608.622	27026
608.690	27646
608.757	30800
608.825	29750
608.893	29694
608.960	29329
609.028	30318
609.095	31800
609.163	27513
609.230	24819
609.298	23785
609.365	23895
609.432	26880
609.500	27114
609.567	31220
609.635	34791
609.702	36030
609.769	35474
609.837	30512
609.904	27356
609.971	28309
610.039	34096
610.106	45815
610.173	83671
610.241	192457
610.308	164214
610.375	84138
610.442	36955
610.509	29030
610.577	27572
610.644	27998
610.711	27023
610.778	27771
610.845	29000
610.912	30983
610.980	34069
611.047	41279
611.114	34921
611.181	29890
611.248	28126
611.315	31053
611.382	30756
611.449	31421
611.516	33000
611.583	32177
611.650	31938
611.717	33699
611.784	33511
611.851	35719
611.918	39804
611.984	48122
612.051	71702
612.118	151435
612.185	367683
612.252	226521
612.319	54528
612.386	43226
612.452	39174
612.519	37315
612.586	39742
612.653	37823
612.719	38013
612.786	35566
612.853	33428
612.919	31839
612.986	33415
613.053	31873
613.120	30627
613.186	28695
613.253	30592
613.319	29657
613.386	29639
613.453	30191
613.519	32421
613.586	33671
613.652	39013
613.719	34861
613.785	32341
613.852	30723
613.918	30397
613.985	35777
614.051	42966
614.118	73673
614.184	66462
614.250	33316
614.317	31435
614.383	29854
614.449	29477
614.516	30567
614.582	30534
614.648	29802
614.715	30241
614.781	29482
614.847	29958
614.914	29725
614.980	29222
615.046	29942
615.112	30340
615.179	30740
615.245	33364
615.311	39188
615.377	54008
615.443	58456
615.509	40057
615.575	36190
615.642	33049
615.708	34832
615.774	37818
615.840	41828
615.906	51717
615.972	75678
616.038	135608
616.104	240381
616.170	490714
616.236	402666
616.302	88512
616.368	58432
616.434	43368
616.500	42050
616.565	42839
616.631	50572
616.697	43294
616.763	44872
616.829	61438
616.895	103982
616.961	100281
617.026	48284
617.092	33455
617.158	34069
617.224	31232
617.289	31433
617.355	28779
617.421	27644
617.487	28468
617.552	27762
617.618	25696
617.684	25348
617.749	28753
617.815	25228
617.880	24804
617.946	25626
618.012	26183
618.077	26060
618.143	26232
618.208	26879
618.274	27252
618.339	28790
618.405	23559
618.470	25208
618.536	24817
618.601	25388
618.667	23042
618.732	23896
618.798	22228
618.863	22168
618.928	22161
618.994	24493
619.059	24432
619.124	28502
619.190	23853
619.255	22496
619.320	22650
619.386	22417
619.451	20333
619.516	20852
619.581	21730
619.647	21820
619.712	22116
619.777	21500
619.842	22078
619.907	21734
619.972	21865
620.038	22445
620.103	20736
620.168	20923
620.233	21546
620.298	21706
620.363	21459
620.428	21277
620.493	22016
620.558	23071
620.623	22372
620.688	22916
620.753	22992
620.818	22938
620.883	22499
620.948	23314
621.013	23377
621.078	22715
621.143	22666
621.207	25760
621.272	24000
621.337	23648
621.402	23223
621.467	25625
621.532	26894
621.596	24256
621.661	23413
621.726	23294
621.791	23278
621.855	23815
621.920	24038
621.985	24666
622.049	26229
622.114	25204
622.179	24349
622.243	25412
622.308	24427
622.373	27198
622.437	25451
622.502	24402
622.566	25016
622.631	24895
622.695	25169
622.760	24962
622.824	24385
622.889	24951
622.953	26164
623.018	32599
623.082	32048
623.147	25052
623.211	25436
623.276	25366
623.340	22684
623.404	24376
623.469	23284
623.533	24538
623.597	22397
623.662	23121
623.726	22151
623.790	20991
623.854	20537
623.919	21715
623.983	21278
624.047	21990
624.111	21341
624.176	21562
624.240	22066
624.304	23268
624.368	21272
624.432	21766
624.496	21833
624.560	23844
624.625	23907
624.689	23482
624.753	22168
624.817	23008
624.881	20638
624.945	21118
625.009	20849
625.073	21069
625.137	20571
625.201	24220
625.265	24580
625.329	20848
625.393	21025
625.456	21791
625.520	22068
625.584	22334
625.648	25764
625.712	31091
625.776	49886
625.839	53980
625.903	27107
625.967	20846
626.031	27883
626.095	36621
626.158	21148
626.222	16171
626.286	16762
626.349	15860
626.413	14215
626.477	17975
626.540	15697
626.604	14709
626.668	15947
626.731	15169
626.795	15525
626.858	14925
626.922	13498
626.986	13915
627.049	13249
627.113	15533
627.176	14820
627.240	13854
627.303	14130
627.366	13860
627.430	13679
627.493	14374
627.557	13268
627.620	15456
627.684	14171
627.747	14400
627.810	11474
627.874	13317
627.937	11359
628.000	15652
628.064	12744
628.127	10932
628.190	12326
628.253	12538
628.317	10795
628.380	11614
628.443	10302
628.506	11275
628.569	11245
628.632	9635
628.696	10745
628.759	9556
628.822	9839
628.885	9666
628.948	9590
629.011	10559
629.074	9383
629.137	9314
629.200	9116
629.263	11508
629.326	8715
629.389	9304
629.452	9713
629.515	9361
629.578	9486
629.641	10930
629.704	9463
629.767	9718
629.830	10398
629.892	10200
629.955	7993
630.018	11227
630.081	9560
630.144	12117
630.207	8046
630.269	11225
630.332	9388
630.395	9482
630.458	8671
630.520	7810
630.583	9515
630.646	8599
630.708	7949
630.771	8168
630.834	8747
630.896	8168
630.959	8590
631.021	8537
631.084	8390
631.146	9862
631.209	9708
631.272	8629
631.334	8155
631.397	8195
631.459	8144
631.522	9326
631.584	8455
631.646	9929
631.709	9053
631.771	11254
631.834	9910
631.896	9050
631.958	6991
632.021	8942
632.083	7791
632.145	8623
632.208	8122
632.270	8553
632.332	6896
632.395	6872
632.457	8758
632.519	7110
632.581	8905
632.643	7119
632.706	7641
632.768	6581
632.830	8317
632.892	6965
632.954	6712
633.016	8631
633.078	7581
633.141	7499
633.203	6923
633.265	8191
633.327	7433
633.389	6396
633.451	8537
633.513	9110
633.575	8820
633.637	9452
633.698	7485
633.760	8556
633.822	8265
633.884	8158
633.946	7573
634.008	8637
634.070	8549
634.132	11418
634.193	9398
634.255	9388
634.317	7543
634.379	9746
634.441	7980
634.502	7687
634.564	8052
634.626	7120
634.687	7820
634.749	7183
634.811	6746
634.873	6395
634.934	6846
634.996	8015
635.057	7063
635.119	6426
635.181	6585
635.242	8509
635.304	6371
635.365	8104
635.427	6795
635.488	7081
635.550	6889
635.611	7451
635.673	4395
635.734	8992
635.796	6892
635.857	9254
635.918	6898
635.980	9638
636.041	7113
636.102	9745
636.164	8430
636.225	9751
636.286	6119
636.348	8279
636.409	7268
636.470	6772
636.531	7018
636.593	7592
636.654	7685
636.715	6645
636.776	5772
636.838	5794
636.899	7063
636.960	6112
637.021	5734
637.082	6321
637.143	6287
637.204	5463
637.265	5034
637.326	5938
637.387	6683
637.448	3817
637.509	6036
637.570	6530
637.631	7238
637.692	4489
637.753	4665
637.814	5863
637.875	5919
637.936	6330
637.997	4933
638.058	5297
638.119	7086
638.179	6145
638.240	4990
638.301	6158
638.362	4360
638.423	5036
638.483	6541
638.544	4427
638.605	5703
638.666	4343
638.726	6018
638.787	6579
638.848	5566
638.908	5207
638.969	6019
639.030	5395
639.090	4513
639.151	4369
639.211	6436
639.272	7445
639.332	10742
639.393	7072
639.453	4506
639.514	6212
639.574	5373
639.635	4050
639.695	5891
639.756	4894
639.816	5691
639.877	6851
639.937	10267
639.997	12066
640.058	4229
640.118	4454
640.178	5423
640.239	5109
640.299	4310
640.359	4965
640.420	5294
640.480	5994
640.540	4757
640.600	5496
640.661	5801
640.721	6142
640.781	8597
640.841	6542
640.901	5017
640.961	5740
641.021	6173
641.082	5003
641.142	7733
641.202	6694
641.262	2963
641.322	5551
641.382	3652
641.442	4441
641.502	4027
641.562	5082
641.622	4646
641.682	5274
641.742	4933
641.802	5218
641.861	5738
641.921	5012
641.981	6715
642.041	5689
642.101	6083
642.161	4447
642.221	3801
642.280	4933
642.340	4019
642.400	3434
642.460	4793
642.519	4819
642.579	4326
642.639	6116
642.698	2122
642.758	7356
642.818	4444
642.877	4180
642.937	4777
642.997	5815
643.056	7257
643.116	4122
643.175	5606
643.235	5521
643.294	4621
643.354	5739
643.414	6469
643.473	7232
643.532	7732
643.592	11274
643.651	17104
643.711	32219
643.770	60498
643.830	144986
643.889	306234
643.948	70185
644.008	13229
644.067	7920
644.126	5548
644.186	5968
644.245	6003
644.304	3517
644.363	6155
644.423	3925
644.482	4515
644.541	5270
644.600	2819
644.659	5719
644.719	5694
644.778	9025
644.837	14771
644.896	27957
644.955	63276
645.014	23141
645.073	7796
645.132	5430
645.191	6245
645.250	3859
645.309	5751
645.368	6322
645.427	6469
645.486	7257
645.545	13763
645.604	5517
645.663	4549
645.722	4768
645.781	4986
645.840	6621
645.898	6518
645.957	10846
646.016	15054
646.075	28670
646.134	53156
646.192	141967
646.251	206379
646.310	29428
646.369	8309
646.427	7410
646.486	5070
646.545	5433
646.603	4335
646.662	5029
646.721	4418
646.779	4956
646.838	3855
646.896	6382
646.955	5574
647.014	9887
647.072	15351
647.131	39964
647.189	18892
647.248	4170
647.306	4587
647.365	5280
647.423	2238
647.481	5095
647.540	1875
647.598	2914
647.657	3634
647.715	4805
647.773	2218
647.832	4186
647.890	2299
647.948	3349
648.007	3849
648.065	2381
648.123	2774
648.181	5778
648.240	5984
648.298	4596
648.356	3301
648.414	3522
648.472	3333
648.531	4459
648.589	2493
648.647	3264
648.705	2992
648.763	3646
648.821	2985
648.879	3302
648.937	3981
648.995	3912
649.053	5150
649.111	8008
649.169	11578
649.227	21131
649.285	41769
649.343	118262
649.401	56347
649.459	17209
649.516	12461
649.574	10240
649.632	23013
649.690	27416
649.748	10681
649.806	12194
649.863	22021
649.921	29265
649.979	18307
650.037	4497
650.094	2615
650.152	4206
650.210	2595
650.268	3305
650.325	3544
650.383	3979
650.440	2628
650.498	2617
650.556	2759
650.613	2072
650.671	2844
650.728	3052
650.786	2581
650.843	3399
650.901	1232
650.958	3233
651.016	1913
651.073	2631
651.131	2035
651.188	1232
651.246	1849
651.303	1906
651.360	2756
651.418	2345
651.475	2210
651.532	1792
651.590	2224
651.647	2136
651.704	1595
651.762	2965
651.819	2448
651.876	2678
651.933	1937
651.990	2871
652.048	807
652.105	1219
652.162	2200
652.219	1418
652.276	2574
652.333	2877
652.390	1038
652.448	1379
652.505	2354
652.562	2819
652.619	2142
652.676	5842
652.733	7050
652.790	2060
652.847	661
652.904	2948
652.961	1061
653.017	1315
653.074	1950
653.131	1953
653.188	1330
653.245	1605
653.302	1119
653.359	1870
653.415	2375
653.472	1613
653.529	2107
653.586	459
653.642	1564
653.699	2063
653.756	1387
653.813	1947
653.869	2341
653.926	1678
653.983	1565
654.039	1864
654.096	1455
654.152	3190
654.209	533
654.266	1902
654.322	1458
654.379	2606
654.435	2947
654.492	2885
654.548	3282
654.605	4104
654.661	2622
654.717	3032
654.774	2307
654.830	1898
654.887	1501
654.943	1794
655.000	2118
655.056	2687
655.112	2348
655.168	791
655.225	1722
655.281	2291
655.337	2893
655.394	3713
655.450	2573
655.506	2841
655.562	3282
655.618	4357
655.675	1507
655.731	2069
655.787	2038
655.843	2677
655.899	1719
655.955	2344
656.011	1975
656.067	2220
656.123	2115
656.179	2929
656.235	3042
656.291	1788
656.347	3586
656.403	1837
656.459	1745
656.515	2089
656.571	1982
656.627	2157
656.683	2184
656.739	1794
656.795	2093
656.850	2160
656.906	2350
656.962	3347
657.018	1323
657.074	1744
657.129	1126
657.185	2262
657.241	4062
657.297	1737
657.352	1877
657.408	2036
657.464	3120
657.519	1895
657.575	963
657.630	1875
657.686	1589
657.742	1405
657.797	1061
657.853	1260
657.908	3087
657.964	1492
658.019	444
658.075	1770
658.130	2348
658.186	1076
658.241	2403
658.297	1338
658.352	1297
658.407	2463
658.463	832
658.518	2665
658.573	1475
658.629	1420
658.684	933
658.739	2082
658.795	709
658.850	2121
658.905	976
658.960	1696
659.016	462
659.071	1371
659.126	1330
659.181	1757
659.236	4614
659.291	4437
659.346	2372
659.401	2292
659.457	3975
659.512	4436
659.567	3635
659.622	1552
659.677	1706
659.732	942
659.787	1760
659.842	1560
659.897	2916
659.952	1621
660.007	1187
660.061	1620
660.116	748
660.171	1013
660.226	1413
660.281	2081
660.336	728
660.391	2827
660.445	469
660.500	1953
660.555	1303
660.610	770
660.664	1942
660.719	1084
660.774	1479
660.828	2051
660.883	2074
660.938	2451
660.992	730
661.047	1794
661.101	1238
661.156	1897
661.211	661
661.265	1790
661.320	1169
661.374	1264
661.429	941
661.483	2231
661.538	863
661.592	1954
661.647	1658
661.701	1747
661.755	1602
661.810	1745
661.864	1265
661.919	1877
661.973	1493
662.027	1275
662.081	88
662.136	284
662.190	1447
662.244	2556
662.299	1419
662.353	2109
662.407	1377
662.461	850
662.515	1322
662.569	825
662.624	2147
662.678	2566
662.732	777
662.786	1335
662.840	1549
662.894	1222
662.948	1182
663.002	843
663.056	584
663.110	1245
663.164	1318
663.218	1420
663.272	1023
663.326	1743
663.380	1654
663.434	2064
663.488	773
663.542	1380
663.595	1521
663.649	731
663.703	1953
663.757	1428
663.811	959
663.864	1098
663.918	1582
663.972	1010
664.026	1797
664.079	473
664.133	1297
664.187	1322
664.240	872
664.294	1725
664.348	1713
664.401	1622
664.455	1484
664.508	1093
664.562	874
664.615	1837
664.669	404
664.722	942
664.776	765
664.829	934
664.883	1359
664.936	1243
664.990	1154
665.043	2281
665.097	1166
665.150	2203
665.203	1001
665.257	1003
665.310	1093
665.363	1173
665.417	2251
665.470	950
665.523	1661
665.576	1776
665.630	1873
665.683	1498
665.736	920
665.789	1583
665.842	377
665.895	1692
665.949	1774
666.002	572
666.055	767
666.108	1474
666.161	1062
666.214	2408
666.267	1411
666.320	2785
666.373	1752
666.426	2039
666.479	1682
666.532	2024
666.585	1758
666.638	2405
666.691	964
666.744	2109
666.796	1171
666.849	1741
666.902	1126
666.955	1588
667.008	1219
667.060	896
667.113	509
667.166	913
667.219	1647
667.271	1714
667.324	1422
667.377	1423
667.430	1331
667.482	2895
667.535	2712
667.587	1046
667.640	1829
667.693	2280
667.745	2855
667.798	3467
667.850	1210
667.903	1995
667.955	774
668.008	2191
668.060	1313
668.113	1707
668.165	1424
668.218	1818
668.270	1211
668.322	1952
668.375	1443
668.427	2673
668.479	1073
668.532	1740
668.584	1677
668.636	1783
668.689	749
668.741	1733
668.793	746
668.845	1324
668.898	1673
668.950	894
669.002	1200
669.054	1122
669.106	337
669.158	1641
669.211	1344
669.263	2267
669.315	2033
669.367	3181
669.419	1316
669.471	2542
669.523	2503
669.575	3986
669.627	2621
669.679	2003
669.731	1544
669.783	1880
669.835	2269
669.886	2670
669.938	2365
669.990	2673
670.042	1616
670.094	2482
670.146	2846
670.197	4299
670.249	5513
670.301	6845
670.353	9030
670.404	13096
670.456	18910
670.508	30275
670.560	47327
670.611	79233
670.663	132316
670.715	293608
670.766	442917
670.818	174378
670.869	34094
670.921	16541
670.972	10798
671.024	7474
671.075	5819
671.127	4716
671.178	2716
671.230	3809
671.281	3101
671.333	2725
671.384	2745
671.436	2853
671.487	3897
671.538	3907
671.590	5229
671.641	6173
671.692	10157
671.744	16563
671.795	12397
671.846	5111
671.897	3208
671.949	1670
672.000	2590
672.051	1620
672.102	2320
672.153	2122
672.204	1586
672.256	2318
672.307	1748
672.358	1756
672.409	1755
672.460	1051
672.511	1216
672.562	1166
672.613	674
672.664	1214
672.715	1108
672.766	1400
672.817	938
672.868	550
672.919	1038
672.970	574
673.021	1113
673.071	795
673.122	775
673.173	1630
673.224	464
673.275	1350
673.326	1558
673.376	502
673.427	400
673.478	1194
673.528	893
673.579	1701
673.630	1696
673.680	2075
673.731	923
673.782	1256
673.832	990
673.883	1812
673.934	662
673.984	644
674.035	1024
674.085	1364
674.136	1889
674.186	1803
674.237	1125
674.287	2611
674.338	1655
674.388	841
674.438	1236
674.489	1240
674.539	778
674.589	1014
674.640	577
674.690	903
674.740	878
674.791	1534
674.841	616
674.891	1328
674.942	1657
674.992	1089
675.042	28
675.092	1160
675.142	1088
675.193	214
675.243	523
675.293	1871
675.343	243
675.393	1118
675.443	1022
675.493	1124
675.543	821
675.593	1291
675.643	1083
675.693	1518
675.743	479
675.793	1469
675.843	556
675.893	1115
675.943	717
675.993	326
676.043	287
676.093	119
676.142	-22
676.192	615
676.242	475
676.292	372
676.341	571
676.391	587
676.441	645
676.491	459
676.540	-237
676.590	967
676.640	993
676.689	211
676.739	33
676.789	301
676.838	-98
676.888	374
676.937	616
676.987	326
677.037	432
677.086	-164
677.136	392
677.185	302
677.235	-58
677.284	68
677.333	688
677.383	194
677.432	446
677.482	380
677.531	475
677.580	488
677.630	764
677.679	550
677.728	822
677.778	1426
677.827	788
677.876	-262
677.925	307
677.975	1591
678.024	353
678.073	-98
678.122	202
678.171	890
678.220	-182
678.269	942
678.319	906
678.368	552
678.417	442
678.466	1340
678.515	388
678.564	880
678.613	411
678.662	604
678.711	-550
678.760	-151
678.809	482
678.857	412
678.906	-24
678.955	482
679.004	1771
679.053	863
679.102	765
679.151	563
679.199	151
679.248	-15
679.297	244
679.346	1054
679.394	-136
679.443	324
679.492	570
679.540	962
679.589	320
679.638	744
679.686	547
679.735	1380
679.784	358
679.832	8
679.881	600
679.929	552
679.978	313
680.026	658
680.075	649
680.123	957
680.172	-175
680.220	888
680.268	438
680.317	420
680.365	155
680.414	359
680.462	189
680.510	1186
680.559	-62
680.607	190
680.655	-120
680.703	510
680.752	-169
680.800	350
680.848	-378
680.896	921
680.945	-358
680.993	832
681.041	129
681.089	1020
681.137	701
681.185	1244
681.233	-533
681.258	-221
681.281	50
681.329	360
681.377	549
681.380	520
681.425	-434
681.473	240
681.502	323
681.521	332
681.569	911
681.617	-265
681.624	-90
681.665	879
681.713	1443
681.745	812
681.761	478
681.809	-10
681.857	1160
681.867	927
681.904	10
681.952	511
681.989	1186
682.000	1362
682.048	853
682.096	904
682.111	1038
682.143	1244
682.191	1597
682.233	2064
682.239	2111
682.286	1504
682.334	1220
682.354	1093
682.382	867
682.430	1495
682.476	838
682.477	804
682.525	1758
682.572	1416
682.598	1535
682.620	1613
682.667	666
682.715	2357
682.720	2320
682.763	1730
682.810	1402
682.841	1287
682.857	1214
682.905	1372
682.952	2080
682.963	2087
683.000	1936
683.047	1708
683.085	2572
683.095	2813
683.142	1136
683.190	2939
683.206	2535
683.237	1711
683.284	2484
683.328	1788
683.332	1708
683.379	2559
683.426	1894
683.449	2100
683.473	2346
683.521	2236
683.568	2567
683.571	2528
683.615	1728
683.662	2630
683.693	2461
683.709	2320
683.757	2416
683.804	2237
683.814	2303
683.851	2512
683.898	2523
683.936	2715
683.945	2754
683.992	2939
684.039	2932
684.057	2717
684.086	2363
684.133	2970
684.179	2760
684.180	2729
684.227	3537
684.274	2874
684.300	3140
684.321	3459
684.368	2609
684.415	3449
684.422	3434
684.462	3151
684.509	3127
684.543	3222
684.556	3243
684.603	3624
684.649	3542
684.665	3534
684.696	3493
684.743	3346
684.786	3283
684.790	3274
684.837	3653
684.883	3414
684.908	3842
684.930	4170
684.977	3945
685.023	4132
685.029	4154
685.070	4184
685.117	4003
685.150	4127
685.164	4177
685.210	4178
685.257	4603
685.272	4435
685.303	4059
685.350	3980
685.393	3638
685.396	3601
685.443	4663
685.490	4526
685.514	4622
685.536	4652
685.583	4671
685.629	4295
685.636	4435
685.675	5249
685.722	4171
685.757	4441
685.768	4541
685.815	4420
685.861	4531
685.878	4696
685.908	4955
685.954	4406
686.000	5081
686.000	5088
686.047	4916
686.093	5469
686.121	5704
686.139	5776
686.185	5526
686.232	5250
686.242	5270
686.278	5232
686.324	4823
686.363	4992
686.370	5046
686.416	4786
686.463	5340
686.484	5278
686.509	5195
686.555	5541
686.601	4776
686.606	4833
686.647	5285
686.693	5021
686.727	5033
686.739	5019
686.785	5459
686.831	5208
686.848	5192
686.877	5220
686.923	5195
686.969	5229
686.969	5229
687.015	5145
687.061	5341
687.090	5553
687.107	5651
687.153	5589
687.199	6040
687.211	5876
687.245	5414
687.291	6010
687.332	5926
687.336	5923
687.382	6799
687.428	5297
687.453	5838
687.474	6239
687.520	5678
687.565	6706
687.574	6534
687.611	6030
687.657	6732
687.695	6818
687.702	6881
687.748	7397
687.794	8314
687.816	8417
687.839	8023
687.885	7490
687.931	7030
687.937	6905
687.976	6555
688.022	6762
688.058	6490
688.067	6417
688.113	6329
688.158	6354
688.179	6331
688.204	6477
688.249	6465
688.295	6832
688.300	6838
688.340	6738
688.386	6779
688.421	6266
688.431	6153
688.477	6774
688.522	6778
688.542	6986
688.567	7238
688.613	6943
688.658	6825
688.663	6840
688.703	6996
688.749	6853
688.784	6804
688.794	6792
688.839	6769
688.884	6951
688.905	7011
688.930	7131
688.975	6980
689.020	6998
689.026	6974
689.065	7009
689.110	7686
689.146	7592
689.155	7531
689.201	7344
689.246	7195
689.267	7388
689.291	7564
689.336	7242
689.381	7394
689.388	7334
689.426	7250
689.471	7344
689.509	7036
689.516	6961
689.561	7120
689.606	7080
689.630	7103
689.651	7275
689.696	6832
689.741	7590
689.750	7718
689.785	8102
689.830	7772
689.871	7460
689.875	7444
689.920	7831
689.965	8014
689.992	7995
690.010	7995
690.054	7981
690.099	8015
690.112	7980
690.144	7766
690.189	8086
690.233	7620
690.233	7631
690.278	8180
690.323	8081
690.354	8637
690.367	8874
690.412	8895
690.457	9240
690.474	9386
690.501	9565
690.546	9431
690.590	9541
690.595	9561
690.635	10114
690.680	10216
690.716	10685
690.724	10969
690.769	12057
690.813	14050
690.836	14383
690.857	16029
690.902	20360
690.946	24563
690.957	25640
690.991	35048
691.035	48124
691.077	60220
691.080	60158
691.124	54425
691.168	49188
691.198	45939
691.213	42437
691.257	32103
691.301	21291
691.318	17376
691.346	16288
691.390	14083
691.434	12075
691.439	11849
691.478	11609
691.522	11035
691.559	10573
691.567	10579
691.611	10693
691.655	10370
691.680	10378
691.699	10271
691.743	9886
691.787	9267
691.800	9125
691.831	9414
691.875	9971
691.919	10025
691.921	10029
691.964	10156
692.008	9618
692.041	9420
692.052	9504
692.096	9264
692.139	9715
692.162	9754
692.183	9682
692.227	9907
692.271	9292
692.282	9384
692.315	9900
692.359	9759
692.402	10125
692.403	10148
692.447	9698
692.490	10320
692.523	10431
692.534	10495
692.578	10075
692.622	10048
692.643	10140
692.666	10264
692.709	10063
692.753	10181
692.763	10124
692.797	10179
692.840	10391
692.884	10551
692.884	10574
692.928	10564
692.971	10661
693.004	10476
693.015	10517
693.059	10724
693.102	11187
693.124	11161
693.146	11090
693.189	11299
693.233	11389
693.245	11362
693.276	12035
693.320	13088
693.363	13970
693.365	13970
693.407	14988
693.450	16216
693.485	17179
693.493	17871
693.537	21362
693.580	24691
693.605	26582
693.624	30576
693.667	39952
693.710	50017
693.725	53270
693.753	71865
693.797	102058
693.840	132048
693.845	135197
693.883	124190
693.926	111061
693.966	99145
693.970	96940
694.013	72855
694.056	48647
694.086	31812
694.099	30291
694.142	25435
694.185	20330
694.206	17909
694.229	17377
694.272	16558
694.315	15828
694.326	15515
694.358	14929
694.401	14155
694.444	13248
694.446	13171
694.487	12985
694.530	13010
694.566	12908
694.573	12871
694.616	12294
694.659	12204
694.686	11735
694.702	11580
694.745	11495
694.787	11155
694.806	10985
694.830	10879
694.873	10714
694.916	10507
694.926	10425
694.959	10546
695.002	10849
695.044	10992
695.046	10977
695.087	11331
695.130	11402
695.166	11571
695.172	11610
695.215	11655
695.258	11556
695.286	11656
695.301	11714
695.343	11665
695.386	11245
695.406	11294
695.428	11509
695.471	11516
695.514	11598
695.526	11535
695.556	11372
695.599	11543
695.641	11377
695.646	11352
695.684	11693
695.726	11703
695.766	12018
695.769	12040
695.811	11694
695.854	11444
695.886	11175
695.896	11188
695.938	11203
695.981	11125
696.005	11138
696.023	11299
696.065	11377
696.108	11452
696.125	11557
696.150	11794
696.192	12087
696.235	12220
696.245	12241
696.277	12372
696.319	12466
696.361	12721
696.365	12690
696.404	12727
696.446	12975
696.485	12944
696.488	12949
696.530	12563
696.572	12336
696.604	12091
696.614	12113
696.656	12015
696.698	12072
696.724	11960
696.740	11956
696.783	11953
696.825	11944
696.844	11939
696.867	11991
696.909	11858
696.951	11770
696.964	11729
696.992	11717
697.034	11597
697.076	11526
697.083	11494
697.118	11701
697.160	11749
697.202	11870
697.203	11840
697.244	11843
697.286	11907
697.323	11815
697.327	11859
697.369	12010
697.411	12142
697.442	12186
697.453	12239
697.494	12277
697.536	12483
697.562	12503
697.578	12575
697.620	12672
697.661	12773
697.682	12795
697.703	12913
697.744	13077
697.786	13281
697.801	13314
697.828	13498
697.869	13646
697.911	13803
697.921	13812
697.952	13388
697.994	12772
698.035	12168
698.040	12057
698.077	12230
698.118	12398
698.160	12607
698.160	12572
698.201	12241
698.243	11852
698.279	11528
698.284	11648
698.325	12365
698.367	13189
698.399	13772
698.408	13702
698.449	13184
698.491	12679
698.518	12318
698.532	12430
698.573	12586
698.614	12846
698.638	12913
698.656	12981
698.697	13106
698.738	13197
698.757	13214
698.779	13414
698.820	13700
698.862	14010
698.877	14079
698.903	13916
698.944	13601
698.985	13283
698.996	13161
699.026	13184
699.067	13160
699.116	13098
699.235	12542
699.354	12910
699.474	12397
699.593	13866
699.713	13445
699.832	13987
699.951	13183
700.070	13056
700.190	13335
700.309	12728
700.428	12382
700.547	12417
700.667	12965
700.786	13131
700.905	12084
701.024	13409
701.143	11993
701.262	12306
701.381	11172
701.500	11727
701.619	12533
701.738	12022
701.857	11166
701.976	12495
702.095	11585
702.214	12651
702.333	11877
702.452	11995
702.571	10935
702.690	11598
702.809	11312
702.928	11512
703.047	11130
703.165	11557
703.284	11495
703.403	11754
703.522	11047
703.640	11281
703.759	12538
703.878	13577
703.997	10863
704.115	11645
704.234	11369
704.353	11311
704.471	10251
704.590	10707
704.708	10609
704.827	10514
704.946	10474
705.064	11243
705.183	10280
705.301	12364
705.420	14955
705.538	14768
705.656	13758
705.775	14966
705.893	28349
706.012	33423
706.130	13116
706.249	12495
706.367	12972
706.485	13325
706.604	12056
706.722	13642
706.840	14238
706.958	19507
707.077	15146
707.195	12309
707.313	11042
707.431	12046
707.549	10979
707.668	11333
707.786	11832
707.904	11017
708.022	11248
708.140	11021
708.258	11528
708.376	12206
708.494	11565
708.612	12520
708.730	15234
708.848	14715
708.966	14071
709.084	13318
709.202	12163
709.320	13007
709.438	12963
709.556	14332
709.674	12430
709.791	13626
709.909	11797
710.027	12837
710.145	12594
710.263	12910
710.380	10984
710.498	11679
710.616	12291
710.733	11764
710.851	11783
710.969	13487
711.086	10306
711.204	11913
711.322	11430
711.439	12301
711.557	12167
711.674	11823
711.792	12266
711.909	13775
712.027	14177
712.144	11314
712.262	11835
712.379	12834
712.497	15007
712.614	15768
712.732	12966
712.849	12588
712.966	14539
713.084	15974
713.201	13535
713.318	13617
713.436	13692
713.553	13393
713.670	13394
713.787	14299
713.905	14041
714.022	13626
714.139	12982
714.256	14982
714.373	15975
714.490	23529
714.608	46618
714.725	178389
714.842	173560
714.959	19760
715.076	13633
715.193	13254
715.310	12624
715.427	11864
715.544	11729
715.661	12037
715.778	11407
715.895	13365
716.011	11794
716.128	11897
716.245	11693
716.362	12832
716.479	12884
716.596	11971
716.713	11207
716.829	11514
716.946	10745
717.063	11176
717.180	10714
717.296	11119
717.413	10525
717.530	11713
717.646	9836
717.763	10913
717.880	9932
717.996	10006
718.113	9965
718.229	10096
718.346	9409
718.462	9779
718.579	11067
718.695	15027
718.812	12908
718.928	12337
719.045	9935
719.161	10143
719.277	9489
719.394	10787
719.510	10156
719.626	10284
719.743	11148
719.859	12159
719.975	18115
720.092	51822
720.208	105977
720.324	18517
720.440	10163
720.557	11047
720.673	13282
720.789	15919
720.905	26007
721.021	13213
721.137	9149
721.253	9359
721.369	9483
721.486	10315
721.602	10800
721.718	9524
721.834	8852
721.950	9617
722.066	9005
722.181	8446
722.297	8039
722.413	9014
722.529	9273
722.645	8165
722.761	8180
722.877	8625
722.993	8621
723.108	9281
723.224	8087
723.340	8431
723.456	7552
723.571	8408
723.687	7632
723.803	8505
723.918	7160
724.034	7671
724.150	8049
724.265	8596
724.381	11919
724.497	14546
724.612	7331
724.728	8051
724.843	6900
724.959	7838
725.074	11849
725.190	12523
725.305	7768
725.421	8343
725.536	7386
725.651	7434
725.767	6486
725.882	8095
725.997	6185
726.113	8040
726.228	6375
726.343	7360
726.459	6872
726.574	7144
726.689	6992
726.804	7459
726.920	6426
727.035	7666
727.150	6731
727.265	6685
727.380	7302
727.495	6982
727.610	6988
727.725	7832
727.841	8666
727.956	17737
728.071	13149
728.186	7207
728.301	6237
728.416	6718
728.531	6493
728.645	6817
728.760	6578
728.875	7472
728.990	6340
729.105	6780
729.220	6952
729.335	7414
729.449	6344
729.564	6887
729.679	6308
729.794	7058
729.908	6742
730.023	6512
730.138	5549
730.253	7117
730.367	5636
730.482	6426
730.596	6023
730.711	6512
730.826	7454
730.940	6716
731.055	6594
731.169	6817
731.284	5552
731.398	6314
731.513	5701
731.627	6851
731.742	7336
731.856	7643
731.970	6818
732.085	6852
732.199	8184
732.313	11517
732.428	21937
732.542	55287
732.656	31731
732.771	9004
732.885	7552
732.999	7252
733.113	7564
733.227	7177
733.342	6248
733.456	7156
733.570	6440
733.684	7010
733.798	6184
733.912	6901
734.026	5074
734.140	6630
734.254	6540
734.368	8907
734.482	9765
734.596	6433
734.710	6335
734.824	6246
734.938	6051
735.052	6864
735.166	6782
735.280	6204
735.393	5491
735.507	5860
735.621	6720
735.735	9354
735.849	5668
735.962	6561
736.076	6299
736.190	7239
736.303	7000
736.417	8608
736.531	5466
736.644	6473
736.758	4871
736.872	6548
736.985	6245
737.099	5696
737.212	4420
737.326	6688
737.439	6528
737.553	6336
737.666	5426
737.780	5622
737.893	5555
738.007	6341
738.120	5590
738.233	6348
738.347	5620
738.460	5040
738.573	6071
738.687	5864
738.800	6705
738.913	6156
739.026	6221
739.140	6344
739.253	5625
739.366	6137
739.479	5068
739.592	4824
739.705	5356
739.818	5954
739.932	5304
740.045	6307
740.158	4726
740.271	5585
740.384	5263
740.497	5922
740.610	5610
740.723	6276
740.836	5975
740.949	6303
741.062	6261
741.174	6037
741.287	4769
741.400	5846
741.513	5823
741.626	5854
741.739	5001
741.851	5829
741.964	4726
742.077	5362
742.189	5075
742.302	6395
742.415	5690
742.527	5726
742.640	4900
742.753	5762
742.865	4512
742.978	4841
743.090	5113
743.203	5732
743.316	4219
743.428	4826
743.541	5317
743.653	5201
743.766	4808
743.878	5166
743.990	5578
744.103	7248
744.215	5001
744.327	5643
744.440	6204
744.552	7138
744.664	4770
744.777	5142
744.889	4588
745.001	6490
745.113	3795
745.226	5827
745.338	5862
745.450	4854
745.562	4127
745.674	4895
745.786	4664
745.898	4984
746.010	5139
746.122	5225
746.234	4802
746.347	5452
746.459	4809
746.570	5049
746.682	5515
746.794	6744
746.906	5078
747.018	4774
747.130	4777
747.242	5951
747.354	4290
747.466	5141
747.577	5187
747.689	5078
747.801	4652
747.913	5022
748.024	4788
748.136	4230
748.248	4712
748.359	4524
748.471	4522
748.583	4844
748.694	5248
748.806	6736
748.918	5466
749.029	5378
749.141	5023
749.252	5236
749.364	5151
749.475	7174
749.587	5481
749.698	5010
749.809	4978
749.921	4097
750.032	4906
750.144	4291
750.255	4273
750.366	4492
750.478	5330
750.589	5953
750.700	4268
750.811	5681
750.923	5644
751.034	7499
751.145	8058
751.256	5655
751.367	4194
751.479	4899
751.590	3781
751.701	4903
751.812	4297
751.923	5412
752.034	4165
752.145	6126
752.256	5146
752.367	4939
752.478	5118
752.589	6008
752.700	4858
752.811	5401
752.922	4757
753.032	5285
753.143	5116
753.254	4220
753.365	4861
753.476	5276
753.586	4655
753.697	5116
753.808	4747
753.919	4524
754.029	4962
754.140	5878
754.251	5020
754.361	5202
754.472	5612
754.582	4982
754.693	4892
754.804	6073
754.914	4618
755.025	5451
755.135	5531
755.246	5524
755.356	5085
755.466	5676
755.577	5209
755.687	5858
755.798	5308
755.908	5075
756.018	4967
756.129	5594
756.239	5329
756.349	6776
756.460	5068
756.570	5644
756.680	5080
756.790	5673
756.900	5956
757.011	5791
757.121	5622
757.231	6098
757.341	6122
757.451	6780
757.561	5302
757.671	6243
757.781	5286
757.891	6628
758.001	5681
758.111	6894
758.221	6708
758.331	6841
758.441	6493
758.551	7523
758.661	6730
758.771	7828
758.880	7462
758.990	7516
759.100	6770
759.210	8002
759.320	7486
759.429	7614
759.539	7777
759.649	7401
759.758	7747
759.868	7935
759.978	7808
760.087	8090
760.197	8188
760.307	8859
760.416	8278
760.526	8715
760.635	8774
760.745	9083
760.854	8479
760.964	10146
761.073	9509
761.182	10120
761.292	9857
761.401	11129
761.511	10170
761.620	10631
761.729	11018
761.839	11261
761.948	12111
762.057	12440
762.166	11545
762.276	11545
762.385	13321
762.494	11968
762.603	12717
762.712	13388
762.822	14038
762.931	14954
763.040	14603
763.149	15976
763.258	16232
763.367	17629
763.476	17442
763.585	19494
763.694	19655
763.803	21187
763.912	21902
764.021	22881
764.130	23617
764.238	25544
764.347	28192
764.456	30103
764.565	32646
764.674	34733
764.783	37083
764.891	43464
765.000	49198
765.109	54758
765.217	61328
765.326	72356
765.435	85617
765.543	103003
765.652	127372
765.761	164741
765.869	215966
765.978	297929
766.086	415612
766.195	588950
766.303	758566
766.412	664353
766.520	617292
766.629	668291
766.737	535039
766.846	386551
766.954	280362
767.062	209954
767.171	163492
767.279	126835
767.387	102451
767.496	86048
767.604	75448
767.712	65681
767.820	58515
767.928	54152
768.037	49450
768.145	46277
768.253	44103
768.361	43548
768.469	42945
768.577	44231
768.685	45387
768.793	48350
768.901	52228
769.009	61772
769.117	73708
769.225	94588
769.333	128287
769.441	188760
769.549	295815
769.657	487668
769.765	692841
769.873	591569
769.981	586621
770.088	442073
770.196	282801
770.304	191065
770.412	136435
770.519	103357
770.627	82313
770.735	67663
770.842	57452
770.950	50625
771.058	42617
771.165	39934
771.273	32799
771.380	31872
771.488	29856
771.595	27395
771.703	24491
771.810	23693
771.918	20531
772.025	21034
772.133	18217
772.240	18347
772.348	17289
772.455	17423
772.562	16088
772.670	15321
772.777	15196
772.884	14909
772.991	13614
773.099	12861
773.206	12617
773.313	12911
773.420	11068
773.528	11605
773.635	11008
773.742	12578
773.849	9938
773.956	10799
774.063	9419
774.170	9768
774.277	9696
774.384	9972
774.491	8370
774.598	10293
774.705	8311
774.812	9447
774.919	8813
775.026	10189
775.133	8937
775.239	9276
775.346	7957
775.453	7870
775.560	8042
775.667	8756
775.773	7427
775.880	9369
775.987	7711
776.093	7655
776.200	7407
776.307	6850
776.413	6155
776.520	7089
776.627	6937
776.733	6418
776.840	5270
776.946	8286
777.053	7413
777.159	10098
777.266	6162
777.372	8609
777.478	8410
777.585	7038
777.691	5108
777.798	5318
777.904	5658
778.010	8758
778.117	6397
778.223	6068
778.329	5643
778.435	5559
778.542	5416
778.648	5246
778.754	5438
778.860	5349
778.966	5307
779.072	5100
779.178	5865
779.284	5714
779.391	5293
779.497	5791
779.603	9224
779.708	12275
779.815	31328
779.920	108503
780.026	181729
780.132	34553
780.238	9650
780.344	7143
780.450	6331
780.556	4885
780.661	4359
780.767	5519
780.873	4264
780.979	5182
781.085	3987
781.190	4716
781.296	4281
781.402	4107
781.507	3588
781.613	4766
781.719	2707
781.824	4503
781.930	4380
782.035	3615
782.141	4147
782.246	4086
782.352	3426
782.457	3894
782.563	3635
782.668	3713
782.773	3356
782.879	3698
782.984	3454
783.090	4709
783.195	4515
783.300	4036
783.405	3888
783.511	3991
783.616	3545
783.721	3753
783.826	2890
783.932	3592
784.037	2824
784.142	3724
784.247	3110
784.352	3769
784.457	2658
784.562	2871
784.667	3137
784.772	3570
784.877	1465
784.982	4010
785.087	2802
785.192	3744
785.297	3073
785.402	3186
785.507	3601
785.611	3665
785.716	2769
785.821	3145
785.926	3283
786.031	2726
786.135	3129
786.240	3218
786.345	2605
786.450	3807
786.554	2044
786.659	1880
786.763	908
786.868	3722
786.973	3378
787.077	1995
787.182	1850
787.286	3440
787.391	2778
787.495	1858
787.600	2053
787.704	2573
787.809	2261
787.913	2815
788.017	2395
788.122	2539
788.226	2118
788.330	2424
788.435	2050
788.539	2918
788.643	1657
788.747	2273
788.852	2538
788.956	2280
789.060	3051
789.164	3143
789.268	2330
789.372	2626
789.476	1838
789.580	1915
789.684	1541
789.788	3297
789.892	1107
789.996	3534
790.100	1517
790.204	2529
790.308	1768
790.412	1861
790.516	2957
790.620	2212
790.724	2041
790.828	2669
790.931	1753
791.035	3604
791.139	2324
791.242	2336
791.346	3354
791.450	1728
791.554	2130
791.657	1430
791.761	2343
791.864	3290
791.968	1601
792.072	3460
792.175	1364
792.279	1312
792.382	2624
792.486	3147
792.589	2230
792.693	3009
792.796	1298
792.899	2825
793.003	2318
793.106	1189
793.209	1305
793.313	3774
793.416	75
793.519	2976
793.623	3396
793.726	3659
793.829	2206
793.932	2825
794.035	95
794.138	4065
794.242	3481
794.345	4446
794.448	7104
794.551	17816
794.654	60964
794.757	116084
794.860	21424
794.963	5076
795.066	1615
795.169	3770
795.272	1371
795.375	2320
795.477	1612
795.580	3509
795.683	1068
795.786	1760
795.889	380
795.991	2961
796.094	2236
796.197	956
796.300	2624
796.402	1488
796.505	938
796.608	1898
796.710	1417
796.813	1360
796.915	886
797.018	1959
797.120	1638
797.223	871
797.326	2401
797.428	1901
797.530	1483
797.633	1628
797.735	2202
797.838	1333
797.940	3006
798.042	1445
798.145	1359
798.247	2084
798.349	144
798.452	2065
798.554	1425
798.656	1197
798.758	2254
798.860	1985
798.962	931
799.065	989
799.167	188
799.269	2647
799.371	1794
799.473	2664
799.575	898
799.677	2152
799.779	3426
799.881	1120
799.983	2501
800.085	1253
800.187	1304
800.289	940
800.390	728
800.492	1991
800.594	1981
800.696	743
800.798	1283
800.899	524
801.001	813
801.103	1601
801.205	506
801.306	1602
801.408	1075
801.509	1235
801.611	1179
801.713	1291
801.814	565
801.916	945
802.017	1150
802.119	-111
802.220	1605
802.322	-456
802.423	2364
802.525	366
802.626	329
802.727	1428
802.829	699
802.930	-592
803.031	2098
803.133	1416
803.234	548
803.335	1279
803.436	322
803.538	1824
803.639	94
803.740	1996
803.841	629
803.942	881
804.043	1292
804.144	-57
804.245	767
804.346	719
804.447	892
804.548	743
804.649	1819
804.750	972
804.851	81
804.952	891
805.053	765
805.154	-132
805.255	1060
805.355	840
805.456	514
805.557	1414
805.658	434
805.758	2591
805.859	1539
805.960	1583
806.061	-625
806.161	838
806.262	1002
806.362	517
806.463	660
806.564	1610
806.664	749
806.765	1085
806.865	782
806.966	1987
807.066	34
807.166	1633
807.267	1469
807.367	1722
807.468	1217
807.568	-218
807.668	1316
807.769	1803
807.869	660
807.969	1334
808.069	471
808.170	826
808.270	524
808.370	1048
808.470	1093
808.570	297
808.670	944
808.770	1333
808.870	34
808.970	738
809.070	196
809.170	731
809.271	419
809.370	1150
809.470	938
809.570	951
809.670	424
809.770	966
809.870	1078
809.970	649
810.070	372
810.169	853
810.269	-90
810.369	991
810.469	580
810.568	486
810.668	209
810.768	614
810.867	934
810.967	-65
811.066	-71
811.166	305
811.265	1491
811.365	122
811.464	187
811.564	1965
811.663	483
811.763	-63
811.862	1336
811.962	1817
812.061	439
812.160	528
812.260	1124
812.359	2222
812.458	1045
812.557	5298
812.657	7211
812.756	3123
812.855	1084
812.954	857
813.053	1036
813.153	373
813.252	361
813.351	972
813.450	140
813.549	986
813.648	1574
813.747	657
813.846	1573
813.945	985
814.044	693
814.143	1523
814.242	1526
814.341	923
814.439	2087
814.538	1690
814.637	1501
814.736	1487
814.835	1773
814.933	793
815.032	744
815.131	1273
815.229	1513
815.328	2226
815.427	882
815.525	1735
815.624	1927
815.722	1428
815.821	972
815.919	1798
816.018	1197
816.116	2996
816.215	1598
816.313	1909
816.412	1825
816.510	2471
816.609	4278
816.707	3623
816.805	2522
816.904	1913
817.002	3479
817.100	4393
817.198	3949
817.296	3533
817.395	4550
817.493	6971
817.591	6565
817.689	9207
817.787	11937
817.885	20821
817.983	35339
818.081	74410
818.179	162835
818.277	340253
818.375	271858
818.473	101365
818.571	44293
818.669	28814
818.767	23539
818.865	24695
818.963	28197
819.061	40918
819.158	67604
819.256	133198
819.354	276882
819.452	450955
819.549	301955
819.647	134245
819.745	61078
819.842	37218
819.940	25492
820.038	18675
820.135	13768
820.233	12532
820.330	8874
820.428	6995
820.525	6760
820.623	6087
820.720	5240
820.818	5093
820.915	4614
821.012	3907
821.110	2937
821.207	3798
821.304	2551
821.402	3628
821.499	4322
821.596	4120
821.693	2851
821.791	3934
821.888	2319
821.985	4230
822.082	2157
822.179	3812
822.276	1518
822.373	1995
822.470	1309
822.567	2106
822.664	304
822.761	3612
822.858	-59
822.955	1802
823.052	1561
823.149	1118
823.246	-382
823.343	881
823.440	1140
823.536	1062
823.633	854
823.730	1066
823.827	455
823.923	1011
824.020	1805
824.117	1296
824.213	147
824.310	1716
824.407	904
824.503	1387
824.600	2005
824.696	513
824.793	1949
824.889	530
824.986	161
825.082	1211
825.179	849
825.275	964
825.371	140
825.468	1349
825.564	-244
825.660	1617
825.757	899
825.853	1913
825.949	379
826.045	2050
826.142	-239
826.238	1552
826.334	1298
826.430	-260
826.526	744
826.622	627
826.718	721
826.814	-2
826.910	1060
827.006	634
827.102	-488
827.198	791
827.294	245
827.390	450
827.486	617
827.582	-129
827.678	178
827.774	1310
827.869	102
827.965	1614
828.061	-62
828.157	348
828.252	-254
828.348	-738
828.444	854
828.539	-376
828.635	362
828.731	1564
828.826	-743
828.922	985
829.017	-461
829.113	1190
829.208	-302
829.304	202
829.399	1201
829.495	-215
829.590	406
829.685	153
829.781	-108
829.876	562
829.971	593
830.066	5
830.162	-372
830.257	185
830.352	-6
830.447	1837
830.543	62
830.638	-271
830.733	868
830.828	-285
830.923	139
831.018	42
831.113	-191
831.208	-852
831.303	-353
831.398	518
831.493	23
831.588	1626
831.683	-174
831.778	511
831.873	-81
831.967	1133
832.062	152
832.157	110
832.252	1690
832.346	715
832.441	213
832.536	474
832.631	2143
832.725	2314
832.820	-743
832.914	202
833.009	-590
833.104	387
833.198	-76
833.293	556
833.387	775
833.482	926
833.576	-51
833.670	968
833.765	-10
833.859	113
833.954	695
834.048	210
834.142	427
834.237	-480
834.331	-263
834.425	192
834.519	-1093
834.613	1285
834.708	-530
834.802	960
834.896	-451
834.990	332
835.084	-338
835.178	103
835.272	-20
835.366	859
835.460	296
835.554	-73
835.648	-83
835.742	-106
835.836	520
835.930	-581
836.024	611
836.117	1585
836.211	458
836.305	1610
836.399	1383
836.493	-224
836.586	537
836.680	-45
836.774	-434
836.867	958
836.961	104
837.055	-565
837.148	-626
837.242	525
837.335	-754
837.429	860
837.522	-563
837.616	686
837.709	1060
837.803	527
837.896	205
837.989	1177
838.083	1417
838.176	1342
838.269	321
838.363	970
838.456	-64
838.549	1205
838.642	-69
838.735	3125
838.829	1466
838.922	-312
839.015	215
839.108	-726
839.201	-56
839.294	-540
839.387	-235
839.480	-697
839.573	108
839.666	453
839.759	118
839.852	-173
839.945	239
840.038	-650
840.131	-398
840.223	-116
840.316	160
840.409	-586
840.502	-1040
840.594	1045
840.687	-1175
840.780	354
840.873	-1053
840.965	-634
841.058	98
841.150	1231
841.243	-590
841.336	242
841.428	1
841.521	-54
841.613	-214
841.706	-9
841.798	13
841.890	-586
841.983	-462
842.075	365
842.167	-227
842.260	86
842.352	740
842.444	555
842.537	1134
842.629	2564
842.721	-297
842.813	-133
842.905	-1368
842.997	322
843.090	-36
843.182	1205
843.274	-554
843.366	3833
843.458	6842
843.550	4501
843.642	-746
843.734	1321
843.826	573
843.918	497
844.009	201
844.101	55
844.193	-571
844.285	311
844.377	125
844.469	1723
844.560	-12
844.652	55
844.744	552
844.835	242
844.927	340
845.019	-594
845.110	-877
845.202	352
845.293	-438
845.385	-26
845.476	-37
845.568	336
845.659	-713
845.751	496
845.842	-752
845.934	-94
846.025	-206
846.116	223
846.208	-340
846.299	-239
846.390	46
846.482	207
846.573	569
846.664	535
846.755	237
846.846	473
846.937	-1051
847.029	-265
847.120	-967
847.211	-511
847.302	386
847.393	-1172
847.484	-281
847.575	343
847.666	-981
847.757	-414
847.847	-638
847.938	1382
848.029	-454
848.120	-410
848.211	354
848.302	-234
848.392	-1199
848.483	56
848.574	-1212
848.664	-142
848.755	-262
848.846	15
848.936	-462
849.027	95
849.118	-788
849.208	-57
849.299	525
849.389	600
849.480	1344
849.570	1804
849.661	5621
849.751	8412
849.841	1875
849.932	34
850.022	-840
850.112	875
850.203	-1302
850.293	147
850.383	-749
850.474	-619
850.564	-1348
850.654	54
850.744	-730
850.834	-296
850.924	-1044
851.014	460
851.104	-1075
851.194	24
851.284	-484
851.374	391
851.464	-813
851.554	766
851.644	-983
851.734	353
851.824	999
851.914	1434
852.004	3878
852.094	4127
852.183	88
852.273	520
852.363	-690
852.452	-944
852.542	-811
852.632	-514
852.721	-749
852.811	-937
852.901	-320
852.990	347
853.080	-21
853.169	-245
853.259	-460
853.348	-619
853.438	-265
853.527	697
853.617	-6
853.706	2521
853.795	3123
853.885	11272
853.974	20383
854.063	39037
854.152	56944
854.242	18697
854.331	2297
854.420	159
854.509	-527
854.598	147
854.687	-333
854.777	479
854.866	-744
854.955	253
855.044	-962
855.133	-382
855.222	-269
855.311	207
855.400	-240
855.488	-148
855.577	-671
855.666	285
855.755	302
855.844	233
855.933	-324
856.021	1017
856.110	-238
856.199	-359
856.288	-792
856.376	578
856.465	-1312
856.554	-273
856.642	-1382
856.731	-459
856.819	-195
856.908	-729
856.996	-915
857.085	-533
857.173	-1044
857.262	-470
857.350	-1218
857.438	-960
857.527	-252
857.615	-1208
857.703	-834
857.792	-359
857.880	-673
857.968	-346
858.056	-295
858.145	-748
858.233	-651
858.321	-511
858.409	-499
858.497	-834
858.585	-1184
858.673	46
858.761	-1552
858.849	-630
858.937	-852
859.025	-125
859.113	-475
859.201	-644
859.289	-543
859.377	-959
859.465	-384
859.552	163
859.640	-1026
859.728	-790
859.816	-1231
859.903	43
859.991	-90
860.079	48
860.166	-729
860.254	-759
860.342	-217
860.429	-682
860.517	-965
860.604	126
860.692	-550
860.779	-1211
860.867	-594
860.954	-936
861.042	-975
861.129	117
861.216	-866
861.304	-119
861.391	-1088
861.478	-81
861.565	-489
861.653	143
861.740	-1398
861.827	-584
861.914	-778
862.001	-932
862.089	-976
862.176	-150
862.263	-585
862.350	-500
862.437	-1426
862.524	-356
862.611	-1366
862.698	-863
862.785	-118
862.871	-421
862.958	-824
863.045	-950
863.132	-998
863.219	81
863.306	-1729
863.392	-60
863.479	-924
863.566	-438
863.652	-1421
863.739	-576
863.826	-781
863.912	-517
863.999	-1656
864.086	-443
864.172	-1021
864.259	-1109
864.345	-1062
864.432	-66
864.518	-1166
864.604	-80
864.691	-726
864.777	14
864.863	-497
864.950	-663
865.036	-887
865.122	1270
865.209	11
865.295	339
865.381	87
865.467	212
865.553	-79
865.639	653
865.726	1693
865.812	4249
865.898	9442
865.984	14203
866.070	28044
866.156	28478
866.242	5857
866.328	1188
866.414	-253
866.499	885
866.585	-750
866.671	353
866.757	67
866.843	-74
866.928	-643
867.014	-40
867.100	376
867.186	-23
867.271	-179
867.357	1592
867.442	566
867.528	-251
867.614	-949
867.699	-143
867.785	63
867.870	857
867.956	-13
868.041	77
868.127	-50
868.212	659
868.297	-5
868.383	585
868.468	208
868.553	1533
868.639	1218
868.724	3091
868.809	2620
868.894	458
868.979	-558
869.065	-499
869.150	-1551
869.235	-729
869.320	-145
869.405	-1041
869.490	-959
869.575	-862
869.660	-432
869.745	551
869.830	-680
869.915	-805
870.000	-1329
870.085	-41
870.169	-724
870.254	-22
870.339	-813
870.424	-593
870.509	13
870.593	72
870.678	-177
870.763	-201
870.847	-717
870.932	-206
871.016	-1247
871.101	-702
871.186	-754
871.270	879
871.355	-1658
871.439	-58
871.523	-387
871.608	-207
871.692	-692
871.777	-90
871.861	-860
871.945	-294
872.030	-79
872.114	-874
872.198	-898
872.282	-414
872.367	-1011
872.451	-642
872.535	-972
872.619	369
872.703	-1085
872.787	-256
872.871	-604
872.955	-192
873.039	-1636
873.123	-853
873.207	-744
873.291	-433
873.375	-1098
873.459	-564
873.543	-1232
873.627	-424
873.711	-737
873.794	331
873.878	-1317
873.962	-151
874.045	-696
874.129	-778
874.137	-808
874.213	-1112
874.245	-948
874.296	-683
874.352	-1476
874.380	-1863
874.460	-655
874.464	-608
874.547	-1496
874.568	-1170
874.631	-191
874.676	-682
874.714	-1099
874.784	-943
874.798	-910
874.881	466
874.892	270
874.965	-1106
874.999	-817
875.048	-398
875.107	-988
875.131	-1251
875.215	-885
875.215	-884
875.298	-648
875.323	-638
875.381	-665
875.430	-532
875.465	-393
875.538	-33
875.548	-1
875.631	-569
875.646	-579
875.714	-553
875.753	-631
875.798	-750
875.861	-456
875.881	-343
875.964	13
875.968	-38
876.047	-969
876.076	-864
876.130	-719
876.183	-857
876.213	-905
876.291	-380
876.296	-345
876.379	-1109
876.398	-940
876.462	-361
876.506	-481
876.545	-613
876.613	-641
876.628	-657
876.711	-1182
876.721	-1026
876.794	388
876.828	302
876.877	12
876.935	-472
876.960	-634
877.043	-98
877.043	-99
877.125	-181
877.150	-89
877.208	139
877.258	368
877.291	465
877.365	-602
877.374	-717
877.456	305
877.472	210
877.539	-170
877.579	134
877.622	420
877.687	-129
877.704	-268
877.787	332
877.794	274
877.869	-278
877.901	-72
877.952	121
878.008	47
878.034	106
878.115	-81
878.117	-88
878.199	-566
878.222	-437
878.282	41
878.329	339
878.364	500
878.437	36
878.447	-22
878.529	-557
878.544	-483
878.611	-207
878.651	-427
878.694	-467
878.758	264
878.776	389
878.858	-712
878.865	-649
878.941	209
878.972	-142
879.023	-679
879.078	-670
879.105	-587
879.185	72
879.187	76
879.269	364
879.292	13
879.351	-589
879.399	-544
879.433	-526
879.506	-38
879.516	26
879.598	-216
879.613	-240
879.680	-470
879.720	-609
879.762	-571
879.827	160
879.844	287
879.926	-16
879.933	-56
880.007	-290
880.040	-237
880.089	-214
880.147	-299
880.171	-187
880.253	1120
880.254	1119
880.335	694
880.360	955
880.417	2273
880.467	2674
880.499	2994
880.574	4089
880.580	3993
880.662	1034
880.680	558
880.744	-420
880.787	-742
880.825	-500
880.893	256
880.907	240
880.989	-988
881.000	-1000
881.070	42
881.106	331
881.152	84
881.213	180
881.233	358
881.315	122
881.319	148
881.396	347
881.426	223
881.478	75
881.532	285
881.559	456
881.639	57
881.641	47
881.722	433
881.745	404
881.803	496
881.852	468
881.885	328
881.958	-54
881.966	-119
882.047	167
882.064	30
882.129	148
882.171	478
882.210	753
882.277	1354
882.291	1426
882.372	993
882.383	945
882.454	232
882.489	56
882.535	195
882.596	1
882.616	-72
882.697	243
882.702	237
882.778	332
882.808	283
882.859	-45
882.914	-23
882.940	41
883.020	-111
883.021	-108
883.102	265
883.127	177
883.183	228
883.233	613
883.264	592
883.339	303
883.345	291
883.426	-254
883.445	-279
883.507	-148
883.551	-185
883.587	-186
883.657	145
883.668	219
883.749	205
883.763	280
883.830	526
883.869	445
883.910	301
883.975	355
883.991	391
884.072	162
884.081	194
884.152	268
884.187	-15
884.233	-81
884.292	237
884.314	270
884.394	190
884.398	190
884.475	300
884.504	225
884.555	214
884.610	291
884.636	194
884.716	-218
884.716	-211
884.797	381
884.821	473
884.877	620
884.927	662
884.958	497
885.033	352
885.038	365
885.118	273
885.139	288
885.199	351
885.244	362
885.279	326
885.350	139
885.359	174
885.439	689
885.456	705
885.520	662
885.561	797
885.600	720
885.667	476
885.680	484
885.760	479
885.773	474
885.840	511
885.878	524
885.920	583
885.984	601
886.000	403
886.080	-364
886.089	-481
886.160	453
886.195	984
886.240	849
886.300	553
886.320	430
886.400	241
886.406	203
886.480	172
886.511	210
886.560	504
886.616	671
886.640	663
886.720	834
886.722	827
886.800	629
886.827	679
886.879	811
886.932	753
886.959	715
887.038	516
887.039	521
887.119	500
887.143	552
887.198	1162
887.248	1489
887.278	1130
887.354	309
887.358	339
887.437	1039
887.459	1133
887.517	687
887.564	478
887.596	865
887.669	1589
887.676	1526
887.755	695
887.774	467
887.835	544
887.880	625
887.914	799
887.985	1136
887.994	1143
888.073	1176
888.090	1164
888.153	1015
888.195	923
888.232	913
888.300	881
888.311	872
888.391	716
888.405	706
888.470	594
888.510	373
888.549	380
888.615	638
888.628	670
888.708	691
888.720	696
888.787	1063
888.825	1236
888.866	819
888.930	224
888.945	296
889.024	634
889.035	676
889.103	1270
889.140	1570
889.182	1321
889.245	990
889.261	1028
889.340	1122
889.349	1134
889.419	766
889.454	559
889.498	946
889.559	1497
889.577	1450
889.656	1206
889.664	1180
889.735	1146
889.768	1119
889.814	1131
889.873	1141
889.978	1302
890.083	734
890.187	1575
890.292	1149
890.397	453
890.501	1346
890.606	1355
890.710	1659
890.815	1768
890.919	865
891.024	1068
891.128	718
891.233	1661
891.337	1307
891.442	1131
891.546	1515
891.650	931
891.755	1392
891.859	2269
891.963	1628
892.068	1052
892.172	1408
892.276	765
892.380	227
892.484	1057
892.589	931
892.693	380
892.797	371
892.901	489
893.005	890
893.109	1063
893.213	314
893.317	868
893.421	1306
893.525	1099
893.629	341
893.733	1242
893.837	530
893.941	1001
894.045	1015
894.148	1605
894.252	3971
894.356	2809
894.460	911
894.564	1870
894.667	741
894.771	720
894.875	350
894.978	818
895.082	-152
895.186	1179
895.289	638
895.393	275
895.496	327
895.600	567
895.703	471
895.807	342
895.910	919
896.014	633
896.117	1005
896.221	795
896.324	1639
896.427	796
896.531	-384
896.634	1369
896.737	268
896.840	258
896.944	462
897.047	834
897.150	198
897.253	-160
897.356	964
897.460	1384
897.563	712
897.666	1176
897.769	266
897.872	746
897.975	-60
898.078	1102
898.181	218
898.284	715
898.387	267
898.490	795
898.593	678
898.695	338
898.798	357
898.901	837
899.004	498
899.107	719
899.209	689
899.312	597
899.415	1112
899.518	1469
899.620	876
899.723	283
899.826	1536
899.928	2577
900.031	278
900.133	1147
900.236	182
900.338	-525
900.441	112
900.543	1372
900.646	551
900.748	272
900.851	1151
900.953	234
901.055	760
901.158	882
901.260	264
901.362	857
901.465	414
901.567	278
901.669	173
901.771	-191
901.873	929
901.976	1134
902.078	161
902.180	672
902.282	577
902.384	550
902.486	693
902.588	734
902.690	431
902.792	393
902.894	626
902.996	219
903.098	959
903.200	1008
903.302	-26
903.404	516
903.505	-632
903.607	816
903.709	760
903.811	277
903.913	510
904.014	1032
904.116	-391
904.218	934
904.319	232
904.421	628
904.523	333
904.624	270
904.726	331
904.827	-150
904.929	1051
905.030	-193
905.132	598
905.233	465
905.335	-532
905.436	461
905.537	181
905.639	1302
905.740	504
905.841	1213
905.943	578
906.044	476
906.145	554
906.247	949
906.348	186
906.449	785
906.550	566
906.651	888
906.752	609
906.854	731
906.955	679
907.056	-350
907.157	373
907.258	175
907.359	216
907.460	337
907.561	113
907.662	22
907.762	4
907.863	-241
907.964	51
908.065	227
908.166	-94
908.267	705
908.367	-271
908.468	318
908.569	648
908.670	522
908.770	379
908.871	1603
908.971	554
909.072	6
909.173	105
909.273	-36
909.374	-286
909.474	-649
909.575	330
909.675	-287
909.776	982
909.876	307
909.977	387
910.077	881
910.177	171
910.278	-60
910.378	267
910.478	797
910.579	-130
910.679	767
910.779	149
910.879	264
910.980	-349
911.080	150
911.180	-390
911.280	-122
911.380	-392
911.480	261
911.580	-208
911.680	719
911.780	138
911.880	470
911.980	365
912.080	114
912.180	-310
912.280	1008
912.380	-570
912.480	816
912.580	312
912.679	-313
912.779	-62
912.879	925
912.979	422
913.078	1085
913.178	-232
913.278	-462
913.377	300
913.477	80
913.577	192
913.676	288
913.776	-226
913.875	1020
913.975	391
914.074	17
914.174	-528
914.273	-291
914.373	1078
914.472	86
914.572	-430
914.671	173
914.770	328
914.870	398
914.969	292
915.068	-126
915.167	-9
915.267	290
915.366	-333
915.465	29
915.564	-339
915.663	325
915.763	150
915.862	651
915.961	266
916.060	-713
916.159	191
916.258	-344
916.357	88
916.456	673
916.555	317
916.654	295
916.752	-367
916.851	766
916.950	674
917.049	335
917.148	-787
917.247	915
917.345	-35
917.444	307
917.543	291
917.642	117
917.740	543
917.839	-23
917.937	15
918.036	151
918.135	643
918.233	-398
918.332	-174
918.430	-285
918.529	533
918.627	-431
918.726	219
918.824	708
918.923	236
919.021	196
919.119	75
919.218	-675
919.316	7
919.414	-372
919.512	166
919.611	205
919.709	-94
919.807	-251
919.905	674
920.003	275
920.102	922
920.200	387
920.298	-6
920.396	-26
920.494	387
920.592	-21
920.690	43
920.788	90
920.886	-96
920.984	592
921.082	-625
921.180	548
921.277	-141
921.375	288
921.473	-211
921.571	708
921.669	1103
921.766	-115
921.864	-132
921.962	134
922.060	561
922.157	956
922.255	285
922.352	1264
922.450	933
922.548	685
922.645	874
922.743	432
922.840	1397
922.938	1480
923.035	1181
923.133	684
923.230	81
923.327	1657
923.425	1607
923.522	1146
923.619	887
923.717	1388
923.814	409
923.911	1129
924.008	1314
924.106	1160
924.203	1404
924.300	1015
924.397	499
924.494	1962
924.591	1367
924.688	901
924.786	1278
924.883	2236
924.979	476
925.077	1307
925.173	1525
925.270	1186
925.367	579
925.464	1193
925.561	1567
925.658	1682
925.755	1154
925.852	2278
925.948	979
926.045	1793
926.142	882
926.239	1078
926.335	1015
926.432	1114
926.529	1437
926.625	1873
926.722	576
926.818	1061
926.915	1616
927.011	1030
927.108	645
927.204	1762
927.301	1271
927.397	1183
927.494	818
927.590	345
927.687	207
927.783	1086
927.879	645
927.976	548
928.072	749
928.168	492
928.264	-196
928.361	168
928.457	414
928.553	1363
928.649	483
928.745	2047
928.841	-74
928.937	821
929.033	1091
929.129	737
929.225	714
929.321	789
929.417	-19
929.513	1063
929.609	688
929.705	703
929.801	752
929.897	-119
929.993	666
930.089	682
930.184	549
930.280	1508
930.376	862
930.471	210
930.567	-348
930.663	1058
930.758	-161
930.854	318
930.950	65
931.045	439
931.141	282
931.236	1272
931.332	1069
931.427	413
931.523	738
931.618	1554
931.714	83
931.809	553
931.905	249
932.000	-484
932.095	207
932.191	201
932.286	524
932.381	393
932.476	138
932.572	884
932.667	410
932.762	1289
932.857	-251
932.952	287
933.047	187
933.142	361
933.237	204
933.332	514
933.427	850
933.522	-270
933.617	26
933.712	782
933.807	264
933.902	382
933.997	231
934.092	-126
934.187	-352
934.282	313
934.376	-110
934.471	211
934.566	373
934.661	829
934.755	529
934.850	-38
934.945	845
935.039	614
935.134	246
935.228	425
935.323	777
935.417	-396
935.512	-49
935.606	-55
935.701	656
935.795	529
935.890	218
935.984	337
936.079	-253
936.173	731
936.267	-138
936.362	67
936.456	752
936.550	536
936.644	-118
936.738	488
936.833	784
936.927	758
937.021	4
937.115	154
937.209	-404
937.303	925
937.397	1
937.491	-515
937.585	310
937.679	-255
937.773	-206
937.867	393
937.961	317
938.055	130
938.149	234
938.243	-682
938.337	-465
938.430	-539
938.524	833
938.618	1059
938.712	985
938.805	445
938.899	394
938.993	515
939.086	-272
939.180	841
939.274	968
939.367	30
939.461	207
939.554	68
939.648	-173
939.741	-115
939.835	401
939.928	448
940.022	510
940.115	395
940.208	479
940.302	700
940.395	533
940.488	-440
940.582	721
940.675	-1
940.768	-256
940.861	-269
940.954	605
941.048	41
941.141	-141
941.234	-40
941.327	737
941.420	1269
941.513	350
941.606	-407
941.699	145
941.792	-215
941.885	-671
941.978	658
942.071	73
942.164	-651
942.257	371
942.349	275
942.442	356
942.535	258
942.628	369
942.721	-757
942.813	-1104
942.906	413
942.999	-360
943.091	-504
943.184	420
943.277	-510
943.369	-630
943.462	-11
943.554	-430
943.647	405
943.739	600
943.832	-286
943.924	-762
944.017	-568
944.109	-528
944.201	195
944.294	137
944.386	649
944.478	-517
944.571	138
944.663	-910
944.755	-614
944.847	328
944.940	283
945.032	-287
945.124	23
945.216	133
945.308	-435
945.400	-244
945.492	132
945.584	-90
945.676	-436
945.768	-481
945.860	-113
945.952	-185
946.044	425
946.136	-800
946.228	478
946.320	-1009
946.412	90
946.503	-886
946.595	954
946.687	67
946.779	-536
946.870	-382
946.962	-472
947.054	-293
947.145	558
947.237	120
947.329	-597
947.420	-275
947.512	-224
947.603	-523
947.695	-187
947.786	-167
947.878	-386
947.969	-253
948.061	-511
948.152	67
948.243	248
948.335	-460
948.426	-227
948.517	-130
948.609	-140
948.700	-153
948.791	-507
948.882	-50
948.973	-438
949.065	-971
949.156	-29
949.247	-1112
949.338	357
949.429	-11
949.520	-155
949.611	-1186
949.702	275
949.793	221
949.884	354
949.975	-192
950.066	-1011
950.157	-59
950.247	-316
950.338	-567
950.429	-719
950.520	598
950.611	-479
950.701	-322
950.792	316
950.883	312
950.973	-30
951.064	82
951.155	-702
951.245	-152
951.336	7
951.427	-916
951.517	1132
951.608	-151
951.698	-317
951.788	108
951.879	-771
951.969	-941
952.060	-87
952.150	-251
952.240	147
952.331	-870
952.421	1119
952.511	-596
952.602	31
952.692	-635
952.782	567
952.872	-335
952.962	-31
953.052	268
953.143	-525
953.233	320
953.323	606
953.413	-318
953.503	-411
953.593	-124
953.683	-78
953.773	-382
953.863	-221
953.953	-376
954.042	452
954.132	-52
954.222	163
954.312	65
954.402	-315
954.492	619
954.581	502
954.671	-376
954.761	-552
954.850	92
954.940	39
955.030	489
955.119	-1093
955.209	125
955.298	-459
955.388	799
955.477	790
955.567	-1324
955.656	1263
955.746	-237
955.835	536
955.925	-384
956.014	-41
956.103	-339
956.193	174
956.282	-245
956.371	-494
956.461	-862
956.550	-468
956.639	-649
956.728	-24
956.817	246
956.906	8
956.995	-71
957.085	112
957.174	816
957.263	207
957.352	-596
957.441	204
957.530	-33
957.619	193
957.708	-745
957.796	125
957.885	-419
957.974	369
958.063	-267
958.152	-813
958.241	474
958.329	98
958.418	168
958.507	-268
958.596	741
958.684	125
958.773	1236
958.861	396
958.950	-105
959.039	2009
959.127	1006
959.216	921
959.304	554
959.393	665
959.481	684
959.570	1866
959.658	-317
959.746	955
959.835	666
959.923	1081
960.011	-94
960.100	983
960.188	439
960.276	-206
960.365	747
960.453	701
960.541	-669
960.629	204
960.717	-42
960.805	-778
960.893	-584
960.981	-80
961.069	830
961.158	-73
961.245	309
961.333	314
961.421	-397
961.509	259
961.597	-290
961.685	-216
961.773	228
961.861	599
961.949	469
962.036	-428
962.124	404
962.212	-289
962.299	-556
962.387	29
962.475	-173
962.562	-766
962.650	-633
962.738	558
962.825	-510
962.913	-857
963.000	-810
963.088	42
963.175	-121
963.263	-209
963.350	-1536
963.438	165
963.525	42
963.612	912
963.700	2261
963.787	4846
963.874	1133
963.962	-253
964.049	431
964.136	55
964.223	-824
964.310	-196
964.398	-1178
964.485	-375
964.572	-516
964.659	898
964.746	858
964.833	-67
964.920	-742
965.007	-675
965.094	34
965.181	8
965.268	-814
965.355	-425
965.441	-605
965.528	-381
965.615	-164
965.702	47
965.789	-775
965.875	27
965.962	-189
966.049	-811
966.136	-669
966.222	-1088
966.309	-671
966.395	-316
966.482	-320
966.569	47
966.655	81
966.742	-242
966.828	-734
966.915	-498
967.001	267
967.087	-315
967.174	-737
967.260	-340
967.347	493
967.433	1194
967.519	2189
967.605	611
967.692	-344
967.778	-304
967.864	-710
967.950	-399
968.036	-758
968.123	-214
968.209	-666
968.295	-1086
968.381	106
968.467	-63
968.553	-1789
968.639	305
968.725	-1199
968.811	432
968.897	-613
968.983	-118
969.069	-1263
969.154	454
969.240	430
969.326	-578
969.412	-877
969.497	-631
969.583	-308
969.669	178
969.755	11
969.840	-1654
969.926	-546
970.012	-723
970.097	365
970.183	-537
970.268	-716
970.354	774
970.439	183
970.525	2260
970.610	-1264
970.696	54
970.781	-220
970.866	-1154
970.952	-279
971.037	-1010
971.122	-132
971.208	-348
971.293	-1313
971.378	-1046
971.463	-1368
971.549	-922
971.634	-976
971.719	-317
971.804	-1494
971.889	5
971.974	-1339
972.059	-194
972.144	-967
972.229	-600
972.314	-702
972.399	-269
972.484	-246
972.569	284
972.654	158
972.739	1671
972.824	-51
972.908	-929
972.993	-1546
973.078	-726
973.163	-947
973.247	-185
973.332	-1876
973.417	352
973.501	-660
973.586	-1018
973.671	120
973.755	-860
973.840	-724
973.924	-359
974.009	-498
974.093	-588
974.178	198
974.262	135
974.346	-540
974.431	-419
974.515	-1209
974.600	-800
974.684	-1077
974.768	-594
974.852	21
974.937	-1866
975.021	-700
975.105	-918
975.189	-1316
975.273	-144
975.358	-11
975.442	-2023
975.526	80
975.610	-1639
975.694	-1208
975.778	324
975.862	-924
975.946	-2075
976.030	-187
976.114	-520
976.198	-346
976.281	-220
976.365	-220
976.449	-1183
976.533	-980
976.617	-1270
976.700	-569
976.784	-656
976.868	-284
976.951	-144
977.035	-1026
977.119	-99
977.202	-1005
977.286	-298
977.369	-1502
977.453	-943
977.536	-973
977.620	-703
977.703	3
977.787	-1180
977.870	95
977.953	333
978.037	-727
978.120	190
978.203	-698
978.287	74
978.370	-736
978.453	-1137
978.536	-640
978.620	-197
978.703	-518
978.786	-1106
978.869	-1194
978.952	-2110
979.035	389
979.118	-789
979.201	-2177
979.284	-293
979.367	-1647
979.450	-110
979.533	-1470
979.616	-906
979.699	-1250
979.782	-449
979.865	-1121
979.948	-1604
980.030	-1095
980.113	-1000
980.196	-2212
980.279	-522
980.361	-822
980.444	-1476
980.526	-707
980.609	-1109
980.692	-1505
980.774	-803
980.857	-2467
980.939	-218
981.022	-1985
981.104	-1929
981.187	-1728
981.269	-52
981.352	-1575
981.434	-2346
981.516	-2352
981.599	402
981.681	87
981.763	-969
981.846	-922
981.928	-1092
982.010	-1586
982.092	-1370
982.174	-368
982.256	-1263
982.339	-1533
982.421	-830
982.503	-1405
982.585	-1757
982.667	-1112
982.749	-890
982.831	-1538
982.913	-1451
982.995	-384
983.077	-1676
983.158	-416
983.240	-1045
983.322	-1246
983.404	-762
983.486	-1655
983.568	-464
983.649	-1130
983.731	-544
983.813	-1013
983.894	7
983.976	-1568
984.058	-456
984.139	-343
984.221	-2011
984.302	-818
984.384	-823
984.465	-1030
984.547	-950
984.628	-1473
984.710	-538
984.791	-708
984.872	-1221
984.954	-2137
985.035	-1062
985.116	-1812
985.198	-1137
985.279	-372
985.360	-1477
985.441	-1038
985.522	-784
985.604	-1751
985.685	-2830
985.766	-850
985.847	126
985.928	-2178
986.009	-790
986.090	-1802
986.171	-209
986.252	-1379
986.333	-395
986.414	-1024
986.495	-703
986.576	-1162
986.656	-777
986.737	-613
986.818	-1551
986.899	-1341
986.980	-1259
987.060	-1208
987.141	-1310
987.222	-777
987.302	-1341
987.383	-546
987.464	-1723
987.544	42
987.625	-1132
987.705	-924
987.786	-511
987.866	-1376
987.947	-816
988.027	-601
988.108	-1192
988.188	-1595
988.268	-857
988.349	35
988.429	-158
988.509	-552
988.589	-1050
988.670	-2396
988.750	955
988.830	-1141
988.910	-768
988.990	-928
989.070	-1066
989.151	-2020
989.231	-1919
989.311	-1349
989.391	-317
989.471	-1767
989.551	-1398
989.631	-2098
989.711	75
989.791	-1734
989.870	-1465
989.950	-945
990.030	-1891
990.110	-1725
990.190	-1488
990.269	-2031
990.349	-912
990.429	-1698
990.509	326
990.588	-1631
990.668	-525
990.747	-1061
990.827	-614
990.907	-808
990.986	-1276
991.066	-1163
991.145	-966
991.225	-428
991.304	-1774
991.383	-1141
991.463	-717
991.542	-790
991.622	-1502
991.701	-1584
991.780	-1516
991.859	-1796
991.939	-1510
992.018	-1882
992.097	-720
992.176	-1098
992.256	-1204
992.335	-1763
992.414	-498
992.493	-1849
992.572	-1046
992.651	-41
992.730	-634
992.809	-1137
992.888	-1939
992.967	-1924
993.046	-452
993.125	-1665
993.203	-1874
993.282	-820
993.361	-1316
993.440	-2093
993.519	-1973
993.597	-1148
993.676	-1275
993.755	-932
993.834	-2155
993.912	-2584
993.991	-687
994.069	-1895
994.148	-1461
994.226	-1777
994.305	-916
994.384	-1285
994.462	-330
994.540	-1953
994.619	-1513
994.697	-800
994.776	-1834
994.854	-988
994.932	-1649
995.011	-1220
995.089	-2146
995.167	-1067
995.245	-1596
995.324	-1880
995.402	-221
995.480	-1819
995.558	-370
995.636	-2039
995.714	-1492
995.792	-484
995.870	-1906
995.948	-1518
996.026	-708
996.104	-2112
996.182	-1466
996.260	-2347
996.338	-1209
996.416	-1562
996.494	-2144
996.572	-233
996.649	-1668
996.727	-1502
996.805	-1331
996.883	-1424
996.960	-1831
997.038	-1664
997.116	-1433
997.193	-2145
997.271	-1933
997.348	-1574
997.426	-1494
997.504	-1348
997.581	-486
997.658	-956
997.736	-1573
997.813	-1848
997.891	-349
997.968	-1561
998.046	-1486
998.123	-1806
998.200	-786
998.277	-2076
998.355	-1033
998.432	-3178
998.509	-1213
998.586	-1462
998.663	-1204
998.741	-695
998.818	-1210
998.895	-1426
998.972	-1330
999.049	-1453
999.126	-1502
999.203	-1505
999.280	-1561
999.357	-2490
999.434	-1630
999.511	-1780
999.587	-1122
999.664	-2372
999.741	-1255
999.818	-1049
999.895	-1564
999.971	-2000
1000.048	-1476
1000.125	-1204
1000.202	-2348
1000.278	-2119
1000.355	-973
1000.431	-1998
1000.508	-1859
1000.584	-1738
1000.661	-1840
1000.738	-2975
1000.814	-2483
1000.890	-961
1000.967	-1107
1001.043	-1418
1001.120	-2358
1001.196	-1417
1001.272	-2241
1001.349	-2264
1001.425	-620
1001.501	-1615
1001.577	-2087
1001.654	-953
1001.730	-1468
1001.806	-1410
1001.882	-2639
1001.958	-1503
1002.034	-814
1002.110	-1914
1002.186	-2313
1002.262	-2753
1002.338	-1519
1002.414	-1910
1002.490	-372
1002.566	-1319
1002.642	-1911
1002.718	-1195
1002.794	-1880
1002.870	-1926
1002.945	-1628
1003.021	-1686
1003.097	-854
1003.173	-968
1003.248	-2334
1003.324	-2507
1003.400	-1680
1003.475	-1661
1003.551	-1675
1003.626	-2025
1003.702	-1925
1003.777	-2209
1003.853	-1485
1003.928	-2083
1004.004	-1906
1004.079	-1753
1004.155	-1194
1004.230	-2066
1004.305	-1326
1004.381	-2859
1004.456	-1988
1004.531	-2273
1004.607	-1184
1004.682	-1320
1004.757	-2473
1004.832	-1944
1004.907	-1855
1004.982	-2595
1005.057	-1483
1005.133	-1845
1005.208	-1351
1005.283	-2287
1005.358	-1649
1005.433	-2092
1005.508	-1275
1005.583	-2776
1005.657	-1792
1005.732	-2100
1005.807	-1906
1005.882	-2428
1005.957	-1990
1006.032	-1673
1006.106	-2403
1006.181	-2469
1006.256	-1702
1006.331	-2140
1006.405	-2167
1006.480	-1530
1006.554	-1716
1006.629	-2024
1006.704	-1592
1006.778	-2128
1006.853	-1855
1006.927	-2222
1007.002	-2127
1007.076	-1507
1007.150	-1165
1007.225	-2613
1007.299	-2027
1007.373	-2685
1007.448	-1941
1007.522	-1368
1007.596	-1285
1007.671	-2581
1007.745	-2092
1007.819	-3307
1007.893	-1454
1007.967	-2435
1008.041	-2853
1008.115	-526
1008.190	-2515
1008.264	-2873
1008.338	-2793
1008.412	-2086
1008.486	-1614
1008.560	-2664
1008.633	-2580
1008.707	-2110
1008.781	-2264
1008.855	-2644
1008.929	-2057
1009.003	-2310
1009.076	-1873
1009.150	-2269
1009.224	-2451
1009.298	-1966
1009.371	-1867
1009.445	-1820
1009.519	-2022
1009.592	-1871
1009.666	-1667
1009.739	-1678
1009.813	-2609
1009.886	-1278
1009.960	-2344
1010.033	-1985
1010.107	-1214
1010.180	-2905
1010.253	-2093
1010.327	-2796
1010.400	-2309
1010.473	-2302
1010.547	-1544
1010.620	-2230
1010.693	-1692
1010.766	-2742
1010.840	-1756
1010.913	-2357
1010.986	-2047
1011.059	-2539
1011.132	-2157
1011.205	-942
1011.278	-2112
1011.351	-2770
1011.424	-2195
1011.497	-2389
1011.570	-2469
1011.643	-2304
1011.716	-2275
1011.789	-2259
1011.862	-1143
1011.934	-2470
1012.007	-2867
1012.080	-2557
1012.153	-2647
1012.225	-1727
1012.298	-3193
1012.371	-3084
1012.443	-1509
1012.516	-2593
1012.588	-1088
1012.661	-1901
1012.733	-1711
1012.806	-1349
1012.879	-2058
1012.951	-2121
1013.023	-1876
1013.096	-1711
1013.168	-2108
1013.241	-1877
1013.313	-2047
1013.385	-2286
1013.458	-2334
1013.530	-1229
1013.602	-2045
1013.674	-2636
1013.746	-2848
1013.819	-2616
1013.891	-1501
1013.963	-3019
1014.035	-2233
1014.107	-2144
1014.179	-2165
1014.251	-2892
1014.323	-1561
1014.395	-2695
1014.467	-1114
1014.539	-2194
1014.611	-2856
1014.683	-2957
1014.754	-1990
1014.826	-3179
1014.898	-1713
1014.970	-2720
1015.042	-1168
1015.113	-1600
1015.185	-1342
1015.257	-3308
1015.328	-2270
1015.400	-2725
1015.471	-1818
1015.543	-3603
1015.615	-1592
1015.686	-2505
1015.757	-1873
1015.829	-2239
1015.901	-2452
1015.972	-2526
1016.043	-2515
1016.115	-1819
1016.186	-1526
1016.257	-2763
1016.328	-1617
1016.400	-1269
1016.471	-2935
1016.542	-2734
1016.613	-1910
1016.685	-2545
1016.756	-1943
1016.827	-2022
1016.898	-2691
1016.969	-1775
1017.040	-2165
1017.111	-2505
1017.182	-2880
1017.253	-2167
1017.324	-2609
1017.395	-2517
1017.466	-1680
1017.537	-2493
1017.608	-2385
1017.678	-2101
1017.749	-2575
1017.820	-2172
1017.891	-2237
1017.961	-2303
1018.032	-1881
1018.103	-1581
1018.173	-2216
1018.244	-2672
1018.315	-2170
1018.385	-1794
1018.456	-2365
1018.526	-2696
1018.597	-2474
1018.667	-2146
1018.738	-1836
1018.808	-2540
1018.878	-2353
1018.949	-3139
1019.019	-1668
1019.089	-2026
1019.160	-2603
1019.230	-3481
1019.300	-2247
1019.371	-2839
1019.441	-1575
1019.511	-2268
1019.581	-1504
1019.651	-2348
1019.721	-1788
1019.791	-2367
1019.861	-2056
1019.931	-2766
1020.001	-2606
1020.071	-2336
1020.141	-2477
1020.211	-2585
1020.281	-1285
1020.351	-2928
1020.421	-1568
1020.491	-1613
1020.560	-2761
1020.630	-3007
1020.700	-2525
1020.770	-2959
1020.839	-2052
1020.909	-2438
1020.979	-2867
1021.048	-2945
1021.118	-3072
1021.187	-2387
1021.257	-1727
1021.326	-2021
1021.396	-3419
1021.465	-2328
1021.535	-2294
1021.604	-3260
1021.674	-1756
1021.743	-2007
1021.812	-1982
1021.882	-2451
1021.951	-2298
1022.020	-2324
1022.089	-1780
1022.159	-3067
1022.228	-2321
1022.297	-1868
1022.366	-2818
1022.435	-2151
1022.504	-2269
1022.573	-3217
1022.642	-1995
1022.711	-2774
1022.781	-2003
1022.849	-2919
1022.918	-2809
1022.987	-2513
1023.056	-2150
1023.125	-2461
1023.194	-2731
1023.263	-2179
1023.331	-2311
1023.400	-1957
1023.469	-2724
1023.538	-1776
1023.606	-1732
1023.675	-3027
1023.744	-2382
1023.812	-3068
1023.881	-1948
1023.949	-2102
1024.018	-2798
1024.086	-2991
1024.155	-2881
1024.223	-2541
1024.292	-2431
1024.360	-2350
1024.429	-2350
1024.497	-2148
1024.565	-1648
1024.634	-3150
1024.702	-2575
1024.770	-2301
1024.838	-3105
1024.907	-2830
1024.975	-2410
1025.043	-2525
1025.111	-2670
1025.179	-2749
1025.247	-2847
1025.315	-2322
1025.383	-2288
1025.451	-2040
1025.519	-2305
1025.587	-2815
1025.655	-1998
1025.723	-3125
1025.791	-1745
1025.859	-2409
1025.927	-2002
1025.995	-2867
1026.062	-2101
1026.130	-2312
1026.198	-2612
1026.266	-2977
1026.333	-2434
1026.401	-2237
1026.469	-2374
1026.536	-2554
1026.604	-2045
1026.671	-2969
1026.739	-2515
1026.806	-2556
1026.874	-1982
1026.941	-3143
1027.009	-2232
1027.076	-3463
1027.144	-1463
1027.211	-1994
1027.278	-3765
1027.345	-2475
1027.413	-1862
1027.480	-2700
1027.547	-2747
1027.614	-2722
1027.682	-1488
1027.749	-2234
1027.816	-2273
1027.883	-2889
1027.950	-1660
1028.017	-2632
1028.084	-1859
1028.151	-3369
1028.218	-2458
1028.285	-2715
1028.352	-3072
1028.419	-2750
1028.486	-2209
1028.553	-2179
1028.619	-2061
1028.686	-2076
1028.753	-2849
1028.820	-2552
1028.886	-3453
1028.953	-2165
1029.020	-2461
1029.086	-2016
1029.153	-3251
1029.220	-1977
1029.286	-1444
1029.353	-2179
1029.419	-2411
1029.486	-2021
1029.552	-1555
1029.619	-2421
1029.685	-2623
1029.751	-2758
1029.818	-2950
1029.884	-3076
1029.951	-1417
1030.017	-2841
1030.083	-1982
1030.149	-2509
1030.216	-2479
1030.282	-1651
1030.348	-2444
1030.414	-2922
1030.480	-2104
1030.546	-3745
1030.612	-2531
1030.678	-2008
1030.744	-2287
1030.810	-2160
1030.876	-2523
1030.942	-3125
1031.008	-2861
1031.074	-2670
1031.140	-1973
1031.206	-2331
1031.272	-2464
1031.337	-2831
1031.403	-2162
1031.469	-3199
1031.534	-2725
1031.600	-2134
1031.666	-1865
1031.731	-2321
1031.797	-2366
1031.863	-2831
1031.928	-2564
1031.994	-3257
1032.059	-2250
1032.125	-2262
1032.190	-2275
1032.256	-3065
1032.321	-2808
1032.386	-2660
1032.452	-1648
1032.517	-3063
1032.582	-2441
1032.647	-2356
1032.713	-2265
1032.778	-1348
1032.843	-2914
1032.908	-3269
1032.974	-2687
1033.039	-2808
1033.104	-1453
1033.169	-2764
1033.234	-2503
1033.299	-2488
1033.364	-1912
1033.429	-2767
1033.494	-2470
1033.559	-2750
1033.624	-2987
1033.688	-2529
1033.753	-2455
1033.818	-2093
1033.883	-2640
1033.948	-3055
1034.013	-2530
1034.077	-2478
1034.142	-1957
1034.207	-2319
1034.271	-2297
1034.336	-1802
1034.400	-2458
1034.465	-2856
1034.530	-2277
1034.594	-2823
1034.658	-2070
1034.723	-3521
1034.787	-2979
1034.852	-2324
1034.916	-3143
1034.981	-2624
1035.045	-1915
1035.109	-3287
1035.173	-2218
1035.238	-2686
1035.302	-2176
1035.366	-2056
1035.430	-2466
1035.495	-2462
1035.559	-1797
1035.623	-2213
1035.687	-3106
1035.751	-2611
1035.815	-2514
1035.879	-1985
1035.943	-2122
1036.007	-3267
1036.071	-1803
1036.135	-2816
1036.198	-1839
1036.262	-2638
1036.326	-2799
1036.390	-2261
1036.454	-2630
1036.517	-2080
1036.581	-2645
1036.645	-1989
1036.709	-1632
1036.772	-2718
1036.836	-1615
1036.900	-3032
1036.963	-2098
1037.026	-2783
1037.090	-2739
1037.154	-2566
1037.217	-2160
1037.280	-2857
1037.344	-2284
1037.407	-3077
1037.471	-2309
1037.534	-2254
1037.597	-2727
1037.661	-3081
1037.724	-2634
1037.787	-2928
1037.850	-2351
1037.913	-3257
1037.977	-2143
1038.040	-2613
1038.103	-2391
1038.166	-2543
1038.229	-2667
1038.292	-1862
1038.355	-3255
1038.418	-2442
1038.481	-1348
1038.544	-2256
1038.607	-2780
1038.670	-3716
1038.732	-2291
1038.795	-3287
1038.858	-2347
1038.921	-2492
1038.984	-2189
1039.046	-2932
1039.109	-2515
1039.172	-2971
1039.234	-2679
1039.297	-2721
1039.360	-2980
1039.422	-1880
1039.485	-2371
1039.547	-3234
1039.610	-2291
1039.672	-3325
1039.734	-2279
1039.797	-3279
1039.859	-2423
1039.922	-3283
1039.984	-3139
1040.046	-2758
1040.109	-2758
1040.171	-3105
1040.233	-2678
1040.295	-3345
1040.358	-3489
1040.420	-2537
1040.482	-2664
1040.544	-2578
1040.606	-2188
1040.668	-2468
1040.730	-2632
1040.792	-3145
1040.854	-2081
1040.916	-2400
1040.978	-2054
1041.040	-2022
1041.102	-2256
1041.164	-2838
1041.225	-3119
1041.287	-2792
1041.349	-2877
1041.411	-2661
1041.472	-2522
1041.534	-3078
1041.596	-3191
1041.657	-2577
1041.719	-2615
1041.781	-2995
1041.842	-2704
1041.904	-2575
1041.965	-2438
1042.027	-2760
1042.088	-2343
1042.150	-2697
1042.211	-2500
1042.272	-2942
1042.334	-2640
1042.395	-2651
1042.456	-3429
1042.518	-2480
1042.579	-3086
1042.640	-3358
1042.701	-3126
1042.763	-2912
1042.824	-2597
1042.885	-3223
1042.946	-2571
1043.007	-3071
1043.068	-2790
1043.129	-2532
1043.190	-2326
1043.251	-1966
1043.312	-2780
1043.373	-2942
1043.434	-2647
1043.495	-2395
1043.556	-1607
1043.616	-2337
1043.677	-3384
1043.738	-2531
1043.799	-2368
1043.859	-2516
1043.920	-2386
1043.981	-2407
1044.041	-2309
1044.102	-2756
1044.162	-2328
1044.223	-2683
1044.284	-2088
1044.344	-2252
1044.405	-2660
1044.465	-3087
1044.525	-3358
1044.586	-2800
1044.646	-2429
1044.707	-1728
1044.767	-2554
1044.827	-2457
1044.887	-2188
1044.948	-2660
1045.008	-2424
1045.068	-3338
1045.128	-1866
1045.188	-3434
1045.249	-2120
1045.309	-2917
1045.369	-1744
1045.429	-2670
1045.489	-2468
1045.549	-2188
1045.609	-2429
1045.669	-2534
1045.729	-3058
1045.789	-2093
1045.848	-2275
1045.908	-2204
1045.968	-2151
1046.028	-2596
1046.088	-1211
1046.147	-2076
1046.207	-2073
1046.267	-2708
1046.326	-1850
1046.386	-2388
1046.446	-1637
1046.505	-2552
1046.565	-1523
1046.624	-1811
1046.684	-2061
1046.743	-1588
1046.803	-1106
1046.862	-982
1046.922	0
