'Start Wavelength	183.907
'End Wavelength	1046.922
'Gate Delay	5.000
'Gate Width (ms)	1.050
'Laser Output Level	0.000
'X Position	0.000
'Y Position	0.000
'Z Position	0.000
'Grid Point Number	1.000
'Shot Number	100.000
183.907	523.000
183.977	179.000
184.047	-255
184.116	435
184.186	52
184.256	612
184.325	-219
184.395	-957
184.465	360
184.534	144
184.604	-95
184.674	1038
184.743	-258
184.813	792
184.883	105
184.952	466
185.022	599
185.092	289
185.161	-698
185.231	-171
185.301	-372
185.370	1406
185.440	-671
185.509	451
185.579	-141
185.649	566
185.718	704
185.788	611
185.857	-333
185.927	527
185.996	-435
186.066	-23
186.136	385
186.205	68
186.275	-733
186.344	189
186.414	386
186.483	-396
186.553	338
186.622	1028
186.692	-569
186.761	-304
186.831	-448
186.900	-696
186.970	715
187.039	247
187.109	1212
187.178	463
187.248	-170
187.317	942
187.387	158
187.456	495
187.526	-383
187.595	420
187.664	317
187.734	603
187.803	985
187.873	352
187.942	891
188.012	977
188.081	-544
188.150	216
188.220	250
188.289	506
188.358	877
188.428	1121
188.497	312
188.567	801
188.636	115
188.705	-316
188.775	160
188.844	-12
188.913	218
188.983	723
189.052	364
189.121	-48
189.191	287
189.260	1228
189.329	450
189.399	317
189.468	5
189.537	-482
189.606	275
189.676	359
189.745	138
189.814	624
189.883	-314
189.953	151
190.022	135
190.091	1906
190.161	1597
190.230	424
190.299	786
190.368	377
190.437	181
190.507	-301
190.576	115
190.645	844
190.714	205
190.783	832
190.853	569
190.922	672
190.991	284
191.060	-16
191.129	15
191.198	1096
191.268	423
191.337	347
191.406	974
191.475	865
191.544	-248
191.613	424
191.682	449
191.752	421
191.821	-489
191.890	730
191.959	50
192.028	707
192.097	395
192.166	29
192.235	297
192.304	959
192.373	248
192.442	573
192.511	-537
192.580	-343
192.650	254
192.719	482
192.788	242
192.857	1058
192.926	5
192.995	426
193.064	1708
193.133	1622
193.202	1065
193.271	1021
193.340	1302
193.409	1449
193.478	1554
193.547	2334
193.615	750
193.684	1661
193.753	1417
193.822	1200
193.891	80
193.960	1416
194.029	939
194.098	1049
194.167	610
194.236	1115
194.305	532
194.374	42
194.443	700
194.512	1210
194.580	893
194.649	283
194.718	926
194.787	961
194.856	-113
194.925	994
194.994	200
195.062	1226
195.131	466
195.200	755
195.269	1734
195.338	610
195.407	696
195.475	-71
195.544	262
195.613	1019
195.682	1239
195.751	1256
195.819	1222
195.888	1368
195.957	1924
196.026	1034
196.094	1570
196.163	1049
196.232	369
196.301	1376
196.369	541
196.438	1374
196.507	1688
196.576	627
196.644	137
196.713	1303
196.782	849
196.850	1180
196.919	588
196.988	539
197.056	245
197.125	787
197.194	1261
197.262	656
197.331	744
197.400	1057
197.468	959
197.537	470
197.606	221
197.674	1283
197.743	1624
197.812	1386
197.880	1423
197.949	1323
198.017	1427
198.086	1710
198.155	662
198.223	1259
198.292	1849
198.360	1775
198.429	898
198.497	1352
198.566	1528
198.635	2455
198.703	1589
198.772	1183
198.840	2580
198.909	2484
198.977	922
199.046	1148
199.114	1047
199.183	484
199.251	1195
199.320	569
199.388	247
199.457	977
199.525	1610
199.594	547
199.662	946
199.731	356
199.799	1348
199.867	295
199.936	1022
200.004	739
200.073	934
200.141	1089
200.210	1118
200.278	741
200.346	1200
200.415	1405
200.483	1216
200.552	1226
200.620	1180
200.688	1174
200.757	852
200.825	910
200.893	740
200.962	1234
201.030	822
201.098	1426
201.167	544
201.235	1868
201.303	396
201.372	1261
201.440	203
201.508	2323
201.577	496
201.645	1167
201.713	856
201.781	1097
201.850	1548
201.918	1133
201.986	858
202.055	1156
202.123	1132
202.191	1640
202.259	809
202.327	686
202.396	1347
202.464	1664
202.532	575
202.600	2146
202.669	1173
202.737	942
202.805	1059
202.873	1765
202.941	1822
203.009	1271
203.078	368
203.146	1412
203.214	1390
203.282	1071
203.350	1074
203.418	1307
203.487	1458
203.555	892
203.623	676
203.691	1552
203.759	678
203.827	828
203.895	1528
203.963	1821
204.031	488
204.099	1371
204.168	632
204.236	1639
204.304	2168
204.372	1508
204.440	1541
204.508	1542
204.576	452
204.644	1620
204.712	182
204.780	1763
204.848	1281
204.916	1147
204.984	926
205.052	1260
205.120	1090
205.188	1914
205.256	299
205.324	1248
205.392	1297
205.460	1349
205.528	1059
205.596	1129
205.664	1576
205.732	1619
205.799	2758
205.867	3874
205.935	537
206.003	1320
206.071	1491
206.139	1379
206.207	1569
206.275	1677
206.343	820
206.411	1541
206.478	1278
206.546	2271
206.614	466
206.682	1956
206.750	694
206.818	1492
206.885	2414
206.953	1234
207.021	1892
207.089	1716
207.157	1416
207.225	1338
207.292	1370
207.360	574
207.428	1209
207.496	1822
207.563	1406
207.631	2152
207.699	1444
207.767	810
207.834	1318
207.902	1976
207.970	1580
208.038	1361
208.105	1506
208.173	2402
208.241	2002
208.309	2444
208.376	1317
208.444	2882
208.512	1427
208.579	1234
208.647	1779
208.715	3334
208.782	2357
208.850	2100
208.918	1108
208.985	1326
209.053	1797
209.120	1965
209.188	1101
209.256	2614
209.323	983
209.391	1664
209.459	2897
209.526	1893
209.594	409
209.661	2072
209.729	1414
209.796	2162
209.864	2452
209.932	1034
209.999	3054
210.067	1543
210.134	1820
210.202	2345
210.269	2268
210.337	3175
210.404	1971
210.472	1665
210.539	1442
210.607	2385
210.674	2276
210.742	2071
210.809	2523
210.877	1653
210.944	2606
211.012	1198
211.079	3482
211.146	1809
211.214	1904
211.281	3297
211.349	2855
211.416	2324
211.484	2721
211.551	2577
211.618	2887
211.686	2279
211.753	1758
211.821	3179
211.888	1911
211.955	2309
212.023	2036
212.090	2812
212.157	2224
212.225	2547
212.292	3587
212.359	5529
212.427	9172
212.494	5601
212.561	2832
212.629	3195
212.696	2301
212.763	2863
212.831	1327
212.898	3248
212.965	1979
213.032	2368
213.100	1764
213.167	3056
213.234	2482
213.301	3106
213.369	2431
213.436	2549
213.503	1202
213.570	2027
213.638	2454
213.705	1631
213.772	1680
213.839	2271
213.906	2686
213.973	2880
214.041	1770
214.108	2767
214.175	2755
214.242	1353
214.309	1899
214.376	3469
214.444	2957
214.511	2453
214.578	2893
214.645	2551
214.712	2405
214.779	2954
214.846	2310
214.913	3401
214.980	2941
215.048	3002
215.115	3024
215.182	3647
215.249	2440
215.316	2421
215.383	2328
215.450	2526
215.517	1620
215.584	2075
215.651	2350
215.718	1693
215.785	2253
215.852	1748
215.919	3119
215.986	3344
216.053	1459
216.120	2446
216.187	3289
216.254	3261
216.321	2652
216.388	2170
216.455	2690
216.522	3024
216.589	3412
216.656	4606
216.722	4763
216.789	3571
216.856	3758
216.923	3692
216.990	3592
217.057	3331
217.124	4357
217.191	3449
217.258	4557
217.324	4208
217.391	4391
217.458	4781
217.525	3840
217.592	3595
217.659	2392
217.725	3564
217.792	2833
217.859	4427
217.926	2096
217.993	3254
218.059	2491
218.126	3260
218.193	1610
218.260	2401
218.327	1601
218.393	1877
218.460	2274
218.527	1267
218.594	2808
218.660	2569
218.727	3511
218.794	1407
218.860	2421
218.927	2238
218.994	1479
219.061	2060
219.127	2552
219.194	3100
219.261	2063
219.327	1487
219.394	1917
219.461	1509
219.527	1515
219.594	2768
219.661	2535
219.727	1018
219.794	2230
219.860	971
219.927	2472
219.994	3438
220.060	4538
220.127	4409
220.193	3919
220.260	3465
220.326	5027
220.393	6429
220.460	7383
220.526	5409
220.593	4317
220.659	6615
220.726	5310
220.792	8899
220.859	8480
220.925	10824
220.992	11713
221.058	10253
221.125	9581
221.191	7987
221.258	4093
221.324	3764
221.391	3053
221.457	2754
221.524	2832
221.590	3583
221.657	7102
221.723	4977
221.789	4803
221.856	5360
221.922	3013
221.989	3738
222.055	2055
222.121	1824
222.188	4688
222.254	3296
222.321	2558
222.387	1906
222.453	1837
222.520	2045
222.586	810
222.652	1442
222.719	1421
222.785	2621
222.851	1753
222.918	1865
222.984	2063
223.050	2628
223.116	935
223.183	2761
223.249	1087
223.315	1366
223.382	1679
223.448	2103
223.514	1118
223.580	1969
223.647	1399
223.713	1231
223.779	1763
223.845	2008
223.911	1802
223.978	851
224.044	1707
224.110	1755
224.176	1989
224.242	1495
224.309	360
224.375	1588
224.441	1939
224.507	1121
224.573	765
224.639	2314
224.705	1540
224.772	1353
224.838	243
224.904	2262
224.970	2325
225.036	1582
225.102	847
225.168	2261
225.234	1893
225.300	2103
225.366	1466
225.432	2022
225.499	1718
225.565	2127
225.631	2069
225.697	1832
225.763	2326
225.829	3461
225.895	3221
225.961	4129
226.027	3652
226.093	3891
226.159	5590
226.225	8168
226.291	12430
226.357	16274
226.423	12399
226.489	8021
226.554	6452
226.620	6536
226.686	7196
226.752	10396
226.818	12664
226.884	17945
226.950	16070
227.016	10661
227.082	6888
227.148	5122
227.214	4534
227.279	4756
227.345	3528
227.411	3677
227.477	3052
227.543	6754
227.609	6084
227.674	5330
227.740	3502
227.806	3546
227.872	2468
227.938	3175
228.003	4011
228.069	3163
228.135	1742
228.201	2518
228.267	2735
228.332	2617
228.398	2151
228.464	2357
228.530	1518
228.595	2194
228.661	1042
228.727	3164
228.792	3883
228.858	2237
228.924	949
228.990	4118
229.055	2040
229.121	3660
229.187	1751
229.252	2372
229.318	1151
229.384	2697
229.449	2816
229.515	619
229.581	1024
229.646	2723
229.712	2601
229.777	4013
229.843	4452
229.909	3642
229.974	3666
230.040	4285
230.105	3470
230.171	2238
230.236	3988
230.302	4969
230.368	4086
230.433	2963
230.499	2588
230.564	4423
230.630	2222
230.695	2446
230.761	3286
230.826	1568
230.892	3719
230.957	2110
231.023	1456
231.088	2927
231.154	2487
231.219	2831
231.284	2974
231.350	4789
231.415	1514
231.481	3011
231.546	2065
231.612	2170
231.677	1276
231.742	951
231.808	3471
231.873	1407
231.939	714
232.004	4357
232.069	3952
232.135	2422
232.200	1956
232.265	2530
232.331	1522
232.396	1950
232.461	975
232.527	1862
232.592	1114
232.657	1627
232.723	2490
232.788	2864
232.853	2432
232.918	2161
232.984	1335
233.049	758
233.114	2130
233.179	2980
233.245	3886
233.310	4841
233.375	1432
233.440	2674
233.506	1512
233.571	1890
233.636	1716
233.701	2316
233.766	3219
233.832	4548
233.897	2506
233.962	1574
234.027	3371
234.092	2348
234.157	1965
234.222	2992
234.288	3688
234.353	9189
234.418	7720
234.483	5754
234.548	5164
234.613	3697
234.678	4231
234.743	3983
234.808	10171
234.873	7174
234.938	4262
235.004	3168
235.069	3661
235.134	2686
235.199	3204
235.264	3040
235.329	2051
235.394	2745
235.459	3984
235.524	2998
235.589	2912
235.654	2001
235.719	1035
235.784	3456
235.849	2711
235.913	5702
235.978	5600
236.043	6815
236.108	3708
236.173	3279
236.238	4001
236.303	3143
236.368	2448
236.433	5059
236.498	7492
236.563	7846
236.627	11589
236.692	25827
236.757	22954
236.822	13079
236.887	9381
236.952	9093
237.017	6462
237.081	8525
237.146	9748
237.211	18952
237.276	26739
237.341	30945
237.405	23585
237.470	13728
237.535	9399
237.600	6771
237.664	5857
237.729	3943
237.794	5300
237.859	12758
237.923	8892
237.988	5660
238.053	6203
238.118	6253
238.182	11391
238.247	11682
238.312	4939
238.376	5111
238.441	3234
238.506	5424
238.570	2262
238.635	3970
238.700	2951
238.764	2923
238.829	5878
238.893	7489
238.958	4443
239.023	3744
239.087	3362
239.152	4170
239.216	2352
239.281	3641
239.346	3410
239.410	3426
239.475	3018
239.539	11469
239.604	9100
239.668	5171
239.733	3841
239.797	4614
239.862	10543
239.926	12145
239.991	6234
240.055	3852
240.120	3314
240.184	3939
240.249	2717
240.313	3028
240.378	2569
240.442	7242
240.507	11612
240.571	5281
240.635	5017
240.700	7899
240.764	3695
240.829	3298
240.893	1314
240.957	3525
241.022	7717
241.086	11395
241.151	5929
241.215	2430
241.279	3433
241.344	6650
241.408	4307
241.472	3827
241.537	5062
241.601	4241
241.665	2666
241.730	3062
241.794	4181
241.858	3679
241.922	3877
241.987	4448
242.051	3028
242.115	2423
242.179	3349
242.244	3513
242.308	3380
242.372	4482
242.436	3968
242.501	5025
242.565	2181
242.629	2905
242.693	3833
242.757	1853
242.822	2830
242.886	4786
242.950	3673
243.014	2476
243.078	4464
243.142	4286
243.206	4009
243.271	4447
243.335	4314
243.399	6489
243.463	14960
243.527	35614
243.591	13768
243.655	6849
243.719	4042
243.783	5333
243.847	7366
243.911	9843
243.975	10654
244.040	7705
244.104	5845
244.168	4558
244.232	5634
244.296	8215
244.360	8371
244.424	5058
244.488	4391
244.552	4849
244.615	1526
244.679	3777
244.743	3729
244.807	4136
244.871	2940
244.935	4078
244.999	1726
245.063	4029
245.127	4787
245.191	6911
245.255	5852
245.319	5839
245.383	3338
245.446	5259
245.510	2407
245.574	4388
245.638	4046
245.702	3256
245.766	8694
245.829	6402
245.893	3553
245.957	5012
246.021	5365
246.085	4448
246.149	5199
246.212	11104
246.276	15006
246.340	8569
246.404	6933
246.467	7023
246.531	7210
246.595	6855
246.659	6006
246.722	5416
246.786	6770
246.850	6791
246.913	7645
246.977	3982
247.041	3502
247.104	5153
247.168	4407
247.232	10604
247.295	18480
247.359	11208
247.423	5456
247.486	9645
247.550	7016
247.614	5301
247.677	7707
247.741	4796
247.804	3992
247.868	6265
247.932	9484
247.995	19400
248.059	7908
248.122	4494
248.186	7364
248.249	11785
248.313	27382
248.376	30432
248.440	20150
248.503	8760
248.567	9620
248.630	10822
248.694	14812
248.757	19411
248.821	30733
248.884	22503
248.948	18757
249.011	26997
249.075	32999
249.138	30728
249.202	15338
249.265	10388
249.328	11629
249.392	9334
249.455	8788
249.519	6622
249.582	7921
249.645	12225
249.709	10223
249.772	7766
249.835	7150
249.899	7566
249.962	7127
250.025	5740
250.089	13909
250.152	18623
250.215	10402
250.279	7891
250.342	8071
250.405	8598
250.468	7005
250.532	10273
250.595	13530
250.658	33747
250.721	51986
250.785	25136
250.848	14535
250.911	9001
250.974	8764
251.038	10709
251.101	20098
251.164	12633
251.227	13348
251.290	13023
251.354	16660
251.417	48288
251.480	49244
251.543	39366
251.606	75343
251.669	63084
251.732	31841
251.795	30306
251.859	29155
251.922	53268
251.985	36885
252.048	17404
252.111	13678
252.174	12726
252.237	20885
252.300	37513
252.363	41249
252.426	65882
252.489	34164
252.552	19601
252.615	13892
252.678	14719
252.741	28800
252.804	37858
252.867	68040
252.930	48492
252.993	27112
253.056	18584
253.119	13868
253.182	10381
253.245	16082
253.308	14589
253.371	12984
253.434	12591
253.497	11549
253.559	20255
253.622	15064
253.685	19495
253.748	20620
253.811	10411
253.874	12456
253.937	11936
254.000	9717
254.062	14541
254.125	20682
254.188	20386
254.251	17882
254.314	9116
254.376	16119
254.439	18086
254.502	15537
254.565	15291
254.628	25691
254.690	17897
254.753	9226
254.816	8197
254.878	9205
254.941	14559
255.004	15806
255.067	8258
255.129	7906
255.192	5121
255.255	3986
255.317	6014
255.380	4671
255.443	3411
255.505	2873
255.568	3337
255.631	3210
255.693	5032
255.756	2918
255.819	4426
255.881	2652
255.944	3310
256.006	2846
256.069	4326
256.132	3424
256.194	5186
256.257	10425
256.319	8885
256.382	8254
256.444	6751
256.507	4748
256.569	4193
256.632	4919
256.694	9676
256.757	20733
256.819	46855
256.882	25256
256.944	12608
257.007	9732
257.069	9335
257.132	6622
257.194	6746
257.257	6565
257.319	6750
257.381	8475
257.444	18362
257.506	50711
257.569	60938
257.631	36056
257.693	18449
257.756	11053
257.818	7912
257.880	5758
257.943	5895
258.005	4875
258.067	5926
258.130	5591
258.192	6958
258.254	10917
258.317	7533
258.379	5200
258.441	11813
258.503	11441
258.566	13242
258.628	16995
258.690	5750
258.753	5928
258.815	12141
258.877	7150
258.939	5183
259.001	4809
259.064	4428
259.126	5042
259.188	8010
259.250	6712
259.312	6500
259.375	13842
259.437	10352
259.499	5261
259.561	6135
259.623	6020
259.685	5614
259.747	4477
259.809	13076
259.872	22057
259.934	32072
259.996	30791
260.058	11095
260.120	4885
260.182	5420
260.244	3691
260.306	3967
260.368	5461
260.430	4332
260.492	9108
260.554	16005
260.616	10339
260.678	17822
260.740	22277
260.802	7798
260.864	6698
260.926	5541
260.988	5677
261.050	6133
261.112	12721
261.174	27456
261.236	19558
261.298	7609
261.359	10208
261.421	15656
261.483	5740
261.545	5839
261.607	2647
261.669	4542
261.731	7310
261.793	16809
261.854	8298
261.916	7184
261.978	4860
262.040	5844
262.102	5319
262.164	7103
262.225	6111
262.287	4384
262.349	10856
262.411	9163
262.472	4649
262.534	7277
262.596	14330
262.658	6506
262.719	3449
262.781	5736
262.843	13462
262.904	8265
262.966	7012
263.028	6762
263.090	24218
263.151	62666
263.213	22253
263.275	14532
263.336	6596
263.398	4920
263.459	3318
263.521	4325
263.583	10504
263.644	7479
263.706	3410
263.767	2496
263.829	3302
263.891	2399
263.952	2134
264.014	2485
264.075	4391
264.137	14720
264.198	7499
264.260	3634
264.321	3605
264.383	8036
264.444	21424
264.506	7614
264.567	4768
264.629	7944
264.690	16283
264.752	7675
264.813	5025
264.875	3513
264.936	4301
264.998	4037
265.059	3414
265.120	4434
265.182	6662
265.243	29245
265.305	33405
265.366	10353
265.427	5819
265.489	4888
265.550	2621
265.611	4739
265.673	3982
265.734	4161
265.795	3563
265.857	4135
265.918	5219
265.979	10222
266.040	42130
266.102	42937
266.163	15778
266.224	11054
266.286	5951
266.347	4478
266.408	4246
266.469	5283
266.530	4108
266.592	3643
266.653	7076
266.714	11851
266.775	4901
266.836	3601
266.898	2573
266.959	6084
267.020	4323
267.081	3152
267.142	2123
267.203	2937
267.264	2393
267.326	4725
267.387	2160
267.448	2824
267.509	2999
267.570	3368
267.631	2261
267.692	2332
267.753	3515
267.814	1888
267.875	5849
267.936	13315
267.997	8726
268.058	8095
268.119	4915
268.180	4733
268.241	3473
268.302	3615
268.363	2553
268.424	3621
268.485	3734
268.546	2166
268.607	2520
268.668	2820
268.729	2290
268.790	3443
268.851	3513
268.912	8552
268.972	11326
269.033	6149
269.094	3114
269.155	3717
269.216	3006
269.277	4036
269.338	2825
269.398	3658
269.459	3801
269.520	5997
269.581	6787
269.642	9312
269.702	6545
269.763	5384
269.824	4350
269.885	5051
269.945	7756
270.006	4626
270.067	2609
270.128	2631
270.188	2594
270.249	3242
270.310	2278
270.370	2910
270.431	2367
270.492	2941
270.553	3290
270.613	7752
270.674	13809
270.734	6474
270.795	3770
270.856	6132
270.916	4550
270.977	3803
271.038	5295
271.098	4417
271.159	7607
271.219	7374
271.280	2727
271.340	2980
271.401	3823
271.462	8553
271.522	6149
271.583	4691
271.643	4038
271.704	4718
271.764	4724
271.825	12067
271.885	31175
271.946	39537
272.006	16333
272.066	19104
272.127	30797
272.187	11623
272.248	7401
272.308	7005
272.369	20134
272.429	12511
272.489	9883
272.550	11025
272.610	11179
272.671	9581
272.731	6818
272.791	10632
272.852	8030
272.912	7010
272.972	3460
273.033	4311
273.093	5934
273.153	7541
273.214	4580
273.274	5083
273.334	16015
273.394	31803
273.455	14217
273.515	13008
273.575	27944
273.635	12234
273.696	14406
273.756	28210
273.816	12927
273.876	7007
273.936	13713
273.997	23390
274.057	6908
274.117	6725
274.177	9708
274.237	36424
274.297	30293
274.358	21683
274.418	23147
274.478	19465
274.538	7848
274.598	6513
274.658	18543
274.718	24675
274.778	9699
274.838	6299
274.898	11166
274.958	31323
275.018	30177
275.078	19966
275.138	9668
275.198	5563
275.258	4780
275.318	6223
275.378	11202
275.438	13412
275.498	8105
275.558	14852
275.618	30369
275.678	21369
275.738	15356
275.798	12586
275.858	6834
275.918	3852
275.978	6367
276.038	6277
276.098	4467
276.157	8934
276.217	23236
276.277	12202
276.337	8985
276.397	5034
276.457	6158
276.517	4868
276.576	3697
276.636	3879
276.696	7274
276.756	14616
276.815	11303
276.875	5626
276.935	5554
276.995	6926
277.055	3859
277.114	4217
277.174	5610
277.234	16680
277.293	8732
277.353	6015
277.413	3588
277.472	4785
277.532	4346
277.592	5391
277.651	10624
277.711	19674
277.771	7413
277.830	25593
277.890	22482
277.950	13905
278.009	34457
278.069	14841
278.128	14167
278.188	20622
278.248	10575
278.307	19677
278.367	13724
278.426	5839
278.486	4015
278.545	3745
278.605	3698
278.664	2955
278.724	3761
278.783	10993
278.843	28412
278.902	9663
278.962	6276
279.021	6466
279.081	6111
279.140	6889
279.199	7361
279.259	7238
279.318	6841
279.378	8653
279.437	13413
279.496	39883
279.556	90719
279.615	70604
279.675	21091
279.734	14668
279.793	21281
279.853	33449
279.912	15348
279.971	9004
280.031	8919
280.090	15417
280.149	24902
280.208	16422
280.268	61946
280.327	64056
280.386	16643
280.445	16359
280.505	15690
280.564	8233
280.623	6241
280.682	9380
280.742	15822
280.801	6236
280.860	4253
280.919	4073
280.978	3221
281.037	4323
281.097	3210
281.156	4382
281.215	2699
281.274	4463
281.333	17973
281.392	14447
281.451	3967
281.510	3469
281.569	3506
281.628	3256
281.688	2510
281.747	3879
281.806	3395
281.865	3456
281.924	2191
281.983	3038
282.042	1952
282.101	2715
282.160	2894
282.219	2453
282.278	3850
282.337	12088
282.396	8678
282.454	4749
282.513	4945
282.572	18193
282.631	11448
282.690	4236
282.749	2837
282.808	5114
282.867	4466
282.926	4579
282.985	2876
283.043	1917
283.102	2842
283.161	4118
283.220	7473
283.279	19617
283.338	7157
283.396	4002
283.455	3359
283.514	3709
283.573	7020
283.631	6536
283.690	4310
283.749	3699
283.808	8676
283.866	10489
283.925	3012
283.984	3201
284.043	5521
284.101	6030
284.160	3361
284.219	5866
284.277	5171
284.336	7015
284.395	23988
284.453	18714
284.512	6785
284.570	10785
284.629	7022
284.688	7439
284.746	6297
284.805	8124
284.863	10459
284.922	13271
284.981	15454
285.039	21713
285.098	34483
285.156	70015
285.215	100544
285.273	95553
285.332	75359
285.390	44422
285.449	28091
285.507	19577
285.566	13950
285.624	11894
285.683	9641
285.741	8541
285.799	6815
285.858	7197
285.916	6909
285.975	4880
286.033	4625
286.091	4906
286.150	3013
286.208	4014
286.267	4573
286.325	5246
286.383	8049
286.442	7199
286.500	4320
286.558	2514
286.616	2651
286.675	4726
286.733	4439
286.791	4240
286.850	4665
286.908	6063
286.966	11239
287.024	5097
287.083	2942
287.141	3152
287.199	3655
287.257	6117
287.315	4909
287.374	5531
287.432	11490
287.490	8733
287.548	4556
287.606	5077
287.664	3394
287.723	5734
287.781	7915
287.839	5877
287.897	6169
287.955	8834
288.013	11604
288.071	22205
288.129	70914
288.187	160360
288.245	90434
288.303	33346
288.361	18214
288.419	12719
288.477	7797
288.535	7397
288.593	5678
288.651	5822
288.709	4152
288.767	4060
288.825	4014
288.883	3089
288.941	3576
288.999	3316
289.057	2951
289.115	2633
289.173	2504
289.231	3217
289.289	3326
289.346	2788
289.404	3593
289.462	6670
289.520	7208
289.578	4152
289.636	2863
289.694	2423
289.751	2260
289.809	2037
289.867	2586
289.925	5111
289.983	4956
290.040	3668
290.098	1947
290.156	3511
290.214	5141
290.271	2792
290.329	2755
290.387	2439
290.444	2005
290.502	1740
290.560	2236
290.617	2348
290.675	2975
290.733	3302
290.790	2995
290.848	3363
290.906	2290
290.963	3487
291.021	2811
291.078	3170
291.136	3144
291.194	9635
291.251	21420
291.309	6882
291.366	3033
291.424	3233
291.481	2814
291.539	3273
291.596	3015
291.654	1846
291.711	1540
291.769	2819
291.826	7492
291.884	5709
291.941	2016
291.999	2708
292.056	3458
292.114	3610
292.171	2345
292.228	4366
292.286	3637
292.343	7408
292.401	9634
292.458	5790
292.515	3981
292.573	5222
292.630	4927
292.687	4359
292.745	3971
292.802	5392
292.859	11687
292.917	20962
292.974	12790
293.031	4442
293.089	3981
293.146	3141
293.203	2322
293.260	3044
293.318	3584
293.375	6392
293.432	3592
293.489	3590
293.546	3236
293.604	4903
293.661	12187
293.718	31333
293.775	17266
293.832	8496
293.889	6028
293.947	7226
294.004	4886
294.061	6149
294.118	10091
294.175	21755
294.232	25793
294.289	10927
294.346	6282
294.403	7793
294.460	4507
294.517	4661
294.574	4728
294.631	4808
294.688	4481
294.745	11114
294.802	34225
294.859	41817
294.916	17746
294.973	9999
295.030	7778
295.087	6997
295.144	4530
295.201	5334
295.258	4347
295.315	5657
295.372	13856
295.429	25647
295.486	12745
295.542	8352
295.599	16102
295.656	30670
295.713	20281
295.770	25133
295.827	11254
295.883	6181
295.940	5481
295.997	9852
296.054	10350
296.111	6028
296.167	4229
296.224	3656
296.281	3266
296.338	3563
296.394	3182
296.451	4618
296.508	12339
296.564	22111
296.621	15521
296.678	29128
296.734	40873
296.791	18456
296.848	9676
296.904	9545
296.961	21012
297.018	29743
297.074	22029
297.131	10672
297.187	7821
297.244	8762
297.301	25860
297.357	42825
297.414	17402
297.470	8644
297.527	5155
297.583	5172
297.640	4437
297.696	4444
297.753	3055
297.809	4011
297.866	2656
297.922	3477
297.979	2889
298.035	3171
298.092	6413
298.148	16788
298.204	16615
298.261	8739
298.317	13073
298.374	34500
298.430	21441
298.486	11233
298.543	7193
298.599	7970
298.656	8661
298.712	13120
298.768	30955
298.824	23876
298.881	8118
298.937	6121
298.993	5704
299.050	6748
299.106	6155
299.162	5140
299.218	5979
299.275	5451
299.331	5327
299.387	9267
299.443	28965
299.500	33090
299.556	14828
299.612	8661
299.668	7195
299.724	11102
299.780	11708
299.837	6959
299.893	9261
299.949	26897
300.005	32212
300.061	27607
300.117	42773
300.173	21412
300.229	10471
300.285	13564
300.341	16161
300.397	9084
300.453	5624
300.510	5852
300.566	5614
300.622	7004
300.678	18519
300.734	34453
300.790	28294
300.845	31448
300.901	20676
300.957	30914
301.013	23368
301.069	9886
301.125	7016
301.181	8333
301.237	6200
301.293	3798
301.349	3831
301.405	4326
301.461	3787
301.516	6795
301.572	6512
301.628	11045
301.684	9361
301.740	13393
301.796	20077
301.851	14806
301.907	23250
301.963	22405
302.019	29751
302.074	71059
302.130	74374
302.186	38306
302.242	17237
302.297	11488
302.353	10591
302.409	18745
302.464	16825
302.520	13790
302.576	31353
302.631	36592
302.687	23230
302.743	10928
302.798	6403
302.854	5854
302.910	5921
302.965	7541
303.021	12697
303.076	12903
303.132	14914
303.187	20246
303.243	10296
303.299	6311
303.354	5002
303.410	5161
303.465	5109
303.521	4954
303.576	5408
303.632	6632
303.687	9538
303.743	27021
303.798	23921
303.853	11213
303.909	6453
303.964	6595
304.020	9042
304.075	13826
304.130	13048
304.186	23330
304.241	24522
304.297	18836
304.352	11674
304.358	11123
304.407	6658
304.449	6697
304.463	6718
304.518	7540
304.539	7171
304.573	6556
304.629	6173
304.630	6210
304.684	8350
304.720	16702
304.739	20760
304.794	30403
304.811	26183
304.850	16171
304.902	8028
304.905	7511
304.960	6305
304.992	6171
305.015	6102
305.071	7251
305.083	6798
305.126	5040
305.173	4239
305.181	4129
305.236	3547
305.264	3931
305.292	4338
305.347	5290
305.354	5595
305.402	7548
305.445	7817
305.457	7870
305.512	9382
305.535	8962
305.567	8486
305.622	8590
305.626	8786
305.678	14263
305.716	27308
305.733	31573
305.788	33958
305.807	29156
305.843	21696
305.897	27331
305.898	27371
305.953	27683
305.988	19145
306.008	14686
306.063	10227
306.078	9235
306.118	6968
306.168	5576
306.173	5448
306.228	4743
306.259	4062
306.283	3739
306.338	4276
306.349	4441
306.393	4965
306.440	5588
306.448	5737
306.503	6368
306.530	6426
306.558	7662
306.613	15371
306.620	16397
306.668	23161
306.711	31242
306.723	31812
306.778	23944
306.801	18320
306.833	12767
306.888	7163
306.892	6926
306.943	5116
306.982	4608
306.997	4513
307.052	4986
307.072	5095
307.107	5541
307.162	6537
307.163	6561
307.217	9924
307.253	11611
307.272	11608
307.327	11370
307.343	10665
307.381	9918
307.434	9106
307.436	9347
307.491	17338
307.524	26059
307.546	28046
307.600	27089
307.614	24399
307.655	16159
307.704	9538
307.710	9431
307.765	11336
307.795	13774
307.819	15371
307.874	21868
307.885	22055
307.929	20420
307.975	18981
307.984	19862
308.038	27680
308.065	33586
308.093	52312
308.148	102047
308.156	111249
308.202	142886
308.246	157934
308.257	154251
308.312	104436
308.336	81384
308.366	64127
308.421	39602
308.426	37527
308.475	25008
308.517	17943
308.530	16653
308.585	14182
308.607	13392
308.639	13275
308.694	13963
308.697	14096
308.748	21388
308.787	29122
308.803	28898
308.857	22858
308.877	20179
308.912	19430
308.967	20243
308.967	20289
309.021	28892
309.058	35537
309.076	44897
309.130	77704
309.148	90421
309.185	132337
309.238	199752
309.239	200072
309.293	193991
309.328	179783
309.348	162325
309.402	99044
309.418	81400
309.457	59528
309.508	37286
309.511	36604
309.566	30065
309.598	27063
309.620	27016
309.674	29667
309.688	30443
309.729	28960
309.778	25865
309.783	25520
309.837	20974
309.868	18887
309.892	25498
309.946	42656
309.959	47729
310.001	56494
310.049	63001
310.055	60847
310.109	35158
310.139	21096
310.163	16984
310.218	10625
310.229	9552
310.272	8423
310.319	7560
310.326	7415
310.381	6514
310.409	6272
310.435	5997
310.489	5336
310.499	5293
310.543	5826
310.589	5965
310.598	5899
310.652	5884
310.679	5770
310.706	5171
310.760	3967
310.769	3740
310.814	3565
310.859	3766
310.868	3828
310.923	3922
310.948	4055
310.977	4792
311.031	6253
311.038	6457
311.085	5695
311.128	4725
311.139	4816
311.193	5445
311.218	5643
311.247	5054
311.301	3996
311.308	3864
311.356	4661
311.398	5440
311.410	5290
311.464	4478
311.488	4086
311.518	4728
311.572	5955
311.578	6088
311.626	7454
311.668	8644
311.680	8482
311.734	7633
311.758	7227
311.788	6975
311.842	6494
311.847	6444
311.896	10154
311.937	13375
311.950	12833
312.004	10300
312.027	9157
312.058	8022
312.112	6012
312.117	5807
312.165	5651
312.207	5517
312.297	9027
312.386	5647
312.476	7572
312.566	12438
312.656	7010
312.745	4121
312.835	6283
312.925	6353
313.015	5753
313.104	4944
313.194	5525
313.284	4793
313.374	8729
313.463	5424
313.553	4604
313.643	3844
313.732	5174
313.822	3654
313.912	5238
314.001	6195
314.091	7309
314.180	9426
314.270	8238
314.360	8240
314.449	7212
314.539	5325
314.628	5358
314.718	5585
314.808	6954
314.897	5391
314.987	4873
315.076	7941
315.166	8697
315.255	7792
315.345	8246
315.434	6607
315.524	7608
315.613	6999
315.703	10735
315.792	13650
315.881	26111
315.971	10377
316.060	14738
316.150	16946
316.239	17014
316.328	6375
316.418	4921
316.507	5049
316.597	8617
316.686	6701
316.775	10956
316.865	17205
316.954	5757
317.043	4889
317.133	5347
317.222	4117
317.311	4848
317.400	3624
317.490	10089
317.579	7767
317.668	6455
317.757	8052
317.847	19473
317.936	46706
318.025	25373
318.114	13305
318.203	10390
318.293	15683
318.382	27976
318.471	21533
318.560	31229
318.649	48714
318.738	11378
318.828	9800
318.917	9157
319.006	10361
319.095	26213
319.184	65508
319.273	37694
319.362	19997
319.451	7825
319.540	7793
319.629	21206
319.718	25901
319.807	12279
319.896	27267
319.985	79462
320.074	25364
320.163	9147
320.252	11976
320.341	12854
320.430	11091
320.519	16095
320.608	7220
320.697	7706
320.786	8199
320.875	11734
320.964	12603
321.053	21500
321.142	30681
321.230	29210
321.319	24064
321.408	51968
321.497	19007
321.586	21214
321.675	21626
321.764	19947
321.852	15571
321.941	32042
322.030	17431
322.119	25193
322.207	52150
322.296	27415
322.385	16810
322.474	23098
322.562	67252
322.651	27196
322.740	25096
322.829	30677
322.917	26229
323.006	18400
323.095	15833
323.183	11282
323.272	17342
323.361	32332
323.449	66931
323.538	23167
323.626	53850
323.715	25227
323.804	15297
323.892	48849
323.981	23408
324.069	10581
324.158	26102
324.246	19593
324.335	12939
324.424	19761
324.512	7683
324.601	12571
324.689	28426
324.778	44818
324.866	19105
324.954	6851
325.043	7272
325.131	12990
325.220	19150
325.308	20548
325.397	16947
325.485	9828
325.574	4826
325.662	5441
325.750	6220
325.839	5798
325.927	3741
326.015	6815
326.104	8877
326.192	11440
326.280	4500
326.369	5968
326.457	10094
326.545	16729
326.634	5835
326.722	5570
326.810	4932
326.898	5538
326.987	6170
327.075	15584
327.163	12207
327.251	8025
327.340	20709
327.428	23681
327.516	5092
327.604	5585
327.692	4978
327.781	6497
327.869	9144
327.957	6870
328.045	6673
328.133	5294
328.221	5267
328.309	5018
328.397	4750
328.485	7518
328.574	11605
328.662	35157
328.750	14775
328.838	7128
328.926	4880
329.014	5007
329.102	7875
329.190	21308
329.278	11423
329.366	4195
329.454	4055
329.542	5445
329.630	4597
329.718	6132
329.806	7389
329.893	9573
329.981	10088
330.069	19675
330.157	68921
330.245	140444
330.333	70584
330.421	17872
330.509	15913
330.597	44952
330.684	23751
330.772	10818
330.860	11543
330.948	16315
331.036	7353
331.123	4429
331.211	4112
331.299	7119
331.387	15395
331.475	22437
331.562	5964
331.650	5230
331.738	4452
331.825	6519
331.913	3836
332.001	4615
332.089	6260
332.176	11191
332.264	24567
332.352	17272
332.439	7095
332.527	6399
332.614	4617
332.702	5632
332.790	5149
332.877	14045
332.965	19189
333.052	5741
333.140	7203
333.228	11421
333.315	5064
333.403	6536
333.490	14165
333.578	10702
333.665	12277
333.753	8518
333.840	4568
333.928	8662
334.015	15929
334.103	30004
334.190	71798
334.278	17833
334.365	9282
334.452	7791
334.540	5453
334.627	8234
334.715	9984
334.802	21513
334.889	87725
334.977	64619
335.064	11772
335.151	8261
335.239	8069
335.326	11592
335.413	45338
335.501	45777
335.588	8663
335.675	7952
335.762	10622
335.850	15408
335.937	11849
336.024	31077
336.111	89326
336.199	31657
336.286	9574
336.373	6960
336.460	4554
336.547	5797
336.635	7257
336.722	7237
336.809	5411
336.896	9856
336.983	29915
337.070	65137
337.157	73406
337.245	56465
337.332	28805
337.419	6743
337.506	5155
337.593	7819
337.680	25261
337.767	56548
337.854	17081
337.941	19656
338.028	20456
338.115	7589
338.202	10519
338.289	20235
338.376	50037
338.463	17280
338.550	39843
338.637	30368
338.724	13088
338.811	15692
338.898	4918
338.984	5071
339.071	5846
339.158	8749
339.245	20352
339.332	11750
339.419	13526
339.506	10905
339.593	2484
339.679	5222
339.766	4118
339.853	8472
339.940	13276
340.027	4851
340.113	5771
340.200	8998
340.287	5228
340.374	8236
340.460	13256
340.547	6124
340.634	11836
340.720	40652
340.807	18014
340.894	4914
340.980	4802
341.067	4762
341.154	5413
341.240	11881
341.327	19187
341.414	8134
341.500	7770
341.587	5511
341.674	5453
341.760	14505
341.847	15266
341.933	5630
342.020	2241
342.106	3871
342.193	6107
342.279	10926
342.366	7866
342.452	13197
342.539	7594
342.625	21093
342.712	40532
342.798	16373
342.885	7474
342.971	3033
343.058	3231
343.144	4660
343.230	3575
343.317	5848
343.403	3485
343.490	4219
343.576	2719
343.662	4120
343.749	4897
343.835	6862
343.921	13206
344.008	73042
344.094	119201
344.180	25810
344.267	14613
344.353	43623
344.439	35200
344.525	20842
344.612	13363
344.698	13296
344.784	7443
344.870	4914
344.957	5226
345.043	8529
345.129	7072
345.215	14468
345.301	7307
345.387	6219
345.474	3535
345.560	3980
345.646	3826
345.732	4794
345.818	5784
345.904	5658
345.990	5581
346.076	6359
346.162	9095
346.249	6231
346.335	3788
346.421	5766
346.507	20998
346.593	50439
346.679	10869
346.765	5512
346.851	5126
346.937	4491
347.023	4226
347.108	6645
347.194	4500
347.280	5296
347.366	6201
347.452	21854
347.538	63459
347.624	49132
347.710	33732
347.796	6651
347.882	4955
347.967	4294
348.053	5613
348.139	5443
348.225	3595
348.311	4604
348.397	3015
348.482	6556
348.568	6075
348.654	3647
348.740	5181
348.825	5151
348.911	9638
348.997	37828
349.083	50969
349.168	8855
349.254	5722
349.340	6383
349.425	3577
349.511	6660
349.597	6112
349.682	16963
349.768	41511
349.854	15887
349.939	4464
350.025	4447
350.110	4655
350.196	4510
350.282	1672
350.367	3334
350.453	5625
350.538	6521
350.624	6077
350.709	6175
350.795	3725
350.880	4812
350.966	5826
351.051	8234
351.137	4390
351.222	5409
351.308	17366
351.393	38237
351.479	9879
351.564	5217
351.649	4307
351.735	3776
351.820	3073
351.906	4379
351.991	6182
352.076	29063
352.162	33983
352.247	8650
352.332	5599
352.418	13986
352.503	16935
352.588	62079
352.673	41564
352.759	11028
352.844	4467
352.929	8236
353.014	8104
353.100	6628
353.185	12436
353.270	17388
353.355	14084
353.441	5678
353.526	5500
353.611	15348
353.696	14770
353.781	9651
353.866	4258
353.952	6535
354.037	15006
354.122	32753
354.207	26230
354.292	9484
354.377	5169
354.462	4789
354.547	6320
354.632	7092
354.717	11496
354.802	13617
354.887	5238
354.972	5230
355.057	3282
355.142	3609
355.227	5268
355.312	10587
355.397	23342
355.482	49885
355.567	22600
355.652	18464
355.737	18828
355.822	51912
355.907	33589
355.991	7510
356.076	4181
356.161	4943
356.246	3012
356.331	5200
356.416	13936
356.501	78354
356.585	62883
356.670	12286
356.755	10034
356.840	15677
356.924	69383
357.009	171592
357.094	57310
357.179	17174
357.263	10309
357.348	12296
357.433	10515
357.517	10917
357.602	7457
357.687	7081
357.771	14013
357.856	30791
357.941	19543
358.025	53779
358.110	161224
358.195	68416
358.279	14383
358.364	13015
358.448	43635
358.533	98727
358.617	69282
358.702	64797
358.787	22841
358.871	17519
358.956	12171
359.040	4404
359.125	4017
359.209	6487
359.294	16903
359.378	23521
359.462	12629
359.547	7739
359.631	4782
359.716	3425
359.800	5062
359.885	8835
359.969	4749
360.053	5774
360.138	5056
360.222	10074
360.306	15959
360.391	11567
360.475	23107
360.559	43067
360.644	38784
360.728	27372
360.812	50486
360.896	100118
360.981	48170
361.065	25627
361.149	8359
361.233	8547
361.318	5766
361.402	7345
361.486	6643
361.570	6055
361.654	6939
361.739	22108
361.823	80294
361.907	95115
361.991	18631
362.075	16626
362.159	30373
362.243	23500
362.327	20977
362.411	22539
362.495	12815
362.580	7288
362.664	5669
362.748	6103
362.832	9410
362.916	17272
363.000	45297
363.084	104586
363.168	115759
363.252	30039
363.336	14124
363.420	20740
363.503	60712
363.587	56666
363.671	12781
363.755	11631
363.839	16445
363.923	8627
364.007	18996
364.091	19614
364.175	30109
364.258	92431
364.342	70123
364.426	72896
364.510	36308
364.594	23491
364.677	30526
364.761	96226
364.845	57550
364.929	27677
365.013	21637
365.096	20089
365.180	19962
365.264	31920
365.347	83721
365.431	32751
365.515	11341
365.598	6318
365.682	6333
365.766	12263
365.849	12323
365.933	7218
366.017	10682
366.100	6954
366.184	2875
366.267	5864
366.351	4539
366.435	4831
366.518	2738
366.602	4151
366.685	4521
366.769	6192
366.852	10863
366.936	18344
367.019	10291
367.103	8646
367.186	14684
367.270	5216
367.353	2419
367.436	4952
367.520	3218
367.603	6575
367.687	9437
367.770	17730
367.853	10159
367.937	33758
368.020	42913
368.104	11537
368.187	13485
368.270	21129
368.353	17092
368.437	21361
368.520	35202
368.603	25433
368.687	41244
368.770	60974
368.853	15541
368.936	18986
369.020	16350
369.103	7538
369.186	3987
369.269	6039
369.352	12876
369.436	16839
369.519	10325
369.602	4711
369.685	6740
369.768	6838
369.851	5305
369.934	3473
370.018	5893
370.101	15789
370.184	12291
370.267	9353
370.350	14579
370.433	24128
370.516	52373
370.599	51557
370.682	20112
370.765	42465
370.848	49316
370.931	74656
371.014	26667
371.097	6960
371.180	5124
371.263	4615
371.346	1588
371.429	3440
371.511	4123
371.594	9956
371.677	14872
371.760	16686
371.843	15901
371.926	74519
372.009	124490
372.091	42661
372.174	34912
372.257	65260
372.340	23466
372.423	25077
372.505	24884
372.588	11687
372.671	31525
372.754	77575
372.836	32906
372.919	32557
373.002	50544
373.085	17163
373.167	16340
373.250	40337
373.332	71752
373.415	105935
373.498	170336
373.580	67682
373.663	96173
373.746	105402
373.828	27456
373.911	14993
373.993	17707
374.076	53759
374.159	42987
374.241	27432
374.324	69506
374.406	44126
374.489	66954
374.571	140232
374.654	53393
374.736	38649
374.819	95155
374.901	136322
374.983	117169
375.066	22796
375.148	12495
375.231	48386
375.313	72591
375.395	28181
375.478	6720
375.560	6833
375.643	10252
375.725	38421
375.807	114239
375.890	80354
375.972	32692
376.054	23342
376.136	28005
376.219	15050
376.301	43096
376.383	94909
376.465	35081
376.548	28170
376.630	37755
376.712	86008
376.794	32726
376.877	6964
376.959	3859
377.041	6448
377.123	13157
377.205	13203
377.287	4000
377.369	4859
377.452	4519
377.534	4566
377.616	4810
377.698	5027
377.780	3121
377.862	4880
377.944	4743
378.026	3187
378.108	3424
378.190	3651
378.272	3533
378.354	2519
378.436	2658
378.518	9532
378.600	26640
378.682	26548
378.764	49659
378.846	36467
378.928	11895
379.010	17725
379.091	8638
379.173	5329
379.255	3784
379.337	7863
379.419	30171
379.501	65777
379.583	23721
379.664	8825
379.746	21860
379.828	54031
379.910	67438
379.991	51583
380.073	8270
380.155	7676
380.237	4895
380.318	4796
380.400	4767
380.482	12603
380.564	17889
380.645	18288
380.727	16061
380.809	10727
380.890	6503
380.972	5735
381.053	4689
381.135	7738
381.217	20176
381.298	50606
381.380	23382
381.461	26749
381.543	93775
381.624	94029
381.706	17803
381.787	11060
381.869	13077
381.951	48901
382.032	134680
382.113	80013
382.195	19419
382.276	15367
382.358	35411
382.439	77466
382.521	89732
382.602	119789
382.684	60799
382.765	111229
382.846	95468
382.928	89236
383.009	47625
383.090	48878
383.172	149830
383.253	182240
383.334	86709
383.416	108690
383.497	50656
383.578	24578
383.659	45564
383.741	150075
383.822	287138
383.903	141231
383.984	86244
384.066	145176
384.147	83432
384.228	18920
384.309	14685
384.390	11669
384.471	8035
384.553	10814
384.634	12853
384.715	14328
384.796	7282
384.877	12667
384.958	47380
385.039	51776
385.120	18407
385.201	9817
385.282	11660
385.363	11938
385.444	10558
385.525	23074
385.606	60800
385.687	45692
385.768	13089
385.849	22819
385.930	77989
386.011	105211
386.092	28021
386.173	10166
386.254	7089
386.335	9198
386.416	10446
386.496	35784
386.577	47528
386.658	16945
386.739	11070
386.820	12071
386.901	8214
386.981	9062
387.062	6860
387.143	16358
387.224	49163
387.304	41531
387.385	15800
387.466	11149
387.547	12033
387.627	9644
387.708	24087
387.789	85663
387.869	87064
387.950	24798
388.031	5946
388.111	7346
388.192	17574
388.273	24496
388.353	14432
388.434	9392
388.514	21814
388.595	76322
388.676	87577
388.756	47801
388.837	46663
388.917	28095
388.998	5793
389.078	7518
389.159	6326
389.239	5827
389.320	9308
389.400	8899
389.480	21704
389.561	47205
389.641	21294
389.722	11080
389.802	16523
389.883	24975
389.963	53850
390.043	31483
390.124	10266
390.204	23065
390.284	57536
390.365	35837
390.445	45197
390.525	95902
390.605	76817
390.686	27353
390.766	9816
390.846	6542
390.927	3747
391.007	5343
391.087	6220
391.167	6426
391.247	4195
391.328	9326
391.408	13799
391.488	9529
391.568	3892
391.648	8296
391.728	11474
391.808	11219
391.888	13357
391.969	31948
392.049	41847
392.129	20370
392.209	25002
392.289	53209
392.369	27838
392.449	26679
392.529	16188
392.609	14998
392.689	20624
392.769	53636
392.849	41294
392.929	38472
393.009	74336
393.089	54527
393.169	53353
393.248	182947
393.328	500466
393.408	454822
393.488	135317
393.568	44822
393.648	23465
393.728	16445
393.807	12002
393.887	12676
393.967	11352
394.047	14185
394.127	18674
394.206	34812
394.286	119145
394.366	334327
394.446	307495
394.525	96941
394.605	31372
394.685	24809
394.764	43886
394.844	62022
394.924	40517
395.003	15852
395.083	11619
395.163	10984
395.242	9696
395.322	10653
395.402	6321
395.481	12737
395.561	30220
395.640	68908
395.720	59177
395.799	74692
395.879	57288
395.958	54777
396.038	174746
396.117	418952
396.197	398037
396.276	163783
396.356	63169
396.435	42371
396.515	28505
396.594	32611
396.673	56512
396.753	195227
396.832	447833
396.912	313106
396.991	85170
397.070	27785
397.150	14775
397.229	13904
397.308	17539
397.388	26398
397.467	15462
397.546	7541
397.625	4854
397.705	10085
397.784	9382
397.863	5903
397.942	4688
398.022	7028
398.101	24729
398.180	57449
398.259	27746
398.338	9915
398.417	5923
398.497	4705
398.576	5680
398.655	3875
398.734	3671
398.813	6757
398.892	24609
398.971	61139
399.050	26454
399.129	4488
399.208	3620
399.287	5165
399.366	2058
399.445	3906
399.524	3479
399.603	3330
399.682	9477
399.761	27781
399.840	66516
399.919	45034
399.998	6598
400.077	2803
400.156	2230
400.235	5560
400.313	2539
400.392	6847
400.471	30200
400.550	42580
400.629	10794
400.708	5901
400.786	5741
400.865	16302
400.944	15141
401.023	7566
401.102	2182
401.180	3653
401.259	4008
401.338	5159
401.416	6277
401.495	5687
401.574	4372
401.652	4396
401.731	5949
401.810	5160
401.888	2240
401.967	1849
402.046	2764
402.124	6264
402.203	6458
402.281	5244
402.360	7317
402.438	20150
402.517	12035
402.596	5567
402.674	4486
402.753	3632
402.831	2422
402.910	6719
402.988	22752
403.066	56378
403.145	29462
403.223	24136
403.302	49441
403.380	38468
403.459	35372
403.537	14955
403.615	4800
403.694	2311
403.772	2560
403.850	2959
403.929	2453
404.007	3419
404.085	9017
404.164	10601
404.242	5973
404.320	19879
404.398	50120
404.477	63888
404.555	119409
404.633	93112
404.711	40174
404.789	23627
404.868	7491
404.946	4411
405.024	2539
405.102	2815
405.180	1252
405.258	1597
405.336	2576
405.415	3610
405.493	8091
405.571	8478
405.649	1602
405.727	2840
405.805	5288
405.883	6147
405.961	4978
406.039	6239
406.117	2001
406.195	7998
406.273	34750
406.351	97427
406.429	51614
406.507	9991
406.585	3733
406.663	5114
406.740	5854
406.818	5215
406.896	2923
406.974	4343
407.052	12495
407.130	64343
407.208	73942
407.285	15427
407.363	3380
407.441	4542
407.519	2852
407.596	4940
407.674	15766
407.752	41322
407.830	33616
407.907	12965
407.985	4799
408.063	3547
408.141	2592
408.218	6068
408.296	5668
408.373	4835
408.451	4977
408.529	4749
408.606	1423
408.684	2462
408.762	974
408.839	1621
408.917	751
408.994	2655
409.072	1273
409.149	2615
409.227	4589
409.304	5663
409.382	3926
409.459	5103
409.537	5912
409.614	6430
409.692	4477
409.769	5224
409.846	7067
409.924	10438
410.001	6061
410.079	5846
410.156	6063
410.233	5950
410.311	3392
410.388	3884
410.465	3937
410.543	3853
410.620	2527
410.697	4512
410.775	3942
410.852	2259
410.929	3644
411.006	6005
411.083	2939
411.161	8037
411.238	8507
411.315	5441
411.392	2318
411.469	5615
411.547	5189
411.624	2058
411.701	2719
411.778	5082
411.855	8165
411.932	4810
412.009	1128
412.086	2654
412.163	2947
412.240	4598
412.317	4675
412.394	4168
412.471	2239
412.548	2209
412.625	2604
412.702	5076
412.779	6984
412.856	6280
412.933	2052
413.010	2939
413.087	7163
413.164	27971
413.241	34418
413.318	7955
413.395	5868
413.471	8696
413.548	3769
413.625	3344
413.702	3520
413.779	2968
413.855	1215
413.932	943
414.009	1155
414.086	1920
414.162	1835
414.239	7531
414.316	30196
414.393	55360
414.469	16685
414.546	2505
414.623	276
414.699	2958
414.776	2075
414.853	2040
414.929	2207
415.006	2029
415.082	2529
415.159	2749
415.236	2234
415.312	2969
415.389	6372
415.465	8102
415.542	3589
415.618	3288
415.695	5749
415.771	3396
415.848	2452
415.924	3289
416.000	1078
416.077	2142
416.153	-120
416.230	762
416.306	794
416.383	1508
416.459	1322
416.535	1499
416.612	59
416.688	1373
416.764	1445
416.841	1575
416.917	741
416.993	2539
417.069	2695
417.146	5025
417.222	6780
417.298	3687
417.374	1553
417.451	3216
417.527	4284
417.603	4203
417.679	3330
417.755	3011
417.831	1011
417.908	1739
417.984	950
418.060	1861
418.136	7360
418.212	8786
418.288	2697
418.364	2638
418.440	2692
418.516	4613
418.592	6330
418.668	13339
418.744	18404
418.820	13115
418.896	2483
418.972	1283
419.048	2602
419.124	8655
419.200	4919
419.276	2889
419.352	-342
419.428	1204
419.504	1578
419.579	3848
419.655	2043
419.731	4651
419.807	12731
419.883	20775
419.959	12638
420.034	3973
420.110	10806
420.186	35807
420.262	24462
420.337	4924
420.413	4329
420.489	2634
420.565	2650
420.640	2356
420.716	2409
420.792	1271
420.867	3080
420.943	2778
421.019	5285
421.094	4952
421.170	1961
421.245	2651
421.321	2183
421.397	4076
421.472	9293
421.548	21851
421.623	13597
421.699	6215
421.774	5633
421.850	5846
421.925	8939
422.001	8805
422.076	7674
422.152	10117
422.227	14706
422.302	19562
422.378	28651
422.453	50824
422.529	120700
422.604	258472
422.679	322086
422.755	235405
422.830	108745
422.905	48799
422.981	27501
423.056	19096
423.131	13336
423.207	9889
423.282	10517
423.357	15455
423.432	9400
423.508	11414
423.583	20066
423.658	14791
423.733	5918
423.808	7361
423.883	7355
423.959	6145
424.034	3878
424.109	4527
424.184	2294
424.259	2008
424.334	1854
424.409	2066
424.484	1981
424.559	3222
424.634	1612
424.709	4444
424.784	4925
424.859	2853
424.934	7041
425.009	27252
425.084	40537
425.159	13978
425.234	2717
425.309	2654
425.384	8544
425.459	11860
425.534	4220
425.609	1964
425.683	1249
425.758	2407
425.833	2273
425.908	4755
425.983	18481
426.058	42017
426.132	16335
426.207	3463
426.282	6052
426.357	4544
426.431	1789
426.506	2860
426.581	1853
426.655	3176
426.730	1426
426.805	1824
426.879	2837
426.954	2760
427.029	8128
427.103	45198
427.178	82670
427.253	33153
427.327	4541
427.402	7836
427.476	15571
427.551	7835
427.625	2662
427.700	4243
427.774	590
427.849	3367
427.923	1283
427.998	2098
428.072	2698
428.147	9079
428.221	37161
428.296	81862
428.370	38666
428.444	7180
428.519	7743
428.593	14847
428.667	12768
428.742	15624
428.816	18308
428.890	60790
428.965	78339
429.039	26307
429.113	15866
429.188	6063
429.262	2108
429.336	7117
429.410	19101
429.485	12790
429.559	12098
429.633	9047
429.707	3937
429.781	15147
429.855	67141
429.930	86551
430.004	48483
430.078	66870
430.152	64165
430.226	110594
430.300	94834
430.374	17560
430.448	7097
430.522	26877
430.596	61213
430.670	44286
430.744	99050
430.818	119323
430.892	22943
430.966	4712
431.040	2582
431.114	1309
431.188	1003
431.262	1989
431.336	1881
431.410	9076
431.484	18094
431.557	12085
431.631	1784
431.705	3960
431.779	21744
431.853	73908
431.927	45080
432.000	6656
432.074	1715
432.148	2252
432.222	2501
432.295	1086
432.369	1329
432.443	7151
432.516	40793
432.590	80103
432.664	25755
432.737	3809
432.811	579
432.885	908
432.958	818
433.032	788
433.106	171
433.179	617
433.253	384
433.326	1413
433.400	-355
433.473	1187
433.547	40
433.620	2039
433.694	4031
433.767	4235
433.841	191
433.914	638
433.988	125
434.061	911
434.134	713
434.208	559
434.281	-88
434.355	257
434.428	406
434.501	1212
434.575	419
434.648	1292
434.721	-431
434.795	602
434.868	466
434.941	455
435.014	-342
435.088	1576
435.161	1419
435.234	4053
435.307	3870
435.381	1654
435.454	1232
435.527	2966
435.600	1728
435.673	2807
435.746	1477
435.819	1825
435.892	1065
435.966	1159
436.039	643
436.112	1653
436.185	158
436.258	105
436.331	-1235
436.404	678
436.477	-768
436.550	901
436.623	458
436.696	1411
436.769	1110
436.842	2118
436.915	1762
436.987	2430
437.060	-17
437.133	387
437.206	-748
437.279	1232
437.352	167
437.425	764
437.498	1530
437.570	6017
437.643	4872
437.716	1689
437.789	239
437.861	4541
437.934	10422
438.007	5665
438.080	871
438.152	1927
438.225	8296
438.298	52860
438.370	106879
438.443	39785
438.516	9079
438.588	2321
438.661	281
438.734	1394
438.806	1154
438.879	2608
438.951	3010
439.024	5629
439.096	1172
439.169	1687
439.241	224
439.314	1438
439.386	2626
439.459	4598
439.531	5121
439.604	2337
439.676	940
439.749	952
439.821	-187
439.893	1194
439.966	868
440.038	2138
440.110	1953
440.183	1091
440.255	254
440.327	4466
440.400	24071
440.472	76286
440.544	40100
440.617	5964
440.689	4368
440.761	6480
440.833	9057
440.905	6133
440.978	603
441.050	983
441.122	933
441.194	1798
441.266	282
441.338	1700
441.411	4560
441.483	28609
441.555	33034
441.627	7442
441.699	4511
441.771	3450
441.843	1044
441.915	740
441.987	-490
442.059	1903
442.131	2136
442.203	4144
442.275	4524
442.347	5261
442.419	8641
442.491	44414
442.563	83803
442.635	37609
442.706	21220
442.778	14496
442.850	2861
442.922	2580
442.994	3178
443.066	5724
443.137	3308
443.209	4185
443.281	5780
443.353	15041
443.425	58496
443.496	165172
443.568	145362
443.640	51586
443.711	11296
443.783	5355
443.855	3269
443.926	2612
443.998	1991
444.070	4245
444.141	2872
444.213	4567
444.285	4842
444.356	4622
444.428	3052
444.499	2109
444.571	848
444.642	1898
444.714	1682
444.785	4746
444.857	6048
444.928	12956
445.000	7601
445.071	9747
445.143	10505
445.214	8711
445.285	13924
445.357	42460
445.428	127347
445.500	231923
445.571	145136
445.642	75513
445.714	30634
445.785	22909
445.856	7635
445.928	7765
445.999	4947
446.070	3850
446.141	4858
446.213	6451
446.284	2475
446.355	3485
446.426	1818
446.497	1897
446.569	4529
446.640	7532
446.711	4137
446.782	2091
446.853	2399
446.924	3684
446.995	1252
447.066	2578
447.138	4978
447.209	3069
447.280	-257
447.351	836
447.422	228
447.493	2326
447.564	2334
447.635	4796
447.706	1379
447.777	1031
447.847	-175
447.918	1422
447.989	1865
448.060	3833
448.131	8652
448.202	8221
448.273	4382
448.344	2637
448.414	463
448.485	1598
448.556	129
448.627	1604
448.698	736
448.768	980
448.839	1271
448.910	4693
448.981	3373
449.051	2696
449.122	262
449.193	747
449.263	491
449.334	1784
449.405	2553
449.475	6800
449.546	4296
449.616	5189
449.687	3978
449.758	2021
449.828	1191
449.899	1630
449.969	568
450.040	1223
450.110	1884
450.181	2386
450.251	688
450.322	666
450.392	777
450.463	1874
450.533	229
450.604	1926
450.674	501
450.744	2357
450.815	279
450.885	1727
450.955	1152
451.026	572
451.096	738
451.166	3423
451.237	5862
451.307	13324
451.377	4310
451.447	1567
451.518	929
451.588	1607
451.658	1498
451.728	3793
451.799	14975
451.869	14795
451.939	2371
452.009	1445
452.079	325
452.149	2152
452.219	5535
452.289	17685
452.360	10403
452.430	2937
452.500	1581
452.570	3808
452.640	4909
452.710	14350
452.780	18876
452.850	15683
452.920	10871
452.990	4790
453.060	2841
453.129	4416
453.199	4301
453.269	24401
453.339	41102
453.409	57846
453.479	62942
453.549	89097
453.619	87762
453.688	31476
453.758	4386
453.828	2863
453.898	1695
453.968	1761
454.037	1132
454.087	1720
454.107	1950
454.168	880
454.177	710
454.247	555
454.249	598
454.316	1271
454.330	1629
454.386	2804
454.411	5149
454.456	8864
454.492	10489
454.525	12023
454.574	5649
454.595	2882
454.655	2456
454.665	2411
454.734	1827
454.736	1977
454.804	5712
454.817	7763
454.873	15561
454.898	15851
454.943	16443
454.979	10101
455.013	4531
455.060	3189
455.082	2742
455.141	4322
455.152	4623
455.221	15091
455.222	15327
455.291	25222
455.303	26783
455.360	32283
455.384	41725
455.430	55855
455.465	40017
455.499	26117
455.546	18918
455.569	15483
455.627	9997
455.638	9096
455.707	1745
455.708	1760
455.777	1791
455.789	1907
455.846	2390
455.869	2200
455.916	1832
455.950	1745
455.985	1487
456.031	1849
456.054	2142
456.112	1434
456.124	1282
456.193	1233
456.193	1217
456.262	1538
456.274	1817
456.332	2873
456.355	2480
456.401	1527
456.436	1532
456.470	1614
456.516	834
456.540	432
456.597	1262
456.609	1444
456.678	514
456.678	498
456.747	1589
456.759	1445
456.817	645
456.840	1007
456.886	1724
456.920	1343
456.955	1032
457.001	1779
457.024	2117
457.082	1839
457.093	1783
457.162	3230
457.163	3248
457.232	3269
457.243	3144
457.301	2518
457.324	1949
457.370	1235
457.405	1891
457.439	2420
457.485	1782
457.508	1408
457.566	2248
457.577	2526
457.646	2924
457.647	2955
457.715	5626
457.727	5980
457.784	7769
457.808	10032
457.853	13090
457.889	14834
457.922	15371
457.969	12116
457.991	12038
458.050	12751
458.060	12889
458.129	21469
458.130	21667
458.198	20740
458.211	19019
458.267	13222
458.292	9738
458.336	6256
458.372	6155
458.405	7473
458.453	10273
458.474	11963
458.533	20574
458.543	21274
458.611	31491
458.614	31693
458.680	24569
458.694	20318
458.749	10253
458.775	7830
458.818	4965
458.855	4072
458.887	3478
458.936	3394
458.955	3243
459.016	2535
459.024	2544
459.093	3314
459.097	3330
459.162	2727
459.177	2699
459.230	3173
459.257	3402
459.299	3386
459.338	3998
459.368	4549
459.418	4441
459.437	4158
459.499	3543
459.505	3518
459.574	2478
459.579	2541
459.643	3259
459.659	2956
459.711	2692
459.740	3278
459.780	3743
459.820	3442
459.849	3136
459.900	3742
459.917	4008
459.981	3942
459.986	3903
460.054	4162
460.061	4074
460.123	3463
460.141	3613
460.191	4291
460.222	4481
460.260	4564
460.302	5189
460.328	5196
460.382	4034
460.397	3998
460.462	4832
460.465	5076
460.534	10346
460.543	11158
460.602	24265
460.623	29611
460.671	45194
460.703	61369
460.739	54872
460.783	37347
460.808	32893
460.864	10372
460.876	7620
460.944	4082
460.945	4044
461.013	4235
461.024	4095
461.081	3261
461.104	3497
461.150	3649
461.184	3359
461.218	3272
461.264	3447
461.286	3412
461.345	2671
461.355	2648
461.423	3920
461.425	3911
461.491	4053
461.505	4401
461.559	8976
461.585	10585
461.628	14320
461.665	19262
461.696	19925
461.745	22323
461.764	20508
461.825	7775
461.832	7399
461.901	4682
461.905	4696
461.969	3578
461.985	3096
462.037	3227
462.065	3671
462.105	4546
462.145	4912
462.173	6411
462.225	10370
462.241	11456
462.305	16340
462.310	15899
462.378	8437
462.385	7222
462.446	4473
462.465	4233
462.514	4180
462.545	4078
462.582	3771
462.625	3905
462.650	4049
462.705	4003
462.718	4132
462.785	4896
462.786	4937
462.854	7096
462.865	7593
462.922	8198
462.945	8260
462.990	6350
463.025	4496
463.058	4290
463.104	3950
463.126	3680
463.184	3577
463.194	3637
463.262	3557
463.264	3572
463.330	4448
463.344	4523
463.398	5146
463.424	5597
463.466	5036
463.504	4413
463.533	4717
463.583	5268
463.601	5497
463.663	6183
463.669	6346
463.737	8572
463.743	8726
463.805	12794
463.823	14164
463.873	19612
463.903	22904
463.940	22398
463.982	22673
464.008	18700
464.062	7400
464.076	6869
464.142	4827
464.144	4811
464.211	4679
464.221	4764
464.279	5545
464.301	5685
464.347	6112
464.381	6772
464.414	7026
464.461	7115
464.482	7347
464.540	8159
464.550	7950
464.617	5708
464.620	5645
464.685	7335
464.699	7657
464.753	8557
464.779	9014
464.820	10151
464.859	11193
464.888	10501
464.938	9403
464.956	9738
465.018	10582
465.023	10475
465.091	9059
465.098	8873
465.158	7825
465.177	7651
465.226	8089
465.257	8116
465.293	8446
465.336	8955
465.361	9612
465.416	10955
465.428	11897
465.495	17341
465.496	17413
465.563	24477
465.575	25851
465.631	28339
465.654	29365
465.698	19105
465.734	9715
465.765	9138
465.813	8335
465.833	7958
465.893	7576
465.900	7680
465.968	8370
465.972	8413
466.035	8253
466.052	8158
466.102	8747
466.131	9114
466.170	9139
466.210	9098
466.237	9497
466.290	10340
466.304	10243
466.369	9581
466.372	9611
466.439	10208
466.449	10262
466.506	11639
466.528	12194
466.573	17585
466.607	21477
466.641	27737
466.687	36583
466.708	39077
466.766	45998
466.775	42662
466.842	16742
466.845	15487
466.909	13656
466.925	13301
466.977	12604
467.004	12247
467.044	12902
467.083	13546
467.111	14443
467.163	16060
467.178	16247
467.242	16924
467.245	16868
467.312	15222
467.321	14985
467.379	14880
467.400	14802
467.446	15777
467.480	16440
467.559	14399
467.638	12035
467.717	12913
467.796	14706
467.875	14535
467.955	14442
468.034	23464
468.113	42612
468.192	55859
468.271	14258
468.350	12592
468.429	13888
468.508	13344
468.588	12091
468.667	11372
468.746	11526
468.825	11387
468.904	10036
468.983	13504
469.062	17861
469.141	20109
469.220	9049
469.299	11022
469.378	11340
469.456	13477
469.535	12185
469.614	11366
469.693	11471
469.772	14606
469.851	19437
469.930	12637
470.009	10962
470.088	10404
470.166	10987
470.245	12730
470.324	13463
470.403	10726
470.482	10306
470.560	10456
470.639	10732
470.718	12718
470.797	10968
470.875	13329
470.954	15881
471.033	16031
471.111	8889
471.190	8396
471.269	8091
471.347	8772
471.426	9102
471.505	11003
471.583	10691
471.662	10170
471.740	9800
471.819	9229
471.898	9184
471.976	10204
472.055	8631
472.133	10799
472.212	13474
472.290	13631
472.369	9194
472.447	9364
472.526	8104
472.604	10163
472.683	9637
472.761	10079
472.839	9492
472.918	8975
472.996	9264
473.075	11477
473.153	10168
473.231	8142
473.310	10589
473.388	9750
473.466	10323
473.545	11434
473.623	13460
473.701	12270
473.780	9848
473.858	9053
473.936	10772
474.014	9676
474.093	10793
474.171	15204
474.249	19649
474.327	12131
474.405	8089
474.484	8239
474.562	8543
474.640	8328
474.718	9821
474.796	9693
474.874	8945
474.952	7760
475.030	9380
475.108	8976
475.187	11725
475.265	11849
475.343	15608
475.421	15725
475.499	7886
475.577	9445
475.655	13502
475.733	23518
475.811	38260
475.889	31888
475.966	18923
476.044	9768
476.122	11711
476.200	15392
476.278	10520
476.356	7955
476.434	8504
476.512	11388
476.590	14737
476.667	11835
476.745	7443
476.823	8241
476.901	8561
476.979	7967
477.056	8770
477.134	8520
477.212	9837
477.290	7657
477.367	7109
477.445	7494
477.523	7409
477.601	7214
477.678	8347
477.756	9096
477.834	10379
477.911	7291
477.989	6812
478.066	7254
478.144	9110
478.222	10864
478.299	16966
478.377	13405
478.454	7245
478.532	7126
478.609	7296
478.687	8784
478.764	6921
478.842	7279
478.919	8436
478.997	7787
479.074	6799
479.152	8435
479.229	10790
479.307	6871
479.384	6381
479.461	6273
479.539	6837
479.616	8050
479.694	6502
479.771	8701
479.848	8385
479.926	10612
480.003	11936
480.080	6291
480.157	6441
480.235	5594
480.312	7521
480.389	7973
480.467	12547
480.544	14423
480.621	8714
480.698	7748
480.775	8840
480.853	9167
480.930	7049
481.007	7986
481.084	10298
481.161	12313
481.238	9450
481.315	6443
481.392	6513
481.470	6822
481.547	7873
481.624	5682
481.701	6509
481.778	6934
481.855	7669
481.932	14062
482.009	20884
482.086	11426
482.163	8697
482.240	13306
482.317	21097
482.393	14431
482.470	7405
482.547	8291
482.624	7183
482.701	7742
482.778	6627
482.855	6260
482.932	5582
483.009	5901
483.085	8282
483.162	9724
483.239	9768
483.316	6531
483.393	7167
483.469	7381
483.546	8733
483.623	8685
483.699	8114
483.776	7283
483.853	9283
483.930	15290
484.006	35001
484.083	53806
484.160	29457
484.236	43104
484.313	31930
484.389	24153
484.466	21780
484.543	20613
484.619	21890
484.696	23168
484.772	22478
484.849	23654
484.925	19171
485.002	20419
485.078	21627
485.155	20411
485.231	18116
485.308	18494
485.384	19749
485.461	24464
485.537	36564
485.614	37852
485.690	19050
485.766	18021
485.843	20675
485.919	25843
485.995	25400
486.072	17292
486.148	16178
486.224	16861
486.301	18109
486.377	19786
486.453	20333
486.530	20668
486.606	27433
486.682	29579
486.758	33105
486.835	34140
486.911	31017
486.987	47463
487.063	48462
487.139	60620
487.215	40878
487.292	22573
487.368	19262
487.444	21717
487.520	26693
487.596	25307
487.672	41361
487.748	84901
487.824	107979
487.900	41883
487.976	24141
488.052	22174
488.128	25074
488.204	19505
488.280	19151
488.356	25054
488.432	43981
488.508	56735
488.584	20582
488.660	16818
488.736	17220
488.812	18223
488.888	22243
488.964	31595
489.039	63596
489.115	85223
489.191	45608
489.267	18053
489.343	15550
489.418	14456
489.494	14644
489.570	12058
489.646	15306
489.722	14523
489.797	15065
489.873	25572
489.949	45715
490.024	31802
490.100	14834
490.176	14590
490.251	17570
490.327	21889
490.403	13729
490.478	12831
490.554	12101
490.629	11659
490.705	12071
490.781	13130
490.856	12801
490.932	14531
491.007	15031
491.083	13296
491.158	12099
491.234	20024
491.309	36168
491.385	30857
491.460	12709
491.536	13944
491.611	13008
491.686	13921
491.762	20656
491.837	40147
491.913	65016
491.988	88509
492.063	99773
492.139	27429
492.214	16868
492.289	11388
492.365	11108
492.440	13801
492.515	12622
492.590	12436
492.666	10659
492.741	16227
492.816	21098
492.891	12397
492.967	12322
493.042	10778
493.117	11981
493.192	14932
493.267	40319
493.342	116696
493.418	134314
493.493	16401
493.568	9437
493.643	10411
493.718	13788
493.793	18537
493.868	20987
493.943	13105
494.018	10505
494.093	9899
494.168	9924
494.243	8622
494.318	8008
494.393	8323
494.468	8700
494.543	9094
494.618	10269
494.693	8130
494.768	8520
494.842	8726
494.917	8209
494.992	10585
495.067	8246
495.142	8722
495.217	9981
495.292	9177
495.366	11161
495.441	11948
495.516	16530
495.591	27635
495.665	94096
495.740	178634
495.815	60487
495.890	13533
495.964	9765
496.039	13109
496.114	11002
496.188	13300
496.263	12910
496.338	11406
496.412	12500
496.487	15545
496.561	15567
496.636	15239
496.710	14010
496.785	14597
496.860	16440
496.934	12701
497.009	14081
497.083	12717
497.158	14445
497.232	17536
497.307	20136
497.381	17392
497.455	21856
497.530	25373
497.604	20881
497.679	23602
497.753	33861
497.827	39859
497.902	36439
497.976	46156
498.050	117214
498.125	324947
498.199	249113
498.273	51851
498.348	44839
498.422	38394
498.496	36189
498.570	32529
498.645	25808
498.719	24307
498.793	27396
498.867	35501
498.941	51551
499.016	154927
499.090	311854
499.164	76927
499.238	17107
499.312	16718
499.386	19530
499.460	16814
499.534	15763
499.609	18033
499.683	25355
499.757	25558
499.831	73347
499.905	226789
499.979	156912
500.053	29739
500.127	29422
500.201	20862
500.275	15204
500.349	13564
500.422	15617
500.496	24675
500.570	56636
500.644	139861
500.718	200249
500.792	33350
500.866	14802
500.940	19334
501.013	14263
501.087	15697
501.161	26013
501.235	34341
501.309	85625
501.382	204383
501.456	134940
501.530	39958
501.603	59126
501.677	18612
501.751	9325
501.825	15750
501.898	33057
501.972	77186
502.046	36557
502.119	14327
502.193	40608
502.266	80664
502.340	32986
502.413	41574
502.487	67109
502.561	33881
502.634	12687
502.708	11673
502.781	9403
502.855	9640
502.928	6918
503.002	7620
503.075	7481
503.149	8215
503.222	8859
503.295	9036
503.369	11993
503.442	19724
503.516	66825
503.589	140387
503.662	74857
503.736	30034
503.809	67218
503.882	52981
503.956	83293
504.029	63700
504.102	51957
504.175	56077
504.249	22015
504.322	15446
504.395	12318
504.468	8727
504.542	8649
504.615	6859
504.688	7253
504.761	5889
504.834	9965
504.907	12383
504.980	17148
505.053	9651
505.127	11049
505.200	15490
505.273	11877
505.346	8265
505.419	5757
505.492	6600
505.565	4919
505.638	6358
505.711	5630
505.784	5434
505.857	5153
505.930	7519
506.003	4969
506.076	8294
506.149	9495
506.221	8581
506.294	12484
506.367	39222
506.440	102904
506.513	41924
506.586	12139
506.659	6850
506.731	7842
506.804	9670
506.877	11546
506.950	7862
507.022	7429
507.095	9345
507.168	9542
507.241	6773
507.313	4732
507.386	7011
507.459	11215
507.531	6737
507.604	5157
507.677	5477
507.749	4536
507.822	10114
507.894	18080
507.967	21401
508.040	10949
508.112	10680
508.185	9025
508.257	10172
508.330	13442
508.402	9397
508.475	8756
508.547	9358
508.620	10463
508.692	15135
508.765	8922
508.837	6852
508.909	7121
508.982	7225
509.054	9770
509.127	7285
509.199	7572
509.271	6362
509.344	6573
509.416	6683
509.488	7479
509.560	8373
509.633	8873
509.705	9050
509.777	9860
509.849	12889
509.922	8724
509.994	7910
510.066	8818
510.138	9170
510.210	20184
510.283	15087
510.355	13262
510.427	10979
510.499	11672
510.571	11915
510.643	11256
510.715	16680
510.787	12109
510.859	10450
510.931	11936
511.003	16177
511.076	14409
511.148	9744
511.219	11150
511.291	16867
511.363	16245
511.435	9498
511.507	8090
511.579	9546
511.651	10557
511.723	8124
511.795	7880
511.867	8483
511.939	11714
512.010	19819
512.082	14467
512.154	8263
512.226	9415
512.298	16256
512.369	20744
512.441	15396
512.513	15126
512.585	11274
512.656	13133
512.728	13042
512.800	10273
512.871	10772
512.943	9875
513.015	8152
513.086	10655
513.158	11533
513.230	10545
513.301	15958
513.373	17260
513.444	10744
513.516	9444
513.588	9477
513.659	10432
513.731	12801
513.802	10876
513.874	26839
513.945	37621
514.016	13237
514.088	9200
514.159	10470
514.231	14759
514.302	18912
514.374	13023
514.445	13423
514.516	26125
514.588	16495
514.659	13823
514.730	22786
514.802	17785
514.873	15239
514.944	18145
515.016	13645
515.087	14654
515.158	19101
515.229	23374
515.301	16973
515.372	23743
515.443	15207
515.514	11826
515.585	9193
515.656	9687
515.728	9519
515.799	8808
515.870	10098
515.941	9563
516.012	9282
516.083	14463
516.154	15506
516.225	19374
516.296	16761
516.367	13876
516.438	15212
516.509	16213
516.580	25048
516.651	80563
516.722	207500
516.793	84255
516.864	22973
516.935	21258
517.006	22105
517.077	32511
517.148	79638
517.219	224714
517.289	263211
517.360	113417
517.431	33781
517.502	12442
517.573	14290
517.643	14055
517.714	16107
517.785	14886
517.856	15012
517.926	17858
517.997	17760
518.068	19040
518.138	25160
518.209	41699
518.280	175521
518.350	451155
518.421	130112
518.492	23486
518.562	18900
518.633	19764
518.703	19260
518.774	40437
518.845	74452
518.915	58913
518.986	25597
519.056	22579
519.127	38135
519.197	62372
519.268	122945
519.338	55714
519.408	18767
519.479	23847
519.549	15954
519.620	11846
519.690	9124
519.760	9129
519.831	10903
519.901	9937
519.971	9247
520.042	9305
520.112	10721
520.182	13956
520.253	15252
520.323	10597
520.393	14920
520.463	20075
520.534	14278
520.604	26053
520.674	13444
520.744	15299
520.814	30418
520.885	27235
520.955	50325
521.025	132540
521.095	34094
521.165	11573
521.235	9757
521.305	8839
521.375	8115
521.445	10309
521.515	12144
521.585	16092
521.655	12042
521.725	12341
521.795	11485
521.865	7284
521.935	15704
522.005	11045
522.075	6927
522.145	9033
522.215	9699
522.285	14201
522.355	21091
522.424	35539
522.494	25410
522.564	16686
522.634	40179
522.704	91776
522.774	29031
522.843	9627
522.913	9080
522.983	12286
523.053	8035
523.122	9715
523.192	16943
523.262	53891
523.331	40359
523.401	10202
523.471	7737
523.540	8080
523.610	5691
523.680	7545
523.749	8222
523.819	10090
523.888	8726
523.958	7210
524.027	8141
524.097	7363
524.166	7352
524.236	8168
524.305	9085
524.375	6808
524.444	5796
524.514	8927
524.583	7640
524.653	9333
524.722	10857
524.791	6502
524.861	8166
524.930	6959
524.999	8388
525.069	10881
525.138	9467
525.207	10770
525.277	8638
525.346	7523
525.415	8799
525.484	8408
525.554	9511
525.623	10165
525.692	10084
525.761	10737
525.830	10460
525.900	12550
525.969	19566
526.038	29890
526.107	65854
526.176	156455
526.245	104014
526.314	45636
526.383	91915
526.452	106648
526.522	201886
526.591	154291
526.660	55134
526.729	26558
526.797	30581
526.867	86958
526.935	319381
527.004	445898
527.073	173440
527.142	21502
527.211	13480
527.280	14436
527.349	12045
527.418	6472
527.487	7767
527.555	6120
527.624	5928
527.693	4735
527.762	7710
527.831	4486
527.899	5460
527.968	5394
528.037	5248
528.106	9578
528.174	15830
528.243	12452
528.312	20276
528.380	21254
528.449	6661
528.518	6915
528.586	3932
528.655	5507
528.723	5912
528.792	4478
528.861	5827
528.929	4322
528.998	6831
529.066	5709
529.135	5816
529.203	4558
529.272	5606
529.340	8090
529.409	8929
529.477	6332
529.545	8610
529.614	10780
529.682	11078
529.751	11226
529.819	13304
529.887	8720
529.956	7079
530.024	8637
530.092	6254
530.161	10204
530.229	14523
530.297	7812
530.365	8764
530.434	7444
530.502	6093
530.570	7190
530.638	5768
530.707	8269
530.775	8365
530.843	6220
530.911	7697
530.979	7346
531.047	8130
531.115	8629
531.183	6444
531.252	7690
531.320	7106
531.388	6050
531.456	8027
531.524	6307
531.592	8354
531.660	10481
531.728	7308
531.796	7598
531.864	8356
531.932	9429
532.000	7949
532.067	9210
532.135	10064
532.203	12304
532.271	12631
532.339	22234
532.407	45400
532.475	23291
532.542	13190
532.610	13980
532.678	22680
532.746	98012
532.814	171347
532.881	36392
532.949	11127
533.017	9899
533.084	8588
533.152	8514
533.220	9231
533.287	9158
533.355	8229
533.423	8567
533.490	7951
533.558	8676
533.625	9455
533.693	8007
533.761	9067
533.828	10670
533.896	10354
533.963	20326
534.031	23242
534.098	29844
534.166	14527
534.233	10240
534.300	11341
534.368	10790
534.435	9291
534.503	9638
534.570	11242
534.637	9695
534.705	9532
534.772	11920
534.840	22617
534.907	86688
534.974	73343
535.041	13371
535.109	10368
535.176	7364
535.243	9181
535.310	8649
535.378	7101
535.445	7363
535.512	7538
535.579	8482
535.646	6693
535.714	8384
535.781	10657
535.848	10105
535.915	11039
535.982	9819
536.049	10582
536.116	11304
536.183	9532
536.250	9366
536.317	8380
536.384	10844
536.451	15273
536.518	14854
536.585	10192
536.652	15761
536.719	19462
536.786	13231
536.853	11065
536.920	17326
536.987	25839
537.053	29491
537.120	108124
537.187	64714
537.254	8841
537.321	8244
537.388	9949
537.454	6288
537.521	6861
537.588	7473
537.654	10445
537.721	9666
537.788	9526
537.855	7418
537.921	7975
537.988	7748
538.055	9224
538.121	8128
538.188	9228
538.254	15509
538.321	26832
538.388	14214
538.454	8842
538.521	7512
538.587	7226
538.654	8091
538.720	7376
538.787	8146
538.853	8397
538.920	10001
538.986	9507
539.053	8676
539.119	9203
539.185	8773
539.252	11847
539.318	15591
539.385	12415
539.451	9722
539.517	11146
539.583	13227
539.650	36130
539.716	69169
539.782	17466
539.849	8646
539.915	9967
539.981	9470
540.047	11540
540.114	10209
540.180	10630
540.246	8712
540.312	14086
540.378	28083
540.444	24913
540.510	36931
540.576	77368
540.643	20110
540.709	8475
540.775	8654
540.841	8758
540.907	13235
540.973	18069
541.039	16204
541.105	16382
541.171	9781
541.237	8077
541.303	9458
541.369	13056
541.435	14836
541.500	23530
541.566	12500
541.632	8388
541.698	7446
541.764	8437
541.830	7809
541.896	7121
541.961	9065
542.027	8251
542.093	8487
542.159	9160
542.224	9594
542.290	16044
542.356	25156
542.421	24887
542.487	13536
542.553	9947
542.618	10752
542.684	8753
542.750	8724
542.815	11977
542.881	23971
542.947	78024
543.012	40968
543.078	7880
543.143	8164
543.209	10109
543.274	8613
543.340	12583
543.405	33184
543.471	39878
543.536	10024
543.602	8841
543.667	7757
543.732	8155
543.798	7334
543.863	9091
543.928	7370
543.994	7105
544.059	8801
544.124	7807
544.190	8049
544.255	9411
544.320	8906
544.386	8346
544.451	13411
544.516	15057
544.581	17336
544.646	52741
544.712	62905
544.777	13699
544.842	10143
544.907	11143
544.972	10443
545.037	10273
545.102	11283
545.168	10097
545.233	11763
545.298	12836
545.363	13079
545.428	15983
545.493	33062
545.558	58071
545.623	19986
545.688	10692
545.753	10975
545.818	10515
545.883	11410
545.947	10309
546.012	12918
546.077	11630
546.142	12156
546.207	12091
546.272	16042
546.337	15208
546.401	12974
546.466	12192
546.531	11480
546.596	14106
546.661	14094
546.725	13361
546.790	12206
546.855	12294
546.919	12020
546.984	14196
547.049	14705
547.113	17138
547.178	16274
547.243	18519
547.307	21896
547.372	24606
547.436	23889
547.501	20958
547.565	23803
547.630	25985
547.695	24488
547.759	23958
547.823	22751
547.888	20436
547.952	20834
548.017	21852
548.081	26594
548.146	29645
548.210	26068
548.274	23466
548.339	21275
548.403	21282
548.468	20479
548.532	20264
548.596	20188
548.660	21058
548.725	24948
548.789	26712
548.853	26774
548.917	23506
548.982	27655
549.046	24290
549.110	20240
549.174	19717
549.238	22252
549.303	21350
549.367	24278
549.431	21789
549.495	22132
549.559	21087
549.623	24376
549.687	29134
549.751	34294
549.815	30922
549.879	29763
549.943	28551
550.007	30378
550.071	31083
550.135	32666
550.199	27392
550.263	26412
550.327	28460
550.391	31461
550.455	28742
550.519	29422
550.582	32230
550.646	41100
550.710	40532
550.774	33851
550.838	33731
550.901	35518
550.965	37841
551.029	38465
551.093	45000
551.156	53711
551.220	78062
551.284	69113
551.347	50109
551.411	71330
551.475	60608
551.538	38793
551.602	33528
551.666	32799
551.729	30474
551.793	31135
551.856	30290
551.920	31876
551.983	30703
552.047	29400
552.110	29148
552.174	29795
552.237	29657
552.301	28772
552.364	26660
552.428	25622
552.491	27440
552.554	28696
552.618	28311
552.681	29363
552.745	29226
552.808	33804
552.871	36715
552.934	32902
552.998	30556
553.061	29639
553.124	29627
553.187	30921
553.251	30925
553.314	32424
553.377	36420
553.440	56230
553.503	152846
553.567	172732
553.630	41845
553.693	32224
553.756	30757
553.819	29561
553.882	27996
553.945	28746
554.008	28129
554.071	27293
554.134	28098
554.197	26221
554.260	26886
554.323	28590
554.386	27878
554.449	27824
554.512	27579
554.575	26317
554.638	27530
554.701	26269
554.764	26189
554.827	25753
554.889	24424
554.952	22220
555.015	22025
555.078	24184
555.141	24005
555.203	24114
555.266	23416
555.329	22399
555.391	22588
555.454	23029
555.517	22498
555.580	21786
555.642	20295
555.705	20676
555.768	20269
555.830	20550
555.893	19327
555.955	20351
556.018	19304
556.080	19030
556.143	19376
556.206	19677
556.268	19831
556.330	19565
556.393	19610
556.455	19606
556.518	25057
556.580	22189
556.643	17264
556.705	17018
556.767	17568
556.830	17229
556.892	19379
556.955	26048
557.017	19244
557.079	16272
557.142	16831
557.204	20273
557.266	34227
557.328	23954
557.391	14762
557.453	14921
557.515	15079
557.577	19673
557.639	17851
557.701	14943
557.764	14585
557.826	15873
557.888	17930
557.950	17135
558.012	19352
558.074	25861
558.136	65379
558.198	113727
558.260	36279
558.322	20696
558.384	21623
558.446	23337
558.508	26471
558.570	33457
558.632	50991
558.694	66789
558.756	91129
558.818	309048
558.880	504285
558.942	137799
559.003	124160
559.065	49806
559.127	26898
559.189	26736
559.251	30771
559.312	50408
559.374	147603
559.436	357783
559.498	119306
559.559	29255
559.621	26484
559.683	32689
559.744	64600
559.806	204146
559.868	201691
559.929	37258
559.991	29660
560.052	52802
560.114	118972
560.176	61851
560.237	81782
560.299	96210
560.360	21176
560.422	14551
560.483	13371
560.545	12594
560.606	12185
560.667	12278
560.729	12621
560.790	11230
560.852	12464
560.913	11534
560.974	11487
561.036	11561
561.097	11349
561.158	11784
561.220	11966
561.281	11640
561.342	11776
561.403	14841
561.465	20114
561.526	44415
561.587	44636
561.648	14114
561.709	11969
561.771	11939
561.832	11873
561.893	11710
561.954	11224
562.015	11573
562.076	11757
562.137	11719
562.198	10816
562.259	10985
562.320	11739
562.381	12733
562.442	18117
562.503	13729
562.564	11935
562.625	11313
562.686	11514
562.747	11567
562.808	10782
562.869	12197
562.930	13931
562.991	12590
563.051	12224
563.112	11719
563.173	10693
563.234	11387
563.294	11535
563.355	11092
563.416	12269
563.477	11543
563.537	11631
563.598	12052
563.659	12112
563.720	11317
563.780	12354
563.841	12148
563.901	11508
563.962	11338
564.023	12007
564.083	11678
564.144	12489
564.204	11667
564.265	12596
564.325	14564
564.386	25073
564.446	19206
564.507	11519
564.567	11359
564.628	11686
564.688	11485
564.749	11746
564.809	14476
564.869	14253
564.930	11843
564.990	11429
565.050	11756
565.111	12352
565.171	11594
565.231	11353
565.292	12626
565.352	12041
565.412	12422
565.472	12343
565.532	13414
565.593	12376
565.653	12251
565.713	12892
565.773	13654
565.833	17495
565.893	18500
565.953	13748
566.013	13024
566.074	14505
566.134	18052
566.194	24914
566.254	22575
566.314	17203
566.374	13925
566.434	16137
566.494	16271
566.554	15047
566.614	16644
566.673	16757
566.733	17319
566.793	19329
566.853	18909
566.913	19932
566.973	20254
567.033	20166
567.092	19710
567.152	19558
567.212	19784
567.272	21482
567.331	21923
567.391	23243
567.451	24680
567.511	29710
567.570	27084
567.630	21817
567.690	20963
567.749	21936
567.809	23114
567.868	26250
567.928	28349
567.988	32262
568.047	37408
568.107	46553
568.166	62642
568.226	92625
568.285	114915
568.345	104979
568.404	90000
568.464	77146
568.523	71644
568.582	72302
568.642	81817
568.701	100747
568.761	141810
568.820	195301
568.879	190285
568.939	155315
568.998	119377
569.057	93382
569.116	76065
569.176	62831
569.235	51953
569.294	44290
569.353	38910
569.413	34006
569.472	30772
569.531	28173
569.590	25258
569.649	24303
569.708	22041
569.767	21491
569.827	23263
569.886	20206
569.945	18181
570.004	16781
570.063	16396
570.122	17172
570.181	17826
570.240	16837
570.299	16954
570.358	17129
570.417	13712
570.475	14810
570.534	15487
570.593	14345
570.652	14411
570.711	14375
570.770	13652
570.829	14135
570.887	14142
570.946	14459
571.005	12274
571.064	12439
571.122	13880
571.181	14355
571.240	12008
571.299	11138
571.357	12908
571.416	12735
571.475	14083
571.533	13769
571.592	13030
571.650	12095
571.709	10979
571.768	11718
571.826	11760
571.885	11227
571.943	10501
572.002	11596
572.060	11355
572.119	9912
572.177	10901
572.236	10183
572.294	10703
572.352	10535
572.411	10679
572.469	9847
572.528	10311
572.586	10546
572.644	10347
572.703	12431
572.761	10481
572.819	10839
572.877	9957
572.936	9308
572.994	10058
573.052	10062
573.110	10019
573.169	9920
573.227	10605
573.285	10098
573.343	10236
573.401	10233
573.459	10309
573.517	10092
573.576	9493
573.634	10364
573.692	10046
573.750	9136
573.808	9526
573.866	10935
573.924	12480
573.982	11716
574.040	9481
574.098	8912
574.155	10164
574.213	9117
574.271	9363
574.329	9667
574.387	9273
574.445	9390
574.503	9179
574.560	7527
574.618	8906
574.676	8040
574.734	8591
574.792	9574
574.849	9704
574.907	8029
574.965	8926
575.022	8307
575.080	8902
575.138	8759
575.195	8632
575.253	8542
575.311	9500
575.368	9296
575.426	8742
575.483	9848
575.541	8609
575.598	8987
575.656	9572
575.713	9111
575.771	9840
575.828	8792
575.886	8324
575.943	10085
576.001	9342
576.058	10210
576.115	9726
576.173	10914
576.230	12446
576.287	12625
576.345	10277
576.402	9977
576.459	9927
576.517	9484
576.574	11231
576.631	10958
576.688	10656
576.746	9352
576.803	9429
576.860	9077
576.917	9526
576.974	10408
577.031	9497
577.089	9728
577.146	10209
577.203	10899
577.260	11348
577.317	10972
577.374	11743
577.431	10160
577.488	9610
577.545	9441
577.602	11489
577.659	10635
577.716	12396
577.773	12617
577.830	11114
577.886	11507
577.943	10562
578.000	10217
578.057	10035
578.114	10927
578.171	12920
578.227	15739
578.284	14430
578.341	13382
578.398	12049
578.454	12100
578.511	12152
578.568	12547
578.625	11098
578.681	10398
578.738	9884
578.794	9994
578.851	10341
578.908	11521
578.964	12119
579.021	10928
579.077	10983
579.134	10633
579.190	9879
579.247	10307
579.303	9722
579.360	8959
579.416	10373
579.473	10166
579.529	10177
579.586	10252
579.642	11150
579.698	10966
579.755	11330
579.811	11006
579.867	11386
579.924	11592
579.980	12415
580.036	13650
580.093	16313
580.149	21033
580.205	20537
580.261	17129
580.317	15418
580.374	14940
580.430	13953
580.486	13228
580.542	12381
580.598	11912
580.619	12225
580.654	12777
580.692	12091
580.710	11766
580.765	11946
580.767	11957
580.823	11460
580.838	11630
580.879	12093
580.911	12002
580.935	11960
580.984	11380
580.991	11310
581.047	12543
581.057	12519
581.103	12414
581.130	13038
581.159	13711
581.203	14120
581.215	14225
581.270	13873
581.276	13802
581.326	13149
581.349	13158
581.382	13213
581.422	12804
581.438	12640
581.494	13568
581.494	13557
581.550	12752
581.567	12992
581.606	13562
581.640	13399
581.661	13286
581.713	13500
581.717	13520
581.773	12063
581.786	12393
581.829	13443
581.859	13505
581.885	13635
581.932	14161
581.940	14235
581.996	13662
582.004	13665
582.052	13725
582.077	13987
582.107	14276
582.150	13696
582.163	13537
582.219	13560
582.223	13630
582.274	14469
582.296	14491
582.330	14607
582.368	14633
582.386	14583
582.441	14271
582.441	14269
582.497	14635
582.514	14888
582.552	15749
582.587	16907
582.608	17455
582.659	15492
582.663	15332
582.719	14799
582.732	14720
582.774	14646
582.805	14818
582.830	14974
582.877	16367
582.885	16601
582.941	16684
582.950	16820
582.996	17285
583.023	17990
583.052	19123
583.095	19695
583.107	19785
583.162	21452
583.168	21465
583.218	21271
583.240	20535
583.273	19409
583.313	19127
583.328	19067
583.384	18230
583.385	18200
583.439	16815
583.458	16938
583.494	17665
583.531	17526
583.549	17409
583.603	17721
583.605	17725
583.660	17896
583.676	17968
583.715	18243
583.748	18244
583.770	18250
583.820	18462
583.825	18503
583.881	18401
583.893	18531
583.936	18863
583.965	18941
583.991	18971
584.038	19320
584.046	19401
584.101	18654
584.110	18727
584.156	19080
584.183	19352
584.211	19749
584.255	19863
584.266	19912
584.321	20054
584.328	20176
584.376	21192
584.400	21318
584.431	21359
584.472	21187
584.486	21161
584.541	22190
584.545	22208
584.596	22624
584.617	22756
584.651	23377
584.689	24064
584.706	24130
584.761	24443
584.762	24429
584.816	24665
584.834	24959
584.871	25265
584.906	25730
584.926	26086
584.978	26260
584.980	26298
585.035	27762
585.051	28243
585.090	29430
585.123	30125
585.145	30367
585.195	30193
585.200	30370
585.254	33543
585.267	34600
585.309	38033
585.340	40413
585.364	41543
585.412	39871
585.419	39716
585.473	41921
585.484	42797
585.528	49105
585.556	55256
585.583	65933
585.628	91520
585.637	101297
585.692	185975
585.700	196300
585.747	230845
585.772	207017
585.801	140573
585.845	72999
585.856	65488
585.910	48569
585.917	46549
585.965	43157
585.989	42218
586.019	42119
586.061	42573
586.074	42759
586.128	42730
586.133	42713
586.183	43832
586.205	44342
586.237	44850
586.277	44766
586.292	44937
586.346	45773
586.349	45811
586.401	47323
586.421	47522
586.455	48424
586.493	50432
586.509	52331
586.564	59377
586.565	59541
586.618	71732
586.637	72238
586.672	65360
586.709	59830
586.727	58915
586.781	59275
586.781	59355
586.835	58974
586.853	59206
586.889	60753
586.925	61663
586.944	62301
586.996	64338
586.998	64511
587.052	67470
587.068	68403
587.106	70987
587.140	72500
587.161	73543
587.212	77416
587.215	77735
587.269	80739
587.284	81363
587.323	83024
587.356	85203
587.377	87959
587.427	93651
587.431	94120
587.485	98834
587.499	99882
587.539	104602
587.571	108533
587.593	111720
587.643	118275
587.648	119164
587.702	126792
587.715	128698
587.755	135980
587.786	141108
587.810	146425
587.858	157089
587.864	158674
587.917	173829
587.930	176731
587.971	189516
588.001	199384
588.025	208176
588.073	224783
588.079	227796
588.133	252865
588.145	258017
588.187	279960
588.217	295732
588.241	313640
588.288	350296
588.295	356338
588.348	402014
588.360	411724
588.402	460775
588.431	495152
588.456	531803
588.503	604037
588.510	618394
588.564	730902
588.575	754744
588.617	878948
588.646	965368
588.671	1060578
588.718	1244576
588.725	1275019
588.778	1495723
588.789	1535145
588.832	1589873
588.861	1599684
588.886	1487127
588.932	1200524
588.939	1181230
588.993	1096269
589.004	1098922
589.047	1455900
589.075	1647863
589.100	1669651
589.147	1657173
589.154	1636699
589.207	1449764
589.218	1411785
589.261	1332294
589.290	1282579
589.314	1301026
589.361	1343700
589.368	1363125
589.421	1513413
589.433	1541776
589.475	1560455
589.504	1535586
589.528	1421211
589.576	1181897
589.582	1203932
589.635	1475469
589.647	1516410
589.689	1502847
589.718	1469068
589.742	1338268
589.790	1071739
589.795	1051058
589.849	843778
589.861	795175
589.902	693724
589.932	617249
589.955	575425
590.004	487145
590.009	482395
590.062	420113
590.075	404134
590.115	370965
590.146	344095
590.168	330307
590.218	297625
590.222	296262
590.275	270144
590.289	262604
590.328	247496
590.360	234496
590.381	228845
590.431	213650
590.435	213305
590.488	198368
590.503	193821
590.541	186273
590.574	178700
590.594	174934
590.645	163891
590.647	163991
590.700	155199
590.716	152186
590.753	147524
590.787	142648
590.806	140381
590.859	132770
590.859	133059
590.912	128815
590.930	127063
590.965	123723
591.001	119909
591.018	119173
591.071	115788
591.072	115427
591.124	112305
591.143	110776
591.177	108743
591.214	105946
591.230	105494
591.283	102953
591.285	102561
591.336	99505
591.356	97882
591.389	97379
591.427	96028
591.442	95347
591.495	92059
591.498	91544
591.547	88688
591.569	87043
591.600	86774
591.640	85832
591.653	85717
591.706	84119
591.711	83727
591.759	83220
591.782	82552
591.811	83500
591.853	84148
591.864	83612
591.917	79742
591.924	78949
591.969	78350
591.995	77645
592.022	77549
592.066	76784
592.075	77140
592.127	77972
592.137	77896
592.180	78903
592.208	79115
592.233	77269
592.279	73074
592.285	73071
592.338	71269
592.350	70650
592.390	69889
592.421	68907
592.443	68793
592.491	67929
592.495	68089
592.548	67399
592.562	67004
592.600	66679
592.633	66027
592.653	65868
592.704	64578
592.705	64930
592.775	63851
592.846	63205
592.916	63293
592.987	63876
593.058	62062
593.128	61202
593.199	58855
593.270	59502
593.341	58001
593.411	58558
593.482	57057
593.553	58657
593.623	55678
593.694	56475
593.764	57079
593.835	55738
593.906	54959
593.976	54883
594.047	54968
594.117	58314
594.188	58438
594.258	53154
594.329	54208
594.399	52798
594.470	52464
594.540	52548
594.611	53229
594.681	52068
594.751	51663
594.822	53955
594.892	54583
594.963	54756
595.033	53919
595.103	54615
595.174	56000
595.244	66129
595.314	71428
595.384	56017
595.455	55270
595.525	55977
595.595	56342
595.665	56648
595.736	54595
595.806	55567
595.876	54718
595.946	55641
596.016	54276
596.087	57501
596.157	56163
596.227	55585
596.297	58705
596.367	59375
596.437	62683
596.507	70186
596.577	75202
596.647	65059
596.717	62932
596.787	63515
596.857	63673
596.927	63314
596.997	63641
597.067	65816
597.137	68609
597.207	67231
597.277	65226
597.347	63656
597.417	62768
597.487	63485
597.557	64205
597.626	64930
597.696	66904
597.766	71198
597.836	75494
597.906	63739
597.975	60146
598.045	60826
598.115	61571
598.185	64687
598.254	69838
598.324	72458
598.394	72380
598.464	72371
598.533	70372
598.603	66906
598.672	66525
598.742	68637
598.812	69216
598.881	69626
598.951	68461
599.020	67714
599.090	70547
599.159	72317
599.229	69561
599.299	68642
599.368	69684
599.437	70420
599.507	67444
599.576	68399
599.646	69708
599.715	70094
599.785	66396
599.854	66772
599.924	68195
599.993	66896
600.062	66578
600.132	67601
600.201	70418
600.270	77650
600.340	78994
600.409	79078
600.478	76736
600.547	80061
600.617	75229
600.686	68449
600.755	66423
600.824	66092
600.894	65733
600.963	65846
601.032	66066
601.101	64840
601.170	64458
601.239	65339
601.308	67549
601.378	68637
601.447	67231
601.516	69103
601.585	71314
601.654	73553
601.723	72294
601.792	73987
601.861	76215
601.930	84439
601.999	82492
602.068	80238
602.137	82053
602.206	83508
602.275	80970
602.343	84632
602.412	84116
602.481	82224
602.550	80824
602.619	81740
602.688	84606
602.756	84204
602.825	83249
602.894	85738
602.963	83612
603.032	86901
603.100	85753
603.169	85173
603.238	88057
603.307	86084
603.375	84766
603.444	88858
603.513	85333
603.581	85754
603.650	89550
603.719	77159
603.787	77716
603.856	77590
603.924	80952
603.993	82079
604.061	82364
604.130	87117
604.198	87314
604.267	88305
604.335	89087
604.404	89227
604.472	92434
604.541	92099
604.609	95463
604.678	95526
604.746	97120
604.815	101310
604.883	98097
604.951	97314
605.020	98283
605.088	94847
605.156	92062
605.225	92875
605.293	92066
605.361	92893
605.429	92993
605.498	95282
605.566	95394
605.634	98636
605.702	99155
605.771	100836
605.839	103822
605.907	99466
605.975	98611
606.043	95623
606.111	94484
606.180	100477
606.248	99759
606.316	101158
606.384	99359
606.452	90317
606.520	85479
606.588	80739
606.656	79488
606.724	78113
606.792	74781
606.860	69174
606.928	62754
606.996	62945
607.064	60323
607.132	61418
607.200	64725
607.267	67073
607.335	68830
607.403	70054
607.471	66393
607.539	66548
607.607	66988
607.674	59491
607.742	60778
607.810	61861
607.878	60154
607.946	60083
608.013	62287
608.081	64597
608.149	64341
608.216	64905
608.284	67826
608.352	67085
608.419	67657
608.487	72105
608.555	65631
608.622	65019
608.690	67956
608.757	73749
608.825	74394
608.893	73230
608.960	73292
609.028	74101
609.095	75146
609.163	68299
609.230	62640
609.298	58598
609.365	58833
609.432	63600
609.500	68034
609.567	77774
609.635	85396
609.702	89537
609.769	88281
609.837	74401
609.904	65534
609.971	66938
610.039	78640
610.106	107501
610.173	203005
610.241	454629
610.308	338597
610.375	144093
610.442	79975
610.509	69024
610.577	66616
610.644	67012
610.711	66935
610.778	69237
610.845	71176
610.912	76079
610.980	82048
611.047	93376
611.114	83308
611.181	71278
611.248	71049
611.315	75392
611.382	76481
611.449	77530
611.516	81503
611.583	79156
611.650	79737
611.717	82454
611.784	83920
611.851	88283
611.918	98618
611.984	117394
612.051	176343
612.118	365270
612.185	870183
612.252	606944
612.319	158464
612.386	113943
612.452	100551
612.519	95873
612.586	98651
612.653	94329
612.719	93173
612.786	88659
612.853	83223
612.919	80500
612.986	83357
613.053	77864
613.120	74825
613.186	71442
613.253	73722
613.319	72393
613.386	72270
613.453	74469
613.519	77254
613.586	80461
613.652	89677
613.719	82408
613.785	79906
613.852	75937
613.918	76537
613.985	79838
614.051	94452
614.118	130599
614.184	122538
614.250	80331
614.317	75694
614.383	75176
614.449	75538
614.516	74508
614.582	76891
614.648	74802
614.715	73548
614.781	73911
614.847	74514
614.914	74926
614.980	71759
615.046	73944
615.112	75904
615.179	77443
615.245	83597
615.311	93195
615.377	124025
615.443	141843
615.509	106903
615.575	91519
615.642	85912
615.708	88086
615.774	93703
615.840	105733
615.906	125469
615.972	177725
616.038	312347
616.104	565333
616.170	1101778
616.236	979705
616.302	263504
616.368	164659
616.434	122198
616.500	107125
616.565	113376
616.631	133335
616.697	118931
616.763	116242
616.829	164336
616.895	273417
616.961	282852
617.026	146091
617.092	94669
617.158	86736
617.224	81878
617.289	76942
617.355	72553
617.421	71969
617.487	72566
617.552	68631
617.618	66595
617.684	67259
617.749	69901
617.815	64884
617.880	63669
617.946	65476
618.012	65615
618.077	67094
618.143	64498
618.208	64987
618.274	67765
618.339	70387
618.405	59786
618.470	61550
618.536	61788
618.601	62911
618.667	58239
618.732	56528
618.798	55185
618.863	56188
618.928	54740
618.994	57279
619.059	59076
619.124	67278
619.190	58790
619.255	54948
619.320	55266
619.386	55338
619.451	53681
619.516	53646
619.581	53382
619.647	55519
619.712	55649
619.777	53874
619.842	53727
619.907	56130
619.972	56773
620.038	55334
620.103	54055
620.168	53151
620.233	54394
620.298	54368
620.363	54454
620.428	56111
620.493	56022
620.558	57137
620.623	57235
620.688	57501
620.753	58002
620.818	58039
620.883	57625
620.948	59397
621.013	58132
621.078	58551
621.143	58277
621.207	60623
621.272	59344
621.337	60104
621.402	59909
621.467	66446
621.532	65837
621.596	62385
621.661	58404
621.726	58126
621.791	58115
621.855	59272
621.920	60042
621.985	60914
622.049	66112
622.114	63252
622.179	61533
622.243	63069
622.308	62408
622.373	65596
622.437	63759
622.502	60667
622.566	59782
622.631	60730
622.695	63257
622.760	62570
622.824	61188
622.889	62567
622.953	64131
623.018	76599
623.082	75168
623.147	64572
623.211	63074
623.276	63309
623.340	59794
623.404	59100
623.469	58426
623.533	59703
623.597	57509
623.662	58674
623.726	55202
623.790	53168
623.854	52566
623.919	55150
623.983	53636
624.047	54632
624.111	53864
624.176	54933
624.240	57540
624.304	59583
624.368	53557
624.432	54544
624.496	55075
624.560	59090
624.625	60777
624.689	57620
624.753	58512
624.817	56447
624.881	54487
624.945	53088
625.009	51341
625.073	51637
625.137	54771
625.201	59146
625.265	58104
625.329	52953
625.393	54846
625.456	53573
625.520	54474
625.584	58190
625.648	62448
625.712	74066
625.776	120502
625.839	127963
625.903	68192
625.967	50448
626.031	67225
626.095	88766
626.158	53990
626.222	42833
626.286	41279
626.349	40961
626.413	37754
626.477	39669
626.540	37645
626.604	37658
626.668	37117
626.731	37447
626.795	37592
626.858	37602
626.922	35673
626.986	36927
627.049	34625
627.113	37693
627.176	36118
627.240	34676
627.303	33368
627.366	35263
627.430	35450
627.493	36325
627.557	34624
627.620	36637
627.684	35259
627.747	35388
627.810	32099
627.874	31715
627.937	30336
628.000	33097
628.064	31884
628.127	28633
628.190	29478
628.253	28886
628.317	27618
628.380	28522
628.443	27159
628.506	28101
628.569	26673
628.632	25336
628.696	24925
628.759	25186
628.822	24918
628.885	24232
628.948	24495
629.011	25058
629.074	24030
629.137	22665
629.200	23314
629.263	25421
629.326	22562
629.389	23431
629.452	22657
629.515	23434
629.578	22205
629.641	24433
629.704	22755
629.767	23575
629.830	22889
629.892	23394
629.955	21487
630.018	24286
630.081	23730
630.144	26644
630.207	21838
630.269	24752
630.332	22829
630.395	22801
630.458	20926
630.520	20051
630.583	20580
630.646	21156
630.708	20915
630.771	20428
630.834	21680
630.896	19793
630.959	19400
631.021	19761
631.084	21263
631.146	22713
631.209	23234
631.272	19818
631.334	20090
631.397	20508
631.459	19822
631.522	21696
631.584	21804
631.646	22847
631.709	22381
631.771	26812
631.834	22666
631.896	22135
631.958	20003
632.021	21379
632.083	19480
632.145	20859
632.208	19370
632.270	20439
632.332	18396
632.395	18972
632.457	20522
632.519	19206
632.581	20205
632.643	18222
632.706	18897
632.768	18459
632.830	18414
632.892	18529
632.954	18690
633.016	19270
633.078	18205
633.141	17803
633.203	17921
633.265	18903
633.327	18371
633.389	19098
633.451	20851
633.513	22977
633.575	21981
633.637	20756
633.698	20495
633.760	20527
633.822	19631
633.884	19131
633.946	21119
634.008	20713
634.070	21959
634.132	25787
634.193	23756
634.255	23721
634.317	22145
634.379	23719
634.441	21096
634.502	20288
634.564	19429
634.626	18615
634.687	18056
634.749	19300
634.811	18426
634.873	17653
634.934	16603
634.996	18506
635.057	16138
635.119	17171
635.181	17787
635.242	19269
635.304	15776
635.365	19857
635.427	17824
635.488	18391
635.550	17183
635.611	18227
635.673	15908
635.734	20922
635.796	18799
635.857	21978
635.918	20528
635.980	23684
636.041	22152
636.102	23668
636.164	23371
636.225	23886
636.286	19385
636.348	20267
636.409	19415
636.470	17891
636.531	18055
636.593	19180
636.654	18583
636.715	16901
636.776	16113
636.838	15046
636.899	16880
636.960	15300
637.021	15123
637.082	15606
637.143	15240
637.204	15065
637.265	14542
637.326	15964
637.387	14790
637.448	13885
637.509	15843
637.570	14663
637.631	15613
637.692	14305
637.753	13199
637.814	13909
637.875	14164
637.936	15002
637.997	14652
638.058	14697
638.119	16317
638.179	14168
638.240	13911
638.301	13716
638.362	12893
638.423	14109
638.483	14642
638.544	13331
638.605	14292
638.666	12883
638.726	15333
638.787	14884
638.848	13291
638.908	13618
638.969	13622
639.030	14247
639.090	12694
639.151	13137
639.211	14923
639.272	17380
639.332	22011
639.393	16948
639.453	12753
639.514	13523
639.574	13630
639.635	12346
639.695	13509
639.756	12151
639.816	13778
639.877	15413
639.937	19535
639.997	23682
640.058	12642
640.118	11773
640.178	13006
640.239	12366
640.299	12230
640.359	12597
640.420	12606
640.480	14022
640.540	13784
640.600	14843
640.661	14428
640.721	14232
640.781	17913
640.841	15947
640.901	13566
640.961	13040
641.021	13708
641.082	15036
641.142	17336
641.202	15859
641.262	10900
641.322	13375
641.382	11265
641.442	13367
641.502	11438
641.562	12497
641.622	11111
641.682	13732
641.742	13278
641.802	12795
641.861	12373
641.921	12790
641.981	13050
642.041	14385
642.101	14718
642.161	11116
642.221	11362
642.280	11808
642.340	10129
642.400	10443
642.460	11298
642.519	11664
642.579	10864
642.639	12822
642.698	8892
642.758	14104
642.818	11739
642.877	11829
642.937	13132
642.997	14905
643.056	16573
643.116	12467
643.175	13415
643.235	12051
643.294	12683
643.354	13611
643.414	14630
643.473	17737
643.532	19403
643.592	24545
643.651	39247
643.711	69236
643.770	133310
643.830	318668
643.889	642075
643.948	162263
644.008	32888
644.067	21677
644.126	16465
644.186	15166
644.245	14394
644.304	12125
644.363	13514
644.423	10698
644.482	12058
644.541	13367
644.600	10756
644.659	15873
644.719	17809
644.778	25083
644.837	38532
644.896	77666
644.955	174798
645.014	61472
645.073	20593
645.132	14726
645.191	13941
645.250	12032
645.309	14028
645.368	13447
645.427	15498
645.486	22889
645.545	37163
645.604	15261
645.663	12566
645.722	11917
645.781	12959
645.840	14984
645.898	17358
645.957	24466
646.016	36158
646.075	64442
646.134	124031
646.192	325468
646.251	461997
646.310	75137
646.369	23909
646.427	18675
646.486	14651
646.545	12432
646.603	12282
646.662	11823
646.721	11078
646.779	10682
646.838	9116
646.896	13482
646.955	15593
647.014	24949
647.072	44496
647.131	109933
647.189	53169
647.248	12294
647.306	10952
647.365	10053
647.423	7987
647.481	10321
647.540	7763
647.598	9507
647.657	8231
647.715	8653
647.773	7596
647.832	9678
647.890	7167
647.948	8657
648.007	9684
648.065	7757
648.123	9311
648.181	10889
648.240	12165
648.298	11266
648.356	7632
648.414	8667
648.472	8474
648.531	9361
648.589	7651
648.647	7369
648.705	7609
648.763	9058
648.821	8726
648.879	8805
648.937	9730
648.995	11579
649.053	12423
649.111	19568
649.169	29874
649.227	52312
649.285	106422
649.343	290911
649.401	141952
649.459	36286
649.516	26000
649.574	19532
649.632	35905
649.690	42647
649.748	23272
649.806	28824
649.863	48832
649.921	81676
649.979	51854
650.037	12306
650.094	7153
650.152	8497
650.210	6794
650.268	8768
650.325	8332
650.383	8999
650.440	6951
650.498	7770
650.556	7116
650.613	5624
650.671	6792
650.728	6835
650.786	7883
650.843	8773
650.901	5591
650.958	7434
651.016	6304
651.073	5986
651.131	4851
651.188	5967
651.246	6490
651.303	6177
651.360	6229
651.418	5808
651.475	5402
651.532	5046
651.590	6223
651.647	5860
651.704	5879
651.762	5547
651.819	6483
651.876	6372
651.933	6698
651.990	6850
652.048	5257
652.105	5802
652.162	5964
652.219	5158
652.276	5463
652.333	6876
652.390	5227
652.448	6714
652.505	6090
652.562	6959
652.619	8058
652.676	13705
652.733	12977
652.790	6380
652.847	3839
652.904	6203
652.961	3753
653.017	5583
653.074	6363
653.131	6054
653.188	4739
653.245	5474
653.302	4967
653.359	5495
653.415	5630
653.472	4994
653.529	5761
653.586	4811
653.642	4757
653.699	5902
653.756	4264
653.813	4521
653.869	5594
653.926	4334
653.983	4304
654.039	5627
654.096	5242
654.152	5823
654.209	4397
654.266	5913
654.322	4104
654.379	6224
654.435	6278
654.492	6298
654.548	8011
654.605	11289
654.661	7412
654.717	5158
654.774	5648
654.830	5421
654.887	5219
654.943	5756
655.000	7003
655.056	5381
655.112	5694
655.168	4193
655.225	6009
655.281	7044
655.337	7074
655.394	10094
655.450	7544
655.506	7196
655.562	10533
655.618	9846
655.675	4673
655.731	6137
655.787	4751
655.843	5646
655.899	4102
655.955	5204
656.011	5217
656.067	3965
656.123	4977
656.179	5803
656.235	6653
656.291	4427
656.347	5466
656.403	4809
656.459	5408
656.515	6529
656.571	5511
656.627	6020
656.683	5268
656.739	5817
656.795	4715
656.850	4631
656.906	5725
656.962	5575
657.018	4481
657.074	5002
657.129	5813
657.185	7826
657.241	12347
657.297	9148
657.352	5331
657.408	5221
657.464	5948
657.519	5007
657.575	4333
657.630	3961
657.686	4909
657.742	4468
657.797	4546
657.853	5203
657.908	5929
657.964	4287
658.019	4069
658.075	5754
658.130	5020
658.186	4455
658.241	4292
658.297	4338
658.352	3452
658.407	5370
658.463	3707
658.518	5390
658.573	4203
658.629	3243
658.684	4584
658.739	5227
658.795	3220
658.850	4268
658.905	4648
658.960	4926
659.016	4157
659.071	5191
659.126	4921
659.181	5190
659.236	8868
659.291	8754
659.346	5965
659.401	6867
659.457	8380
659.512	10271
659.567	6979
659.622	4849
659.677	4125
659.732	4281
659.787	5523
659.842	5381
659.897	5958
659.952	4873
660.007	4321
660.061	4665
660.116	3365
660.171	4071
660.226	4795
660.281	5186
660.336	5227
660.391	4276
660.445	3175
660.500	5248
660.555	3945
660.610	4642
660.664	4168
660.719	4493
660.774	5278
660.828	4952
660.883	4434
660.938	5319
660.992	4478
661.047	3987
661.101	3755
661.156	4505
661.211	3652
661.265	4328
661.320	3638
661.374	4805
661.429	3180
661.483	5006
661.538	2946
661.592	4878
661.647	4253
661.701	5328
661.755	4187
661.810	5060
661.864	3628
661.919	3551
661.973	4184
662.027	4313
662.081	3407
662.136	3966
662.190	4780
662.244	5152
662.299	3736
662.353	5102
662.407	3813
662.461	3842
662.515	3973
662.569	4576
662.624	5524
662.678	4531
662.732	3569
662.786	4171
662.840	3909
662.894	4521
662.948	3595
663.002	4454
663.056	4542
663.110	3157
663.164	3746
663.218	3514
663.272	4242
663.326	4639
663.380	3975
663.434	4608
663.488	3972
663.542	4639
663.595	3695
663.649	4851
663.703	4625
663.757	4374
663.811	4248
663.864	4381
663.918	3345
663.972	4736
664.026	3870
664.079	3447
664.133	4464
664.187	4078
664.240	4487
664.294	3855
664.348	4638
664.401	4455
664.455	3673
664.508	3638
664.562	3741
664.615	4445
664.669	3701
664.722	3873
664.776	3893
664.829	4830
664.883	4046
664.936	3294
664.990	3945
665.043	4625
665.097	4559
665.150	5661
665.203	3603
665.257	3819
665.310	3788
665.363	4373
665.417	4464
665.470	4422
665.523	3974
665.576	4551
665.630	4186
665.683	4583
665.736	4866
665.789	4797
665.842	4157
665.895	5343
665.949	4134
666.002	4450
666.055	3903
666.108	5134
666.161	4789
666.214	4528
666.267	5025
666.320	5175
666.373	4448
666.426	4659
666.479	3575
666.532	5209
666.585	4961
666.638	5853
666.691	4901
666.744	5566
666.796	4892
666.849	4620
666.902	4537
666.955	4136
667.008	3448
667.060	4100
667.113	3825
667.166	3892
667.219	3864
667.271	4759
667.324	3725
667.377	5224
667.430	4453
667.482	7163
667.535	5436
667.587	5099
667.640	4860
667.693	5556
667.745	8034
667.798	9561
667.850	4484
667.903	4368
667.955	4069
668.008	5278
668.060	4511
668.113	4789
668.165	4498
668.218	4498
668.270	5435
668.322	4829
668.375	2772
668.427	5913
668.479	4063
668.532	4709
668.584	4010
668.636	4005
668.689	4270
668.741	4619
668.793	4369
668.845	4291
668.898	4641
668.950	4864
669.002	4644
669.054	4699
669.106	4128
669.158	4941
669.211	5387
669.263	5009
669.315	7372
669.367	7706
669.419	4754
669.471	6216
669.523	5920
669.575	6685
669.627	5956
669.679	5198
669.731	4335
669.783	5777
669.835	5473
669.886	5684
669.938	5104
669.990	5404
670.042	4556
670.094	5700
670.146	5293
670.197	6573
670.249	7108
670.301	8728
670.353	12300
670.404	17082
670.456	23035
670.508	36336
670.560	58829
670.611	98959
670.663	169960
670.715	377548
670.766	541140
670.818	193181
670.869	39754
670.921	21530
670.972	14875
671.024	11904
671.075	9123
671.127	8680
671.178	6954
671.230	6513
671.281	6205
671.333	6428
671.384	6544
671.436	6842
671.487	7689
671.538	9413
671.590	11905
671.641	17529
671.692	24261
671.744	42627
671.795	34632
671.846	16832
671.897	9591
671.949	7268
672.000	6312
672.051	5803
672.102	5510
672.153	4853
672.204	4321
672.256	4934
672.307	4500
672.358	4825
672.409	5027
672.460	4927
672.511	3667
672.562	4152
672.613	4075
672.664	4480
672.715	4015
672.766	4085
672.817	3790
672.868	3815
672.919	4315
672.970	3646
673.021	3670
673.071	3337
673.122	3802
673.173	3749
673.224	3258
673.275	4262
673.326	3298
673.376	3549
673.427	2683
673.478	2885
673.528	3813
673.579	3808
673.630	3006
673.680	4396
673.731	3070
673.782	3980
673.832	3697
673.883	3617
673.934	3286
673.984	4003
674.035	2534
674.085	3423
674.136	4255
674.186	4475
674.237	4638
674.287	5994
674.338	4759
674.388	3235
674.438	2783
674.489	3200
674.539	3523
674.589	3570
674.640	3740
674.690	3420
674.740	3221
674.791	4614
674.841	2782
674.891	4657
674.942	4125
674.992	4356
675.042	2926
675.092	3089
675.142	2723
675.193	3652
675.243	2362
675.293	3044
675.343	2981
675.393	3656
675.443	3402
675.493	3298
675.543	1885
675.593	3870
675.643	3316
675.693	3058
675.743	2272
675.793	4094
675.843	2659
675.893	3259
675.943	2662
675.993	3433
676.043	3461
676.093	3311
676.142	2459
676.192	3843
676.242	3449
676.292	2739
676.341	2973
676.391	2992
676.441	2295
676.491	2741
676.540	2204
676.590	3530
676.640	2895
676.689	3015
676.739	2212
676.789	2454
676.838	2326
676.888	2665
676.937	2021
676.987	2784
677.037	1948
677.086	2237
677.136	2340
677.185	2730
677.235	2000
677.284	1931
677.333	1518
677.383	2539
677.432	1206
677.482	2468
677.531	2736
677.580	3145
677.630	1972
677.679	1996
677.728	2248
677.778	3044
677.827	1834
677.876	2528
677.925	2359
677.975	2768
678.024	1815
678.073	3387
678.122	2385
678.171	2465
678.220	2832
678.269	3181
678.319	2701
678.368	3230
678.417	1734
678.466	3140
678.515	2807
678.564	2669
678.613	2349
678.662	2376
678.711	2164
678.760	2161
678.809	3605
678.857	1693
678.906	2522
678.955	2983
679.004	3359
679.053	3339
679.102	2257
679.151	2869
679.199	1943
679.248	3375
679.297	2825
679.346	2573
679.394	2080
679.443	2391
679.492	2257
679.540	2264
679.589	2197
679.638	2216
679.686	1669
679.735	3058
679.784	1857
679.832	3015
679.881	1797
679.929	2524
679.978	1877
680.026	1759
680.075	2032
680.123	2312
680.172	1702
680.220	1737
680.268	1214
680.317	1685
680.365	2192
680.414	1639
680.462	1121
680.510	2129
680.559	2040
680.607	2281
680.655	1404
680.703	2222
680.752	1673
680.800	2270
680.848	2689
680.896	1983
680.945	2249
680.993	1952
681.041	1446
681.089	2579
681.137	1508
681.185	2136
681.233	1163
681.258	1819
681.281	2400
681.329	1445
681.377	1466
681.380	1563
681.425	2609
681.473	3436
681.502	2730
681.521	2167
681.569	3125
681.617	2478
681.624	2579
681.665	2924
681.713	2748
681.745	3095
681.761	3204
681.809	2099
681.857	4285
681.867	3931
681.904	2543
681.952	3333
681.989	3232
682.000	3161
682.048	3384
682.096	2104
682.111	2631
682.143	3609
682.191	2838
682.233	3718
682.239	3810
682.286	3149
682.334	3273
682.354	3379
682.382	3435
682.430	4277
682.476	3001
682.477	2940
682.525	3249
682.572	2954
682.598	3620
682.620	4151
682.667	4235
682.715	4381
682.720	4378
682.763	3923
682.810	4798
682.841	4057
682.857	3632
682.905	4139
682.952	4387
682.963	4508
683.000	4813
683.047	3849
683.085	5687
683.095	6138
683.142	4424
683.190	4748
683.206	4730
683.237	4710
683.284	5204
683.328	5240
683.332	5200
683.379	5177
683.426	5089
683.449	5369
683.473	5667
683.521	5243
683.568	5687
683.571	5691
683.615	5209
683.662	6027
683.693	5497
683.709	5181
683.757	5567
683.804	5490
683.814	5663
683.851	6160
683.898	5952
683.936	6216
683.945	6253
683.992	6673
684.039	6411
684.057	6450
684.086	6517
684.133	6861
684.179	6780
684.180	6747
684.227	6618
684.274	6451
684.300	6791
684.321	7021
684.368	6880
684.415	7354
684.422	7257
684.462	6642
684.509	6727
684.543	7270
684.556	7409
684.603	6927
684.649	6892
684.665	7009
684.696	7310
684.743	7407
684.786	8189
684.790	8225
684.837	7418
684.883	8298
684.908	8513
684.930	8745
684.977	8814
685.023	8329
685.029	8428
685.070	8783
685.117	8440
685.150	8139
685.164	8067
685.210	8655
685.257	9656
685.272	9401
685.303	8699
685.350	8759
685.393	8713
685.396	8699
685.443	9083
685.490	9394
685.514	9350
685.536	9304
685.583	9560
685.629	10035
685.636	9978
685.675	9394
685.722	9200
685.757	9539
685.768	9660
685.815	10230
685.861	9657
685.878	9868
685.908	10225
685.954	9678
686.000	10189
686.000	10191
686.047	9759
686.093	11502
686.121	11461
686.139	11202
686.185	10306
686.232	9776
686.242	9954
686.278	10708
686.324	10436
686.363	10155
686.370	10096
686.416	10107
686.463	10933
686.484	10538
686.509	10154
686.555	10636
686.601	10442
686.606	10515
686.647	11040
686.693	10597
686.727	10917
686.739	11038
686.785	10246
686.831	11495
686.848	11448
686.877	11314
686.923	10633
686.969	10648
686.969	10646
687.015	10828
687.061	10547
687.090	10817
687.107	10985
687.153	10674
687.199	11361
687.211	11192
687.245	10738
687.291	11372
687.332	11193
687.336	11202
687.382	11739
687.428	11905
687.453	12205
687.474	12146
687.520	11933
687.565	11089
687.574	11046
687.611	11484
687.657	11810
687.695	12094
687.702	12186
687.748	13431
687.794	14650
687.816	14775
687.839	14257
687.885	12784
687.931	12517
687.937	12405
687.976	12426
688.022	12528
688.058	12991
688.067	13075
688.113	12207
688.158	12280
688.179	12483
688.204	12793
688.249	12774
688.295	12771
688.300	12727
688.340	12813
688.386	13422
688.421	13164
688.431	12984
688.477	13236
688.522	13582
688.542	13492
688.567	13537
688.613	13062
688.658	13711
688.663	13722
688.703	13772
688.749	13105
688.784	13256
688.794	13354
688.839	13554
688.884	13648
688.905	13714
688.930	13693
688.975	13570
689.020	13657
689.026	13611
689.065	13688
689.110	13995
689.146	13975
689.155	13943
689.201	14524
689.246	14081
689.267	14024
689.291	13923
689.336	14071
689.381	14090
689.388	13998
689.426	13922
689.471	14445
689.509	14707
689.516	14740
689.561	14348
689.606	14535
689.630	14345
689.651	14169
689.696	14488
689.741	14947
689.750	14773
689.785	14328
689.830	14942
689.871	14770
689.875	14756
689.920	14754
689.965	14911
689.992	14508
690.010	14424
690.054	14394
690.099	15285
690.112	15292
690.144	15164
690.189	15044
690.233	14580
690.233	14600
690.278	15142
690.323	15359
690.354	15766
690.367	16085
690.412	16110
690.457	16516
690.474	16670
690.501	16725
690.546	16910
690.590	16993
690.595	16983
690.635	17967
690.680	19121
690.716	19933
690.724	20296
690.769	22053
690.813	24292
690.836	25226
690.857	27762
690.902	32923
690.946	38768
690.957	40271
690.991	53476
691.035	71310
691.077	88220
691.080	88302
691.124	83456
691.168	78850
691.198	75985
691.213	70956
691.257	56212
691.301	41571
691.318	35987
691.346	33503
691.390	28799
691.434	24534
691.439	24008
691.478	22920
691.522	22077
691.559	20500
691.567	20356
691.611	20235
691.655	19501
691.680	19163
691.699	19050
691.743	18873
691.787	18614
691.800	18406
691.831	18200
691.875	18423
691.919	17867
691.921	17849
691.964	18415
692.008	18207
692.041	18139
692.052	18189
692.096	18399
692.139	18679
692.162	18562
692.183	18403
692.227	18379
692.271	17880
692.282	17910
692.315	18219
692.359	18124
692.402	18183
692.403	18219
692.447	18161
692.490	18121
692.523	18214
692.534	18334
692.578	18613
692.622	18859
692.643	19084
692.666	19159
692.709	18425
692.753	18335
692.763	18248
692.797	18366
692.840	18480
692.884	18348
692.884	18388
692.928	18875
692.971	19329
693.004	19740
693.015	19875
693.059	19907
693.102	20292
693.124	20319
693.146	20516
693.189	21089
693.233	21133
693.245	21242
693.276	22359
693.320	24055
693.363	25121
693.365	25127
693.407	26965
693.450	28386
693.485	29825
693.493	30877
693.537	35700
693.580	40687
693.605	43737
693.624	49402
693.667	62182
693.710	75646
693.725	80376
693.753	105127
693.797	144432
693.840	183399
693.845	187472
693.883	179593
693.926	169448
693.966	161109
693.970	158074
694.013	123095
694.056	88752
694.086	64816
694.099	61888
694.142	52371
694.185	42482
694.206	37934
694.229	36570
694.272	33376
694.315	30681
694.326	29806
694.358	28497
694.401	26900
694.444	25184
694.446	25042
694.487	24545
694.530	23925
694.566	23425
694.573	23343
694.616	22340
694.659	21362
694.686	20933
694.702	21036
694.745	20917
694.787	20663
694.806	20656
694.830	20722
694.873	20447
694.916	19999
694.926	19914
694.959	20144
695.002	20415
695.044	20603
695.046	20572
695.087	20996
695.130	20802
695.166	21141
695.172	21186
695.215	20745
695.258	20570
695.286	20133
695.301	20138
695.343	20412
695.386	20549
695.406	20506
695.428	20589
695.471	20804
695.514	21052
695.526	21017
695.556	21139
695.599	21488
695.641	21599
695.646	21570
695.684	21410
695.726	21186
695.766	20941
695.769	20986
695.811	20755
695.854	20826
695.886	20576
695.896	20613
695.938	20605
695.981	20697
696.005	20718
696.023	20894
696.065	21063
696.108	21403
696.125	21438
696.150	21729
696.192	22222
696.235	22590
696.245	22661
696.277	22697
696.319	22580
696.361	22419
696.365	22342
696.404	22432
696.446	22756
696.485	22845
696.488	22911
696.530	22999
696.572	23101
696.604	23038
696.614	22915
696.656	22336
696.698	21707
696.724	21115
696.740	21201
696.783	21742
696.825	21875
696.844	21968
696.867	22023
696.909	21840
696.951	21821
696.964	21762
696.992	21800
697.034	21782
697.076	21613
697.083	21554
697.118	22079
697.160	22516
697.202	23010
697.203	22963
697.244	22683
697.286	22379
697.323	21981
697.327	22028
697.369	21929
697.411	21838
697.442	21754
697.453	21950
697.494	22403
697.536	22929
697.562	23218
697.578	23091
697.620	22617
697.661	22038
697.682	21692
697.703	21934
697.744	22357
697.786	22842
697.801	22911
697.828	23094
697.869	23318
697.911	23563
697.921	23559
697.952	23298
697.994	22882
698.035	22478
698.040	22363
698.077	22362
698.118	22309
698.160	22240
698.160	22179
698.201	22469
698.243	22650
698.279	22814
698.284	22920
698.325	23342
698.367	23700
698.399	23895
698.408	23886
698.449	23617
698.491	23269
698.518	23016
698.532	23207
698.573	23567
698.614	23962
698.638	24103
698.656	24212
698.697	24335
698.738	24432
698.757	24421
698.779	24436
698.820	24331
698.862	24225
698.877	24112
698.903	24464
698.944	24949
698.985	25421
698.996	25485
699.026	25247
699.067	24818
699.116	24242
699.235	24503
699.354	23666
699.474	24065
699.593	24468
699.713	24675
699.832	23521
699.951	24496
700.070	23506
700.190	23347
700.309	23198
700.428	23373
700.547	22258
700.667	21846
700.786	22843
700.905	22813
701.024	22355
701.143	22013
701.262	21205
701.381	21944
701.500	21824
701.619	22554
701.738	21848
701.857	21151
701.976	21297
702.095	20948
702.214	22269
702.333	21626
702.452	21114
702.571	21863
702.690	21175
702.809	20585
702.928	20352
703.047	19886
703.165	21169
703.284	21177
703.403	20676
703.522	20336
703.640	20211
703.759	22405
703.878	23884
703.997	20502
704.115	19869
704.234	19610
704.353	19574
704.471	18718
704.590	20203
704.708	19681
704.827	20060
704.946	19632
705.064	19516
705.183	19709
705.301	21601
705.420	26668
705.538	24537
705.656	23898
705.775	25212
705.893	41848
706.012	50074
706.130	23412
706.249	22764
706.367	22908
706.485	22858
706.604	22532
706.722	22882
706.840	24765
706.958	28144
707.077	24750
707.195	21755
707.313	21258
707.431	20662
707.549	20732
707.668	20155
707.786	21122
707.904	19913
708.022	19671
708.140	19882
708.258	20304
708.376	20718
708.494	20532
708.612	22192
708.730	26973
708.848	25988
708.966	23871
709.084	22580
709.202	23459
709.320	23062
709.438	22810
709.556	22224
709.674	23119
709.791	23526
709.909	22411
710.027	23234
710.145	22258
710.263	23023
710.380	21679
710.498	21613
710.616	21467
710.733	21972
710.851	21706
710.969	23543
711.086	21481
711.204	20616
711.322	20928
711.439	19814
711.557	22114
711.674	21499
711.792	21698
711.909	22819
712.027	23859
712.144	19501
712.262	21408
712.379	22220
712.497	27780
712.614	27209
712.732	24947
712.849	23664
712.966	24434
713.084	26537
713.201	24295
713.318	22763
713.436	23890
713.553	23850
713.670	24940
713.787	25224
713.905	25216
714.022	23919
714.139	24347
714.256	25017
714.373	29381
714.490	41579
714.608	84593
714.725	322769
714.842	328688
714.959	39259
715.076	25640
715.193	23665
715.310	22996
715.427	22348
715.544	20930
715.661	21934
715.778	21628
715.895	22783
716.011	22842
716.128	21007
716.245	21300
716.362	22264
716.479	22029
716.596	19913
716.713	20558
716.829	19675
716.946	19893
717.063	19834
717.180	18573
717.296	18216
717.413	19694
717.530	18660
717.646	18524
717.763	18443
717.880	17232
717.996	18818
718.113	18592
718.229	18522
718.346	18363
718.462	17701
718.579	19349
718.695	22113
718.812	21328
718.928	20034
719.045	17681
719.161	17061
719.277	16097
719.394	17652
719.510	18499
719.626	18246
719.743	21425
719.859	23005
719.975	32853
720.092	97775
720.208	212187
720.324	35327
720.440	19409
720.557	19306
720.673	22304
720.789	26464
720.905	41652
721.021	22439
721.137	16968
721.253	17008
721.369	17084
721.486	17333
721.602	20235
721.718	17135
721.834	15014
721.950	16421
722.066	15345
722.181	15567
722.297	16356
722.413	15032
722.529	15694
722.645	15158
722.761	15365
722.877	15032
722.993	15115
723.108	15985
723.224	15060
723.340	14783
723.456	14815
723.571	14449
723.687	13861
723.803	14680
723.918	13094
724.034	13707
724.150	14770
724.265	16099
724.381	21332
724.497	23094
724.612	14425
724.728	13763
724.843	13824
724.959	15029
725.074	20778
725.190	22204
725.305	14262
725.421	13452
725.536	13602
725.651	12942
725.767	13383
725.882	13040
725.997	13405
726.113	12693
726.228	13333
726.343	12741
726.459	12088
726.574	13592
726.689	11843
726.804	12657
726.920	13278
727.035	12756
727.150	13749
727.265	11697
727.380	12787
727.495	12872
727.610	12764
727.725	13836
727.841	15238
727.956	26248
728.071	20063
728.186	12554
728.301	11506
728.416	12740
728.531	11932
728.645	11914
728.760	11898
728.875	11994
728.990	12084
729.105	11133
729.220	11821
729.335	12067
729.449	11841
729.564	11567
729.679	11837
729.794	10987
729.908	12392
730.023	12235
730.138	10070
730.253	10995
730.367	11091
730.482	11566
730.596	11292
730.711	11750
730.826	11941
730.940	13503
731.055	11405
731.169	11218
731.284	11047
731.398	11908
731.513	12631
731.627	11979
731.742	13084
731.856	13987
731.970	12109
732.085	14018
732.199	16093
732.313	21816
732.428	44346
732.542	109302
732.656	64340
732.771	19593
732.885	14979
732.999	14472
733.113	13986
733.227	14481
733.342	12964
733.456	12099
733.570	11648
733.684	11927
733.798	11623
733.912	11777
734.026	10956
734.140	11048
734.254	12105
734.368	14964
734.482	16683
734.596	11356
734.710	11725
734.824	11463
734.938	10795
735.052	10229
735.166	12089
735.280	11773
735.393	11458
735.507	11468
735.621	11856
735.735	15838
735.849	12069
735.962	11063
736.076	10340
736.190	10651
736.303	12281
736.417	14931
736.531	11480
736.644	10657
736.758	10121
736.872	10110
736.985	10446
737.099	11287
737.212	10364
737.326	10782
737.439	10374
737.553	11114
737.666	11233
737.780	9676
737.893	9726
738.007	9845
738.120	10684
738.233	10458
738.347	10878
738.460	9365
738.573	10889
738.687	9500
738.800	10649
738.913	11107
739.026	11398
739.140	10754
739.253	11163
739.366	10044
739.479	9896
739.592	9440
739.705	8879
739.818	10544
739.932	9522
740.045	9650
740.158	10168
740.271	10734
740.384	9809
740.497	10404
740.610	11029
740.723	10090
740.836	9742
740.949	10809
741.062	11384
741.174	11368
741.287	9443
741.400	10108
741.513	8981
741.626	11289
741.739	8921
741.851	9808
741.964	9677
742.077	8943
742.189	9100
742.302	9512
742.415	9801
742.527	9949
742.640	10385
742.753	9024
742.865	9244
742.978	9168
743.090	8822
743.203	9585
743.316	8699
743.428	9994
743.541	9649
743.653	8832
743.766	8809
743.878	9158
743.990	10206
744.103	9848
744.215	9616
744.327	9703
744.440	10777
744.552	11294
744.664	9285
744.777	8781
744.889	8533
745.001	9091
745.113	9226
745.226	8421
745.338	9336
745.450	9289
745.562	8907
745.674	8425
745.786	8842
745.898	8622
746.010	8905
746.122	8865
746.234	9470
746.347	8579
746.459	8871
746.570	8853
746.682	9197
746.794	9539
746.906	8896
747.018	9160
747.130	8739
747.242	8906
747.354	8208
747.466	9620
747.577	8446
747.689	9536
747.801	8808
747.913	8321
748.024	8023
748.136	8419
748.248	8826
748.359	8547
748.471	8991
748.583	9021
748.694	9485
748.806	10920
748.918	10453
749.029	8817
749.141	8737
749.252	9694
749.364	9162
749.475	11143
749.587	10263
749.698	9182
749.809	9415
749.921	8823
750.032	8785
750.144	8264
750.255	8315
750.366	7855
750.478	8298
750.589	8459
750.700	8652
750.811	8694
750.923	9481
751.034	12207
751.145	11537
751.256	8369
751.367	8429
751.479	8370
751.590	8548
751.701	9209
751.812	8520
751.923	8218
752.034	7872
752.145	8512
752.256	8461
752.367	8888
752.478	8322
752.589	8079
752.700	9161
752.811	8676
752.922	8265
753.032	8180
753.143	9028
753.254	7662
753.365	8701
753.476	8663
753.586	8734
753.697	8326
753.808	8505
753.919	8575
754.029	8576
754.140	8926
754.251	9137
754.361	8424
754.472	9020
754.582	8296
754.693	8438
754.804	9496
754.914	8595
755.025	9182
755.135	8176
755.246	8310
755.356	8373
755.466	9739
755.577	8725
755.687	8769
755.798	8994
755.908	8881
756.018	8871
756.129	9705
756.239	9889
756.349	9815
756.460	9539
756.570	9799
756.680	8229
756.790	9162
756.900	10263
757.011	9871
757.121	9979
757.231	9310
757.341	9606
757.451	9548
757.561	9465
757.671	9699
757.781	9190
757.891	10575
758.001	9626
758.111	11016
758.221	10508
758.331	10550
758.441	11631
758.551	12023
758.661	11357
758.771	11300
758.880	11125
758.990	10778
759.100	11883
759.210	10883
759.320	11619
759.429	11470
759.539	11210
759.649	12253
759.758	12748
759.868	13607
759.978	12858
760.087	13443
760.197	12931
760.307	12034
760.416	12902
760.526	12418
760.635	14368
760.745	13160
760.854	13772
760.964	14873
761.073	15514
761.182	15375
761.292	16129
761.401	16233
761.511	15652
761.620	15582
761.729	15498
761.839	16119
761.948	17674
762.057	17780
762.166	17599
762.276	17281
762.385	19228
762.494	20077
762.603	20483
762.712	20842
762.822	21180
762.931	22283
763.040	21111
763.149	23124
763.258	23973
763.367	25577
763.476	25359
763.585	27029
763.694	28487
763.803	30521
763.912	32278
764.021	32709
764.130	35508
764.238	37159
764.347	41071
764.456	43026
764.565	46303
764.674	50329
764.783	55807
764.891	61296
765.000	69327
765.109	76620
765.217	87620
765.326	103026
765.435	119954
765.543	143198
765.652	179685
765.761	226336
765.869	295744
765.978	396566
766.086	548083
766.195	759590
766.303	932670
766.412	755998
766.520	711728
766.629	850327
766.737	718019
766.846	529978
766.954	387441
767.062	292310
767.171	228198
767.279	178077
767.387	144567
767.496	120949
767.604	105327
767.712	92595
767.820	81437
767.928	75372
768.037	68824
768.145	65030
768.253	64217
768.361	61537
768.469	61482
768.577	60958
768.685	64907
768.793	69553
768.901	74881
769.009	87069
769.117	102610
769.225	131422
769.333	175559
769.441	253823
769.549	390261
769.657	624544
769.765	842710
769.873	681375
769.981	738767
770.088	596200
770.196	391235
770.304	265453
770.412	194848
770.519	149313
770.627	118966
770.735	96861
770.842	81755
770.950	72197
771.058	62827
771.165	56633
771.273	50420
771.380	45918
771.488	42658
771.595	39157
771.703	36071
771.810	34725
771.918	31840
772.025	30805
772.133	29316
772.240	26948
772.348	27100
772.455	26172
772.562	24061
772.670	23284
772.777	22883
772.884	20806
772.991	20422
773.099	20505
773.206	19407
773.313	20393
773.420	18349
773.528	17658
773.635	17086
773.742	17273
773.849	17158
773.956	16519
774.063	15740
774.170	15355
774.277	15902
774.384	14788
774.491	15266
774.598	15406
774.705	14440
774.812	15344
774.919	14238
775.026	14112
775.133	13474
775.239	12807
775.346	12381
775.453	13172
775.560	12454
775.667	13273
775.773	11597
775.880	11755
775.987	11332
776.093	12078
776.200	12595
776.307	11369
776.413	11548
776.520	11007
776.627	11206
776.733	11364
776.840	8860
776.946	11166
777.053	10919
777.159	10936
777.266	9617
777.372	11976
777.478	10195
777.585	10109
777.691	9082
777.798	9638
777.904	10478
778.010	12706
778.117	9786
778.223	9949
778.329	9758
778.435	9029
778.542	10207
778.648	8727
778.754	8287
778.860	8702
778.966	9012
779.072	9410
779.178	8920
779.284	9256
779.391	8956
779.497	9678
779.603	14800
779.708	18223
779.815	38550
779.920	125594
780.026	226283
780.132	47233
780.238	14220
780.344	10660
780.450	10541
780.556	9139
780.661	8247
780.767	7701
780.873	7923
780.979	8149
781.085	7051
781.190	8129
781.296	6792
781.402	6461
781.507	7225
781.613	7500
781.719	6627
781.824	7406
781.930	7063
782.035	6717
782.141	6687
782.246	6634
782.352	5787
782.457	7181
782.563	7255
782.668	6569
782.773	6303
782.879	6425
782.984	6404
783.090	7468
783.195	8107
783.300	7360
783.405	7185
783.511	6776
783.616	6644
783.721	6456
783.826	6391
783.932	5952
784.037	6601
784.142	6149
784.247	6092
784.352	6620
784.457	5782
784.562	6249
784.667	6001
784.772	5038
784.877	5754
784.982	6016
785.087	5907
785.192	6632
785.297	5796
785.402	5889
785.507	6037
785.611	5510
785.716	5970
785.821	5705
785.926	5151
786.031	5119
786.135	5838
786.240	5450
786.345	4218
786.450	5610
786.554	4727
786.659	5395
786.763	4622
786.868	6017
786.973	6714
787.077	4696
787.182	5270
787.286	5023
787.391	5508
787.495	4382
787.600	5241
787.704	4354
787.809	4940
787.913	4746
788.017	4728
788.122	4750
788.226	5060
788.330	4245
788.435	4966
788.539	5203
788.643	5144
788.747	4794
788.852	4602
788.956	5081
789.060	5227
789.164	4838
789.268	3778
789.372	3984
789.476	5020
789.580	4091
789.684	4297
789.788	5406
789.892	4003
789.996	4366
790.100	4421
790.204	4665
790.308	4761
790.412	5560
790.516	5081
790.620	4615
790.724	4627
790.828	4541
790.931	3856
791.035	5996
791.139	4994
791.242	4371
791.346	5420
791.450	4086
791.554	4510
791.657	2695
791.761	5111
791.864	5033
791.968	5388
792.072	3918
792.175	4423
792.279	3713
792.382	4624
792.486	4630
792.589	4358
792.693	5437
792.796	2823
792.899	4736
793.003	5000
793.106	3134
793.209	4040
793.313	4413
793.416	2882
793.519	5409
793.623	5631
793.726	5496
793.829	4162
793.932	4681
794.035	3376
794.138	4393
794.242	6108
794.345	6611
794.448	10021
794.551	20269
794.654	70933
794.757	142875
794.860	28960
794.963	7677
795.066	4966
795.169	5788
795.272	5120
795.375	5015
795.477	3849
795.580	4783
795.683	3237
795.786	4571
795.889	3163
795.991	5018
796.094	4148
796.197	2560
796.300	4581
796.402	3333
796.505	2938
796.608	3483
796.710	3715
796.813	3565
796.915	4053
797.018	3448
797.120	4122
797.223	2126
797.326	4804
797.428	2460
797.530	3598
797.633	3423
797.735	5018
797.838	3633
797.940	5015
798.042	2888
798.145	3219
798.247	3081
798.349	2550
798.452	4605
798.554	2796
798.656	2501
798.758	5101
798.860	3222
798.962	3361
799.065	3395
799.167	2833
799.269	4115
799.371	3956
799.473	3785
799.575	3653
799.677	4076
799.779	4895
799.881	2819
799.983	3713
800.085	3405
800.187	3615
800.289	2686
800.390	2337
800.492	3354
800.594	4353
800.696	2736
800.798	3670
800.899	2297
801.001	3417
801.103	3078
801.205	2859
801.306	2556
801.408	2272
801.509	2586
801.611	3448
801.713	2548
801.814	2829
801.916	2292
802.017	3095
802.119	2302
802.220	3492
802.322	1172
802.423	4299
802.525	3055
802.626	3061
802.727	3299
802.829	3902
802.930	919
803.031	4859
803.133	2160
803.234	3340
803.335	2554
803.436	2591
803.538	3197
803.639	2839
803.740	3515
803.841	1673
803.942	3358
804.043	3038
804.144	2828
804.245	2816
804.346	2373
804.447	2229
804.548	3107
804.649	4274
804.750	3281
804.851	2066
804.952	1952
805.053	2608
805.154	1858
805.255	3015
805.355	2414
805.456	2260
805.557	2061
805.658	2318
805.758	2389
805.859	2798
805.960	2678
806.061	1829
806.161	995
806.262	3270
806.362	1949
806.463	2629
806.564	2809
806.664	2474
806.765	3911
806.865	2840
806.966	2282
807.066	2100
807.166	3324
807.267	2456
807.367	2422
807.468	3874
807.568	1184
807.668	3277
807.769	2576
807.869	2853
807.969	1939
808.069	2040
808.170	2422
808.270	2379
808.370	2835
808.470	2799
808.570	2114
808.670	2553
808.770	2455
808.870	2050
808.970	2728
809.070	2410
809.170	2110
809.271	3324
809.370	2954
809.470	2639
809.570	2370
809.670	2339
809.770	2342
809.870	3166
809.970	2466
810.070	2240
810.169	2658
810.269	1271
810.369	2751
810.469	2717
810.568	1931
810.668	1820
810.768	1791
810.867	3151
810.967	1606
811.066	2959
811.166	1659
811.265	2434
811.365	2250
811.464	1427
811.564	2646
811.663	2828
811.763	1614
811.862	2844
811.962	3653
812.061	2135
812.160	2359
812.260	2611
812.359	2888
812.458	3662
812.557	7041
812.657	7708
812.756	4928
812.855	2718
812.954	1882
813.053	3013
813.153	2876
813.252	2953
813.351	3226
813.450	2409
813.549	2181
813.648	3507
813.747	2904
813.846	2285
813.945	2229
814.044	2831
814.143	2747
814.242	3578
814.341	2257
814.439	3093
814.538	3411
814.637	3176
814.736	2284
814.835	3917
814.933	2522
815.032	3664
815.131	3320
815.229	3806
815.328	4942
815.427	4266
815.525	4687
815.624	4768
815.722	4528
815.821	4754
815.919	4885
816.018	4053
816.116	5650
816.215	4776
816.313	5196
816.412	5942
816.510	6140
816.609	7177
816.707	6941
816.805	6664
816.904	7137
817.002	8243
817.100	8696
817.198	10185
817.296	9943
817.395	11525
817.493	14320
817.591	16339
817.689	19859
817.787	28033
817.885	41492
817.983	67636
818.081	125979
818.179	252916
818.277	478328
818.375	417066
818.473	206591
818.571	106317
818.669	67442
818.767	56842
818.865	54147
818.963	61619
819.061	82360
819.158	124813
819.256	220958
819.354	405083
819.452	586294
819.549	443442
819.647	258357
819.745	142359
819.842	86944
819.940	60656
820.038	43177
820.135	33926
820.233	28456
820.330	21721
820.428	18564
820.525	16304
820.623	13609
820.720	12268
820.818	12238
820.915	11380
821.012	9482
821.110	8350
821.207	8434
821.304	7265
821.402	7525
821.499	7696
821.596	6559
821.693	6297
821.791	6162
821.888	6086
821.985	7454
822.082	5850
822.179	5770
822.276	5063
822.373	4802
822.470	4603
822.567	4328
822.664	3187
822.761	4802
822.858	3213
822.955	4332
823.052	3884
823.149	3154
823.246	4423
823.343	3736
823.440	4238
823.536	3365
823.633	3307
823.730	3436
823.827	3839
823.923	3388
824.020	4542
824.117	2853
824.213	2409
824.310	3662
824.407	3514
824.503	3732
824.600	3208
824.696	3001
824.793	3956
824.889	2537
824.986	2788
825.082	2593
825.179	2851
825.275	3551
825.371	2792
825.468	3902
825.564	1713
825.660	2910
825.757	2784
825.853	3728
825.949	2145
826.045	2601
826.142	2753
826.238	2184
826.334	3640
826.430	1176
826.526	2354
826.622	1995
826.718	3259
826.814	1831
826.910	2763
827.006	1841
827.102	2106
827.198	3729
827.294	2459
827.390	3107
827.486	3418
827.582	1719
827.678	1661
827.774	3244
827.869	1377
827.965	2799
828.061	1200
828.157	3087
828.252	2632
828.348	1483
828.444	2656
828.539	1375
828.635	2083
828.731	2833
828.826	1806
828.922	2951
829.017	1543
829.113	2268
829.208	1748
829.304	830
829.399	2979
829.495	1573
829.590	2360
829.685	1398
829.781	1589
829.876	2362
829.971	1607
830.066	2766
830.162	1179
830.257	1286
830.352	2018
830.447	2219
830.543	1796
830.638	1405
830.733	2283
830.828	2227
830.923	2250
831.018	2416
831.113	1873
831.208	1312
831.303	2150
831.398	1977
831.493	1666
831.588	2181
831.683	1491
831.778	1661
831.873	1711
831.967	3012
832.062	834
832.157	1305
832.252	2178
832.346	1505
832.441	2655
832.536	2388
832.631	4479
832.725	3237
832.820	1965
832.914	1229
833.009	1150
833.104	1557
833.198	2125
833.293	1146
833.387	1587
833.482	1662
833.576	2185
833.670	2665
833.765	1377
833.859	1495
833.954	3035
834.048	1513
834.142	2618
834.237	798
834.331	2451
834.425	1879
834.519	1375
834.613	2216
834.708	1475
834.802	1880
834.896	722
834.990	992
835.084	2240
835.178	1062
835.272	1035
835.366	1622
835.460	1769
835.554	1319
835.648	1476
835.742	1102
835.836	2056
835.930	840
836.024	1917
836.117	2020
836.211	1226
836.305	2041
836.399	2411
836.493	749
836.586	2516
836.680	1019
836.774	1043
836.867	2681
836.961	1005
837.055	531
837.148	1687
837.242	2050
837.335	1246
837.429	1222
837.522	1408
837.616	2056
837.709	3171
837.803	1507
837.896	2018
837.989	1788
838.083	1870
838.176	3288
838.269	2213
838.363	2184
838.456	1764
838.549	2201
838.642	2890
838.735	3712
838.829	2873
838.922	1465
839.015	1333
839.108	1334
839.201	2103
839.294	1477
839.387	1506
839.480	1371
839.573	1151
839.666	2402
839.759	972
839.852	1157
839.945	2393
840.038	335
840.131	2072
840.223	1320
840.316	1682
840.409	1630
840.502	1239
840.594	2454
840.687	215
840.780	1376
840.873	595
840.965	1883
841.058	2154
841.150	3183
841.243	2123
841.336	1866
841.428	1251
841.521	302
841.613	1291
841.706	1380
841.798	1120
841.890	1186
841.983	764
842.075	2147
842.167	1192
842.260	1315
842.352	2552
842.444	2008
842.537	3368
842.629	4332
842.721	1230
842.813	1361
842.905	-36
842.997	1070
843.090	1175
843.182	2760
843.274	2681
843.366	6910
843.458	11815
843.550	7839
843.642	2036
843.734	1917
843.826	1453
843.918	2139
844.009	1747
844.101	527
844.193	1727
844.285	1385
844.377	1258
844.469	1650
844.560	442
844.652	778
844.744	1649
844.835	1205
844.927	1369
845.019	1228
845.110	1131
845.202	948
845.293	1582
845.385	-309
845.476	716
845.568	1540
845.659	653
845.751	1698
845.842	533
845.934	501
846.025	997
846.116	1958
846.208	885
846.299	1508
846.390	1144
846.482	2181
846.573	1492
846.664	2566
846.755	1316
846.846	2597
846.937	680
847.029	671
847.120	1139
847.211	1247
847.302	2015
847.393	718
847.484	1601
847.575	320
847.666	1275
847.757	1408
847.847	1350
847.938	1770
848.029	1810
848.120	1183
848.211	1561
848.302	1097
848.392	743
848.483	1880
848.574	423
848.664	1572
848.755	1018
848.846	1823
848.936	1029
849.027	1097
849.118	5
849.208	575
849.299	1869
849.389	2153
849.480	4027
849.570	5505
849.661	9798
849.751	14051
849.841	5825
849.932	1787
850.022	847
850.112	2583
850.203	490
850.293	715
850.383	951
850.474	601
850.564	725
850.654	1341
850.744	805
850.834	538
850.924	804
851.014	577
851.104	1323
851.194	1616
851.284	1839
851.374	1228
851.464	1925
851.554	1262
851.644	1696
851.734	2918
851.824	3347
851.914	4137
852.004	8927
852.094	8082
852.183	1930
852.273	1416
852.363	1301
852.452	677
852.542	1249
852.632	1008
852.721	1303
852.811	989
852.901	1170
852.990	1298
853.080	1964
853.169	624
853.259	1379
853.348	823
853.438	1196
853.527	2533
853.617	2805
853.706	4731
853.795	7244
853.885	16165
853.974	29660
854.063	54077
854.152	82798
854.242	30005
854.331	5794
854.420	2895
854.509	2620
854.598	1821
854.687	1875
854.777	2190
854.866	805
854.955	1273
855.044	556
855.133	1442
855.222	1598
855.311	1019
855.400	2155
855.488	510
855.577	463
855.666	1985
855.755	1768
855.844	1764
855.933	2794
856.021	1975
856.110	1596
856.199	245
856.288	660
856.376	-111
856.465	644
856.554	409
856.642	923
856.731	1682
856.819	889
856.908	592
856.996	1195
857.085	971
857.173	1144
857.262	871
857.350	1080
857.438	1452
857.527	971
857.615	802
857.703	1177
857.792	1215
857.880	604
857.968	-247
858.056	709
858.145	37
858.233	804
858.321	1433
858.409	1410
858.497	317
858.585	29
858.673	1552
858.761	819
858.849	881
858.937	330
859.025	376
859.113	1013
859.201	1112
859.289	1404
859.377	482
859.465	1327
859.552	738
859.640	120
859.728	1678
859.816	1355
859.903	760
859.991	83
860.079	523
860.166	930
860.254	128
860.342	470
860.429	-109
860.517	1025
860.604	970
860.692	1223
860.779	744
860.867	883
860.954	707
861.042	1451
861.129	614
861.216	359
861.304	305
861.391	1002
861.478	1366
861.565	751
861.653	1397
861.740	602
861.827	1436
861.914	1232
862.001	382
862.089	1097
862.176	409
862.263	970
862.350	759
862.437	-214
862.524	8
862.611	519
862.698	581
862.785	630
862.871	1246
862.958	862
863.045	233
863.132	815
863.219	744
863.306	495
863.392	973
863.479	1013
863.566	653
863.652	225
863.739	-55
863.826	1022
863.912	506
863.999	-170
864.086	551
864.172	705
864.259	318
864.345	446
864.432	108
864.518	673
864.604	1319
864.691	717
864.777	971
864.863	1910
864.950	1567
865.036	908
865.122	2184
865.209	1997
865.295	2208
865.381	2554
865.467	2106
865.553	2543
865.639	2038
865.726	4388
865.812	8457
865.898	14666
865.984	20701
866.070	40796
866.156	42166
866.242	11580
866.328	3113
866.414	2748
866.499	2625
866.585	2484
866.671	2238
866.757	2384
866.843	1734
866.928	1290
867.014	1506
867.100	1665
867.186	1796
867.271	1965
867.357	2195
867.442	1936
867.528	1440
867.614	603
867.699	1116
867.785	1619
867.870	2149
867.956	1530
868.041	2192
868.127	1466
868.212	1937
868.297	1451
868.383	2209
868.468	2270
868.553	3254
868.639	3482
868.724	4490
868.809	4397
868.894	1670
868.979	1272
869.065	1536
869.150	388
869.235	1652
869.320	907
869.405	1085
869.490	687
869.575	1526
869.660	1474
869.745	2000
869.830	763
869.915	1033
870.000	1014
870.085	993
870.169	1526
870.254	1277
870.339	480
870.424	815
870.509	1768
870.593	1116
870.678	1034
870.763	1014
870.847	1273
870.932	1501
871.016	1289
871.101	1114
871.186	948
871.270	1655
871.355	904
871.439	837
871.523	1234
871.608	1265
871.692	1236
871.777	1347
871.861	999
871.945	748
872.030	1546
872.114	711
872.198	672
872.282	1255
872.367	1348
872.451	1708
872.535	704
872.619	1036
872.703	858
872.787	935
872.871	1590
872.955	541
873.039	506
873.123	534
873.207	1715
873.291	615
873.375	894
873.459	1071
873.543	336
873.627	755
873.711	1181
873.794	1346
873.878	1220
873.962	640
874.045	1149
874.129	1073
874.137	1038
874.213	689
874.245	714
874.296	751
874.352	676
874.380	642
874.460	909
874.464	919
874.547	607
874.568	662
874.631	820
874.676	882
874.714	940
874.784	881
874.798	873
874.881	2577
874.892	2354
874.965	789
874.999	788
875.048	785
875.107	755
875.131	754
875.215	642
875.215	642
875.298	198
875.323	246
875.381	332
875.430	671
875.465	946
875.538	1127
875.548	1148
875.631	244
875.646	143
875.714	-404
875.753	24
875.798	556
875.861	358
875.881	291
875.964	1315
875.968	1300
876.047	981
876.076	854
876.130	588
876.183	761
876.213	954
876.291	1549
876.296	1576
876.379	643
876.398	632
876.462	630
876.506	539
876.545	447
876.613	627
876.628	667
876.711	164
876.721	208
876.794	644
876.828	721
876.877	731
876.935	616
876.960	629
877.043	816
877.043	817
877.125	847
877.150	1024
877.208	1459
877.258	921
877.291	579
877.365	301
877.374	272
877.456	1309
877.472	1277
877.539	1098
877.579	1010
877.622	964
877.687	1512
877.704	1602
877.787	1113
877.794	1057
877.869	774
877.901	1096
877.952	1453
878.008	1086
878.034	945
878.115	197
878.117	185
878.199	531
878.222	760
878.282	1232
878.329	1097
878.364	1091
878.437	1589
878.447	1615
878.529	1159
878.544	1148
878.611	1194
878.651	849
878.694	668
878.758	1055
878.776	1088
878.858	1551
878.865	1519
878.941	920
878.972	717
879.023	631
879.078	805
879.105	925
879.185	1056
879.187	1051
879.269	339
879.292	416
879.351	844
879.399	684
879.433	475
879.506	641
879.516	692
879.598	459
879.613	551
879.680	902
879.720	935
879.762	876
879.827	428
879.844	328
879.926	259
879.933	276
880.007	708
880.040	861
880.089	985
880.147	1167
880.171	1222
880.253	740
880.254	741
880.335	1255
880.360	1344
880.417	2012
880.467	2966
880.499	3474
880.574	3785
880.580	3708
880.662	930
880.680	809
880.744	852
880.787	504
880.825	393
880.893	731
880.907	764
880.989	983
881.000	913
881.070	709
881.106	732
881.152	855
881.213	948
881.233	780
881.315	597
881.319	559
881.396	379
881.426	211
881.478	-1
881.532	731
881.559	1080
881.639	334
881.641	323
881.722	817
881.745	941
881.803	834
881.852	563
881.885	627
881.958	953
881.966	950
882.047	764
882.064	810
882.129	1335
882.171	1197
882.210	944
882.277	1401
882.291	1470
882.372	976
882.383	925
882.454	899
882.489	942
882.535	718
882.596	447
882.616	498
882.697	594
882.702	612
882.778	737
882.808	811
882.859	698
882.914	384
882.940	435
883.020	797
883.021	798
883.102	623
883.127	617
883.183	874
883.233	928
883.264	740
883.339	459
883.345	447
883.426	143
883.445	56
883.507	87
883.551	233
883.587	405
883.657	907
883.668	916
883.749	614
883.763	591
883.830	644
883.869	607
883.910	705
883.975	697
883.991	693
884.072	910
884.081	932
884.152	752
884.187	673
884.233	955
884.292	1316
884.314	1168
884.394	246
884.398	221
884.475	897
884.504	1031
884.555	639
884.610	434
884.636	551
884.716	639
884.716	640
884.797	630
884.821	547
884.877	579
884.927	578
884.958	499
885.033	434
885.038	419
885.118	24
885.139	109
885.199	834
885.244	776
885.279	697
885.350	1166
885.359	1181
885.439	851
885.456	779
885.520	671
885.561	762
885.600	574
885.667	160
885.680	227
885.760	509
885.773	569
885.840	483
885.878	499
885.920	946
885.984	1398
886.000	1332
886.080	1178
886.089	1155
886.160	1016
886.195	890
886.240	823
886.300	764
886.320	856
886.400	1480
886.406	1489
886.480	933
886.511	835
886.560	1132
886.616	1330
886.640	1266
886.720	1326
886.722	1319
886.800	1404
886.827	1462
886.879	1024
886.932	552
886.959	813
887.038	1524
887.039	1520
887.119	799
887.143	612
887.198	792
887.248	844
887.278	782
887.354	518
887.358	538
887.437	1139
887.459	1264
887.517	1073
887.564	953
887.596	1045
887.669	1161
887.676	1149
887.755	990
887.774	962
887.835	865
887.880	780
887.914	855
887.985	947
887.994	926
888.073	782
888.090	752
888.153	400
888.195	139
888.232	409
888.300	978
888.311	966
888.391	682
888.405	662
888.470	1083
888.510	1310
888.549	1100
888.615	725
888.628	708
888.708	643
888.720	628
888.787	670
888.825	689
888.866	671
888.930	659
888.945	849
889.024	1858
889.035	1989
889.103	1751
889.140	1608
889.182	1205
889.245	658
889.261	757
889.340	1206
889.349	1256
889.419	811
889.454	611
889.498	895
889.559	1266
889.577	1230
889.656	1093
889.664	1081
889.735	1200
889.768	1257
889.814	932
889.873	502
889.978	567
890.083	822
890.187	1487
890.292	1259
890.397	88
890.501	958
890.606	1142
890.710	806
890.815	1525
890.919	857
891.024	772
891.128	737
891.233	1239
891.337	792
891.442	1083
891.546	500
891.650	1572
891.755	454
891.859	2213
891.963	1081
892.068	1912
892.172	1030
892.276	915
892.380	697
892.484	147
892.589	1407
892.693	1078
892.797	838
892.901	-269
893.005	687
893.109	1347
893.213	1236
893.317	1550
893.421	145
893.525	1620
893.629	-223
893.733	1130
893.837	374
893.941	186
894.045	1862
894.148	1233
894.252	3618
894.356	1852
894.460	802
894.564	884
894.667	446
894.771	1381
894.875	-67
894.978	827
895.082	1154
895.186	1228
895.289	854
895.393	1179
895.496	550
895.600	487
895.703	671
895.807	304
895.910	1284
896.014	-121
896.117	133
896.221	1099
896.324	231
896.427	827
896.531	281
896.634	292
896.737	1194
896.840	790
896.944	621
897.047	717
897.150	1094
897.253	927
897.356	54
897.460	637
897.563	-686
897.666	545
897.769	805
897.872	981
897.975	147
898.078	1020
898.181	596
898.284	112
898.387	272
898.490	269
898.593	825
898.695	242
898.798	135
898.901	335
899.004	1444
899.107	395
899.209	320
899.312	299
899.415	813
899.518	492
899.620	1094
899.723	307
899.826	1556
899.928	1957
900.031	219
900.133	415
900.236	-129
900.338	269
900.441	568
900.543	-1
900.646	973
900.748	761
900.851	568
900.953	-104
901.055	497
901.158	200
901.260	-239
901.362	516
901.465	540
901.567	977
901.669	883
901.771	82
901.873	648
901.976	460
902.078	615
902.180	759
902.282	213
902.384	97
902.486	553
902.588	772
902.690	1242
902.792	388
902.894	687
902.996	1371
903.098	84
903.200	-227
903.302	799
903.404	832
903.505	124
903.607	897
903.709	935
903.811	552
903.913	604
904.014	300
904.116	394
904.218	431
904.319	1218
904.421	1497
904.523	228
904.624	766
904.726	765
904.827	1863
904.929	230
905.030	247
905.132	424
905.233	583
905.335	259
905.436	-436
905.537	441
905.639	1310
905.740	414
905.841	238
905.943	972
906.044	698
906.145	868
906.247	-141
906.348	741
906.449	587
906.550	985
906.651	1107
906.752	100
906.854	338
906.955	79
907.056	519
907.157	915
907.258	892
907.359	744
907.460	643
907.561	-441
907.662	1000
907.762	37
907.863	545
907.964	97
908.065	521
908.166	1013
908.267	680
908.367	473
908.468	1065
908.569	1240
908.670	769
908.770	1243
908.871	1736
908.971	412
909.072	1387
909.173	819
909.273	627
909.374	618
909.474	47
909.575	1078
909.675	302
909.776	-126
909.876	720
909.977	925
910.077	376
910.177	130
910.278	496
910.378	-133
910.478	235
910.579	681
910.679	1186
910.779	899
910.879	422
910.980	705
911.080	778
911.180	114
911.280	868
911.380	602
911.480	61
911.580	370
911.680	164
911.780	298
911.880	482
911.980	308
912.080	396
912.180	-232
912.280	772
912.380	255
912.480	-275
912.580	-84
912.679	-359
912.779	392
912.879	323
912.979	979
913.078	309
913.178	-36
913.278	515
913.377	761
913.477	809
913.577	-469
913.676	765
913.776	129
913.875	864
913.975	1408
914.074	142
914.174	-151
914.273	-160
914.373	249
914.472	618
914.572	372
914.671	-127
914.770	549
914.870	412
914.969	552
915.068	465
915.167	441
915.267	-549
915.366	448
915.465	598
915.564	-363
915.663	687
915.763	711
915.862	920
915.961	-83
916.060	777
916.159	418
916.258	-49
916.357	-522
916.456	626
916.555	68
916.654	-113
916.752	-219
916.851	658
916.950	772
917.049	728
917.148	-50
917.247	896
917.345	122
917.444	723
917.543	164
917.642	305
917.740	673
917.839	669
917.937	2
918.036	1305
918.135	489
918.233	264
918.332	1289
918.430	-464
918.529	-514
918.627	336
918.726	820
918.824	173
918.923	-392
919.021	76
919.119	-948
919.218	-233
919.316	533
919.414	1124
919.512	-157
919.611	705
919.709	613
919.807	1197
919.905	-365
920.003	909
920.102	-64
920.200	126
920.298	1133
920.396	322
920.494	-375
920.592	705
920.690	381
920.788	-13
920.886	-499
920.984	113
921.082	49
921.180	762
921.277	922
921.375	999
921.473	522
921.571	854
921.669	-175
921.766	960
921.864	708
921.962	726
922.060	45
922.157	768
922.255	398
922.352	787
922.450	1079
922.548	488
922.645	620
922.743	2068
922.840	1424
922.938	2104
923.035	1571
923.133	1424
923.230	1077
923.327	2623
923.425	1296
923.522	1894
923.619	807
923.717	1732
923.814	2605
923.911	1772
924.008	1289
924.106	1841
924.203	810
924.300	958
924.397	1029
924.494	1492
924.591	1246
924.688	1594
924.786	2196
924.883	2407
924.979	1365
925.077	1500
925.173	1632
925.270	1580
925.367	1498
925.464	2316
925.561	1267
925.658	1537
925.755	1431
925.852	1612
925.948	1038
926.045	1199
926.142	1840
926.239	1176
926.335	999
926.432	1287
926.529	1659
926.625	1044
926.722	1147
926.818	1781
926.915	853
927.011	1249
927.108	990
927.204	1842
927.301	1170
927.397	931
927.494	1195
927.590	1518
927.687	872
927.783	1021
927.879	1030
927.976	1291
928.072	1134
928.168	1224
928.264	337
928.361	772
928.457	1243
928.553	1585
928.649	764
928.745	1189
928.841	1393
928.937	1802
929.033	1140
929.129	610
929.225	1180
929.321	1169
929.417	976
929.513	1327
929.609	744
929.705	362
929.801	1240
929.897	444
929.993	1063
930.089	1315
930.184	582
930.280	924
930.376	1275
930.471	1330
930.567	-710
930.663	808
930.758	355
930.854	602
930.950	651
931.045	1208
931.141	-34
931.236	1253
931.332	245
931.427	-103
931.523	1029
931.618	1327
931.714	346
931.809	1016
931.905	1148
932.000	530
932.095	130
932.191	865
932.286	599
932.381	723
932.476	-37
932.572	576
932.667	261
932.762	627
932.857	920
932.952	854
933.047	558
933.142	705
933.237	707
933.332	858
933.427	216
933.522	289
933.617	361
933.712	178
933.807	0
933.902	905
933.997	204
934.092	664
934.187	237
934.282	117
934.376	946
934.471	721
934.566	193
934.661	59
934.755	309
934.850	546
934.945	679
935.039	523
935.134	1126
935.228	545
935.323	1470
935.417	922
935.512	498
935.606	742
935.701	178
935.795	604
935.890	1454
935.984	982
936.079	-193
936.173	692
936.267	-837
936.362	453
936.456	503
936.550	622
936.644	-49
936.738	565
936.833	665
936.927	1129
937.021	463
937.115	276
937.209	295
937.303	1538
937.397	466
937.491	274
937.585	686
937.679	1278
937.773	741
937.867	-8
937.961	357
938.055	398
938.149	426
938.243	588
938.337	218
938.430	348
938.524	524
938.618	863
938.712	217
938.805	554
938.899	-158
938.993	1452
939.086	-203
939.180	-341
939.274	773
939.367	-927
939.461	91
939.554	459
939.648	55
939.741	-232
939.835	-156
939.928	1200
940.022	-268
940.115	313
940.208	55
940.302	1019
940.395	339
940.488	-566
940.582	543
940.675	-39
940.768	-366
940.861	-18
940.954	994
941.048	251
941.141	504
941.234	-55
941.327	1126
941.420	1104
941.513	435
941.606	-294
941.699	431
941.792	667
941.885	608
941.978	717
942.071	165
942.164	-367
942.257	272
942.349	713
942.442	93
942.535	67
942.628	127
942.721	470
942.813	-1015
942.906	849
942.999	102
943.091	-91
943.184	-81
943.277	219
943.369	1034
943.462	386
943.554	-233
943.647	188
943.739	840
943.832	64
943.924	-681
944.017	356
944.109	-491
944.201	511
944.294	-272
944.386	162
944.478	-59
944.571	453
944.663	183
944.755	721
944.847	253
944.940	-340
945.032	-549
945.124	228
945.216	1093
945.308	-11
945.400	152
945.492	-61
945.584	-25
945.676	-164
945.768	195
945.860	1041
945.952	450
946.044	-354
946.136	-220
946.228	422
946.320	-191
946.412	373
946.503	77
946.595	671
946.687	-156
946.779	-252
946.870	-259
946.962	-587
947.054	-185
947.145	635
947.237	340
947.329	34
947.420	-219
947.512	-414
947.603	-655
947.695	-264
947.786	-469
947.878	256
947.969	-269
948.061	319
948.152	-322
948.243	-124
948.335	202
948.426	357
948.517	-1000
948.609	-216
948.700	-460
948.791	-251
948.882	429
948.973	429
949.065	-262
949.156	32
949.247	-1036
949.338	485
949.429	-551
949.520	224
949.611	-978
949.702	347
949.793	-634
949.884	487
949.975	-406
950.066	-58
950.157	-249
950.247	-423
950.338	-548
950.429	-33
950.520	-173
950.611	146
950.701	-146
950.792	429
950.883	-34
950.973	159
951.064	26
951.155	401
951.245	362
951.336	-623
951.427	-1374
951.517	462
951.608	-570
951.698	-654
951.788	359
951.879	-113
951.969	-532
952.060	-86
952.150	-397
952.240	-293
952.331	-1347
952.421	1466
952.511	317
952.602	-392
952.692	-74
952.782	130
952.872	-117
952.962	139
953.052	-182
953.143	-553
953.233	132
953.323	899
953.413	-596
953.503	112
953.593	-180
953.683	-610
953.773	-632
953.863	139
953.953	-669
954.042	45
954.132	-791
954.222	73
954.312	-544
954.402	-281
954.492	123
954.581	649
954.671	-435
954.761	-517
954.850	964
954.940	-489
955.030	-289
955.119	-490
955.209	186
955.298	-785
955.388	-338
955.477	1192
955.567	-938
955.656	752
955.746	-497
955.835	-233
955.925	-1046
956.014	123
956.103	63
956.193	94
956.282	236
956.371	756
956.461	-157
956.550	-89
956.639	167
956.728	78
956.817	286
956.906	-66
956.995	935
957.085	282
957.174	680
957.263	-434
957.352	393
957.441	-690
957.530	-614
957.619	-442
957.708	-410
957.796	-585
957.885	-413
957.974	264
958.063	577
958.152	-866
958.241	394
958.329	-33
958.418	-476
958.507	119
958.596	784
958.684	-205
958.773	236
958.861	777
958.950	-70
959.039	516
959.127	155
959.216	-117
959.304	-102
959.393	574
959.481	673
959.570	27
959.658	-25
959.746	-171
959.835	816
959.923	1414
960.011	215
960.100	545
960.188	-247
960.276	-176
960.365	-855
960.453	-537
960.541	-500
960.629	381
960.717	-970
960.805	-293
960.893	28
960.981	-844
961.069	115
961.158	-129
961.245	93
961.333	249
961.421	-1649
961.509	-473
961.597	14
961.685	-830
961.773	-108
961.861	-653
961.949	-533
962.036	-681
962.124	222
962.212	331
962.299	-63
962.387	-1032
962.475	137
962.562	-660
962.650	-256
962.738	-433
962.825	-184
962.913	198
963.000	-561
963.088	509
963.175	-328
963.263	-568
963.350	-229
963.438	238
963.525	-618
963.612	1437
963.700	2782
963.787	5729
963.874	2008
963.962	-97
964.049	492
964.136	-254
964.223	-785
964.310	-484
964.398	-259
964.485	-859
964.572	241
964.659	1184
964.746	353
964.833	248
964.920	-853
965.007	39
965.094	-45
965.181	-575
965.268	-451
965.355	-342
965.441	-797
965.528	-1216
965.615	39
965.702	-957
965.789	-908
965.875	543
965.962	-754
966.049	-1116
966.136	-269
966.222	-192
966.309	138
966.395	-1160
966.482	-52
966.569	-503
966.655	-419
966.742	-1141
966.828	606
966.915	-502
967.001	296
967.087	-1146
967.174	-413
967.260	319
967.347	707
967.433	1585
967.519	3394
967.605	940
967.692	-1213
967.778	-982
967.864	-526
967.950	-634
968.036	-403
968.123	-998
968.209	-289
968.295	-1539
968.381	545
968.467	-43
968.553	-1724
968.639	219
968.725	-1042
968.811	15
968.897	-620
968.983	-916
969.069	-1058
969.154	-181
969.240	194
969.326	-724
969.412	-1380
969.497	-669
969.583	-1179
969.669	398
969.755	-1031
969.840	-1561
969.926	-22
970.012	-1132
970.097	80
970.183	-626
970.268	-784
970.354	74
970.439	300
970.525	2318
970.610	-1250
970.696	1117
970.781	-590
970.866	-1488
970.952	112
971.037	-897
971.122	-2031
971.208	-206
971.293	-832
971.378	-1819
971.463	-1548
971.549	-338
971.634	-203
971.719	-454
971.804	-1087
971.889	-65
971.974	-798
972.059	-994
972.144	3
972.229	-1122
972.314	-1231
972.399	-540
972.484	-831
972.569	-55
972.654	-547
972.739	1214
972.824	266
972.908	-967
972.993	-800
973.078	-1314
973.163	-386
973.247	-1102
973.332	-1699
973.417	-106
973.501	-1945
973.586	204
973.671	-888
973.755	-502
973.840	-375
973.924	-121
974.009	-1647
974.093	-1092
974.178	190
974.262	-183
974.346	262
974.431	-698
974.515	-844
974.600	-679
974.684	-208
974.768	-1142
974.852	-441
974.937	-1338
975.021	-164
975.105	-1862
975.189	-1192
975.273	-64
975.358	-1408
975.442	-657
975.526	-789
975.610	-897
975.694	-1530
975.778	913
975.862	-1330
975.946	-2311
976.030	-256
976.114	-732
976.198	-563
976.281	-866
976.365	-410
976.449	-1213
976.533	-93
976.617	-1266
976.700	-1189
976.784	-626
976.868	-951
976.951	-785
977.035	-895
977.119	-1370
977.202	-327
977.286	-555
977.369	-1338
977.453	-145
977.536	-1526
977.620	-716
977.703	-650
977.787	-1041
977.870	162
977.953	118
978.037	-2255
978.120	434
978.203	-457
978.287	258
978.370	-512
978.453	-786
978.536	-937
978.620	3
978.703	-1300
978.786	-836
978.869	-2190
978.952	-1661
979.035	-55
979.118	42
979.201	-1325
979.284	-1960
979.367	-1516
979.450	-330
979.533	-1072
979.616	-917
979.699	-1297
979.782	-504
979.865	-1707
979.948	-872
980.030	-1554
980.113	-1357
980.196	-2201
980.279	-743
980.361	-1260
980.444	-971
980.526	-195
980.609	-1235
980.692	-976
980.774	-595
980.857	-2312
980.939	36
981.022	-963
981.104	-1301
981.187	-1479
981.269	-1085
981.352	-827
981.434	-1499
981.516	-1052
981.599	212
981.681	-1693
981.763	-959
981.846	-1389
981.928	-1100
982.010	-944
982.092	-653
982.174	100
982.256	-468
982.339	-1019
982.421	-1119
982.503	-848
982.585	-1670
982.667	-1466
982.749	-584
982.831	-235
982.913	-1513
982.995	70
983.077	-1406
983.158	313
983.240	-2176
983.322	-1198
983.404	-261
983.486	-981
983.568	-373
983.649	-890
983.731	197
983.813	-1106
983.894	-218
983.976	-2161
984.058	-1578
984.139	69
984.221	-1455
984.302	-195
984.384	-941
984.465	-1476
984.547	-478
984.628	-1226
984.710	-369
984.791	-1227
984.872	-1305
984.954	-1249
985.035	-720
985.116	-1189
985.198	-628
985.279	-550
985.360	-1223
985.441	-1852
985.522	-662
985.604	-572
985.685	-2600
985.766	-399
985.847	200
985.928	-1660
986.009	-1032
986.090	-166
986.171	-336
986.252	-1218
986.333	-1109
986.414	-1136
986.495	-289
986.576	-872
986.656	-1379
986.737	-597
986.818	-1353
986.899	-655
986.980	-907
987.060	-865
987.141	-1118
987.222	-713
987.302	-632
987.383	-420
987.464	-788
987.544	-468
987.625	-1042
987.705	-867
987.786	-579
987.866	-821
987.947	-776
988.027	-1395
988.108	-929
988.188	-937
988.268	-983
988.349	-1002
988.429	-1401
988.509	-1169
988.589	-605
988.670	-2741
988.750	208
988.830	-2025
988.910	-397
988.990	-1221
989.070	-747
989.151	-919
989.231	-1329
989.311	-451
989.391	-376
989.471	-1106
989.551	-1295
989.631	-1116
989.711	223
989.791	-2195
989.870	-1672
989.950	-1184
990.030	-988
990.110	-1344
990.190	-1422
990.269	-1437
990.349	-839
990.429	-361
990.509	-635
990.588	-1475
990.668	-930
990.747	-1448
990.827	-578
990.907	-271
990.986	-664
991.066	-1131
991.145	-689
991.225	-870
991.304	-654
991.383	-1389
991.463	-631
991.542	-1037
991.622	-1164
991.701	-808
991.780	-771
991.859	-1139
991.939	-962
992.018	-1764
992.097	-1001
992.176	-886
992.256	-860
992.335	-1755
992.414	1
992.493	-1508
992.572	-1499
992.651	236
992.730	-210
992.809	-1166
992.888	-1420
992.967	-1757
993.046	331
993.125	-2361
993.203	-105
993.282	-286
993.361	-1151
993.440	-654
993.519	-1808
993.597	-540
993.676	-1074
993.755	-486
993.834	-886
993.912	-1891
993.991	676
994.069	-1145
994.148	-149
994.226	-1681
994.305	284
994.384	-1012
994.462	-498
994.540	-1600
994.619	-710
994.697	-1112
994.776	-1473
994.854	-816
994.932	-968
995.011	-380
995.089	-774
995.167	-1122
995.245	-900
995.324	-1864
995.402	-300
995.480	-1955
995.558	-860
995.636	-2296
995.714	-1216
995.792	-604
995.870	-1192
995.948	-1136
996.026	-1213
996.104	-1638
996.182	-117
996.260	-847
996.338	-364
996.416	-1945
996.494	-1013
996.572	-597
996.649	-1582
996.727	-1782
996.805	-944
996.883	-1099
996.960	-878
997.038	-1257
997.116	-978
997.193	-1276
997.271	-868
997.348	-1923
997.426	-219
997.504	-1031
997.581	-120
997.658	-1351
997.736	-1395
997.813	-1959
997.891	-183
997.968	-1743
998.046	-1040
998.123	-1333
998.200	-584
998.277	-1376
998.355	-845
998.432	-2436
998.509	-601
998.586	-666
998.663	-616
998.741	-1968
998.818	-1333
998.895	-2219
998.972	-971
999.049	-1828
999.126	-1539
999.203	-522
999.280	-1365
999.357	-1263
999.434	-1678
999.511	-628
999.587	-320
999.664	-1537
999.741	-1157
999.818	-699
999.895	-977
999.971	-2467
1000.048	-1034
1000.125	-469
1000.202	-1321
1000.278	-1374
1000.355	-1002
1000.431	-1900
1000.508	-533
1000.584	-1188
1000.661	-1371
1000.738	-1768
1000.814	-1074
1000.890	-1274
1000.967	-771
1001.043	-1647
1001.120	-1348
1001.196	-1286
1001.272	-1695
1001.349	-1772
1001.425	-423
1001.501	-1206
1001.577	-2050
1001.654	-1225
1001.730	-1217
1001.806	-1195
1001.882	-954
1001.958	-595
1002.034	-1775
1002.110	-864
1002.186	-1735
1002.262	-1981
1002.338	-1467
1002.414	-1150
1002.490	-1354
1002.566	-1432
1002.642	-1031
1002.718	-988
1002.794	-1720
1002.870	-1822
1002.945	-1686
1003.021	-1315
1003.097	-1333
1003.173	-1146
1003.248	-1700
1003.324	-1085
1003.400	-487
1003.475	-2060
1003.551	-1857
1003.626	-1105
1003.702	-1254
1003.777	-977
1003.853	-1926
1003.928	-1811
1004.004	-1563
1004.079	-1476
1004.155	-995
1004.230	-2336
1004.305	-115
1004.381	-2137
1004.456	-1034
1004.531	-2276
1004.607	-1566
1004.682	-1434
1004.757	-1329
1004.832	-2159
1004.907	-1079
1004.982	-1799
1005.057	-817
1005.133	-1267
1005.208	-1370
1005.283	-1021
1005.358	-818
1005.433	-1987
1005.508	-1339
1005.583	-2262
1005.657	-1622
1005.732	-609
1005.807	-1674
1005.882	-1458
1005.957	-1103
1006.032	-1297
1006.106	-1158
1006.181	-848
1006.256	-631
1006.331	-1575
1006.405	-1283
1006.480	-1006
1006.554	-1175
1006.629	-1449
1006.704	-2318
1006.778	-1825
1006.853	-1141
1006.927	-2293
1007.002	-2715
1007.076	-2316
1007.150	-1810
1007.225	-1577
1007.299	-1333
1007.373	-2383
1007.448	-2154
1007.522	-979
1007.596	-1924
1007.671	-1166
1007.745	-1126
1007.819	-1666
1007.893	-1914
1007.967	-532
1008.041	-2431
1008.115	-742
1008.190	-1498
1008.264	-1035
1008.338	-2282
1008.412	-1859
1008.486	-2128
1008.560	-1410
1008.633	-2324
1008.707	-2098
1008.781	-829
1008.855	-1659
1008.929	-745
1009.003	-2500
1009.076	-1471
1009.150	-1939
1009.224	-1475
1009.298	-1421
1009.371	-1383
1009.445	-1445
1009.519	-1426
1009.592	-2489
1009.666	-1547
1009.739	-1555
1009.813	-2160
1009.886	-277
1009.960	-1898
1010.033	-1692
1010.107	-797
1010.180	-2921
1010.253	-1803
1010.327	-1937
1010.400	-1081
1010.473	-2842
1010.547	449
1010.620	-1350
1010.693	-1524
1010.766	-2515
1010.840	-737
1010.913	-1791
1010.986	-2414
1011.059	-1763
1011.132	-1619
1011.205	-1383
1011.278	-1930
1011.351	-1836
1011.424	-1213
1011.497	-2235
1011.570	-1621
1011.643	-1819
1011.716	-1692
1011.789	-1796
1011.862	-1383
1011.934	-1469
1012.007	-2324
1012.080	-1718
1012.153	-1542
1012.225	-950
1012.298	-2566
1012.371	-1997
1012.443	-1265
1012.516	-2290
1012.588	-1675
1012.661	-1081
1012.733	-2012
1012.806	-1336
1012.879	-1689
1012.951	-1118
1013.023	-1506
1013.096	-1200
1013.168	-1125
1013.241	-1933
1013.313	-1731
1013.385	-2096
1013.458	-2218
1013.530	-874
1013.602	-1834
1013.674	-868
1013.746	-2069
1013.819	-2597
1013.891	-564
1013.963	-2180
1014.035	-1019
1014.107	-1689
1014.179	-1004
1014.251	-1897
1014.323	-1638
1014.395	-1494
1014.467	-1290
1014.539	-1277
1014.611	-2230
1014.683	-1522
1014.754	-1253
1014.826	-1410
1014.898	-793
1014.970	-2570
1015.042	-1135
1015.113	-1492
1015.185	-1974
1015.257	-2753
1015.328	-1043
1015.400	-2320
1015.471	-1462
1015.543	-2078
1015.615	-1942
1015.686	-1904
1015.757	-1684
1015.829	-1789
1015.901	-1915
1015.972	-2101
1016.043	-1839
1016.115	-764
1016.186	-1412
1016.257	-2157
1016.328	-1368
1016.400	-1419
1016.471	-2235
1016.542	-1108
1016.613	-1533
1016.685	-1798
1016.756	-1122
1016.827	-1813
1016.898	-2329
1016.969	-905
1017.040	-921
1017.111	-1720
1017.182	-2090
1017.253	-2027
1017.324	-2140
1017.395	-1972
1017.466	-1507
1017.537	-1458
1017.608	-1082
1017.678	-1630
1017.749	-1919
1017.820	-1793
1017.891	-1930
1017.961	-1256
1018.032	-1542
1018.103	-2393
1018.173	-1626
1018.244	-1880
1018.315	-2202
1018.385	-1253
1018.456	-1781
1018.526	-2334
1018.597	-946
1018.667	-1878
1018.738	-1695
1018.808	-1789
1018.878	-1398
1018.949	-1679
1019.019	-1240
1019.089	-1367
1019.160	-1952
1019.230	-2508
1019.300	-1811
1019.371	-1970
1019.441	-1236
1019.511	-1706
1019.581	-1657
1019.651	-1422
1019.721	-1348
1019.791	-2181
1019.861	-1509
1019.931	-866
1020.001	-1651
1020.071	-1829
1020.141	-1577
1020.211	-1670
1020.281	-2247
1020.351	-1674
1020.421	-1502
1020.491	-1265
1020.560	-2001
1020.630	-1842
1020.700	-1979
1020.770	-1783
1020.839	-1140
1020.909	-1949
1020.979	-2026
1021.048	-1536
1021.118	-1797
1021.187	-2565
1021.257	-1364
1021.326	-769
1021.396	-2455
1021.465	-2167
1021.535	-1382
1021.604	-1825
1021.674	-1733
1021.743	-2310
1021.812	-1450
1021.882	-2232
1021.951	-1426
1022.020	-1951
1022.089	-1241
1022.159	-1557
1022.228	-774
1022.297	-2135
1022.366	-814
1022.435	-2019
1022.504	-955
1022.573	-1627
1022.642	-1566
1022.711	-2218
1022.781	-1418
1022.849	-1353
1022.918	-1708
1022.987	-1188
1023.056	-1863
1023.125	-2371
1023.194	-1422
1023.263	-1455
1023.331	-1063
1023.400	-2036
1023.469	-2586
1023.538	-1002
1023.606	-1739
1023.675	-1568
1023.744	-1293
1023.812	-1763
1023.881	-1657
1023.949	-1762
1024.018	-2042
1024.086	-1814
1024.155	-1587
1024.223	-2088
1024.292	-1033
1024.360	-1772
1024.429	-1940
1024.497	-1917
1024.565	-1426
1024.634	-2368
1024.702	-1368
1024.770	-1289
1024.838	-2142
1024.907	-1613
1024.975	-2303
1025.043	-1094
1025.111	-1419
1025.179	-1205
1025.247	-1513
1025.315	-1507
1025.383	-1487
1025.451	-2074
1025.519	-1893
1025.587	-2224
1025.655	-1545
1025.723	-1523
1025.791	-1949
1025.859	-1292
1025.927	-1062
1025.995	-1985
1026.062	-1382
1026.130	-2063
1026.198	-1701
1026.266	-2066
1026.333	-1596
1026.401	-1758
1026.469	-650
1026.536	-1921
1026.604	-1654
1026.671	-2113
1026.739	-1377
1026.806	-2365
1026.874	-2166
1026.941	-1508
1027.009	-1950
1027.076	-2090
1027.144	-1129
1027.211	-2317
1027.278	-2183
1027.345	-1468
1027.413	-1697
1027.480	-1813
1027.547	-2000
1027.614	-1952
1027.682	-1974
1027.749	-1329
1027.816	-1825
1027.883	-2314
1027.950	-1422
1028.017	-2624
1028.084	-1082
1028.151	-2446
1028.218	-1672
1028.285	-924
1028.352	-1195
1028.419	-2526
1028.486	-2055
1028.553	-2239
1028.619	-1711
1028.686	-1982
1028.753	-2255
1028.820	-2072
1028.886	-1538
1028.953	-1653
1029.020	-1872
1029.086	-1742
1029.153	-1671
1029.220	-2128
1029.286	-2319
1029.353	-1725
1029.419	-2605
1029.486	-2482
1029.552	-1446
1029.619	-2047
1029.685	-1368
1029.751	-1659
1029.818	-801
1029.884	-1687
1029.951	-1001
1030.017	-2433
1030.083	-1673
1030.149	-2038
1030.216	-1842
1030.282	-880
1030.348	-1826
1030.414	-1573
1030.480	-1900
1030.546	-2637
1030.612	-1038
1030.678	-1899
1030.744	-1871
1030.810	-1331
1030.876	-1409
1030.942	-1508
1031.008	-1709
1031.074	-1465
1031.140	-1506
1031.206	-2080
1031.272	-2274
1031.337	-1868
1031.403	-1806
1031.469	-1403
1031.534	-2160
1031.600	-1632
1031.666	-2449
1031.731	-1318
1031.797	-1694
1031.863	-2130
1031.928	-2144
1031.994	-2270
1032.059	-981
1032.125	-2016
1032.190	-1564
1032.256	-2282
1032.321	-2214
1032.386	-2064
1032.452	-1344
1032.517	-1753
1032.582	-2644
1032.647	-1394
1032.713	-1775
1032.778	-1671
1032.843	-1664
1032.908	-1764
1032.974	-1452
1033.039	-2111
1033.104	-1298
1033.169	-1969
1033.234	-1948
1033.299	-2178
1033.364	-1732
1033.429	-2299
1033.494	-1983
1033.559	-2241
1033.624	-1930
1033.688	-1598
1033.753	-2260
1033.818	-1945
1033.883	-1462
1033.948	-2276
1034.013	-1440
1034.077	-1849
1034.142	-1076
1034.207	-1734
1034.271	-828
1034.336	-1266
1034.400	-729
1034.465	-1612
1034.530	-1760
1034.594	-1476
1034.658	-2015
1034.723	-2809
1034.787	-1939
1034.852	-2392
1034.916	-1563
1034.981	-1838
1035.045	-1741
1035.109	-2022
1035.173	-1397
1035.238	-2362
1035.302	-1876
1035.366	-2305
1035.430	-1759
1035.495	-1818
1035.559	-2254
1035.623	-2181
1035.687	-2171
1035.751	-2487
1035.815	-1717
1035.879	-1849
1035.943	-2190
1036.007	-2196
1036.071	-1877
1036.135	-1952
1036.198	-1891
1036.262	-1938
1036.326	-1004
1036.390	-1470
1036.454	-1521
1036.517	-1766
1036.581	-1677
1036.645	-1206
1036.709	-1822
1036.772	-2493
1036.836	-2021
1036.900	-1715
1036.963	-2281
1037.026	-1999
1037.090	-2435
1037.154	-1546
1037.217	-2406
1037.280	-1763
1037.344	-2221
1037.407	-2320
1037.471	-1500
1037.534	-2349
1037.597	-2305
1037.661	-2066
1037.724	-2084
1037.787	-1826
1037.850	-2119
1037.913	-1599
1037.977	-1381
1038.040	-2364
1038.103	-1090
1038.166	-2051
1038.229	-2585
1038.292	-1864
1038.355	-2016
1038.418	-1843
1038.481	-1560
1038.544	-2386
1038.607	-1777
1038.670	-1855
1038.732	-1685
1038.795	-3177
1038.858	-2039
1038.921	-1917
1038.984	-1627
1039.046	-2559
1039.109	-2085
1039.172	-1420
1039.234	-2395
1039.297	-2288
1039.360	-1341
1039.422	-2038
1039.485	-1845
1039.547	-2947
1039.610	-2117
1039.672	-1755
1039.734	-2045
1039.797	-1439
1039.859	-1560
1039.922	-2631
1039.984	-2068
1040.046	-1966
1040.109	-1539
1040.171	-2325
1040.233	-1896
1040.295	-2417
1040.358	-2048
1040.420	-1949
1040.482	-1464
1040.544	-2570
1040.606	-2076
1040.668	-2698
1040.730	-1795
1040.792	-2464
1040.854	-1601
1040.916	-2843
1040.978	-1985
1041.040	-2005
1041.102	-2170
1041.164	-2765
1041.225	-2197
1041.287	-2141
1041.349	-2051
1041.411	-2039
1041.472	-2058
1041.534	-2266
1041.596	-2418
1041.657	-1933
1041.719	-2037
1041.781	-2154
1041.842	-1613
1041.904	-2027
1041.965	-1571
1042.027	-1965
1042.088	-1571
1042.150	-2611
1042.211	-1917
1042.272	-1723
1042.334	-2395
1042.395	-2009
1042.456	-2415
1042.518	-1463
1042.579	-1184
1042.640	-1940
1042.701	-1794
1042.763	-1867
1042.824	-2635
1042.885	-2790
1042.946	-2071
1043.007	-1788
1043.068	-2129
1043.129	-2211
1043.190	-2670
1043.251	-1809
1043.312	-1525
1043.373	-2533
1043.434	-1672
1043.495	-1625
1043.556	-1822
1043.616	-2483
1043.677	-2782
1043.738	-1845
1043.799	-2300
1043.859	-1833
1043.920	-2005
1043.981	-1694
1044.041	-2059
1044.102	-2296
1044.162	-1513
1044.223	-2263
1044.284	-1800
1044.344	-1350
1044.405	-1485
1044.465	-2165
1044.525	-2226
1044.586	-2149
1044.646	-1656
1044.707	-1072
1044.767	-2005
1044.827	-2075
1044.887	-1455
1044.948	-1430
1045.008	-1525
1045.068	-2496
1045.128	-1327
1045.188	-1934
1045.249	-1332
1045.309	-1697
1045.369	-1318
1045.429	-1980
1045.489	-1859
1045.549	-2589
1045.609	-2138
1045.669	-1940
1045.729	-1980
1045.789	-1514
1045.848	-1726
1045.908	-1951
1045.968	-755
1046.028	-1979
1046.088	-1096
1046.147	-1394
1046.207	-1271
1046.267	-1610
1046.326	-1422
1046.386	-1656
1046.446	-717
1046.505	-1712
1046.565	-1002
1046.624	-1099
1046.684	-1002
1046.743	-1293
1046.803	-274
1046.862	-964
1046.922	0
