'Start Wavelength	183.907
'End Wavelength	1046.922
'Gate Delay	5.000
'Gate Width (ms)	1.050
'Laser Output Level	0.000
'X Position	0.000
'Y Position	0.000
'Z Position	0.000
'Grid Point Number	1.000
'Shot Number	100.000
183.907	-154.000
183.977	83.000
184.047	-672
184.116	1006
184.186	-480
184.256	-88
184.325	-83
184.395	-1032
184.465	718
184.534	621
184.604	-616
184.674	934
184.743	-39
184.813	778
184.883	-450
184.952	725
185.022	31
185.092	-146
185.161	-560
185.231	-437
185.301	-160
185.370	497
185.440	-346
185.509	33
185.579	-480
185.649	778
185.718	-6
185.788	512
185.857	-934
185.927	-416
185.996	37
186.066	-100
186.136	-163
186.205	-534
186.275	-837
186.344	-140
186.414	157
186.483	-60
186.553	174
186.622	-44
186.692	-536
186.761	-596
186.831	-271
186.900	645
186.970	-410
187.039	175
187.109	236
187.178	138
187.248	-22
187.317	-330
187.387	69
187.456	-90
187.526	-234
187.595	424
187.664	-38
187.734	1131
187.803	-192
187.873	409
187.942	1088
188.012	1107
188.081	251
188.150	107
188.220	-413
188.289	384
188.358	-668
188.428	171
188.497	-665
188.567	488
188.636	-362
188.705	546
188.775	0
188.844	78
188.913	74
188.983	-240
189.052	-147
189.121	-735
189.191	-153
189.260	295
189.329	33
189.399	591
189.468	274
189.537	115
189.606	113
189.676	745
189.745	159
189.814	1379
189.883	86
189.953	438
190.022	462
190.091	526
190.161	684
190.230	733
190.299	-123
190.368	598
190.437	15
190.507	320
190.576	70
190.645	199
190.714	-92
190.783	-60
190.853	287
190.922	492
190.991	470
191.060	414
191.129	-39
191.198	165
191.268	279
191.337	752
191.406	558
191.475	89
191.544	-472
191.613	988
191.682	-341
191.752	491
191.821	308
191.890	-60
191.959	639
192.028	487
192.097	467
192.166	720
192.235	-65
192.304	734
192.373	-645
192.442	42
192.511	-143
192.580	809
192.650	-106
192.719	763
192.788	796
192.857	563
192.926	-432
192.995	478
193.064	-33
193.133	1082
193.202	1003
193.271	847
193.340	1389
193.409	1497
193.478	991
193.547	953
193.615	1616
193.684	1661
193.753	481
193.822	601
193.891	376
193.960	375
194.029	12
194.098	714
194.167	-471
194.236	836
194.305	392
194.374	457
194.443	374
194.512	352
194.580	393
194.649	692
194.718	-420
194.787	1404
194.856	-220
194.925	648
194.994	75
195.062	828
195.131	992
195.200	712
195.269	145
195.338	509
195.407	-48
195.475	-152
195.544	192
195.613	946
195.682	161
195.751	1278
195.819	399
195.888	1060
195.957	967
196.026	1008
196.094	1153
196.163	894
196.232	-175
196.301	685
196.369	143
196.438	1024
196.507	700
196.576	666
196.644	247
196.713	387
196.782	402
196.850	659
196.919	597
196.988	367
197.056	830
197.125	376
197.194	-54
197.262	792
197.331	644
197.400	-3
197.468	-62
197.537	-381
197.606	922
197.674	1005
197.743	688
197.812	384
197.880	1454
197.949	1385
198.017	1254
198.086	583
198.155	386
198.223	1239
198.292	275
198.360	706
198.429	151
198.497	1563
198.566	124
198.635	1353
198.703	494
198.772	920
198.840	2095
198.909	2159
198.977	865
199.046	797
199.114	150
199.183	979
199.251	-598
199.320	320
199.388	-640
199.457	439
199.525	571
199.594	1023
199.662	-248
199.731	1007
199.799	703
199.867	852
199.936	113
200.004	854
200.073	437
200.141	502
200.210	680
200.278	586
200.346	1213
200.415	767
200.483	1258
200.552	220
200.620	-124
200.688	970
200.757	930
200.825	374
200.893	-288
200.962	889
201.030	82
201.098	639
201.167	290
201.235	106
201.303	1107
201.372	846
201.440	301
201.508	783
201.577	386
201.645	717
201.713	463
201.781	517
201.850	712
201.918	775
201.986	863
202.055	1117
202.123	110
202.191	916
202.259	501
202.327	362
202.396	559
202.464	791
202.532	39
202.600	1951
202.669	622
202.737	602
202.805	103
202.873	1082
202.941	534
203.009	1446
203.078	333
203.146	-22
203.214	283
203.282	309
203.350	826
203.418	576
203.487	799
203.555	1015
203.623	598
203.691	1151
203.759	377
203.827	-334
203.895	126
203.963	462
204.031	500
204.099	620
204.168	94
204.236	1771
204.304	281
204.372	1472
204.440	311
204.508	661
204.576	-764
204.644	1350
204.712	34
204.780	1264
204.848	501
204.916	515
204.984	55
205.052	1267
205.120	419
205.188	774
205.256	363
205.324	428
205.392	810
205.460	1179
205.528	-43
205.596	1264
205.664	43
205.732	-37
205.799	1224
205.867	2736
205.935	109
206.003	1174
206.071	913
206.139	847
206.207	232
206.275	1496
206.343	562
206.411	945
206.478	586
206.546	1484
206.614	519
206.682	1133
206.750	861
206.818	1355
206.885	903
206.953	56
207.021	1950
207.089	1058
207.157	-85
207.225	1162
207.292	169
207.360	469
207.428	565
207.496	950
207.563	634
207.631	1294
207.699	97
207.767	1253
207.834	838
207.902	1017
207.970	365
208.038	882
208.105	837
208.173	1649
208.241	756
208.309	1502
208.376	367
208.444	1991
208.512	994
208.579	639
208.647	950
208.715	1728
208.782	546
208.850	456
208.918	-238
208.985	537
209.053	450
209.120	1145
209.188	78
209.256	1499
209.323	723
209.391	1296
209.459	2403
209.526	830
209.594	879
209.661	808
209.729	-29
209.796	1351
209.864	1391
209.932	169
209.999	1699
210.067	1302
210.134	1172
210.202	1300
210.269	1906
210.337	1694
210.404	729
210.472	893
210.539	997
210.607	921
210.674	994
210.742	1839
210.809	1257
210.877	1742
210.944	2027
211.012	603
211.079	2226
211.146	1013
211.214	406
211.281	1296
211.349	2168
211.416	2214
211.484	2193
211.551	1057
211.618	1250
211.686	1941
211.753	441
211.821	1884
211.888	326
211.955	1361
212.023	1422
212.090	1508
212.157	1208
212.225	1468
212.292	2129
212.359	3776
212.427	6239
212.494	4346
212.561	2195
212.629	2000
212.696	1674
212.763	2364
212.831	620
212.898	1858
212.965	1428
213.032	1729
213.100	383
213.167	1392
213.234	1645
213.301	1424
213.369	710
213.436	1666
213.503	1163
213.570	1136
213.638	998
213.705	944
213.772	660
213.839	1998
213.906	2178
213.973	1833
214.041	1536
214.108	2177
214.175	1623
214.242	1383
214.309	1765
214.376	1738
214.444	1593
214.511	1987
214.578	948
214.645	2290
214.712	1447
214.779	2399
214.846	947
214.913	2755
214.980	2000
215.048	1936
215.115	2667
215.182	2179
215.249	1587
215.316	2012
215.383	1917
215.450	1935
215.517	1339
215.584	1851
215.651	1543
215.718	2127
215.785	2019
215.852	1413
215.919	1579
215.986	2286
216.053	993
216.120	1529
216.187	1557
216.254	1733
216.321	1162
216.388	2030
216.455	1808
216.522	2307
216.589	2285
216.656	2885
216.722	3338
216.789	3443
216.856	2145
216.923	2378
216.990	2840
217.057	2500
217.124	3015
217.191	2428
217.258	2859
217.324	3908
217.391	3729
217.458	2857
217.525	2633
217.592	2336
217.659	932
217.725	3376
217.792	1684
217.859	3457
217.926	940
217.993	1553
218.059	1606
218.126	1327
218.193	1376
218.260	1160
218.327	2043
218.393	1880
218.460	884
218.527	1183
218.594	1052
218.660	2244
218.727	2226
218.794	2085
218.860	1386
218.927	1778
218.994	1364
219.061	497
219.127	1874
219.194	2399
219.261	351
219.327	959
219.394	1457
219.461	303
219.527	1070
219.594	1599
219.661	1254
219.727	1490
219.794	1717
219.860	1024
219.927	1145
219.994	2512
220.060	2235
220.127	3200
220.193	2652
220.260	2733
220.326	3847
220.393	5334
220.460	4930
220.526	3847
220.593	2627
220.659	4475
220.726	3665
220.792	6359
220.859	5981
220.925	7206
220.992	8302
221.058	8288
221.125	6854
221.191	5678
221.258	2721
221.324	2498
221.391	1866
221.457	3041
221.524	2418
221.590	2951
221.657	5147
221.723	3984
221.789	3650
221.856	4270
221.922	1578
221.989	2116
222.055	1156
222.121	999
222.188	2911
222.254	1978
222.321	1217
222.387	1207
222.453	1212
222.520	575
222.586	825
222.652	1862
222.719	1102
222.785	2116
222.851	525
222.918	1442
222.984	753
223.050	1437
223.116	551
223.183	2772
223.249	1208
223.315	459
223.382	2009
223.448	1356
223.514	323
223.580	1047
223.647	918
223.713	460
223.779	1037
223.845	880
223.911	1015
223.978	1200
224.044	1333
224.110	1174
224.176	784
224.242	637
224.309	-104
224.375	1128
224.441	1156
224.507	1622
224.573	-326
224.639	1573
224.705	52
224.772	1256
224.838	148
224.904	1526
224.970	489
225.036	1118
225.102	1049
225.168	2751
225.234	985
225.300	1350
225.366	802
225.432	1819
225.499	946
225.565	1331
225.631	785
225.697	878
225.763	2651
225.829	2588
225.895	1408
225.961	3088
226.027	2763
226.093	3179
226.159	3461
226.225	5666
226.291	9434
226.357	13876
226.423	8782
226.489	5996
226.554	4072
226.620	4620
226.686	3888
226.752	7147
226.818	10038
226.884	15996
226.950	14629
227.016	7603
227.082	4613
227.148	3752
227.214	2755
227.279	4079
227.345	3037
227.411	2355
227.477	2060
227.543	3475
227.609	3252
227.674	4011
227.740	2042
227.806	2383
227.872	1855
227.938	1682
228.003	2921
228.069	2760
228.135	979
228.201	1453
228.267	1117
228.332	2352
228.398	1137
228.464	2157
228.530	1058
228.595	1537
228.661	623
228.727	2226
228.792	3024
228.858	2256
228.924	-248
228.990	3370
229.055	1248
229.121	1861
229.187	1280
229.252	991
229.318	277
229.384	1002
229.449	2211
229.515	529
229.581	-172
229.646	2106
229.712	1666
229.777	2347
229.843	1529
229.909	2704
229.974	3459
230.040	3270
230.105	1679
230.171	2506
230.236	2740
230.302	3531
230.368	2049
230.433	1518
230.499	1845
230.564	3127
230.630	689
230.695	1565
230.761	1455
230.826	72
230.892	2867
230.957	1466
231.023	291
231.088	1543
231.154	1828
231.219	2557
231.284	1688
231.350	3318
231.415	873
231.481	1533
231.546	1294
231.612	1285
231.677	1083
231.742	666
231.808	1958
231.873	766
231.939	-95
232.004	3392
232.069	2644
232.135	1646
232.200	477
232.265	2043
232.331	661
232.396	1199
232.461	1082
232.527	854
232.592	237
232.657	1532
232.723	516
232.788	1772
232.853	689
232.918	1815
232.984	551
233.049	452
233.114	473
233.179	1876
233.245	1956
233.310	2513
233.375	574
233.440	2096
233.506	577
233.571	1259
233.636	1576
233.701	1583
233.766	1106
233.832	1668
233.897	510
233.962	705
234.027	2555
234.092	1986
234.157	1259
234.222	1555
234.288	1880
234.353	3967
234.418	3868
234.483	3647
234.548	2405
234.613	2219
234.678	2237
234.743	2656
234.808	4283
234.873	2794
234.938	3047
235.004	1803
235.069	1323
235.134	1252
235.199	2218
235.264	2676
235.329	610
235.394	2461
235.459	2924
235.524	1016
235.589	2987
235.654	1204
235.719	119
235.784	2510
235.849	2170
235.913	2985
235.978	2653
236.043	3173
236.108	1385
236.173	1323
236.238	1949
236.303	1435
236.368	1602
236.433	3272
236.498	3968
236.563	5647
236.627	8608
236.692	20551
236.757	20145
236.822	10285
236.887	5739
236.952	5778
237.017	3861
237.081	6814
237.146	6842
237.211	13545
237.276	21977
237.341	27422
237.405	18648
237.470	9335
237.535	6601
237.600	4916
237.664	4255
237.729	3684
237.794	3192
237.859	9149
237.923	4550
237.988	3973
238.053	3939
238.118	3601
238.182	5437
238.247	6497
238.312	2267
238.376	3343
238.441	993
238.506	3363
238.570	1399
238.635	3626
238.700	1780
238.764	1218
238.829	2904
238.893	2750
238.958	3234
239.023	3172
239.087	873
239.152	2319
239.216	1589
239.281	1694
239.346	1933
239.410	1977
239.475	1433
239.539	4793
239.604	2841
239.668	3046
239.733	1535
239.797	1846
239.862	3959
239.926	4400
239.991	2639
240.055	2543
240.120	1186
240.184	1843
240.249	393
240.313	1626
240.378	1887
240.442	3302
240.507	4420
240.571	2219
240.635	2326
240.700	3293
240.764	1657
240.829	1734
240.893	74
240.957	2948
241.022	2819
241.086	4853
241.151	2277
241.215	1295
241.279	2926
241.344	2385
241.408	3136
241.472	2456
241.537	3559
241.601	3008
241.665	1999
241.730	1716
241.794	3233
241.858	2549
241.922	2605
241.987	2994
242.051	1325
242.115	1853
242.179	2819
242.244	2038
242.308	2426
242.372	2689
242.436	2266
242.501	2957
242.565	1410
242.629	2028
242.693	2528
242.757	838
242.822	2144
242.886	2678
242.950	2433
243.014	1830
243.078	1708
243.142	2049
243.206	2398
243.271	2744
243.335	2502
243.399	4225
243.463	10005
243.527	25046
243.591	8426
243.655	4785
243.719	2146
243.783	3806
243.847	4871
243.911	6047
243.975	4712
244.040	3112
244.104	3874
244.168	3038
244.232	2169
244.296	4480
244.360	4664
244.424	2858
244.488	2075
244.552	2366
244.615	755
244.679	2474
244.743	1816
244.807	2397
244.871	1342
244.935	2530
244.999	74
245.063	950
245.127	3069
245.191	3948
245.255	2915
245.319	2709
245.383	1391
245.446	3061
245.510	778
245.574	2602
245.638	1824
245.702	796
245.766	4235
245.829	4283
245.893	1716
245.957	2114
246.021	3396
246.085	2061
246.149	2367
246.212	6948
246.276	8879
246.340	4002
246.404	3604
246.467	4680
246.531	3896
246.595	4068
246.659	3884
246.722	2114
246.786	3154
246.850	3716
246.913	4258
246.977	2179
247.041	2924
247.104	2602
247.168	2336
247.232	5749
247.295	11565
247.359	6109
247.423	2472
247.486	5465
247.550	3820
247.614	2670
247.677	3567
247.741	2655
247.804	1749
247.868	4133
247.932	4521
247.995	12264
248.059	4973
248.122	2900
248.186	4307
248.249	6266
248.313	17615
248.376	19237
248.440	11695
248.503	4600
248.567	5374
248.630	5769
248.694	7742
248.757	11111
248.821	18988
248.884	13820
248.948	10816
249.011	15954
249.075	21695
249.138	20709
249.202	8582
249.265	5890
249.328	5677
249.392	4887
249.455	5227
249.519	4687
249.582	4838
249.645	7131
249.709	5442
249.772	5110
249.835	4618
249.899	4263
249.962	4264
250.025	2994
250.089	8609
250.152	11785
250.215	5952
250.279	4986
250.342	4872
250.405	5106
250.468	4970
250.532	6151
250.595	7901
250.658	23357
250.721	38661
250.785	17057
250.848	10474
250.911	5698
250.974	5542
251.038	7082
251.101	13854
251.164	7706
251.227	8690
251.290	7533
251.354	11127
251.417	33416
251.480	35117
251.543	27095
251.606	54505
251.669	47185
251.732	21240
251.795	19542
251.859	20199
251.922	38111
251.985	25308
252.048	12505
252.111	8711
252.174	7288
252.237	12428
252.300	25419
252.363	26074
252.426	46128
252.489	22021
252.552	12392
252.615	6931
252.678	9925
252.741	18254
252.804	25424
252.867	48311
252.930	31948
252.993	17568
253.056	10480
253.119	7540
253.182	6203
253.245	9661
253.308	8901
253.371	6269
253.434	6182
253.497	6109
253.559	11136
253.622	7802
253.685	8512
253.748	8805
253.811	4710
253.874	5473
253.937	5732
254.000	4402
254.062	8082
254.125	11475
254.188	11199
254.251	9057
254.314	4430
254.376	7205
254.439	8759
254.502	7365
254.565	7109
254.628	13930
254.690	7725
254.753	3837
254.816	4105
254.878	4465
254.941	8203
255.004	8641
255.067	4299
255.129	3300
255.192	2952
255.255	2026
255.317	2847
255.380	2275
255.443	2339
255.505	1616
255.568	1287
255.631	1422
255.693	2897
255.756	1763
255.819	2722
255.881	1274
255.944	2472
256.006	1580
256.069	1622
256.132	1747
256.194	3167
256.257	4015
256.319	3380
256.382	3857
256.444	3576
256.507	3360
256.569	3369
256.632	3660
256.694	5995
256.757	14714
256.819	39921
256.882	19582
256.944	8246
257.007	6672
257.069	5877
257.132	3975
257.194	4824
257.257	3972
257.319	4229
257.381	4341
257.444	12194
257.506	40508
257.569	48363
257.631	20386
257.693	11323
257.756	6053
257.818	4493
257.880	4379
257.943	4382
258.005	2241
258.067	3383
258.130	3316
258.192	3221
258.254	4020
258.317	3804
258.379	3292
258.441	5839
258.503	6480
258.566	5678
258.628	7322
258.690	2784
258.753	3390
258.815	5608
258.877	3296
258.939	3146
259.001	2927
259.064	3253
259.126	2775
259.188	3519
259.250	2983
259.312	3603
259.375	4619
259.437	5010
259.499	1931
259.561	2638
259.623	3326
259.685	3462
259.747	2802
259.809	5057
259.872	8893
259.934	13448
259.996	16760
260.058	6276
260.120	2225
260.182	2980
260.244	2891
260.306	1726
260.368	2374
260.430	2195
260.492	5396
260.554	9512
260.616	3389
260.678	9006
260.740	8709
260.802	4325
260.864	3617
260.926	1847
260.988	3135
261.050	2215
261.112	7387
261.174	14967
261.236	8436
261.298	4616
261.359	4222
261.421	6697
261.483	2058
261.545	3080
261.607	1744
261.669	2977
261.731	3537
261.793	6794
261.854	1673
261.916	3310
261.978	2335
262.040	3442
262.102	1746
262.164	2424
262.225	2694
262.287	1994
262.349	4709
262.411	4324
262.472	2637
262.534	2460
262.596	4592
262.658	2925
262.719	732
262.781	2955
262.843	4475
262.904	3592
262.966	2674
263.028	3091
263.090	11758
263.151	34332
263.213	13881
263.275	7739
263.336	2932
263.398	2215
263.459	1305
263.521	1999
263.583	5027
263.644	3674
263.706	1596
263.767	500
263.829	1474
263.891	877
263.952	371
264.014	1374
264.075	3417
264.137	11075
264.198	5307
264.260	1180
264.321	1996
264.383	4434
264.444	16271
264.506	5456
264.567	3127
264.629	6443
264.690	13345
264.752	5484
264.813	2101
264.875	2507
264.936	2551
264.998	2103
265.059	2382
265.120	2823
265.182	4071
265.243	22267
265.305	25926
265.366	6432
265.427	4017
265.489	3264
265.550	1252
265.611	2367
265.673	1788
265.734	2935
265.795	2820
265.857	2028
265.918	2886
265.979	7192
266.040	34428
266.102	34627
266.163	9567
266.224	7302
266.286	2646
266.347	1706
266.408	2798
266.469	1824
266.530	1447
266.592	1793
266.653	3578
266.714	6409
266.775	1913
266.836	1378
266.898	935
266.959	3288
267.020	2331
267.081	2617
267.142	1790
267.203	2044
267.264	794
267.326	2296
267.387	1219
267.448	535
267.509	1018
267.570	1950
267.631	1628
267.692	621
267.753	1499
267.814	1032
267.875	3502
267.936	8821
267.997	5659
268.058	4530
268.119	2447
268.180	2010
268.241	717
268.302	2013
268.363	724
268.424	1030
268.485	1937
268.546	889
268.607	852
268.668	576
268.729	352
268.790	987
268.851	1571
268.912	5553
268.972	5404
269.033	2767
269.094	1660
269.155	1782
269.216	1296
269.277	1818
269.338	1210
269.398	1700
269.459	975
269.520	3151
269.581	2234
269.642	4020
269.702	2203
269.763	2079
269.824	1917
269.885	2683
269.945	4609
270.006	1979
270.067	1002
270.128	1385
270.188	232
270.249	1161
270.310	656
270.370	1738
270.431	1060
270.492	1376
270.553	1464
270.613	3334
270.674	6871
270.734	3362
270.795	1796
270.856	3009
270.916	1225
270.977	1691
271.038	1951
271.098	1197
271.159	3314
271.219	3730
271.280	1391
271.340	1484
271.401	592
271.462	3052
271.522	1754
271.583	2449
271.643	1472
271.704	1814
271.764	1964
271.825	5710
271.885	18113
271.946	25784
272.006	8548
272.066	10844
272.127	20159
272.187	7108
272.248	3330
272.308	3057
272.369	13021
272.429	8286
272.489	5154
272.550	6003
272.610	6529
272.671	4030
272.731	2661
272.791	4691
272.852	2535
272.912	3529
272.972	1245
273.033	1390
273.093	2174
273.153	3472
273.214	2546
273.274	3450
273.334	10163
273.394	20039
273.455	8348
273.515	7066
273.575	16473
273.635	7746
273.696	6300
273.756	16712
273.816	6950
273.876	4120
273.936	5398
273.997	10206
274.057	3301
274.117	3654
274.177	4636
274.237	22120
274.297	18401
274.358	9471
274.418	13192
274.478	11301
274.538	4181
274.598	3396
274.658	6248
274.718	9715
274.778	4863
274.838	2703
274.898	4695
274.958	13438
275.018	15829
275.078	11669
275.138	4613
275.198	2726
275.258	1681
275.318	2508
275.378	4388
275.438	5760
275.498	3253
275.558	6351
275.618	14452
275.678	12627
275.738	7745
275.798	6778
275.858	3663
275.918	1962
275.978	2888
276.038	2254
276.098	2038
276.157	4347
276.217	12243
276.277	6453
276.337	4235
276.397	2598
276.457	1948
276.517	2049
276.576	975
276.636	1359
276.696	2049
276.756	7975
276.815	5388
276.875	1691
276.935	2815
276.995	2620
277.055	1781
277.114	1602
277.174	2553
277.234	10221
277.293	4725
277.353	3419
277.413	2465
277.472	2007
277.532	1672
277.592	2625
277.651	5749
277.711	12047
277.771	4538
277.830	15194
277.890	13066
277.950	7617
278.009	25503
278.069	9806
278.128	8198
278.188	13930
278.248	5371
278.307	13444
278.367	9703
278.426	3105
278.486	1426
278.545	1592
278.605	1470
278.664	2348
278.724	1717
278.783	6680
278.843	18844
278.902	6484
278.962	2617
279.021	3793
279.081	3764
279.140	3555
279.199	3450
279.259	4729
279.318	3994
279.378	4468
279.437	7834
279.496	23591
279.556	55886
279.615	46522
279.675	12704
279.734	8390
279.793	11437
279.853	19395
279.912	8138
279.971	4030
280.031	3976
280.090	7904
280.149	14999
280.208	9987
280.268	38738
280.327	42699
280.386	9511
280.445	9382
280.505	8730
280.564	3867
280.623	3712
280.682	5514
280.742	9926
280.801	2875
280.860	2225
280.919	2528
280.978	1668
281.037	1548
281.097	934
281.156	2405
281.215	1085
281.274	1799
281.333	10562
281.392	10468
281.451	2616
281.510	2213
281.569	1573
281.628	1838
281.688	1371
281.747	2892
281.806	1710
281.865	1560
281.924	1037
281.983	1808
282.042	-174
282.101	877
282.160	348
282.219	1428
282.278	1236
282.337	7245
282.396	3957
282.454	1973
282.513	2330
282.572	10789
282.631	6718
282.690	1851
282.749	910
282.808	2877
282.867	2002
282.926	3096
282.985	1365
283.043	583
283.102	1443
283.161	1375
283.220	3728
283.279	12228
283.338	5009
283.396	2362
283.455	2313
283.514	2670
283.573	3698
283.631	3221
283.690	1620
283.749	2453
283.808	4332
283.866	6116
283.925	1410
283.984	2597
284.043	2702
284.101	2561
284.160	1308
284.219	3034
284.277	2431
284.336	3511
284.395	13592
284.453	13360
284.512	3488
284.570	6133
284.629	4831
284.688	4032
284.746	3458
284.805	4815
284.863	5403
284.922	8036
284.981	10371
285.039	14185
285.098	23374
285.156	53724
285.215	102842
285.273	107579
285.332	65679
285.390	34661
285.449	20212
285.507	13412
285.566	9319
285.624	7747
285.683	5685
285.741	4391
285.799	3710
285.858	4515
285.916	3826
285.975	3276
286.033	2300
286.091	2602
286.150	1668
286.208	2196
286.267	2001
286.325	3394
286.383	3473
286.442	3383
286.500	1486
286.558	1913
286.616	1540
286.675	2773
286.733	2304
286.791	2341
286.850	2365
286.908	3319
286.966	6376
287.024	2988
287.083	1970
287.141	2252
287.199	2230
287.257	3174
287.315	2274
287.374	2530
287.432	7347
287.490	5270
287.548	2206
287.606	1888
287.664	2464
287.723	3452
287.781	4683
287.839	4038
287.897	4068
287.955	6047
288.013	8664
288.071	16611
288.129	54847
288.187	143137
288.245	82978
288.303	28271
288.361	13998
288.419	10072
288.477	5857
288.535	5616
288.593	3977
288.651	3852
288.709	1980
288.767	3186
288.825	2013
288.883	2123
288.941	2163
288.999	2118
289.057	836
289.115	2230
289.173	1889
289.231	1276
289.289	1131
289.346	1645
289.404	1527
289.462	4415
289.520	3502
289.578	2634
289.636	2156
289.694	1822
289.751	841
289.809	1038
289.867	570
289.925	2747
289.983	1557
290.040	1845
290.098	954
290.156	1797
290.214	2044
290.271	2173
290.329	822
290.387	1257
290.444	802
290.502	1072
290.560	984
290.617	1842
290.675	1340
290.733	1680
290.790	1536
290.848	1703
290.906	1950
290.963	1640
291.021	1510
291.078	1858
291.136	1691
291.194	6728
291.251	17110
291.309	5481
291.366	1364
291.424	1530
291.481	926
291.539	1399
291.596	1266
291.654	1283
291.711	432
291.769	668
291.826	3132
291.884	2966
291.941	853
291.999	1234
292.056	1339
292.114	2533
292.171	1285
292.228	1248
292.286	1562
292.343	2722
292.401	4330
292.458	3602
292.515	1407
292.573	2902
292.630	2553
292.687	2234
292.745	1262
292.802	3331
292.859	8299
292.917	14977
292.974	9258
293.031	2906
293.089	1770
293.146	2150
293.203	900
293.260	1766
293.318	1460
293.375	5290
293.432	2400
293.489	1923
293.546	1262
293.604	3013
293.661	7129
293.718	23672
293.775	14338
293.832	5230
293.889	3540
293.947	3097
294.004	2481
294.061	3536
294.118	6464
294.175	15633
294.232	24588
294.289	10903
294.346	4850
294.403	5088
294.460	2999
294.517	3134
294.574	2495
294.631	3054
294.688	3389
294.745	7069
294.802	28427
294.859	37789
294.916	14183
294.973	5716
295.030	4232
295.087	4473
295.144	3433
295.201	3807
295.258	2596
295.315	3894
295.372	8776
295.429	20336
295.486	9007
295.542	5605
295.599	16028
295.656	29268
295.713	17047
295.770	20156
295.827	8544
295.883	5017
295.940	3696
295.997	6020
296.054	4988
296.111	3252
296.167	2601
296.224	1783
296.281	1884
296.338	2590
296.394	2178
296.451	4045
296.508	8668
296.564	18327
296.621	11672
296.678	21956
296.734	34218
296.791	15025
296.848	7117
296.904	7099
296.961	12475
297.018	22328
297.074	18053
297.131	8462
297.187	4785
297.244	6182
297.301	19070
297.357	38874
297.414	15188
297.470	7051
297.527	3477
297.583	3459
297.640	2664
297.696	2541
297.753	2919
297.809	2933
297.866	1780
297.922	1812
297.979	2000
298.035	2603
298.092	3706
298.148	12757
298.204	13185
298.261	6453
298.317	9439
298.374	28059
298.430	17724
298.486	7079
298.543	5271
298.599	5441
298.656	5259
298.712	9127
298.768	23462
298.824	19607
298.881	6428
298.937	4190
298.993	3371
299.050	4329
299.106	4692
299.162	4763
299.218	3648
299.275	3451
299.331	2909
299.387	5717
299.443	21615
299.500	25063
299.556	10359
299.612	4306
299.668	4224
299.724	3950
299.780	4225
299.837	3161
299.893	5101
299.949	18456
300.005	22336
300.061	18698
300.117	32642
300.173	17766
300.229	7297
300.285	8287
300.341	9803
300.397	5308
300.453	3166
300.510	3285
300.566	2765
300.622	3795
300.678	7885
300.734	15634
300.790	17823
300.845	22791
300.901	13828
300.957	18609
301.013	15578
301.069	6959
301.125	4242
301.181	4585
301.237	3996
301.293	2753
301.349	3037
301.405	2314
301.461	3324
301.516	5101
301.572	3758
301.628	6187
301.684	6444
301.740	8036
301.796	16000
301.851	10935
301.907	15923
301.963	15701
302.019	21253
302.074	63416
302.130	68039
302.186	33806
302.242	14028
302.297	8073
302.353	6502
302.409	14853
302.464	13120
302.520	10597
302.576	22447
302.631	29148
302.687	17504
302.743	8738
302.798	4633
302.854	3909
302.910	4284
302.965	6072
303.021	8502
303.076	8871
303.132	9484
303.187	12959
303.243	6883
303.299	4013
303.354	3293
303.410	4145
303.465	3089
303.521	3510
303.576	2909
303.632	3307
303.687	7038
303.743	21133
303.798	20527
303.853	9304
303.909	4590
303.964	3781
304.020	5386
304.075	8979
304.130	7553
304.186	14001
304.241	15812
304.297	12221
304.352	6463
304.358	6281
304.407	4806
304.449	4251
304.463	4070
304.518	4300
304.539	4092
304.573	3734
304.629	4394
304.630	4419
304.684	5804
304.720	12231
304.739	15431
304.794	25130
304.811	21844
304.850	14107
304.902	6536
304.905	6045
304.960	4893
304.992	4387
305.015	3983
305.071	4939
305.083	4640
305.126	3618
305.173	2851
305.181	2737
305.236	2323
305.264	2740
305.292	3111
305.347	4011
305.354	4143
305.402	4954
305.445	4800
305.457	4776
305.512	6432
305.535	6195
305.567	5889
305.622	6129
305.626	6274
305.678	9304
305.716	19088
305.733	22821
305.788	27006
305.807	23260
305.843	16807
305.897	20403
305.898	20430
305.953	21692
305.988	14898
306.008	11194
306.063	6983
306.078	6372
306.118	4953
306.168	3863
306.173	3758
306.228	3349
306.259	3067
306.283	2937
306.338	3379
306.349	3546
306.393	4093
306.440	4226
306.448	4261
306.503	4044
306.530	4034
306.558	4435
306.613	10269
306.620	11014
306.668	15800
306.711	20603
306.723	21340
306.778	16999
306.801	13283
306.833	8995
306.888	5040
306.892	4905
306.943	3512
306.982	3582
306.997	3629
307.052	3560
307.072	3515
307.107	3693
307.162	4499
307.163	4526
307.217	6659
307.253	7541
307.272	7852
307.327	8754
307.343	8278
307.381	7439
307.434	5935
307.436	5941
307.491	10218
307.524	15382
307.546	17650
307.600	19240
307.614	17355
307.655	11217
307.704	6885
307.710	6624
307.765	6665
307.795	8460
307.819	9920
307.874	15599
307.885	15570
307.929	14599
307.975	13681
307.984	13966
308.038	18698
308.065	23084
308.093	34039
308.148	65793
308.156	73417
308.202	107706
308.246	127902
308.257	127936
308.312	85334
308.336	66057
308.366	49368
308.421	29437
308.426	28082
308.475	19190
308.517	14118
308.530	12711
308.585	10682
308.607	9895
308.639	9324
308.694	9577
308.697	9661
308.748	12407
308.787	17448
308.803	18401
308.857	15823
308.877	14682
308.912	14028
308.967	13639
308.967	13693
309.021	18058
309.058	21917
309.076	26494
309.130	44450
309.148	52578
309.185	80444
309.238	131524
309.239	131799
309.293	144108
309.328	135582
309.348	123900
309.402	73975
309.418	61177
309.457	42874
309.508	26885
309.511	26153
309.566	20274
309.598	17699
309.620	16682
309.674	16578
309.688	16759
309.729	16018
309.778	14334
309.783	14182
309.837	12393
309.868	11709
309.892	13261
309.946	18169
309.959	20140
310.001	24998
310.049	28623
310.055	27961
310.109	18768
310.139	12857
310.163	10129
310.218	6562
310.229	6046
310.272	5339
310.319	4935
310.326	4751
310.381	3550
310.409	3170
310.435	3363
310.489	3518
310.499	3591
310.543	3759
310.589	3764
310.598	3725
310.652	3856
310.679	3844
310.706	3706
310.760	3296
310.769	3223
310.814	2928
310.859	2841
310.868	2771
310.923	2360
310.948	2190
310.977	2442
311.031	2907
311.038	2988
311.085	3129
311.128	3039
311.139	3021
311.193	3186
311.218	3173
311.247	3318
311.301	3714
311.308	3754
311.356	3076
311.398	2490
311.410	2509
311.464	2565
311.488	2593
311.518	2563
311.572	2452
311.578	2454
311.626	3534
311.668	4494
311.680	4578
311.734	4899
311.758	5011
311.788	4529
311.842	3698
311.847	3613
311.896	5193
311.937	6649
311.950	6440
312.004	5470
312.027	5033
312.058	4299
312.112	3026
312.117	2906
312.165	3839
312.207	4649
312.297	5224
312.386	3311
312.476	3498
312.566	5926
312.656	4118
312.745	3416
312.835	3812
312.925	3438
313.015	3622
313.104	3007
313.194	2789
313.284	2752
313.374	4263
313.463	3715
313.553	2626
313.643	3102
313.732	2990
313.822	3034
313.912	3586
314.001	3371
314.091	4453
314.180	5022
314.270	4369
314.360	4109
314.449	3827
314.539	3224
314.628	3107
314.718	3676
314.808	3992
314.897	2492
314.987	2980
315.076	3207
315.166	4241
315.255	3938
315.345	3752
315.434	3916
315.524	3758
315.613	3123
315.703	4233
315.792	3974
315.881	4354
315.971	3499
316.060	5739
316.150	6226
316.239	5940
316.328	3660
316.418	3353
316.507	2413
316.597	3618
316.686	2541
316.775	4316
316.865	5759
316.954	3582
317.043	2291
317.133	2953
317.222	2334
317.311	3657
317.400	1317
317.490	4358
317.579	2907
317.668	3219
317.757	2950
317.847	4985
317.936	6376
318.025	6889
318.114	3864
318.203	4567
318.293	7595
318.382	13923
318.471	10887
318.560	16752
318.649	29194
318.738	6025
318.828	4617
318.917	5103
319.006	4733
319.095	10614
319.184	36498
319.273	17052
319.362	8044
319.451	3292
319.540	3208
319.629	7444
319.718	9046
319.807	4910
319.896	12803
319.985	42435
320.074	12401
320.163	4075
320.252	5280
320.341	6341
320.430	6038
320.519	6885
320.608	3641
320.697	3636
320.786	2853
320.875	4115
320.964	5138
321.053	6939
321.142	8799
321.230	8547
321.319	7488
321.408	17940
321.497	7596
321.586	6876
321.675	8310
321.764	9698
321.852	7005
321.941	10255
322.030	5933
322.119	8496
322.207	16597
322.296	10570
322.385	6493
322.474	8063
322.562	20640
322.651	10098
322.740	7832
322.829	9102
322.917	8066
323.006	5992
323.095	4910
323.183	5105
323.272	6995
323.361	11601
323.449	23621
323.538	8726
323.626	18576
323.715	8454
323.804	5297
323.892	15481
323.981	8423
324.069	4209
324.158	9678
324.246	7671
324.335	4539
324.424	7304
324.512	3692
324.601	5475
324.689	10557
324.778	17522
324.866	6800
324.954	3670
325.043	3190
325.131	4065
325.220	8083
325.308	6995
325.397	6492
325.485	3715
325.574	3483
325.662	2777
325.750	2405
325.839	3207
325.927	1885
326.015	3086
326.104	3867
326.192	3984
326.280	3020
326.369	2622
326.457	4075
326.545	6458
326.634	2911
326.722	2864
326.810	2279
326.898	2369
326.987	3394
327.075	4761
327.163	5279
327.251	3669
327.340	9187
327.428	11816
327.516	2526
327.604	2977
327.692	2874
327.781	3340
327.869	3968
327.957	3091
328.045	3190
328.133	2605
328.221	2768
328.309	2313
328.397	2465
328.485	3050
328.574	4253
328.662	11439
328.750	5009
328.838	3640
328.926	3410
329.014	2514
329.102	4214
329.190	10373
329.278	5364
329.366	3687
329.454	3511
329.542	3534
329.630	2982
329.718	4380
329.806	4913
329.893	6631
329.981	9406
330.069	18055
330.157	61107
330.245	114057
330.333	64214
330.421	16386
330.509	9132
330.597	16378
330.684	9205
330.772	5659
330.860	6503
330.948	9933
331.036	4296
331.123	2907
331.211	2840
331.299	3637
331.387	9086
331.475	11802
331.562	3921
331.650	2533
331.738	2963
331.825	3329
331.913	2436
332.001	2278
332.089	3560
332.176	5509
332.264	8293
332.352	6339
332.439	2977
332.527	3116
332.614	2851
332.702	3067
332.790	2537
332.877	5018
332.965	7131
333.052	2990
333.140	3553
333.228	4411
333.315	2199
333.403	2506
333.490	5156
333.578	3661
333.665	4739
333.753	3434
333.840	2263
333.928	3773
334.015	6149
334.103	13515
334.190	38993
334.278	8789
334.365	4016
334.452	3109
334.540	2234
334.627	2970
334.715	3277
334.802	6975
334.889	27196
334.977	21261
335.064	3511
335.151	2640
335.239	4249
335.326	5331
335.413	24311
335.501	25870
335.588	4431
335.675	3158
335.762	5118
335.850	7704
335.937	4117
336.024	9294
336.111	33156
336.199	12224
336.286	4289
336.373	3506
336.460	2237
336.547	2686
336.635	3604
336.722	3693
336.809	3030
336.896	4246
336.983	15344
337.070	34046
337.157	41660
337.245	20346
337.332	10639
337.419	3117
337.506	2936
337.593	4393
337.680	14522
337.767	34359
337.854	8753
337.941	10268
338.028	7462
338.115	3151
338.202	5927
338.289	7714
338.376	18063
338.463	7493
338.550	23334
338.637	19554
338.724	5650
338.811	6126
338.898	1705
338.984	3066
339.071	2804
339.158	4302
339.245	7147
339.332	5697
339.419	5780
339.506	4142
339.593	1267
339.679	2691
339.766	2214
339.853	3540
339.940	5963
340.027	2970
340.113	2655
340.200	3176
340.287	2604
340.374	3628
340.460	5942
340.547	3017
340.634	4449
340.720	13934
340.807	6461
340.894	3544
340.980	2330
341.067	1739
341.154	3039
341.240	4989
341.327	6756
341.414	4055
341.500	4492
341.587	3877
341.674	2880
341.760	5773
341.847	5548
341.933	2326
342.020	1051
342.106	1955
342.193	2962
342.279	3485
342.366	3234
342.452	5603
342.539	2907
342.625	7210
342.712	12662
342.798	6479
342.885	2354
342.971	1846
343.058	2199
343.144	1731
343.230	2149
343.317	3516
343.403	1669
343.490	1987
343.576	2971
343.662	2189
343.749	2057
343.835	2632
343.921	5852
344.008	33579
344.094	59032
344.180	12746
344.267	6159
344.353	18953
344.439	16276
344.525	8428
344.612	15457
344.698	16126
344.784	8330
344.870	4300
344.957	3320
345.043	3759
345.129	2385
345.215	5925
345.301	3404
345.387	3690
345.474	1423
345.560	2080
345.646	1256
345.732	3129
345.818	3137
345.904	3012
345.990	2128
346.076	2138
346.162	3796
346.249	3223
346.335	2098
346.421	2717
346.507	8514
346.593	23440
346.679	4902
346.765	3787
346.851	1884
346.937	1775
347.023	2421
347.108	2091
347.194	1679
347.280	2965
347.366	2556
347.452	8586
347.538	28376
347.624	22372
347.710	15855
347.796	2362
347.882	2731
347.967	2613
348.053	3730
348.139	1963
348.225	1540
348.311	1467
348.397	1109
348.482	3164
348.568	3273
348.654	1553
348.740	1992
348.825	987
348.911	4806
348.997	15839
349.083	25266
349.168	4200
349.254	3355
349.340	4097
349.425	1755
349.511	3774
349.597	3313
349.682	5578
349.768	18029
349.854	8840
349.939	3336
350.025	2314
350.110	3603
350.196	3005
350.282	1836
350.367	2582
350.453	2884
350.538	2892
350.624	3176
350.709	3324
350.795	1147
350.880	1713
350.966	3383
351.051	3164
351.137	1890
351.222	2821
351.308	7387
351.393	15911
351.479	4932
351.564	1987
351.649	2373
351.735	2559
351.820	2170
351.906	1753
351.991	2523
352.076	10663
352.162	13808
352.247	3499
352.332	2497
352.418	5750
352.503	7982
352.588	23658
352.673	15055
352.759	4519
352.844	2385
352.929	3673
353.014	2873
353.100	3768
353.185	3695
353.270	5877
353.355	4859
353.441	3472
353.526	2144
353.611	5217
353.696	4895
353.781	4296
353.866	1578
353.952	3103
354.037	4283
354.122	10018
354.207	7964
354.292	3572
354.377	2341
354.462	2507
354.547	1763
354.632	2605
354.717	3721
354.802	3418
354.887	2540
354.972	2397
355.057	1820
355.142	2094
355.227	2495
355.312	4261
355.397	7651
355.482	14984
355.567	6895
355.652	7116
355.737	7275
355.822	20510
355.907	14413
355.991	3838
356.076	2511
356.161	2537
356.246	2423
356.331	3055
356.416	5777
356.501	33644
356.585	26466
356.670	5475
356.755	5511
356.840	6148
356.924	23854
357.009	66648
357.094	24032
357.179	6439
357.263	4343
357.348	5897
357.433	5052
357.517	4411
357.602	3655
357.687	3481
357.771	6647
357.856	19629
357.941	10767
358.025	22430
358.110	71953
358.195	31186
358.279	6158
358.364	5455
358.448	14671
358.533	36126
358.617	25341
358.702	25952
358.787	9997
358.871	6077
358.956	4564
359.040	2389
359.125	2327
359.209	3223
359.294	11069
359.378	15478
359.462	4680
359.547	3479
359.631	2406
359.716	868
359.800	2292
359.885	4657
359.969	2606
360.053	3301
360.138	2420
360.222	3684
360.306	5211
360.391	4610
360.475	10606
360.559	20449
360.644	13381
360.728	8638
360.812	20174
360.896	42898
360.981	19190
361.065	9887
361.149	4476
361.233	4173
361.318	2637
361.402	3158
361.486	3074
361.570	2568
361.654	3163
361.739	6965
361.823	31508
361.907	42039
361.991	9087
362.075	5174
362.159	8586
362.243	7296
362.327	4680
362.411	6360
362.495	4523
362.580	3528
362.664	2559
362.748	2529
362.832	2714
362.916	3697
363.000	10128
363.084	32597
363.168	46734
363.252	11838
363.336	5385
363.420	8139
363.503	32851
363.587	33251
363.671	6388
363.755	4868
363.839	6490
363.923	2766
364.007	6239
364.091	6415
364.175	12034
364.258	48810
364.342	23193
364.426	14550
364.510	7291
364.594	8938
364.677	12536
364.761	39704
364.845	25459
364.929	10223
365.013	7211
365.096	7798
365.180	7040
365.264	16069
365.347	49149
365.431	20126
365.515	5965
365.598	2519
365.682	4119
365.766	6678
365.849	7611
365.933	3639
366.017	6050
366.100	4291
366.184	978
366.267	4050
366.351	3113
366.435	1899
366.518	1758
366.602	2547
366.685	2145
366.769	3159
366.852	6053
366.936	7969
367.019	3737
367.103	4352
367.186	9691
367.270	2562
367.353	1376
367.436	2890
367.520	1755
367.603	3175
367.687	3962
367.770	5524
367.853	4940
367.937	15324
368.020	20623
368.104	4422
368.187	5772
368.270	8373
368.353	7676
368.437	7682
368.520	12390
368.603	9665
368.687	15860
368.770	25244
368.853	6634
368.936	8205
369.020	8548
369.103	3133
369.186	2640
369.269	2601
369.352	5241
369.436	5713
369.519	4402
369.602	2189
369.685	4005
369.768	2934
369.851	2299
369.934	1724
370.018	2006
370.101	4406
370.184	5890
370.267	3870
370.350	6165
370.433	10273
370.516	23168
370.599	23196
370.682	5967
370.765	16235
370.848	20370
370.931	31861
371.014	13955
371.097	2483
371.180	3242
371.263	2163
371.346	1115
371.429	3474
371.511	2112
371.594	4068
371.677	7662
371.760	10955
371.843	8164
371.926	35881
372.009	67636
372.091	23602
372.174	15355
372.257	31539
372.340	12418
372.423	11457
372.505	14628
372.588	6683
372.671	12654
372.754	31042
372.836	15688
372.919	18115
373.002	30695
373.085	8578
373.167	7284
373.250	16498
373.332	32543
373.415	46743
373.498	77156
373.580	31757
373.663	42466
373.746	51577
373.828	12951
373.911	6248
373.993	8298
374.076	29943
374.159	25854
374.241	12314
374.324	27303
374.406	18753
374.489	30183
374.571	70280
374.654	27707
374.736	16847
374.819	44083
374.901	62324
374.983	54335
375.066	12343
375.148	6981
375.231	25827
375.313	43506
375.395	14982
375.478	4177
375.560	3507
375.643	3868
375.725	15072
375.807	49303
375.890	34762
375.972	11088
376.054	8410
376.136	9448
376.219	5199
376.301	17795
376.383	40719
376.465	16214
376.548	8796
376.630	13853
376.712	35607
376.794	15162
376.877	4052
376.959	2203
377.041	3700
377.123	7757
377.205	8857
377.287	2444
377.369	2695
377.452	1798
377.534	2921
377.616	2156
377.698	2124
377.780	1570
377.862	1751
377.944	3528
378.026	1547
378.108	1985
378.190	1847
378.272	2649
378.354	1807
378.436	1786
378.518	4123
378.600	12574
378.682	11725
378.764	20476
378.846	15460
378.928	5743
379.010	6376
379.091	4358
379.173	2948
379.255	875
379.337	3451
379.419	10693
379.501	27002
379.583	10599
379.664	4097
379.746	6370
379.828	21207
379.910	26398
379.991	21657
380.073	3748
380.155	2780
380.237	2823
380.318	2170
380.400	2171
380.482	4625
380.564	5609
380.645	5896
380.727	5146
380.809	4534
380.890	2796
380.972	2073
381.053	2383
381.135	2911
381.217	7809
381.298	21439
381.380	9342
381.461	9724
381.543	36100
381.624	40198
381.706	7945
381.787	5739
381.869	5683
381.951	20894
382.032	59150
382.113	37776
382.195	8369
382.276	7776
382.358	13815
382.439	34381
382.521	39969
382.602	54293
382.684	26900
382.765	43265
382.846	37955
382.928	33921
383.009	19008
383.090	19288
383.172	53737
383.253	67685
383.334	33901
383.416	46046
383.497	23229
383.578	10381
383.659	17953
383.741	54549
383.822	107421
383.903	54031
383.984	32959
384.066	59298
384.147	34297
384.228	8322
384.309	4991
384.390	4130
384.471	3243
384.553	4862
384.634	5440
384.715	5753
384.796	3607
384.877	5005
384.958	19284
385.039	20701
385.120	7593
385.201	4847
385.282	4916
385.363	5492
385.444	3751
385.525	10636
385.606	29528
385.687	23820
385.768	6868
385.849	9325
385.930	37378
386.011	56073
386.092	14793
386.173	4361
386.254	3279
386.335	4185
386.416	4112
386.496	13900
386.577	19809
386.658	8427
386.739	4931
386.820	5888
386.901	3794
386.981	3739
387.062	2859
387.143	5389
387.224	19134
387.304	17752
387.385	6674
387.466	4489
387.547	5886
387.627	3773
387.708	9062
387.789	35413
387.869	39556
387.950	11867
388.031	2570
388.111	2648
388.192	9509
388.273	12953
388.353	6420
388.434	4257
388.514	9747
388.595	33777
388.676	42427
388.756	20448
388.837	17853
388.917	10797
388.998	1745
389.078	3185
389.159	2493
389.239	1031
389.320	5570
389.400	2645
389.480	9449
389.561	22035
389.641	11963
389.722	4159
389.802	6401
389.883	10738
389.963	25210
390.043	15375
390.124	5400
390.204	9072
390.284	21878
390.365	14197
390.445	21474
390.525	39961
390.605	31000
390.686	11972
390.766	4763
390.846	3980
390.927	1972
391.007	1952
391.087	3381
391.167	3448
391.247	1700
391.328	4263
391.408	7108
391.488	6056
391.568	1210
391.648	3363
391.728	5119
391.808	4654
391.888	4460
391.969	13348
392.049	18445
392.129	10337
392.209	11438
392.289	23817
392.369	14689
392.449	14174
392.529	7726
392.609	5514
392.689	7718
392.769	22803
392.849	19299
392.929	16224
393.009	33478
393.089	21094
393.169	10136
393.248	30902
393.328	128695
393.408	124981
393.488	25411
393.568	8662
393.648	5275
393.728	3255
393.807	3463
393.887	4783
393.967	4306
394.047	5448
394.127	8828
394.206	16554
394.286	57989
394.366	184079
394.446	184892
394.525	58235
394.605	17517
394.685	13654
394.764	23677
394.844	34543
394.924	21928
395.003	7312
395.083	4435
395.163	4359
395.242	4153
395.322	4233
395.402	2908
395.481	6208
395.561	15087
395.640	34856
395.720	26683
395.799	40073
395.879	35467
395.958	28422
396.038	89147
396.117	232803
396.197	239416
396.276	97742
396.356	35104
396.435	22910
396.515	13648
396.594	9796
396.673	13256
396.753	41191
396.832	117910
396.912	87039
396.991	22029
397.070	8078
397.150	3979
397.229	4567
397.308	3252
397.388	5208
397.467	3287
397.546	2374
397.625	629
397.705	3941
397.784	3294
397.863	2094
397.942	2076
398.022	2797
398.101	12333
398.180	33986
398.259	16910
398.338	5316
398.417	2708
398.497	2131
398.576	2470
398.655	1159
398.734	2136
398.813	2856
398.892	12916
398.971	36532
399.050	16198
399.129	2331
399.208	2346
399.287	2816
399.366	1171
399.445	1980
399.524	2642
399.603	1127
399.682	3435
399.761	11957
399.840	38059
399.919	27670
399.998	4117
400.077	707
400.156	1296
400.235	4505
400.313	1158
400.392	1735
400.471	11703
400.550	16640
400.629	3815
400.708	2976
400.786	2406
400.865	8731
400.944	8782
401.023	5766
401.102	232
401.180	1306
401.259	1848
401.338	2078
401.416	2727
401.495	2201
401.574	2076
401.652	2051
401.731	2286
401.810	1048
401.888	1180
401.967	842
402.046	1857
402.124	3135
402.203	2376
402.281	2784
402.360	3428
402.438	11549
402.517	6528
402.596	3632
402.674	1718
402.753	1718
402.831	1639
402.910	2794
402.988	7590
403.066	22258
403.145	13669
403.223	9747
403.302	19704
403.380	15738
403.459	13081
403.537	5494
403.615	2817
403.694	1600
403.772	1343
403.850	1745
403.929	1044
404.007	1941
404.085	4207
404.164	3727
404.242	6576
404.320	27126
404.398	72765
404.477	69632
404.555	62797
404.633	55194
404.711	54956
404.789	39091
404.868	10021
404.946	3355
405.024	2360
405.102	1783
405.180	1142
405.258	1324
405.336	1993
405.415	2333
405.493	3799
405.571	3032
405.649	284
405.727	624
405.805	2946
405.883	1629
405.961	3043
406.039	3645
406.117	730
406.195	4058
406.273	11813
406.351	39407
406.429	23108
406.507	4620
406.585	1733
406.663	2205
406.740	1677
406.818	1566
406.896	1179
406.974	2496
407.052	3636
407.130	24941
407.208	31027
407.285	7671
407.363	553
407.441	1571
407.519	830
407.596	2173
407.674	3445
407.752	8369
407.830	10613
407.907	5513
407.985	1532
408.063	1859
408.141	778
408.218	3993
408.296	1400
408.373	1095
408.451	1627
408.529	1083
408.606	390
408.684	633
408.762	1134
408.839	878
408.917	1215
408.994	983
409.072	558
409.149	1210
409.227	1771
409.304	1204
409.382	1264
409.459	539
409.537	1874
409.614	1122
409.692	289
409.769	-62
409.846	1679
409.924	2791
410.001	433
410.079	2009
410.156	1736
410.233	1817
410.311	999
410.388	710
410.465	1367
410.543	1494
410.620	1138
410.697	1135
410.775	834
410.852	-233
410.929	1836
411.006	2804
411.083	808
411.161	4474
411.238	5112
411.315	2584
411.392	700
411.469	2672
411.547	2421
411.624	472
411.701	1213
411.778	2374
411.855	2017
411.932	1300
412.009	1034
412.086	1556
412.163	1344
412.240	1785
412.317	2596
412.394	1722
412.471	1080
412.548	629
412.625	1127
412.702	876
412.779	3059
412.856	2458
412.933	416
413.010	974
413.087	3258
413.164	9874
413.241	13449
413.318	2814
413.395	2477
413.471	3209
413.548	1433
413.625	1727
413.702	346
413.779	2023
413.855	348
413.932	377
414.009	362
414.086	402
414.162	1015
414.239	2555
414.316	10061
414.393	21242
414.469	6250
414.546	1505
414.623	214
414.699	615
414.776	868
414.853	882
414.929	1107
415.006	1670
415.082	1311
415.159	890
415.236	1065
415.312	1774
415.389	2181
415.465	1754
415.542	1369
415.618	315
415.695	2001
415.771	1412
415.848	1374
415.924	961
416.000	617
416.077	2155
416.153	-67
416.230	-588
416.306	420
416.383	743
416.459	1593
416.535	450
416.612	104
416.688	460
416.764	551
416.841	423
416.917	171
416.993	1141
417.069	1419
417.146	2581
417.222	5577
417.298	2704
417.374	995
417.451	2355
417.527	1305
417.603	976
417.679	1299
417.755	993
417.831	-16
417.908	505
417.984	561
418.060	78
418.136	2175
418.212	2266
418.288	1379
418.364	1593
418.440	17
418.516	2139
418.592	2293
418.668	4988
418.744	5532
418.820	4538
418.896	834
418.972	117
419.048	1018
419.124	2924
419.200	367
419.276	1101
419.352	-138
419.428	1078
419.504	-434
419.579	1038
419.655	1324
419.731	1216
419.807	3754
419.883	6461
419.959	4003
420.034	2466
420.110	3917
420.186	14360
420.262	10558
420.337	1533
420.413	1081
420.489	1337
420.565	540
420.640	889
420.716	1718
420.792	50
420.867	884
420.943	537
421.019	2012
421.094	867
421.170	1669
421.245	772
421.321	1098
421.397	378
421.472	3574
421.548	4141
421.623	4623
421.699	1852
421.774	1218
421.850	1305
421.925	3020
422.001	2180
422.076	1603
422.152	2531
422.227	3489
422.302	4876
422.378	5863
422.453	11332
422.529	30897
422.604	103245
422.679	179532
422.755	102977
422.830	29536
422.905	11724
422.981	6237
423.056	3687
423.131	2912
423.207	2031
423.282	1883
423.357	4006
423.432	2675
423.508	3252
423.583	4676
423.658	4038
423.733	1762
423.808	1951
423.883	2303
423.959	1809
424.034	1064
424.109	1551
424.184	513
424.259	710
424.334	756
424.409	830
424.484	607
424.559	944
424.634	-252
424.709	857
424.784	1460
424.859	648
424.934	1696
425.009	9710
425.084	15610
425.159	5163
425.234	1112
425.309	1099
425.384	7418
425.459	9769
425.534	4333
425.609	1041
425.683	715
425.758	868
425.833	470
425.908	2516
425.983	5253
426.058	15041
426.132	6263
426.207	1086
426.282	3928
426.357	2464
426.431	680
426.506	1100
426.581	1301
426.655	1716
426.730	702
426.805	489
426.879	1332
426.954	1309
427.029	3213
427.103	16535
427.178	34228
427.253	14907
427.327	2306
427.402	4531
427.476	12181
427.551	4951
427.625	1357
427.700	1151
427.774	1231
427.849	2105
427.923	337
427.998	517
428.072	538
428.147	3832
428.221	9595
428.296	20984
428.370	9464
428.444	2482
428.519	4134
428.593	8051
428.667	7712
428.742	8999
428.816	8149
428.890	19472
428.965	27275
429.039	12423
429.113	9296
429.188	2629
429.262	720
429.336	2736
429.410	7622
429.485	5932
429.559	7640
429.633	5560
429.707	1215
429.781	5011
429.855	22728
429.930	29180
430.004	21986
430.078	36411
430.152	30056
430.226	33735
430.300	31562
430.374	5447
430.448	3152
430.522	13542
430.596	35192
430.670	20252
430.744	31434
430.818	41908
430.892	10177
430.966	730
431.040	833
431.114	-186
431.188	40
431.262	530
431.336	-73
431.410	4069
431.484	10138
431.557	5891
431.631	379
431.705	835
431.779	3760
431.853	17861
431.927	11395
432.000	1629
432.074	483
432.148	1270
432.222	511
432.295	1250
432.369	208
432.443	1742
432.516	16403
432.590	35268
432.664	13397
432.737	1735
432.811	-236
432.885	643
432.958	363
433.032	81
433.106	-454
433.179	458
433.253	702
433.326	37
433.400	-285
433.473	754
433.547	24
433.620	225
433.694	1052
433.767	1957
433.841	354
433.914	455
433.988	430
434.061	619
434.134	395
434.208	352
434.281	-579
434.355	172
434.428	700
434.501	740
434.575	-138
434.648	485
434.721	-319
434.795	381
434.868	-453
434.941	543
435.014	-59
435.088	254
435.161	239
435.234	892
435.307	1276
435.381	603
435.454	397
435.527	871
435.600	-87
435.673	611
435.746	244
435.819	342
435.892	-162
435.966	565
436.039	552
436.112	1047
436.185	46
436.258	-189
436.331	165
436.404	-89
436.477	280
436.550	42
436.623	638
436.696	117
436.769	204
436.842	93
436.915	232
436.987	1276
437.060	233
437.133	155
437.206	122
437.279	1566
437.352	623
437.425	465
437.498	605
437.570	3489
437.643	2442
437.716	-7
437.789	-623
437.861	2131
437.934	5596
438.007	2873
438.080	633
438.152	667
438.225	2865
438.298	21331
438.370	51178
438.443	22305
438.516	5245
438.588	1160
438.661	-214
438.734	651
438.806	1130
438.879	1193
438.951	1770
439.024	2229
439.096	631
439.169	282
439.241	589
439.314	446
439.386	1096
439.459	2679
439.531	2901
439.604	1408
439.676	466
439.749	809
439.821	280
439.893	104
439.966	69
440.038	562
440.110	404
440.183	688
440.255	727
440.327	2388
440.400	10202
440.472	33995
440.544	21443
440.617	2815
440.689	3230
440.761	2680
440.833	5248
440.905	3077
440.978	380
441.050	-442
441.122	367
441.194	-494
441.266	945
441.338	254
441.411	1680
441.483	11134
441.555	15320
441.627	3068
441.699	2370
441.771	1801
441.843	389
441.915	-326
441.987	594
442.059	384
442.131	591
442.203	1999
442.275	2715
442.347	1545
442.419	2119
442.491	6979
442.563	15682
442.635	8998
442.706	10482
442.778	8122
442.850	831
442.922	-35
442.994	1180
443.066	1189
443.137	884
443.209	666
443.281	1084
443.353	4063
443.425	12501
443.496	32042
443.568	28545
443.640	9663
443.711	2213
443.783	1449
443.855	661
443.926	900
443.998	1016
444.070	1424
444.141	1297
444.213	1567
444.285	2423
444.356	1868
444.428	907
444.499	879
444.571	-88
444.642	902
444.714	367
444.785	2194
444.857	2889
444.928	7997
445.000	4365
445.071	5110
445.143	5504
445.214	2692
445.285	4361
445.357	14738
445.428	31398
445.500	57561
445.571	36907
445.642	14905
445.714	10295
445.785	12887
445.856	3271
445.928	2415
445.999	2908
446.070	1502
446.141	1652
446.213	2865
446.284	1100
446.355	2218
446.426	1105
446.497	1194
446.569	1745
446.640	2725
446.711	2027
446.782	457
446.853	1293
446.924	1098
446.995	194
447.066	1726
447.138	2897
447.209	1741
447.280	410
447.351	566
447.422	-214
447.493	1922
447.564	3089
447.635	1957
447.706	425
447.777	419
447.847	484
447.918	542
447.989	1658
448.060	2936
448.131	5427
448.202	4940
448.273	2491
448.344	1192
448.414	1202
448.485	569
448.556	157
448.627	769
448.698	1469
448.768	135
448.839	264
448.910	2975
448.981	2105
449.051	1084
449.122	613
449.193	659
449.263	585
449.334	1106
449.405	2061
449.475	4101
449.546	3321
449.616	3744
449.687	3419
449.758	1274
449.828	675
449.899	897
449.969	730
450.040	870
450.110	1995
450.181	1043
450.251	1178
450.322	1322
450.392	1129
450.463	738
450.533	290
450.604	966
450.674	548
450.744	864
450.815	383
450.885	1023
450.955	1046
451.026	-24
451.096	405
451.166	1097
451.237	3956
451.307	9813
451.377	4005
451.447	34
451.518	1132
451.588	1697
451.658	1876
451.728	3471
451.799	10662
451.869	12031
451.939	2220
452.009	610
452.079	732
452.149	1369
452.219	3028
452.289	11968
452.360	9023
452.430	1719
452.500	334
452.570	833
452.640	2368
452.710	6855
452.780	11278
452.850	6296
452.920	5522
452.990	2136
453.060	2025
453.129	1598
453.199	3374
453.269	15715
453.339	29517
453.409	43371
453.479	44403
453.549	64620
453.619	66671
453.688	25549
453.758	4346
453.828	1778
453.898	1056
453.968	651
454.037	1156
454.087	668
454.107	455
454.168	897
454.177	945
454.247	427
454.249	469
454.316	877
454.330	1289
454.386	2631
454.411	3903
454.456	5673
454.492	7957
454.525	10012
454.574	5390
454.595	3426
454.655	1537
454.665	1254
454.734	2501
454.736	2616
454.804	4033
454.817	5733
454.873	11652
454.898	11952
454.943	12362
454.979	7675
455.013	3760
455.060	3088
455.082	2967
455.141	3827
455.152	4018
455.221	12438
455.222	12708
455.291	21100
455.303	21557
455.360	21976
455.384	27748
455.430	33981
455.465	26017
455.499	19898
455.546	14556
455.569	11802
455.627	7985
455.638	7485
455.707	2198
455.708	2213
455.777	1770
455.789	1791
455.846	1637
455.869	1540
455.916	1423
455.950	1520
455.985	1523
456.031	1160
456.054	992
456.112	1429
456.124	1556
456.193	2192
456.193	2174
456.262	2260
456.274	2413
456.332	3018
456.355	2861
456.401	2079
456.436	1910
456.470	1916
456.516	1263
456.540	962
456.597	950
456.609	925
456.678	903
456.678	890
456.747	597
456.759	590
456.817	755
456.840	892
456.886	1088
456.920	899
456.955	876
457.001	1408
457.024	1638
457.082	2267
457.093	2365
457.162	2714
457.163	2740
457.232	3013
457.243	2753
457.301	1514
457.324	1358
457.370	1289
457.405	1447
457.439	1630
457.485	1870
457.508	1856
457.566	2036
457.577	2167
457.646	2786
457.647	2798
457.715	2659
457.727	2722
457.784	3058
457.808	3470
457.853	4054
457.889	4575
457.922	4726
457.969	4723
457.991	4889
458.050	5169
458.060	5221
458.129	5885
458.130	5931
458.198	5385
458.211	4971
458.267	3244
458.292	2711
458.336	2790
458.372	2913
458.405	3410
458.453	4397
458.474	4893
458.533	7053
458.543	7248
458.611	9888
458.614	9969
458.680	7068
458.694	5892
458.749	3643
458.775	3143
458.818	2582
458.855	2376
458.887	2375
458.936	2711
458.955	2760
459.016	2393
459.024	2374
459.093	2689
459.097	2702
459.162	2625
459.177	2836
459.230	3825
459.257	3805
459.299	3628
459.338	3881
459.368	3976
459.418	3927
459.437	3690
459.499	3366
459.505	3377
459.574	2810
459.579	2789
459.643	2885
459.659	2866
459.711	2513
459.740	2708
459.780	3450
459.820	3755
459.849	3705
459.900	3719
459.917	3682
459.981	4072
459.986	4049
460.054	3377
460.061	3286
460.123	3632
460.141	3927
460.191	4780
460.222	5118
460.260	5063
460.302	5321
460.328	5177
460.382	4546
460.397	4600
460.462	4703
460.465	4817
460.534	7874
460.543	8243
460.602	16463
460.623	19780
460.671	29377
460.703	38801
460.739	33487
460.783	22364
460.808	19539
460.864	6954
460.876	5634
460.944	4804
460.945	4792
461.013	4098
461.024	4026
461.081	3878
461.104	4153
461.150	4195
461.184	3873
461.218	3653
461.264	3135
461.286	3051
461.345	3341
461.355	3370
461.423	3744
461.425	3741
461.491	4818
461.505	5146
461.559	10519
461.585	12903
461.628	18269
461.665	24101
461.696	24660
461.745	26330
461.764	22908
461.825	7381
461.832	7154
461.901	4639
461.905	4661
461.969	3905
461.985	3612
462.037	4414
462.065	4827
462.105	5757
462.145	6845
462.173	9198
462.225	13549
462.241	14620
462.305	20404
462.310	19756
462.378	8518
462.385	7006
462.446	4716
462.465	4367
462.514	4127
462.545	4235
462.582	4207
462.625	4211
462.650	4263
462.705	4084
462.718	4364
462.785	6293
462.786	6343
462.854	8738
462.865	9192
462.922	9484
462.945	9628
462.990	7422
463.025	5330
463.058	5043
463.104	4595
463.126	4226
463.184	3721
463.194	3914
463.262	4912
463.264	4958
463.330	5371
463.344	5432
463.398	6177
463.424	6400
463.466	5983
463.504	5855
463.533	6035
463.583	5963
463.601	5972
463.663	6262
463.669	6521
463.737	9494
463.743	9744
463.805	15545
463.823	17342
463.873	25316
463.903	30281
463.940	28965
463.982	27846
464.008	22389
464.062	8789
464.076	8127
464.142	5037
464.144	5028
464.211	5272
464.221	5395
464.279	5705
464.301	5637
464.347	6366
464.381	7078
464.414	7741
464.461	8647
464.482	8828
464.540	9511
464.550	9299
464.617	7085
464.620	7009
464.685	8728
464.699	9104
464.753	10141
464.779	10678
464.820	11648
464.859	12646
464.888	12334
464.938	11418
464.956	11539
465.018	12039
465.023	11842
465.091	8923
465.098	8620
465.158	9055
465.177	9199
465.226	9227
465.257	9235
465.293	9782
465.336	10361
465.361	10994
465.416	12418
465.428	13682
465.495	20511
465.496	20603
465.563	29831
465.575	31499
465.631	34709
465.654	36115
465.698	22975
465.734	11346
465.765	10562
465.813	9273
465.833	9039
465.893	8937
465.900	9012
465.968	9611
465.972	9633
466.035	9624
466.052	9611
466.102	10092
466.131	10326
466.170	9910
466.210	9481
466.237	10414
466.290	12193
466.304	12085
466.369	11455
466.372	11502
466.439	12460
466.449	12551
466.506	14056
466.528	14632
466.573	21349
466.607	26338
466.641	34391
466.687	45562
466.708	47616
466.766	53232
466.775	49312
466.842	18898
466.845	17424
466.909	14687
466.925	14081
466.977	14165
467.004	14224
467.044	15212
467.083	16156
467.111	17141
467.163	18910
467.178	19098
467.242	19753
467.245	19705
467.312	18058
467.321	17811
467.379	17601
467.400	17482
467.446	18861
467.480	19801
467.559	18089
467.638	14378
467.717	15374
467.796	16557
467.875	16111
467.955	16711
468.034	29562
468.113	51489
468.192	67895
468.271	15514
468.350	12332
468.429	12835
468.508	12113
468.588	12097
468.667	13293
468.746	14573
468.825	13814
468.904	10966
468.983	14754
469.062	21753
469.141	23935
469.220	11331
469.299	11501
469.378	13171
469.456	15927
469.535	14656
469.614	14511
469.693	13721
469.772	19343
469.851	25208
469.930	15340
470.009	11732
470.088	12897
470.166	12140
470.245	13813
470.324	14685
470.403	13858
470.482	11344
470.560	11609
470.639	11607
470.718	13983
470.797	12059
470.875	14583
470.954	19251
471.033	19472
471.111	9186
471.190	10484
471.269	8683
471.347	10256
471.426	10198
471.505	13507
471.583	12659
471.662	12491
471.740	11105
471.819	12329
471.898	10744
471.976	11197
472.055	10862
472.133	12252
472.212	16829
472.290	16626
472.369	10111
472.447	10917
472.526	9476
472.604	11512
472.683	10438
472.761	10095
472.839	10599
472.918	10745
472.996	10663
473.075	11984
473.153	11224
473.231	10898
473.310	11129
473.388	11339
473.466	11126
473.545	12936
473.623	15143
473.701	13740
473.780	10641
473.858	9642
473.936	12578
474.014	11432
474.093	12277
474.171	17242
474.249	25014
474.327	12989
474.405	8635
474.484	9871
474.562	9543
474.640	10243
474.718	10294
474.796	10721
474.874	10413
474.952	9665
475.030	10631
475.108	10795
475.187	12544
475.265	12685
475.343	14258
475.421	15020
475.499	10037
475.577	12091
475.655	16968
475.733	31009
475.811	49509
475.889	41842
475.966	23356
476.044	9704
476.122	11393
476.200	13225
476.278	9870
476.356	9192
476.434	10039
476.512	11968
476.590	12172
476.667	11609
476.745	8586
476.823	10286
476.901	9837
476.979	10458
477.056	10047
477.134	10060
477.212	10234
477.290	9155
477.367	9332
477.445	8830
477.523	9090
477.601	8462
477.678	9035
477.756	11805
477.834	12359
477.911	8349
477.989	9070
478.066	9277
478.144	9582
478.222	9646
478.299	12204
478.377	11554
478.454	7750
478.532	8294
478.609	8660
478.687	9042
478.764	8117
478.842	9483
478.919	8400
478.997	9174
479.074	8500
479.152	10876
479.229	12887
479.307	8088
479.384	7743
479.461	8731
479.539	8631
479.616	10088
479.694	9631
479.771	9584
479.848	10135
479.926	13910
480.003	14525
480.080	7920
480.157	7658
480.235	7126
480.312	7576
480.389	10412
480.467	16297
480.544	18867
480.621	10248
480.698	9093
480.775	10787
480.853	10774
480.930	8855
481.007	10352
481.084	11137
481.161	12040
481.238	11105
481.315	8289
481.392	8308
481.470	8769
481.547	8597
481.624	8341
481.701	6989
481.778	8817
481.855	10060
481.932	17007
482.009	27156
482.086	14104
482.163	7879
482.240	10723
482.317	13546
482.393	10394
482.470	8044
482.547	8232
482.624	7904
482.701	8911
482.778	7901
482.855	7881
482.932	6991
483.009	7444
483.085	8236
483.162	9774
483.239	8462
483.316	6613
483.393	7138
483.469	8618
483.546	9315
483.623	10690
483.699	8101
483.776	8664
483.853	10410
483.930	18127
484.006	42880
484.083	67631
484.160	35723
484.236	52338
484.313	39186
484.389	29903
484.466	26177
484.543	25261
484.619	25490
484.696	27055
484.772	27927
484.849	28777
484.925	24612
485.002	25611
485.078	25022
485.155	25254
485.231	23116
485.308	23198
485.384	23583
485.461	31863
485.537	46994
485.614	49136
485.690	22380
485.766	22119
485.843	24080
485.919	28264
485.995	26551
486.072	20142
486.148	20525
486.224	20957
486.301	22825
486.377	24222
486.453	23386
486.530	26135
486.606	33169
486.682	36624
486.758	41321
486.835	44806
486.911	37869
486.987	57960
487.063	48485
487.139	52361
487.215	38690
487.292	25105
487.368	23339
487.444	24913
487.520	27186
487.596	23760
487.672	28314
487.748	41754
487.824	48061
487.900	29100
487.976	23395
488.052	23995
488.128	27515
488.204	23118
488.280	21121
488.356	30206
488.432	56108
488.508	71039
488.584	23345
488.660	18565
488.736	19467
488.812	20652
488.888	24416
488.964	32162
489.039	54792
489.115	70113
489.191	37979
489.267	21077
489.343	20417
489.418	16778
489.494	17427
489.570	16964
489.646	19023
489.722	17302
489.797	18367
489.873	32325
489.949	61146
490.024	39633
490.100	17138
490.176	16906
490.251	19145
490.327	22095
490.403	15760
490.478	15747
490.554	13691
490.629	14843
490.705	13942
490.781	16869
490.856	14937
490.932	17261
491.007	16588
491.083	16963
491.158	15656
491.234	25549
491.309	46881
491.385	38895
491.460	16779
491.536	17360
491.611	15396
491.686	16520
491.762	20339
491.837	36076
491.913	56336
491.988	75235
492.063	76680
492.139	31704
492.214	20082
492.289	13225
492.365	12565
492.440	15402
492.515	14854
492.590	15607
492.666	13245
492.741	20556
492.816	25391
492.891	14747
492.967	14308
493.042	13285
493.117	14046
493.192	18389
493.267	42253
493.342	121093
493.418	123497
493.493	17370
493.568	12304
493.643	12638
493.718	16274
493.793	21696
493.868	19441
493.943	13573
494.018	12157
494.093	11788
494.168	10961
494.243	10094
494.318	9373
494.393	10530
494.468	9580
494.543	11064
494.618	11112
494.693	9888
494.768	11503
494.842	11375
494.917	10182
494.992	11625
495.067	10046
495.142	9685
495.217	12217
495.292	11337
495.366	12942
495.441	14240
495.516	16901
495.591	27201
495.665	76561
495.740	137093
495.815	45108
495.890	16601
495.964	12343
496.039	16109
496.114	15150
496.188	15081
496.263	15584
496.338	14998
496.412	16671
496.487	19561
496.561	18172
496.636	19078
496.710	17011
496.785	18637
496.860	21260
496.934	16849
497.009	17661
497.083	18523
497.158	18892
497.232	22413
497.307	25929
497.381	23388
497.455	29367
497.530	34218
497.604	27946
497.679	31243
497.753	44133
497.827	50526
497.902	44747
497.976	57930
498.050	141894
498.125	387287
498.199	277738
498.273	59289
498.348	51572
498.422	47189
498.496	42440
498.570	38608
498.645	33048
498.719	32801
498.793	35371
498.867	46634
498.941	67000
499.016	188452
499.090	371682
499.164	86055
499.238	22258
499.312	20592
499.386	23129
499.460	22000
499.534	19794
499.609	23559
499.683	31334
499.757	32666
499.831	91410
499.905	277913
499.979	176919
500.053	36777
500.127	32901
500.201	22198
500.275	17837
500.349	17555
500.422	18891
500.496	26518
500.570	58397
500.644	162711
500.718	237330
500.792	38387
500.866	18934
500.940	23386
501.013	18226
501.087	18408
501.161	28190
501.235	38760
501.309	106366
501.382	248366
501.456	152765
501.530	48241
501.603	74005
501.677	23209
501.751	12992
501.825	19815
501.898	41912
501.972	97914
502.046	43961
502.119	18023
502.193	50772
502.266	101284
502.340	39832
502.413	54588
502.487	83905
502.561	41546
502.634	14323
502.708	12882
502.781	9888
502.855	11544
502.928	8406
503.002	10358
503.075	9971
503.149	11571
503.222	11769
503.295	12174
503.369	14499
503.442	25414
503.516	88919
503.589	179422
503.662	92902
503.736	39339
503.809	85322
503.882	61451
503.956	98103
504.029	64288
504.102	27181
504.175	25974
504.249	12833
504.322	15009
504.395	13644
504.468	9931
504.542	9540
504.615	7746
504.688	8347
504.761	7245
504.834	10615
504.907	12173
504.980	14738
505.053	9513
505.127	10289
505.200	16551
505.273	16064
505.346	9148
505.419	6544
505.492	8123
505.565	5738
505.638	7226
505.711	7260
505.784	6759
505.857	7327
505.930	9570
506.003	6094
506.076	10856
506.149	11587
506.221	13480
506.294	16014
506.367	49343
506.440	127183
506.513	46250
506.586	15339
506.659	8348
506.731	8566
506.804	10167
506.877	11415
506.950	9369
507.022	8329
507.095	10501
507.168	10980
507.241	8586
507.313	6743
507.386	6875
507.459	9883
507.531	7194
507.604	6115
507.677	7733
507.749	5333
507.822	12326
507.894	19832
507.967	24244
508.040	14197
508.112	13834
508.185	11968
508.257	10995
508.330	15914
508.402	12610
508.475	12505
508.547	13075
508.620	13390
508.692	19818
508.765	11291
508.837	8445
508.909	9806
508.982	10173
509.054	11297
509.127	9383
509.199	8826
509.271	8596
509.344	9259
509.416	9341
509.488	9767
509.560	10031
509.633	10501
509.705	11166
509.777	12278
509.849	15354
509.922	12306
509.994	10992
510.066	11984
510.138	13721
510.210	25192
510.283	21593
510.355	17458
510.427	15233
510.499	14562
510.571	13840
510.643	13812
510.715	19439
510.787	13833
510.859	14833
510.931	15978
511.003	18059
511.076	16893
511.148	11512
511.219	14794
511.291	24273
511.363	21803
511.435	14203
511.507	11516
511.579	12100
511.651	12650
511.723	12451
511.795	11130
511.867	12181
511.939	16091
512.010	28341
512.082	18235
512.154	10908
512.226	11593
512.298	20109
512.369	25157
512.441	18779
512.513	16941
512.585	12884
512.656	15684
512.728	14144
512.800	12687
512.871	13522
512.943	12353
513.015	10941
513.086	13869
513.158	12673
513.230	13739
513.301	17217
513.373	16132
513.444	11885
513.516	10840
513.588	11773
513.659	12880
513.731	12921
513.802	13446
513.874	23792
513.945	29327
514.016	12880
514.088	11004
514.159	11577
514.231	15917
514.302	22149
514.374	17461
514.445	17994
514.516	32721
514.588	20468
514.659	18199
514.730	27192
514.802	20436
514.873	18176
514.944	21289
515.016	18462
515.087	18385
515.158	24431
515.229	28031
515.301	22437
515.372	28739
515.443	21026
515.514	16490
515.585	12680
515.656	13246
515.728	12096
515.799	11083
515.870	12169
515.941	12652
516.012	13277
516.083	17618
516.154	16959
516.225	18247
516.296	18329
516.367	14524
516.438	15543
516.509	18091
516.580	26378
516.651	75363
516.722	181558
516.793	66565
516.864	24544
516.935	23576
517.006	25139
517.077	33897
517.148	76593
517.219	221692
517.289	248480
517.360	132417
517.431	39771
517.502	16432
517.573	16640
517.643	16385
517.714	19829
517.785	19504
517.856	19127
517.926	20255
517.997	20424
518.068	21988
518.138	29446
518.209	45386
518.280	175781
518.350	432045
518.421	114145
518.492	24886
518.562	19644
518.633	19231
518.703	16985
518.774	23641
518.845	32519
518.915	27080
518.986	19381
519.056	21792
519.127	35547
519.197	60166
519.268	140449
519.338	62742
519.408	21616
519.479	21904
519.549	15864
519.620	14565
519.690	12435
519.760	11698
519.831	12025
519.901	11967
519.971	12637
520.042	12911
520.112	14159
520.182	14578
520.253	15217
520.323	14679
520.393	20426
520.463	26911
520.534	21114
520.604	35709
520.674	17447
520.744	20149
520.814	40499
520.885	32635
520.955	62024
521.025	159603
521.095	41280
521.165	14549
521.235	12621
521.305	11018
521.375	10812
521.445	12764
521.515	13111
521.585	15238
521.655	11870
521.725	12725
521.795	12772
521.865	9478
521.935	20242
522.005	13942
522.075	9689
522.145	11803
522.215	12550
522.285	17745
522.355	25470
522.424	43988
522.494	31527
522.564	17082
522.634	34015
522.704	68977
522.774	20936
522.843	12076
522.913	10655
522.983	11473
523.053	9441
523.122	10812
523.192	15962
523.262	41084
523.331	28434
523.401	10882
523.471	9445
523.540	9280
523.610	7967
523.680	8545
523.749	9300
523.819	12512
523.888	10339
523.958	8096
524.027	9802
524.097	9456
524.166	9111
524.236	8576
524.305	11074
524.375	7351
524.444	6980
524.514	10923
524.583	8793
524.653	11507
524.722	13033
524.791	8401
524.861	10178
524.930	7352
524.999	9339
525.069	11462
525.138	12109
525.207	12496
525.277	9574
525.346	8757
525.415	9578
525.484	9264
525.554	10230
525.623	9963
525.692	9053
525.761	8736
525.830	9224
525.900	8724
525.969	13678
526.038	15617
526.107	24168
526.176	50435
526.245	35074
526.314	23652
526.383	36793
526.452	35723
526.522	72866
526.591	65594
526.660	34475
526.729	17291
526.797	22276
526.867	61406
526.935	210754
527.004	188402
527.073	66435
527.142	14031
527.211	10477
527.280	11418
527.349	10761
527.418	6825
527.487	8882
527.555	6667
527.624	7838
527.693	5915
527.762	9227
527.831	5978
527.899	6808
527.968	7717
528.037	5716
528.106	9587
528.174	14914
528.243	13645
528.312	20182
528.380	17749
528.449	8843
528.518	7770
528.586	5825
528.655	6845
528.723	7119
528.792	6877
528.861	7278
528.929	5924
528.998	6870
529.066	6046
529.135	6255
529.203	6137
529.272	6382
529.340	8420
529.409	9321
529.477	7940
529.545	10782
529.614	12137
529.682	12945
529.751	13559
529.819	15565
529.887	9453
529.956	8618
530.024	8732
530.092	7468
530.161	10464
530.229	12941
530.297	8160
530.365	8393
530.434	7633
530.502	6555
530.570	8148
530.638	5841
530.707	7989
530.775	9520
530.843	6867
530.911	7914
530.979	7444
531.047	8070
531.115	8014
531.183	8043
531.252	8237
531.320	7714
531.388	7254
531.456	8257
531.524	6557
531.592	8945
531.660	10626
531.728	7979
531.796	8590
531.864	8845
531.932	9648
532.000	8675
532.067	9127
532.135	9778
532.203	12386
532.271	11870
532.339	20802
532.407	35383
532.475	18818
532.542	12955
532.610	14030
532.678	20805
532.746	80203
532.814	123296
532.881	26373
532.949	11356
533.017	9705
533.084	9325
533.152	8451
533.220	9914
533.287	9911
533.355	9539
533.423	10411
533.490	8657
533.558	9374
533.625	10338
533.693	10309
533.761	10243
533.828	11430
533.896	11975
533.963	22180
534.031	23389
534.098	26569
534.166	14657
534.233	12572
534.300	14000
534.368	13608
534.435	12045
534.503	12061
534.570	13006
534.637	10505
534.705	10107
534.772	10854
534.840	12710
534.907	32543
534.974	26562
535.041	11093
535.109	12571
535.176	8784
535.243	8897
535.310	8754
535.378	7886
535.445	8545
535.512	8325
535.579	8584
535.646	8157
535.714	9465
535.781	11769
535.848	12763
535.915	15025
535.982	15859
536.049	16286
536.116	14484
536.183	11976
536.250	11496
536.317	11741
536.384	12562
536.451	14618
536.518	13205
536.585	11140
536.652	15454
536.719	16218
536.786	11467
536.853	11444
536.920	17186
536.987	20143
537.053	23854
537.120	82208
537.187	46318
537.254	10509
537.321	8250
537.388	9136
537.454	8058
537.521	7793
537.588	8337
537.654	11115
537.721	10756
537.788	11559
537.855	8960
537.921	9272
537.988	8356
538.055	10544
538.121	8138
538.188	9757
538.254	14361
538.321	20002
538.388	11354
538.454	9670
538.521	8410
538.587	8932
538.654	7585
538.720	7997
538.787	8874
538.853	9532
538.920	11561
538.986	11507
539.053	9241
539.119	10539
539.185	8797
539.252	12842
539.318	14067
539.385	12548
539.451	10575
539.517	12230
539.583	14154
539.650	31999
539.716	51517
539.782	14820
539.849	8901
539.915	9731
539.981	9638
540.047	10792
540.114	9553
540.180	11455
540.246	9732
540.312	13663
540.378	21484
540.444	19013
540.510	30065
540.576	58156
540.643	15946
540.709	9555
540.775	8752
540.841	9605
540.907	15295
540.973	21199
541.039	16344
541.105	13798
541.171	10571
541.237	9974
541.303	10574
541.369	13214
541.435	14354
541.500	17529
541.566	10230
541.632	9165
541.698	9220
541.764	10348
541.830	8025
541.896	8051
541.961	9862
542.027	8952
542.093	8651
542.159	9848
542.224	11144
542.290	16523
542.356	19510
542.421	17363
542.487	13023
542.553	10785
542.618	12554
542.684	9894
542.750	10052
542.815	12755
542.881	21934
542.947	60241
543.012	28414
543.078	10223
543.143	8819
543.209	11320
543.274	9778
543.340	12717
543.405	26986
543.471	28227
543.536	10678
543.602	10230
543.667	8744
543.732	10764
543.798	8390
543.863	10839
543.928	8462
543.994	7857
544.059	8841
544.124	9523
544.190	8781
544.255	10841
544.320	9924
544.386	9139
544.451	12751
544.516	12681
544.581	16786
544.646	42462
544.712	44455
544.777	14070
544.842	12830
544.907	13773
544.972	11975
545.037	12270
545.102	13767
545.168	13076
545.233	13316
545.298	14537
545.363	16040
545.428	17161
545.493	28592
545.558	42685
545.623	17804
545.688	13404
545.753	12847
545.818	11908
545.883	13168
545.947	13345
546.012	14305
546.077	13835
546.142	13712
546.207	12308
546.272	14696
546.337	14898
546.401	14119
546.466	14214
546.531	11610
546.596	14127
546.661	12210
546.725	13126
546.790	12530
546.855	11845
546.919	11925
546.984	13645
547.049	13847
547.113	16352
547.178	12778
547.243	15862
547.307	17508
547.372	18680
547.436	18275
547.501	15171
547.565	16561
547.630	17893
547.695	17181
547.759	21444
547.823	15919
547.888	15522
547.952	15808
548.017	16022
548.081	19502
548.146	23450
548.210	18873
548.274	15995
548.339	15051
548.403	15677
548.468	14244
548.532	13865
548.596	14967
548.660	15537
548.725	16872
548.789	17872
548.853	19699
548.917	17519
548.982	22929
549.046	20758
549.110	13992
549.174	15885
549.238	14726
549.303	15861
549.367	17406
549.431	15975
549.495	14698
549.559	15830
549.623	16233
549.687	19157
549.751	21571
549.815	20322
549.879	19531
549.943	18702
550.007	19334
550.071	20049
550.135	21583
550.199	17731
550.263	18284
550.327	21789
550.391	24185
550.455	19515
550.519	19231
550.582	21304
550.646	24406
550.710	23795
550.774	20575
550.838	20275
550.901	21867
550.965	22046
551.029	21818
551.093	25491
551.156	32157
551.220	54189
551.284	43508
551.347	32307
551.411	65134
551.475	48642
551.538	23327
551.602	20951
551.666	20217
551.729	18046
551.793	19730
551.856	20739
551.920	20208
551.983	20225
552.047	19391
552.110	20224
552.174	19237
552.237	18751
552.301	18752
552.364	19735
552.428	17737
552.491	18084
552.554	19597
552.618	20171
552.681	20463
552.745	19660
552.808	24759
552.871	26272
552.934	22284
552.998	21357
553.061	21511
553.124	20967
553.187	21785
553.251	22654
553.314	24360
553.377	26727
553.440	46856
553.503	147114
553.567	160790
553.630	32464
553.693	22140
553.756	20878
553.819	19970
553.882	19440
553.945	19324
554.008	18242
554.071	18703
554.134	19033
554.197	18180
554.260	18351
554.323	19596
554.386	19450
554.449	18565
554.512	20351
554.575	18340
554.638	18715
554.701	18735
554.764	18358
554.827	17608
554.889	17216
554.952	16051
555.015	16702
555.078	16806
555.141	16470
555.203	16604
555.266	17300
555.329	17228
555.391	17432
555.454	16739
555.517	17473
555.580	15558
555.642	15648
555.705	14535
555.768	16338
555.830	15582
555.893	14743
555.955	14860
556.018	15502
556.080	14944
556.143	14460
556.206	13531
556.268	15461
556.330	16335
556.393	15084
556.455	16634
556.518	22483
556.580	17864
556.643	13606
556.705	13498
556.767	13406
556.830	14249
556.892	15795
556.955	18856
557.017	14519
557.079	13358
557.142	14594
557.204	15548
557.266	23780
557.328	17168
557.391	12602
557.453	12561
557.515	13618
557.577	14753
557.639	14569
557.701	12107
557.764	12359
557.826	14139
557.888	14196
557.950	12216
558.012	13468
558.074	15451
558.136	26574
558.198	37479
558.260	19021
558.322	14986
558.384	15196
558.446	16387
558.508	16900
558.570	21291
558.632	29612
558.694	34974
558.756	40206
558.818	112865
558.880	176698
558.942	49853
559.003	42956
559.065	21255
559.127	16596
559.189	15922
559.251	17325
559.312	23289
559.374	53725
559.436	117009
559.498	43268
559.559	17281
559.621	15490
559.683	18668
559.744	31477
559.806	72774
559.868	68522
559.929	20281
559.991	19045
560.052	24692
560.114	41945
560.176	26177
560.237	32830
560.299	35373
560.360	15655
560.422	14387
560.483	14209
560.545	13842
560.606	13598
560.667	12873
560.729	12233
560.790	12904
560.852	13475
560.913	12518
560.974	13147
561.036	12210
561.097	12846
561.158	12736
561.220	13806
561.281	13042
561.342	14223
561.403	16578
561.465	18562
561.526	32532
561.587	30678
561.648	15016
561.709	13364
561.771	13915
561.832	13174
561.893	13531
561.954	13359
562.015	12518
562.076	13347
562.137	13754
562.198	13358
562.259	14295
562.320	14419
562.381	14993
562.442	17620
562.503	14267
562.564	13162
562.625	13716
562.686	13649
562.747	14190
562.808	13902
562.869	14343
562.930	17512
562.991	15470
563.051	15438
563.112	14573
563.173	14404
563.234	13845
563.294	13120
563.355	13830
563.416	13890
563.477	13829
563.537	14274
563.598	14748
563.659	14543
563.720	14363
563.780	15101
563.841	14940
563.901	15441
563.962	14244
564.023	13782
564.083	15438
564.144	15232
564.204	14282
564.265	14876
564.325	18862
564.386	30455
564.446	21353
564.507	15534
564.567	14763
564.628	14741
564.688	14404
564.749	15623
564.809	17223
564.869	18578
564.930	16032
564.990	14956
565.050	15461
565.111	16099
565.171	14965
565.231	15168
565.292	16123
565.352	14654
565.412	16261
565.472	15944
565.532	17204
565.593	16130
565.653	15486
565.713	16525
565.773	17863
565.833	18272
565.893	19714
565.953	16950
566.013	17712
566.074	20058
566.134	23906
566.194	30324
566.254	27327
566.314	22901
566.374	20157
566.434	22049
566.494	21173
566.554	22113
566.614	22016
566.673	23679
566.733	24489
566.793	26093
566.853	26144
566.913	27235
566.973	27380
567.033	27889
567.092	27101
567.152	27772
567.212	27707
567.272	29223
567.331	30160
567.391	31338
567.451	32836
567.511	38632
567.570	36091
567.630	29465
567.690	29419
567.749	30688
567.809	32526
567.868	34908
567.928	37621
567.988	43548
568.047	50448
568.107	62197
568.166	82517
568.226	115992
568.285	147043
568.345	137537
568.404	119090
568.464	105688
568.523	101646
568.582	102740
568.642	112432
568.701	135337
568.761	184539
568.820	248686
568.879	245739
568.939	205013
568.998	162849
569.057	133143
569.116	109381
569.176	90609
569.235	78149
569.294	66786
569.353	58434
569.413	53216
569.472	48219
569.531	43102
569.590	39584
569.649	37312
569.708	33994
569.767	33699
569.827	32439
569.886	29258
569.945	27384
570.004	25015
570.063	24669
570.122	24714
570.181	23898
570.240	24236
570.299	24007
570.358	23188
570.417	20166
570.475	20072
570.534	19350
570.593	19557
570.652	20173
570.711	18127
570.770	19057
570.829	19354
570.887	18912
570.946	18723
571.005	16688
571.064	16345
571.122	17237
571.181	18118
571.240	16165
571.299	16284
571.357	17595
571.416	17182
571.475	18471
571.533	18291
571.592	15567
571.650	16604
571.709	15394
571.768	14565
571.826	15514
571.885	14651
571.943	14395
572.002	14959
572.060	14634
572.119	14977
572.177	14189
572.236	13616
572.294	12840
572.352	15327
572.411	12776
572.469	13678
572.528	13956
572.586	13703
572.644	14471
572.703	16517
572.761	14173
572.819	13550
572.877	13357
572.936	12813
572.994	12497
573.052	13088
573.110	13268
573.169	13121
573.227	12406
573.285	12961
573.343	12531
573.401	13262
573.459	12186
573.517	12604
573.576	12737
573.634	12850
573.692	12630
573.750	12782
573.808	11983
573.866	13839
573.924	15917
573.982	14783
574.040	12452
574.098	12737
574.155	12978
574.213	12240
574.271	11643
574.329	12209
574.387	12257
574.445	11974
574.503	11486
574.560	12109
574.618	11752
574.676	12162
574.734	11971
574.792	12823
574.849	11779
574.907	11124
574.965	11666
575.022	12095
575.080	10707
575.138	11707
575.195	13267
575.253	12096
575.311	10913
575.368	11604
575.426	11439
575.483	13552
575.541	12002
575.598	11327
575.656	11999
575.713	13299
575.771	11791
575.828	11962
575.886	12930
575.943	12606
576.001	12494
576.058	12733
576.115	13797
576.173	14163
576.230	14741
576.287	14936
576.345	13555
576.402	13573
576.459	14106
576.517	14241
576.574	15048
576.631	14669
576.688	13017
576.746	13389
576.803	13658
576.860	13036
576.917	12995
576.974	13461
577.031	13652
577.089	14323
577.146	14499
577.203	14129
577.260	14702
577.317	14885
577.374	15931
577.431	14307
577.488	14512
577.545	14151
577.602	14858
577.659	15452
577.716	16178
577.773	17114
577.830	16033
577.886	15385
577.943	13614
578.000	14893
578.057	16507
578.114	18015
578.171	21084
578.227	27819
578.284	25792
578.341	22230
578.398	19310
578.454	18989
578.511	17751
578.568	18028
578.625	15722
578.681	15055
578.738	14333
578.794	15404
578.851	15771
578.908	15364
578.964	15175
579.021	16472
579.077	15809
579.134	15083
579.190	15848
579.247	15174
579.303	15666
579.360	14637
579.416	14305
579.473	14804
579.529	14511
579.586	16152
579.642	15451
579.698	16061
579.755	17049
579.811	16928
579.867	17537
579.924	18424
579.980	20153
580.036	23376
580.093	28226
580.149	39797
580.205	41197
580.261	32601
580.317	27305
580.374	24406
580.430	23936
580.486	20891
580.542	19645
580.598	19569
580.619	19432
580.654	19206
580.692	18839
580.710	18674
580.765	18430
580.767	18430
580.823	17615
580.838	17657
580.879	17798
580.911	17897
580.935	17979
580.984	16978
580.991	16851
581.047	19370
581.057	19357
581.103	19353
581.130	20217
581.159	21115
581.203	22798
581.215	23247
581.270	21950
581.276	21799
581.326	20374
581.349	20212
581.382	19952
581.422	20149
581.438	20261
581.494	20005
581.494	19994
581.550	18813
581.567	19226
581.606	20161
581.640	19209
581.661	18641
581.713	19119
581.717	19151
581.773	18039
581.786	18359
581.829	19452
581.859	19342
581.885	19341
581.932	19953
581.940	20020
581.996	20886
582.004	20831
582.052	20534
582.077	19998
582.107	19435
582.150	20782
582.163	21177
582.219	21400
582.223	21389
582.274	21177
582.296	21084
582.330	20976
582.368	21185
582.386	21314
582.441	21614
582.441	21611
582.497	22247
582.514	22684
582.552	23841
582.587	24274
582.608	24521
582.659	23629
582.663	23545
582.719	23540
582.732	23651
582.774	24307
582.805	24386
582.830	24301
582.877	24599
582.885	24667
582.941	25716
582.950	25774
582.996	26165
583.023	27503
583.052	29278
583.095	31664
583.107	32363
583.162	37605
583.168	37677
583.218	37303
583.240	36543
583.273	34960
583.313	32963
583.328	32337
583.384	31798
583.385	31722
583.439	29428
583.458	29504
583.494	29682
583.531	29251
583.549	29287
583.603	29851
583.605	29847
583.660	29229
583.676	29449
583.715	30319
583.748	30613
583.770	30729
583.820	31057
583.825	31136
583.881	31116
583.893	31234
583.936	31658
583.965	32080
583.991	32260
584.038	32319
584.046	32369
584.101	32684
584.110	32797
584.156	33531
584.183	33500
584.211	33366
584.255	34215
584.266	34539
584.321	35303
584.328	35277
584.376	35066
584.400	35760
584.431	36570
584.472	36082
584.486	35912
584.541	37377
584.545	37358
584.596	37732
584.617	38073
584.651	39033
584.689	40580
584.706	41013
584.761	40751
584.762	40742
584.816	42538
584.834	42691
584.871	43469
584.906	43952
584.926	44039
584.978	44107
584.980	44141
585.035	46173
585.051	46403
585.090	47616
585.123	48520
585.145	49133
585.195	49916
585.200	50060
585.254	52548
585.267	53203
585.309	55346
585.340	56167
585.364	56713
585.412	56318
585.419	56292
585.473	58274
585.484	58537
585.528	60982
585.556	63242
585.583	65883
585.628	72148
585.637	74372
585.692	93857
585.700	96027
585.747	105014
585.772	99787
585.801	86049
585.845	72285
585.856	70832
585.910	69867
585.917	69529
585.965	69539
585.989	70410
586.019	71932
586.061	72899
586.074	73504
586.128	76271
586.133	76431
586.183	77996
586.205	78419
586.237	80121
586.277	82156
586.292	82981
586.346	85532
586.349	85605
586.401	88789
586.421	89534
586.455	91391
586.493	94127
586.509	96093
586.564	103417
586.565	103537
586.618	117600
586.637	118240
586.672	112589
586.709	108056
586.727	107717
586.781	111417
586.781	111597
586.835	114918
586.853	116134
586.889	119594
586.925	122311
586.944	124329
586.996	130677
586.998	131042
587.052	136114
587.068	137491
587.106	142477
587.140	146212
587.161	149005
587.212	156296
587.215	156972
587.269	166082
587.284	168040
587.323	174066
587.356	178705
587.377	183131
587.427	194003
587.431	195048
587.485	205450
587.499	207704
587.539	217607
587.571	225339
587.593	232142
587.643	246449
587.648	248403
587.702	266310
587.715	270218
587.755	286127
587.786	297850
587.810	308535
587.858	330085
587.864	333689
587.917	365257
587.930	371933
587.971	398395
588.001	416683
588.025	434718
588.073	470703
588.079	477180
588.133	529698
588.145	540836
588.187	586832
588.217	617400
588.241	652237
588.288	721376
588.295	733361
588.348	825374
588.360	844451
588.402	940855
588.431	1007045
588.456	1076100
588.503	1208271
588.510	1233780
588.564	1429250
588.575	1468846
588.617	1666164
588.646	1799058
588.671	1930990
588.718	2174509
588.725	2210499
588.778	2452386
588.789	2491068
588.832	2506109
588.861	2482915
588.886	2304647
588.932	1893259
588.939	1866725
588.993	1716699
589.004	1708825
589.047	2222658
589.075	2519901
589.100	2584324
589.147	2639218
589.154	2622512
589.207	2440801
589.218	2400040
589.261	2309544
589.290	2250236
589.314	2272142
589.361	2317023
589.368	2338950
589.421	2485935
589.433	2509210
589.475	2472811
589.504	2404886
589.528	2227735
589.576	1861251
589.582	1898771
589.635	2309272
589.647	2379062
589.689	2434865
589.718	2439570
589.742	2288052
589.790	1965409
589.795	1936315
589.849	1621138
589.861	1546129
589.902	1370380
589.932	1235048
589.955	1162588
590.004	1006082
590.009	997249
590.062	875823
590.075	844278
590.115	776741
590.146	721749
590.168	695125
590.218	631474
590.222	628715
590.275	570963
590.289	554726
590.328	524010
590.360	496577
590.381	483203
590.431	447634
590.435	446910
590.488	414125
590.503	403840
590.541	387501
590.574	371613
590.594	363531
590.645	339545
590.647	339888
590.700	323423
590.716	317541
590.753	306446
590.787	294691
590.806	290183
590.859	274695
590.859	275305
590.912	262808
590.930	257988
590.965	251507
591.001	243796
591.018	241824
591.071	233397
591.072	232604
591.124	225100
591.143	221606
591.177	217183
591.214	210945
591.230	209368
591.283	202068
591.285	201143
591.336	195281
591.356	192171
591.389	188778
591.427	183431
591.442	182753
591.495	178067
591.498	177162
591.547	172408
591.569	169514
591.600	167784
591.640	164265
591.653	164146
591.706	161395
591.711	160588
591.759	157868
591.782	155788
591.811	155416
591.853	153424
591.864	152924
591.917	148019
591.924	146827
591.969	143796
591.995	141319
592.022	141353
592.066	140148
592.075	140236
592.127	138034
592.137	137178
592.180	137475
592.208	136832
592.233	134394
592.279	128470
592.285	128508
592.338	125320
592.350	124171
592.390	123284
592.421	121920
592.443	121673
592.491	119819
592.495	120053
592.548	117746
592.562	116715
592.600	115630
592.633	113974
592.653	113809
592.704	111753
592.705	112359
592.775	110308
592.846	108244
592.916	105076
592.987	105140
593.058	102047
593.128	99168
593.199	96688
593.270	95484
593.341	93524
593.411	93310
593.482	90946
593.553	90403
593.623	87028
593.694	86456
593.764	85118
593.835	84384
593.906	81831
593.976	81467
594.047	82929
594.117	84021
594.188	81029
594.258	77525
594.329	75954
594.399	76208
594.470	74488
594.540	74242
594.611	73278
594.681	71538
594.751	71139
594.822	72419
594.892	71313
594.963	71912
595.033	70823
595.103	70879
595.174	70399
595.244	76300
595.314	80456
595.384	69174
595.455	67420
595.525	68351
595.595	66846
595.665	68188
595.736	65873
595.806	65254
595.876	64844
595.946	63379
596.016	64314
596.087	64710
596.157	64017
596.227	63294
596.297	64568
596.367	65319
596.437	66094
596.507	70803
596.577	74363
596.647	65364
596.717	62916
596.787	63115
596.857	62862
596.927	63067
596.997	62685
597.067	64751
597.137	66731
597.207	66198
597.277	62287
597.347	61690
597.417	62529
597.487	62020
597.557	63041
597.626	63748
597.696	62653
597.766	66164
597.836	69675
597.906	60524
597.975	59775
598.045	57691
598.115	58731
598.185	58922
598.254	61430
598.324	62856
598.394	61123
598.464	61989
598.533	59999
598.603	59783
598.672	59423
598.742	59423
598.812	59039
598.881	58899
598.951	58552
599.020	58161
599.090	59144
599.159	61827
599.229	58922
599.299	57931
599.368	57756
599.437	59125
599.507	56964
599.576	58970
599.646	60794
599.715	61115
599.785	58174
599.854	57745
599.924	59786
599.993	59221
600.062	57502
600.132	57580
600.201	58837
600.270	61316
600.340	61473
600.409	60576
600.478	60686
600.547	62206
600.617	61674
600.686	60303
600.755	57700
600.824	57461
600.894	56382
600.963	56505
601.032	56868
601.101	56960
601.170	55822
601.239	56911
601.308	57759
601.378	58165
601.447	58896
601.516	58679
601.585	59048
601.654	60338
601.723	61257
601.792	62726
601.861	62964
601.930	69263
601.999	65533
602.068	63009
602.137	64175
602.206	64813
602.275	64695
602.343	66491
602.412	65082
602.481	63763
602.550	64386
602.619	64350
602.688	65142
602.756	65961
602.825	64964
602.894	65257
602.963	64942
603.032	65946
603.100	64880
603.169	64682
603.238	66917
603.307	65362
603.375	64199
603.444	67740
603.513	63634
603.581	64883
603.650	65161
603.719	59098
603.787	57909
603.856	59040
603.924	59124
603.993	60182
604.061	60254
604.130	60820
604.198	63922
604.267	62401
604.335	62587
604.404	62733
604.472	65044
604.541	63244
604.609	64066
604.678	66106
604.746	67514
604.815	68862
604.883	65908
604.951	66255
605.020	67197
605.088	64116
605.156	62472
605.225	61880
605.293	60815
605.361	62741
605.429	61563
605.498	63547
605.566	61945
605.634	64920
605.702	62783
605.771	64979
605.839	65364
605.907	61911
605.975	64584
606.043	62337
606.111	60286
606.180	66334
606.248	65993
606.316	66604
606.384	63851
606.452	59613
606.520	53252
606.588	51534
606.656	49428
606.724	49169
606.792	48218
606.860	44983
606.928	42720
606.996	42238
607.064	42547
607.132	42155
607.200	43719
607.267	45368
607.335	44763
607.403	45364
607.471	44354
607.539	43393
607.607	44804
607.674	40678
607.742	41425
607.810	42170
607.878	40898
607.946	42370
608.013	42303
608.081	43481
608.149	42912
608.216	42511
608.284	44451
608.352	42899
608.419	44366
608.487	49900
608.555	44387
608.622	43443
608.690	43516
608.757	45597
608.825	46263
608.893	46835
608.960	45955
609.028	49240
609.095	49635
609.163	44568
609.230	42439
609.298	42262
609.365	40595
609.432	43691
609.500	44490
609.567	49381
609.635	52009
609.702	53754
609.769	51387
609.837	47961
609.904	43414
609.971	43827
610.039	50127
610.106	58901
610.173	88205
610.241	169072
610.308	187609
610.375	117227
610.442	58655
610.509	46689
610.577	45149
610.644	44423
610.711	44370
610.778	45733
610.845	44452
610.912	48444
610.980	53113
611.047	60236
611.114	52099
611.181	45446
611.248	44927
611.315	46578
611.382	45167
611.449	46836
611.516	47933
611.583	47877
611.650	46355
611.717	47591
611.784	48323
611.851	49508
611.918	52972
611.984	56166
612.051	71751
612.118	116520
612.185	246252
612.252	184740
612.319	67246
612.386	56222
612.452	54013
612.519	53370
612.586	58302
612.653	52779
612.719	51118
612.786	50367
612.853	47858
612.919	48351
612.986	48816
613.053	45048
613.120	44966
613.186	42750
613.253	45845
613.319	43671
613.386	44394
613.453	44485
613.519	47230
613.586	48576
613.652	55519
613.719	50269
613.785	49391
613.852	46662
613.918	45704
613.985	49078
614.051	54625
614.118	74910
614.184	72257
614.250	48549
614.317	46068
614.383	45065
614.449	45180
614.516	45648
614.582	46186
614.648	45060
614.715	44708
614.781	45699
614.847	46263
614.914	45980
614.980	46216
615.046	48130
615.112	47993
615.179	50595
615.245	56068
615.311	72405
615.377	109752
615.443	131017
615.509	88016
615.575	65680
615.642	56904
615.708	58324
615.774	59681
615.840	68058
615.906	81404
615.972	121734
616.038	220530
616.104	304288
616.170	390921
616.236	336595
616.302	110004
616.368	75832
616.434	63500
616.500	59743
616.565	58060
616.631	61499
616.697	58525
616.763	57728
616.829	65478
616.895	86085
616.961	87900
617.026	62230
617.092	52292
617.158	51232
617.224	49036
617.289	48686
617.355	47171
617.421	48887
617.487	47961
617.552	46034
617.618	45106
617.684	45395
617.749	46515
617.815	44689
617.880	44256
617.946	45725
618.012	45977
618.077	46681
618.143	45445
618.208	46800
618.274	47392
618.339	48734
618.405	43685
618.470	44984
618.536	46170
618.601	48440
618.667	45169
618.732	44224
618.798	43478
618.863	43423
618.928	42996
618.994	44625
619.059	45082
619.124	50576
619.190	44746
619.255	42079
619.320	44220
619.386	44212
619.451	41845
619.516	42111
619.581	43941
619.647	43123
619.712	43190
619.777	42501
619.842	43306
619.907	44320
619.972	43349
620.038	43853
620.103	41962
620.168	42050
620.233	43823
620.298	42674
620.363	43413
620.428	44255
620.493	43600
620.558	43728
620.623	44016
620.688	45399
620.753	43493
620.818	44478
620.883	43817
620.948	44393
621.013	44694
621.078	44834
621.143	44724
621.207	46162
621.272	45216
621.337	45814
621.402	48061
621.467	51815
621.532	52967
621.596	48973
621.661	47255
621.726	46536
621.791	46936
621.855	48582
621.920	49067
621.985	49093
622.049	49908
622.114	49773
622.179	48916
622.243	51144
622.308	49641
622.373	52412
622.437	51489
622.502	49643
622.566	50198
622.631	48108
622.695	50367
622.760	49706
622.824	49492
622.889	50581
622.953	49856
623.018	57244
623.082	55627
623.147	50377
623.211	48658
623.276	50029
623.340	46898
623.404	47265
623.469	47325
623.533	48148
623.597	47128
623.662	47048
623.726	45287
623.790	44482
623.854	45298
623.919	46082
623.983	44643
624.047	45371
624.111	44589
624.176	46346
624.240	46361
624.304	49760
624.368	45557
624.432	45446
624.496	45307
624.560	47165
624.625	46913
624.689	45136
624.753	43806
624.817	44885
624.881	44427
624.945	42720
625.009	43164
625.073	42397
625.137	43120
625.201	47732
625.265	46211
625.329	43021
625.393	42824
625.456	42713
625.520	43110
625.584	44299
625.648	48419
625.712	57241
625.776	92280
625.839	98657
625.903	53800
625.967	42212
626.031	53558
626.095	68253
626.158	42608
626.222	36166
626.286	36302
626.349	34744
626.413	34370
626.477	36118
626.540	33787
626.604	33604
626.668	34767
626.731	33989
626.795	35207
626.858	34638
626.922	32696
626.986	33509
627.049	31555
627.113	34171
627.176	32674
627.240	32078
627.303	32522
627.366	31950
627.430	31982
627.493	33227
627.557	31611
627.620	32276
627.684	31752
627.747	32682
627.810	29411
627.874	29746
627.937	28886
628.000	31948
628.064	30150
628.127	27070
628.190	28886
628.253	29875
628.317	27358
628.380	27868
628.443	27310
628.506	27649
628.569	26952
628.632	25567
628.696	26948
628.759	26366
628.822	25569
628.885	25033
628.948	25550
629.011	26100
629.074	24210
629.137	25451
629.200	25166
629.263	26630
629.326	23463
629.389	24379
629.452	24781
629.515	26110
629.578	25055
629.641	25031
629.704	24743
629.767	26080
629.830	25314
629.892	24489
629.955	23295
630.018	25309
630.081	23692
630.144	26204
630.207	23159
630.269	26325
630.332	24847
630.395	24105
630.458	22052
630.520	21989
630.583	23383
630.646	22120
630.708	21997
630.771	21805
630.834	22690
630.896	22647
630.959	21641
631.021	21410
631.084	21052
631.146	22797
631.209	24198
631.272	21094
631.334	21440
631.397	21013
631.459	20880
631.522	21889
631.584	21451
631.646	21917
631.709	21856
631.771	24092
631.834	22242
631.896	21884
631.958	19755
632.021	22124
632.083	19919
632.145	21694
632.208	20823
632.270	22228
632.332	19363
632.395	20304
632.457	20940
632.519	20596
632.581	21347
632.643	18562
632.706	20386
632.768	18817
632.830	19519
632.892	20143
632.954	19279
633.016	20887
633.078	19812
633.141	18591
633.203	19194
633.265	20250
633.327	19552
633.389	19164
633.451	20526
633.513	20423
633.575	21968
633.637	20051
633.698	19160
633.760	19993
633.822	19829
633.884	20005
633.946	19018
634.008	19350
634.070	20525
634.132	24140
634.193	21472
634.255	19807
634.317	18519
634.379	20724
634.441	18640
634.502	19290
634.564	19120
634.626	18098
634.687	17838
634.749	19888
634.811	18905
634.873	18797
634.934	17451
634.996	18999
635.057	17466
635.119	18275
635.181	18501
635.242	19407
635.304	15882
635.365	19613
635.427	16239
635.488	18074
635.550	16943
635.611	19254
635.673	16114
635.734	19894
635.796	18262
635.857	19847
635.918	17105
635.980	20298
636.041	17265
636.102	18912
636.164	17850
636.225	19653
636.286	16132
636.348	19656
636.409	16886
636.470	16830
636.531	17759
636.593	18303
636.654	18380
636.715	17124
636.776	16099
636.838	16716
636.899	17913
636.960	16773
637.021	16365
637.082	17431
637.143	16523
637.204	15869
637.265	16292
637.326	17468
637.387	16009
637.448	15921
637.509	16967
637.570	16650
637.631	17337
637.692	15126
637.753	14136
637.814	16582
637.875	15792
637.936	16649
637.997	15559
638.058	16153
638.119	16521
638.179	17004
638.240	14966
638.301	15760
638.362	14956
638.423	17168
638.483	16569
638.544	14470
638.605	15660
638.666	15135
638.726	15865
638.787	16893
638.848	15144
638.908	15157
638.969	14853
639.030	15301
639.090	14503
639.151	14863
639.211	15865
639.272	17937
639.332	20462
639.393	17283
639.453	13627
639.514	15701
639.574	14864
639.635	14733
639.695	15201
639.756	14790
639.816	14614
639.877	15958
639.937	18465
639.997	20864
640.058	14416
640.118	14277
640.178	15260
640.239	14894
640.299	13941
640.359	13859
640.420	13609
640.480	14758
640.540	13183
640.600	13938
640.661	14692
640.721	14476
640.781	15575
640.841	14613
640.901	14532
640.961	13826
641.021	15237
641.082	14206
641.142	16472
641.202	15379
641.262	12292
641.322	14894
641.382	12753
641.442	14804
641.502	13207
641.562	14546
641.622	12623
641.682	13705
641.742	13012
641.802	14565
641.861	13943
641.921	14325
641.981	14799
642.041	14799
642.101	15386
642.161	12933
642.221	12499
642.280	13099
642.340	12655
642.400	13314
642.460	15085
642.519	13812
642.579	13567
642.639	14726
642.698	12159
642.758	16152
642.818	13562
642.877	13399
642.937	14308
642.997	15904
643.056	16677
643.116	13450
643.175	15723
643.235	14255
643.294	13487
643.354	14776
643.414	14230
643.473	15252
643.532	15217
643.592	16415
643.651	21065
643.711	29347
643.770	47947
643.830	103429
643.889	214212
643.948	55907
644.008	18432
644.067	15533
644.126	13503
644.186	13824
644.245	13019
644.304	11718
644.363	14497
644.423	10908
644.482	12766
644.541	12452
644.600	9964
644.659	13495
644.719	13402
644.778	15085
644.837	17298
644.896	25507
644.955	46438
645.014	23742
645.073	16301
645.132	13334
645.191	12372
645.250	12820
645.309	13786
645.368	13331
645.427	13955
645.486	14102
645.545	18149
645.604	13005
645.663	11906
645.722	11941
645.781	11733
645.840	12823
645.898	13477
645.957	16507
646.016	16879
646.075	25463
646.134	42180
646.192	98355
646.251	141856
646.310	29186
646.369	14249
646.427	13720
646.486	11487
646.545	12407
646.603	11403
646.662	12157
646.721	11172
646.779	11556
646.838	10665
646.896	11564
646.955	12403
647.014	14286
647.072	16743
647.131	31071
647.189	19713
647.248	11314
647.306	11119
647.365	11856
647.423	9368
647.481	11612
647.540	9004
647.598	11598
647.657	10029
647.715	11858
647.773	9562
647.832	11020
647.890	9108
647.948	10428
648.007	10738
648.065	9735
648.123	10773
648.181	13844
648.240	13428
648.298	12469
648.356	10460
648.414	11900
648.472	10574
648.531	11247
648.589	9917
648.647	10321
648.705	10409
648.763	11137
648.821	9729
648.879	9684
648.937	10480
648.995	10890
649.053	10183
649.111	12657
649.169	15833
649.227	20794
649.285	32807
649.343	79505
649.401	43148
649.459	23056
649.516	18514
649.574	14888
649.632	24719
649.690	28444
649.748	16614
649.806	20917
649.863	28910
649.921	25935
649.979	18417
650.037	11624
650.094	9367
650.152	10445
650.210	8142
650.268	10983
650.325	9374
650.383	10459
650.440	8792
650.498	9359
650.556	9249
650.613	8468
650.671	9387
650.728	10379
650.786	9412
650.843	8620
650.901	7394
650.958	9852
651.016	8383
651.073	8098
651.131	8455
651.188	8361
651.246	8859
651.303	8494
651.360	8771
651.418	9116
651.475	9047
651.532	8380
651.590	8720
651.647	8471
651.704	9252
651.762	7831
651.819	8491
651.876	8520
651.933	8921
651.990	9174
652.048	7027
652.105	8431
652.162	8240
652.219	8040
652.276	8724
652.333	8836
652.390	7002
652.448	9022
652.505	9232
652.562	8919
652.619	10083
652.676	14643
652.733	15224
652.790	9291
652.847	7423
652.904	9882
652.961	6959
653.017	7971
653.074	8889
653.131	8988
653.188	6643
653.245	7579
653.302	8240
653.359	8370
653.415	8383
653.472	8047
653.529	8134
653.586	7526
653.642	7439
653.699	9244
653.756	7635
653.813	8539
653.869	9250
653.926	8033
653.983	7730
654.039	8758
654.096	7759
654.152	9342
654.209	6895
654.266	8072
654.322	6690
654.379	9199
654.435	9219
654.492	9162
654.548	9009
654.605	12519
654.661	8941
654.717	7883
654.774	8119
654.830	8115
654.887	8155
654.943	8602
655.000	8444
655.056	9090
655.112	7735
655.168	7830
655.225	7418
655.281	8580
655.337	8361
655.394	11858
655.450	9776
655.506	9551
655.562	11441
655.618	11198
655.675	6664
655.731	8132
655.787	7083
655.843	9012
655.899	6186
655.955	7736
656.011	7987
656.067	6654
656.123	8053
656.179	8195
656.235	9524
656.291	6701
656.347	8264
656.403	8644
656.459	7391
656.515	8129
656.571	8342
656.627	9092
656.683	7497
656.739	8470
656.795	8130
656.850	7576
656.906	8728
656.962	8889
657.018	6470
657.074	7974
657.129	7219
657.185	8105
657.241	9128
657.297	8734
657.352	7962
657.408	8090
657.464	8215
657.519	7938
657.575	6542
657.630	7816
657.686	7011
657.742	7849
657.797	6607
657.853	7427
657.908	8267
657.964	7404
658.019	7487
658.075	6945
658.130	7985
658.186	6301
658.241	7727
658.297	7114
658.352	6771
658.407	8125
658.463	6551
658.518	7895
658.573	7050
658.629	6242
658.684	7320
658.739	7938
658.795	6661
658.850	6895
658.905	6230
658.960	7837
659.016	6316
659.071	6930
659.126	7815
659.181	7357
659.236	10327
659.291	10720
659.346	9102
659.401	9496
659.457	9823
659.512	11313
659.567	9691
659.622	7710
659.677	6944
659.732	6776
659.787	7570
659.842	7647
659.897	7952
659.952	8250
660.007	7208
660.061	7197
660.116	6981
660.171	7384
660.226	6894
660.281	8050
660.336	6271
660.391	8101
660.445	5980
660.500	8083
660.555	7740
660.610	6769
660.664	7024
660.719	7485
660.774	7586
660.828	7235
660.883	6716
660.938	7625
660.992	6801
661.047	7309
661.101	7083
661.156	7344
661.211	5848
661.265	7747
661.320	6308
661.374	7970
661.429	6084
661.483	8219
661.538	6544
661.592	7065
661.647	7087
661.701	7878
661.755	6830
661.810	8215
661.864	6502
661.919	6713
661.973	7392
662.027	7485
662.081	6274
662.136	7197
662.190	6669
662.244	7389
662.299	6735
662.353	7353
662.407	6706
662.461	7810
662.515	7327
662.569	8148
662.624	6608
662.678	7351
662.732	7141
662.786	6221
662.840	7387
662.894	7888
662.948	6444
663.002	6606
663.056	6703
663.110	7601
663.164	6142
663.218	7159
663.272	7048
663.326	6965
663.380	6687
663.434	7549
663.488	6027
663.542	7110
663.595	6884
663.649	6649
663.703	6821
663.757	7508
663.811	6369
663.864	6724
663.918	6688
663.972	7141
664.026	6471
664.079	7391
664.133	6822
664.187	6977
664.240	6078
664.294	6697
664.348	6907
664.401	7360
664.455	6320
664.508	6587
664.562	6771
664.615	6539
664.669	6247
664.722	7001
664.776	5878
664.829	7798
664.883	6624
664.936	7258
664.990	6553
665.043	7937
665.097	6549
665.150	8572
665.203	5708
665.257	6947
665.310	7240
665.363	7728
665.417	6738
665.470	7547
665.523	6397
665.576	7212
665.630	7356
665.683	7256
665.736	6680
665.789	7909
665.842	6803
665.895	7334
665.949	6584
666.002	6629
666.055	6344
666.108	7910
666.161	6468
666.214	7591
666.267	7362
666.320	8353
666.373	8346
666.426	6968
666.479	6621
666.532	7656
666.585	7088
666.638	7973
666.691	7080
666.744	8232
666.796	7298
666.849	8023
666.902	6977
666.955	6977
667.008	6278
667.060	6886
667.113	5594
667.166	7534
667.219	6639
667.271	7100
667.324	7106
667.377	7911
667.430	7123
667.482	8633
667.535	6658
667.587	7118
667.640	7391
667.693	7442
667.745	8473
667.798	8860
667.850	6985
667.903	7778
667.955	6748
668.008	7067
668.060	7786
668.113	7245
668.165	7636
668.218	7463
668.270	7886
668.322	7892
668.375	6822
668.427	7442
668.479	5817
668.532	7986
668.584	7314
668.636	7107
668.689	7178
668.741	7713
668.793	6557
668.845	6606
668.898	7492
668.950	6881
669.002	7324
669.054	7527
669.106	7205
669.158	7746
669.211	6625
669.263	7959
669.315	8588
669.367	9179
669.419	7462
669.471	8704
669.523	8154
669.575	8830
669.627	9048
669.679	7756
669.731	7639
669.783	9164
669.835	8407
669.886	8195
669.938	9181
669.990	8706
670.042	8158
670.094	9894
670.146	11201
670.197	11079
670.249	14467
670.301	16680
670.353	21733
670.404	30712
670.456	43543
670.508	64556
670.560	101776
670.611	163916
670.663	282276
670.715	610226
670.766	885403
670.818	347192
670.869	78082
670.921	38176
670.972	26472
671.024	20888
671.075	16638
671.127	13997
671.178	11716
671.230	12223
671.281	10830
671.333	9955
671.384	9726
671.436	10177
671.487	9261
671.538	9845
671.590	10400
671.641	10367
671.692	11613
671.744	14883
671.795	14133
671.846	10600
671.897	9394
671.949	8480
672.000	7973
672.051	8121
672.102	8285
672.153	7826
672.204	6863
672.256	7805
672.307	7227
672.358	8201
672.409	6862
672.460	7719
672.511	6254
672.562	7337
672.613	6727
672.664	7469
672.715	6240
672.766	6608
672.817	6683
672.868	6437
672.919	6015
672.970	6583
673.021	6166
673.071	6539
673.122	6746
673.173	6667
673.224	6044
673.275	7113
673.326	6707
673.376	6938
673.427	5078
673.478	6672
673.528	6200
673.579	6528
673.630	5484
673.680	7029
673.731	5881
673.782	5807
673.832	6616
673.883	7307
673.934	5383
673.984	6453
674.035	5142
674.085	6844
674.136	6448
674.186	6452
674.237	7182
674.287	8257
674.338	6498
674.388	5837
674.438	5121
674.489	6342
674.539	5908
674.589	6271
674.640	6515
674.690	6438
674.740	6557
674.791	6255
674.841	5952
674.891	6437
674.942	5854
674.992	5930
675.042	4321
675.092	5881
675.142	5570
675.193	5283
675.243	5638
675.293	6708
675.343	5013
675.393	6025
675.443	5657
675.493	5723
675.543	4869
675.593	6500
675.643	5670
675.693	6502
675.743	4996
675.793	5632
675.843	5621
675.893	5986
675.943	5257
675.993	6034
676.043	5710
676.093	6562
676.142	5175
676.192	5921
676.242	4831
676.292	5170
676.341	5082
676.391	6004
676.441	5367
676.491	5701
676.540	4636
676.590	5556
676.640	5593
676.689	6125
676.739	4508
676.789	4537
676.838	5145
676.888	5714
676.937	4782
676.987	5432
677.037	4876
677.086	4811
677.136	4951
677.185	4615
677.235	5012
677.284	5597
677.333	5248
677.383	4149
677.432	4086
677.482	4823
677.531	5394
677.580	5257
677.630	5051
677.679	5059
677.728	4779
677.778	5157
677.827	4019
677.876	5524
677.925	3999
677.975	4858
678.024	4890
678.073	4391
678.122	5013
678.171	4963
678.220	4816
678.269	5741
678.319	4838
678.368	4606
678.417	5168
678.466	6099
678.515	4928
678.564	5815
678.613	4996
678.662	5655
678.711	5653
678.760	5329
678.809	5529
678.857	4514
678.906	5033
678.955	5037
679.004	4991
679.053	5583
679.102	4627
679.151	6232
679.199	4578
679.248	4529
679.297	4622
679.346	4920
679.394	4582
679.443	5408
679.492	4498
679.540	6001
679.589	4891
679.638	5559
679.686	4648
679.735	5019
679.784	4271
679.832	4637
679.881	4095
679.929	4841
679.978	5049
680.026	4642
680.075	4016
680.123	5232
680.172	4129
680.220	4485
680.268	4624
680.317	4640
680.365	4167
680.414	4736
680.462	3488
680.510	5458
680.559	4267
680.607	4133
680.655	4570
680.703	4693
680.752	4156
680.800	4406
680.848	3751
680.896	4253
680.945	4175
680.993	4142
681.041	4295
681.089	4697
681.137	4022
681.185	4555
681.233	4306
681.258	4030
681.281	3741
681.329	3260
681.377	4168
681.380	4185
681.425	3974
681.473	5007
681.502	4598
681.521	4261
681.569	5939
681.617	4756
681.624	4722
681.665	4312
681.713	4241
681.745	4517
681.761	4607
681.809	4759
681.857	5775
681.867	5597
681.904	4856
681.952	5316
681.989	4890
682.000	4733
682.048	5488
682.096	4748
682.111	5065
682.143	5636
682.191	4496
682.233	5918
682.239	6106
682.286	4850
682.334	5458
682.354	5135
682.382	4638
682.430	5666
682.476	5197
682.477	5162
682.525	5717
682.572	4821
682.598	5276
682.620	5662
682.667	5572
682.715	6426
682.720	6392
682.763	5764
682.810	6205
682.841	5943
682.857	5790
682.905	5971
682.952	5726
682.963	5865
683.000	6253
683.047	5734
683.085	6789
683.095	7049
683.142	6243
683.190	6135
683.206	5989
683.237	5651
683.284	6234
683.328	5743
683.332	5674
683.379	6980
683.426	6202
683.449	6286
683.473	6352
683.521	6363
683.568	7006
683.571	6954
683.615	6034
683.662	6724
683.693	6387
683.709	6175
683.757	6288
683.804	6933
683.814	6947
683.851	6905
683.898	7203
683.936	6735
683.945	6592
683.992	6969
684.039	7261
684.057	7050
684.086	6688
684.133	6728
684.179	6920
684.180	6911
684.227	7547
684.274	6967
684.300	7334
684.321	7532
684.368	6925
684.415	7614
684.422	7481
684.462	6631
684.509	7006
684.543	6902
684.556	6843
684.603	7263
684.649	6795
684.665	7196
684.696	8003
684.743	7603
684.786	8365
684.790	8420
684.837	8027
684.883	7975
684.908	8394
684.930	8746
684.977	8534
685.023	8420
685.029	8532
685.070	9154
685.117	8475
685.150	8758
685.164	8949
685.210	8741
685.257	10118
685.272	10154
685.303	9865
685.350	9323
685.393	8953
685.396	8927
685.443	8860
685.490	9509
685.514	9562
685.536	9588
685.583	9120
685.629	9336
685.636	9265
685.675	8757
685.722	9548
685.757	9391
685.768	9354
685.815	9897
685.861	9353
685.878	9701
685.908	10267
685.954	9180
686.000	9953
686.000	9959
686.047	9475
686.093	11122
686.121	10656
686.139	10236
686.185	10622
686.232	9928
686.242	9907
686.278	9858
686.324	9353
686.363	10257
686.370	10426
686.416	9178
686.463	10107
686.484	9988
686.509	9881
686.555	9756
686.601	9851
686.606	9883
686.647	9990
686.693	9859
686.727	10178
686.739	10305
686.785	10137
686.831	10067
686.848	9997
686.877	9963
686.923	10915
686.969	10143
686.969	10137
687.015	10732
687.061	10542
687.090	10851
687.107	10933
687.153	10284
687.199	9982
687.211	9822
687.245	9608
687.291	10505
687.332	10688
687.336	10723
687.382	11193
687.428	11165
687.453	11321
687.474	11216
687.520	10618
687.565	10771
687.574	10714
687.611	10869
687.657	11304
687.695	10975
687.702	10900
687.748	12165
687.794	11844
687.816	11922
687.839	11826
687.885	11334
687.931	11325
687.937	11245
687.976	11003
688.022	11825
688.058	11610
688.067	11573
688.113	11534
688.158	11017
688.179	11065
688.204	11166
688.249	11572
688.295	12025
688.300	11963
688.340	11659
688.386	12089
688.421	12176
688.431	12122
688.477	12386
688.522	11946
688.542	12214
688.567	12819
688.613	12118
688.658	12768
688.663	12749
688.703	12395
688.749	12617
688.784	12918
688.794	13026
688.839	12648
688.884	12088
688.905	12293
688.930	12501
688.975	12465
689.020	12516
689.026	12434
689.065	12089
689.110	12850
689.146	12764
689.155	12693
689.201	12724
689.246	12181
689.267	12220
689.291	12602
689.336	12967
689.381	13223
689.388	13206
689.426	12668
689.471	12858
689.509	12548
689.516	12553
689.561	12789
689.606	12955
689.630	12927
689.651	12956
689.696	12707
689.741	13299
689.750	13287
689.785	13388
689.830	13468
689.871	13583
689.875	13567
689.920	13719
689.965	13283
689.992	13098
690.010	13152
690.054	13389
690.099	13140
690.112	13372
690.144	13928
690.189	13926
690.233	13709
690.233	13725
690.278	14177
690.323	14421
690.354	14846
690.367	15095
690.412	15095
690.457	15834
690.474	15860
690.501	16059
690.546	16888
690.590	17365
690.595	17427
690.635	18377
690.680	19068
690.716	20157
690.724	20797
690.769	23800
690.813	27335
690.836	28775
690.857	32282
690.902	40619
690.946	49523
690.957	51947
690.991	70829
691.035	97680
691.077	123316
691.080	123574
691.124	116236
691.168	106239
691.198	101381
691.213	93912
691.257	73482
691.301	53138
691.318	45528
691.346	41589
691.390	34141
691.434	27735
691.439	26916
691.478	24470
691.522	22712
691.559	20077
691.567	19888
691.611	19899
691.655	18672
691.680	18318
691.699	18193
691.743	18246
691.787	17730
691.800	17544
691.831	17344
691.875	17442
691.919	17205
691.921	17165
691.964	16888
692.008	16915
692.041	17033
692.052	17110
692.096	17050
692.139	17255
692.162	17055
692.183	16888
692.227	16974
692.271	16864
692.282	16824
692.315	16916
692.359	16904
692.402	16937
692.403	16965
692.447	16628
692.490	17186
692.523	16950
692.534	16922
692.578	17030
692.622	16906
692.643	16986
692.666	17165
692.709	16892
692.753	17332
692.763	17333
692.797	17639
692.840	18238
692.884	18220
692.884	18252
692.928	18604
692.971	18634
693.004	19014
693.015	19173
693.059	19645
693.102	19961
693.124	19907
693.146	20038
693.189	20631
693.233	20782
693.245	21022
693.276	22603
693.320	24305
693.363	25891
693.365	25898
693.407	28350
693.450	31323
693.485	33740
693.493	35191
693.537	42514
693.580	49879
693.605	54249
693.624	62730
693.667	82168
693.710	103047
693.725	110605
693.753	144970
693.797	200679
693.840	257631
693.845	263083
693.883	251774
693.926	233487
693.966	220322
693.970	215953
694.013	167467
694.056	120010
694.086	87166
694.099	82485
694.142	67934
694.185	52771
694.206	45722
694.229	43233
694.272	38041
694.315	33052
694.326	31634
694.358	29930
694.401	28184
694.444	25943
694.446	25788
694.487	24965
694.530	23840
694.566	23090
694.573	23032
694.616	21963
694.659	21360
694.686	20764
694.702	20596
694.745	20204
694.787	19566
694.806	19400
694.830	19419
694.873	19037
694.916	18942
694.926	18820
694.959	18875
695.002	18895
695.044	19107
695.046	19072
695.087	19169
695.130	19123
695.166	19203
695.172	19237
695.215	18935
695.258	18977
695.286	18810
695.301	18751
695.343	18408
695.386	18194
695.406	18034
695.428	18141
695.471	18264
695.514	18344
695.526	18295
695.556	18342
695.599	18786
695.641	18840
695.646	18819
695.684	18785
695.726	18530
695.766	18405
695.769	18444
695.811	18452
695.854	18337
695.886	18319
695.896	18351
695.938	18162
695.981	17930
696.005	17887
696.023	18085
696.065	18232
696.108	18640
696.125	18640
696.150	18696
696.192	19014
696.235	19052
696.245	19093
696.277	19285
696.319	19319
696.361	19397
696.365	19341
696.404	19665
696.446	20378
696.485	20720
696.488	20765
696.530	20784
696.572	20761
696.604	20868
696.614	20794
696.656	19974
696.698	19325
696.724	18851
696.740	18855
696.783	18819
696.825	18649
696.844	18606
696.867	18580
696.909	18359
696.951	18173
696.964	18063
696.992	18248
697.034	18328
697.076	18459
697.083	18472
697.118	18720
697.160	18776
697.202	18902
697.203	18858
697.244	19067
697.286	19373
697.323	19518
697.327	19500
697.369	18989
697.411	18388
697.442	17912
697.453	17981
697.494	18092
697.536	18228
697.562	18256
697.578	18435
697.620	18807
697.661	19092
697.682	19225
697.703	19184
697.744	19003
697.786	18883
697.801	18734
697.828	18730
697.869	18814
697.911	18749
697.921	18711
697.952	18842
697.994	18943
698.035	19018
698.040	18985
698.077	19287
698.118	19539
698.160	19768
698.160	19719
698.201	19608
698.243	19427
698.279	19238
698.284	19284
698.325	19226
698.367	19250
698.399	19167
698.408	19130
698.449	18739
698.491	18344
698.518	18068
698.532	18242
698.573	18592
698.614	18977
698.638	19131
698.656	19307
698.697	19639
698.738	19936
698.757	20042
698.779	19926
698.820	19592
698.862	19259
698.877	19088
698.903	19574
698.944	20273
698.985	20973
698.996	21117
699.026	20784
699.067	20247
699.116	19560
699.235	20390
699.354	19784
699.474	19519
699.593	20420
699.713	19386
699.832	19866
699.951	18667
700.070	18867
700.190	19074
700.309	19462
700.428	18763
700.547	19076
700.667	20112
700.786	18880
700.905	18325
701.024	19369
701.143	18847
701.262	18025
701.381	17631
701.500	17943
701.619	18166
701.738	18153
701.857	18760
701.976	17620
702.095	18603
702.214	19070
702.333	18446
702.452	18075
702.571	18569
702.690	19127
702.809	18236
702.928	18611
703.047	17976
703.165	17808
703.284	17710
703.403	17603
703.522	17035
703.640	18307
703.759	19121
703.878	20342
703.997	17730
704.115	17080
704.234	17353
704.353	16676
704.471	18157
704.590	16888
704.708	16374
704.827	17956
704.946	18240
705.064	17468
705.183	16621
705.301	19655
705.420	24481
705.538	22922
705.656	21211
705.775	22664
705.893	36749
706.012	42221
706.130	21961
706.249	20747
706.367	21108
706.485	20577
706.604	19769
706.722	20221
706.840	21727
706.958	22240
707.077	21669
707.195	20171
707.313	19882
707.431	18667
707.549	19048
707.668	19268
707.786	19957
707.904	19645
708.022	18433
708.140	19673
708.258	18676
708.376	19469
708.494	18547
708.612	21684
708.730	25699
708.848	24840
708.966	22015
709.084	22046
709.202	22396
709.320	22071
709.438	22652
709.556	22729
709.674	22674
709.791	21346
709.909	21910
710.027	22052
710.145	22303
710.263	22014
710.380	20956
710.498	21673
710.616	21269
710.733	21204
710.851	21527
710.969	20978
711.086	20952
711.204	20906
711.322	20348
711.439	19545
711.557	19657
711.674	20743
711.792	20868
711.909	20976
712.027	23450
712.144	19889
712.262	21265
712.379	20574
712.497	27321
712.614	28356
712.732	24287
712.849	22798
712.966	22248
713.084	23856
713.201	23569
713.318	23480
713.436	23160
713.553	23199
713.670	22558
713.787	24293
713.905	24396
714.022	23637
714.139	22853
714.256	23399
714.373	22775
714.490	25801
714.608	34839
714.725	83935
714.842	84149
714.959	24888
715.076	22356
715.193	21859
715.310	21465
715.427	21725
715.544	20840
715.661	20575
715.778	21211
715.895	22380
716.011	21932
716.128	21400
716.245	21680
716.362	21577
716.479	21361
716.596	20935
716.713	21150
716.829	20625
716.946	21030
717.063	19198
717.180	20206
717.296	19688
717.413	20094
717.530	19385
717.646	19355
717.763	19848
717.880	20003
717.996	19451
718.113	18957
718.229	19130
718.346	18464
718.462	18478
718.579	20253
718.695	21221
718.812	21042
718.928	20739
719.045	18811
719.161	18307
719.277	18553
719.394	18574
719.510	19239
719.626	18620
719.743	21257
719.859	19540
719.975	21518
720.092	33257
720.208	51555
720.324	22934
720.440	19108
720.557	18868
720.673	20533
720.789	24159
720.905	34367
721.021	21603
721.137	18631
721.253	18027
721.369	18034
721.486	18792
721.602	19558
721.718	17303
721.834	17292
721.950	17593
722.066	17086
722.181	16983
722.297	17189
722.413	17055
722.529	16944
722.645	16980
722.761	16635
722.877	17024
722.993	16339
723.108	16981
723.224	16947
723.340	16747
723.456	15991
723.571	15972
723.687	16396
723.803	16444
723.918	16847
724.034	16067
724.150	15877
724.265	16085
724.381	21312
724.497	21031
724.612	15817
724.728	16325
724.843	15770
724.959	16661
725.074	19899
725.190	20815
725.305	16980
725.421	15124
725.536	15385
725.651	15608
725.767	15541
725.882	14782
725.997	13946
726.113	14783
726.228	14663
726.343	15571
726.459	14475
726.574	14419
726.689	14649
726.804	14690
726.920	15203
727.035	14678
727.150	15030
727.265	14591
727.380	15441
727.495	13746
727.610	15316
727.725	15003
727.841	17227
727.956	25665
728.071	21232
728.186	14802
728.301	13655
728.416	14961
728.531	14092
728.645	13460
728.760	14737
728.875	13659
728.990	14222
729.105	13248
729.220	14250
729.335	13913
729.449	13594
729.564	12759
729.679	14112
729.794	13646
729.908	14219
730.023	13640
730.138	14105
730.253	14224
730.367	13009
730.482	13325
730.596	12883
730.711	13303
730.826	13862
730.940	14477
731.055	13954
731.169	12979
731.284	13388
731.398	12659
731.513	14098
731.627	14301
731.742	13697
731.856	13443
731.970	12798
732.085	13611
732.199	13549
732.313	14916
732.428	17760
732.542	26790
732.656	20489
732.771	14271
732.885	13391
732.999	13332
733.113	14171
733.227	14586
733.342	13565
733.456	13462
733.570	12873
733.684	12781
733.798	12849
733.912	13117
734.026	12153
734.140	12859
734.254	12634
734.368	15313
734.482	15691
734.596	13038
734.710	12888
734.824	12070
734.938	12909
735.052	12907
735.166	13397
735.280	13721
735.393	12481
735.507	13007
735.621	12768
735.735	16081
735.849	12701
735.962	12375
736.076	13099
736.190	12138
736.303	13479
736.417	14248
736.531	13024
736.644	11844
736.758	13149
736.872	12510
736.985	11970
737.099	12838
737.212	12025
737.326	12933
737.439	12729
737.553	13107
737.666	13131
737.780	11698
737.893	12290
738.007	12774
738.120	12657
738.233	12358
738.347	12090
738.460	12809
738.573	12178
738.687	12021
738.800	13046
738.913	12171
739.026	13014
739.140	12395
739.253	12427
739.366	12740
739.479	12166
739.592	12241
739.705	12749
739.818	12261
739.932	12303
740.045	11856
740.158	11866
740.271	11703
740.384	12699
740.497	12275
740.610	11779
740.723	12398
740.836	13536
740.949	12748
741.062	12662
741.174	12623
741.287	12109
741.400	12073
741.513	12951
741.626	12651
741.739	12154
741.851	11934
741.964	12733
742.077	12242
742.189	12261
742.302	12681
742.415	12948
742.527	12483
742.640	11803
742.753	12220
742.865	11757
742.978	12831
743.090	11944
743.203	12663
743.316	12971
743.428	11897
743.541	12132
743.653	11861
743.766	11997
743.878	11385
743.990	12498
744.103	13526
744.215	12707
744.327	12673
744.440	13244
744.552	14020
744.664	12097
744.777	11222
744.889	12050
745.001	12390
745.113	11890
745.226	12708
745.338	11542
745.450	12618
745.562	12520
745.674	12418
745.786	12112
745.898	12945
746.010	12443
746.122	12026
746.234	12476
746.347	12119
746.459	12261
746.570	12021
746.682	12638
746.794	12779
746.906	12828
747.018	13855
747.130	13276
747.242	12764
747.354	12588
747.466	12151
747.577	12090
747.689	12296
747.801	13240
747.913	12316
748.024	12806
748.136	12724
748.248	12098
748.359	13711
748.471	13441
748.583	13028
748.694	13407
748.806	14702
748.918	13463
749.029	13737
749.141	12931
749.252	13116
749.364	13097
749.475	14433
749.587	13295
749.698	12616
749.809	12461
749.921	12781
750.032	13152
750.144	12926
750.255	13147
750.366	13392
750.478	13276
750.589	13752
750.700	13060
750.811	13847
750.923	13979
751.034	13854
751.145	14812
751.256	13413
751.367	13209
751.479	13364
751.590	12905
751.701	14035
751.812	12644
751.923	13568
752.034	13653
752.145	12843
752.256	12970
752.367	12922
752.478	13836
752.589	14221
752.700	15072
752.811	14082
752.922	13606
753.032	14653
753.143	13856
753.254	14017
753.365	14165
753.476	14320
753.586	14729
753.697	13658
753.808	14565
753.919	13296
754.029	14688
754.140	14414
754.251	14882
754.361	14087
754.472	14212
754.582	14483
754.693	15336
754.804	15759
754.914	15595
755.025	14109
755.135	15266
755.246	15196
755.356	15031
755.466	16243
755.577	16288
755.687	16021
755.798	16400
755.908	16020
756.018	16430
756.129	16537
756.239	16229
756.349	16493
756.460	17128
756.570	16911
756.680	17564
756.790	17127
756.900	17706
757.011	17441
757.121	17699
757.231	17333
757.341	18490
757.451	18229
757.561	18141
757.671	18043
757.781	17756
757.891	18731
758.001	18666
758.111	19576
758.221	19841
758.331	19582
758.441	19473
758.551	19669
758.661	20107
758.771	20345
758.880	21251
758.990	22280
759.100	22257
759.210	23193
759.320	22507
759.429	22495
759.539	22862
759.649	23743
759.758	24279
759.868	24094
759.978	25364
760.087	25353
760.197	25913
760.307	25642
760.416	25873
760.526	27216
760.635	28276
760.745	28050
760.854	28657
760.964	29638
761.073	30561
761.182	31224
761.292	31732
761.401	33061
761.511	33116
761.620	33960
761.729	34665
761.839	35688
761.948	37175
762.057	38596
762.166	39868
762.276	39320
762.385	42579
762.494	43312
762.603	44725
762.712	47002
762.822	49192
762.931	50277
763.040	51008
763.149	53169
763.258	56731
763.367	58302
763.476	63145
763.585	65187
763.694	68928
763.803	73298
763.912	77458
764.021	81848
764.130	86066
764.238	93170
764.347	99449
764.456	106243
764.565	117198
764.674	127765
764.783	139899
764.891	155688
765.000	176041
765.109	195943
765.217	226090
765.326	261092
765.435	308688
765.543	373461
765.652	457862
765.761	576350
765.869	737112
765.978	967310
766.086	1259916
766.195	1554081
766.303	1564529
766.412	1052644
766.520	1268162
766.629	1625056
766.737	1434407
766.846	1112937
766.954	847754
767.062	650262
767.171	511610
767.279	409126
767.387	336790
767.496	283178
767.604	244274
767.712	214101
767.820	192783
767.928	178181
768.037	162770
768.145	154476
768.253	150203
768.361	145674
768.469	146742
768.577	147491
768.685	155579
768.793	165470
768.901	184565
769.009	213705
769.117	259977
769.225	328071
769.333	442688
769.441	625683
769.549	927331
769.657	1323128
769.765	1398698
769.873	1110230
769.981	1437900
770.088	1197315
770.196	834693
770.304	592333
770.412	445087
770.519	343637
770.627	278220
770.735	230104
770.842	195272
770.950	167612
771.058	146985
771.165	131464
771.273	117634
771.380	106480
771.488	99067
771.595	89810
771.703	84601
771.810	79768
771.918	73148
772.025	69606
772.133	64333
772.240	59647
772.348	58094
772.455	56145
772.562	53705
772.670	50033
772.777	47796
772.884	46144
772.991	45037
773.099	43153
773.206	40721
773.313	40036
773.420	38105
773.528	36934
773.635	36652
773.742	35859
773.849	33797
773.956	31914
774.063	32077
774.170	31103
774.277	32028
774.384	29201
774.491	28555
774.598	28183
774.705	28232
774.812	27024
774.919	27154
775.026	26431
775.133	25131
775.239	25347
775.346	24596
775.453	24659
775.560	23821
775.667	24289
775.773	23006
775.880	22411
775.987	23398
776.093	21646
776.200	20869
776.307	20436
776.413	21090
776.520	20226
776.627	20324
776.733	19956
776.840	18458
776.946	19763
777.053	18867
777.159	19133
777.266	17687
777.372	20119
777.478	18859
777.585	18089
777.691	17315
777.798	17030
777.904	17936
778.010	17615
778.117	17347
778.223	16376
778.329	16261
778.435	16018
778.542	16106
778.648	15594
778.754	15620
778.860	15777
778.966	16378
779.072	15196
779.178	15626
779.284	15955
779.391	16367
779.497	18423
779.603	27134
779.708	41510
779.815	94872
779.920	318500
780.026	403968
780.132	79641
780.238	28039
780.344	20922
780.450	18257
780.556	15934
780.661	14206
780.767	13243
780.873	13156
780.979	13227
781.085	12336
781.190	12475
781.296	12394
781.402	11384
781.507	12091
781.613	12125
781.719	10741
781.824	11849
781.930	12749
782.035	11113
782.141	10799
782.246	10284
782.352	11348
782.457	10443
782.563	9989
782.668	11086
782.773	11264
782.879	10327
782.984	10862
783.090	10542
783.195	10916
783.300	10721
783.405	9773
783.511	9197
783.616	10129
783.721	9440
783.826	9408
783.932	10481
784.037	9125
784.142	9876
784.247	9534
784.352	9680
784.457	8912
784.562	8835
784.667	9123
784.772	9514
784.877	9501
784.982	9696
785.087	8681
785.192	9558
785.297	8846
785.402	9052
785.507	8015
785.611	8879
785.716	8547
785.821	8533
785.926	8632
786.031	8867
786.135	8473
786.240	8774
786.345	7605
786.450	8398
786.554	8431
786.659	7727
786.763	7734
786.868	8577
786.973	8623
787.077	8112
787.182	8416
787.286	7729
787.391	8427
787.495	7775
787.600	7838
787.704	7305
787.809	7773
787.913	8335
788.017	7617
788.122	7984
788.226	7815
788.330	6830
788.435	7278
788.539	7044
788.643	7668
788.747	6943
788.852	6857
788.956	6578
789.060	7992
789.164	7970
789.268	6358
789.372	7852
789.476	7819
789.580	6092
789.684	7009
789.788	8089
789.892	6899
789.996	7448
790.100	7562
790.204	7063
790.308	7376
790.412	6695
790.516	6966
790.620	7107
790.724	7042
790.828	7211
790.931	6570
791.035	8503
791.139	6803
791.242	6564
791.346	7147
791.450	6499
791.554	5762
791.657	5022
791.761	7717
791.864	7044
791.968	6439
792.072	6394
792.175	6543
792.279	5871
792.382	6707
792.486	6332
792.589	6564
792.693	6315
792.796	5679
792.899	7191
793.003	6469
793.106	5031
793.209	5725
793.313	7425
793.416	5268
793.519	7016
793.623	6662
793.726	6864
793.829	6928
793.932	6669
794.035	5420
794.138	8688
794.242	9313
794.345	11769
794.448	22027
794.551	54260
794.654	185371
794.757	254469
794.860	44691
794.963	12568
795.066	8673
795.169	9345
795.272	7242
795.375	6700
795.477	6478
795.580	6676
795.683	4789
795.786	5803
795.889	4921
795.991	6146
796.094	6674
796.197	4611
796.300	6408
796.402	5054
796.505	4826
796.608	5771
796.710	5693
796.813	5309
796.915	5252
797.018	5702
797.120	5165
797.223	3677
797.326	6590
797.428	4608
797.530	5316
797.633	5185
797.735	5379
797.838	5558
797.940	6253
798.042	4575
798.145	4895
798.247	5769
798.349	4805
798.452	5704
798.554	4950
798.656	4052
798.758	5125
798.860	5367
798.962	4819
799.065	4579
799.167	4503
799.269	6307
799.371	5200
799.473	5325
799.575	4710
799.677	5193
799.779	6117
799.881	3411
799.983	5169
800.085	5026
800.187	4468
800.289	3896
800.390	4961
800.492	5440
800.594	4810
800.696	4665
800.798	4365
800.899	3631
801.001	4071
801.103	4375
801.205	3917
801.306	3820
801.408	3372
801.509	3894
801.611	4663
801.713	4516
801.814	3917
801.916	4265
802.017	4518
802.119	3619
802.220	3862
802.322	2259
802.423	5667
802.525	3031
802.626	4309
802.727	3744
802.829	4970
802.930	2066
803.031	5033
803.133	4117
803.234	3538
803.335	4034
803.436	3634
803.538	3307
803.639	3383
803.740	4891
803.841	2985
803.942	4672
804.043	4425
804.144	2698
804.245	4282
804.346	3744
804.447	3237
804.548	3795
804.649	5318
804.750	3559
804.851	3266
804.952	4167
805.053	3565
805.154	3723
805.255	4067
805.355	3485
805.456	4220
805.557	3325
805.658	3327
805.758	4387
805.859	3539
805.960	3523
806.061	3366
806.161	3833
806.262	3996
806.362	3911
806.463	3294
806.564	4517
806.664	3875
806.765	3189
806.865	4168
806.966	3418
807.066	3743
807.166	4211
807.267	4566
807.367	3619
807.468	4874
807.568	2640
807.668	3657
807.769	4086
807.869	2160
807.969	4173
808.069	4150
808.170	3484
808.270	3281
808.370	4118
808.470	2733
808.570	3011
808.670	3935
808.770	3403
808.870	3252
808.970	4349
809.070	2837
809.170	2727
809.271	4192
809.370	2733
809.470	4240
809.570	2548
809.670	2745
809.770	3360
809.870	3494
809.970	3174
810.070	3978
810.169	3878
810.269	2276
810.369	4644
810.469	4284
810.568	2814
810.668	2979
810.768	3514
810.867	4135
810.967	3362
811.066	3767
811.166	3070
811.265	5360
811.365	3231
811.464	2995
811.564	3894
811.663	3211
811.763	2274
811.862	3902
811.962	4752
812.061	2798
812.160	2601
812.260	3508
812.359	3846
812.458	3680
812.557	7552
812.657	7766
812.756	5674
812.855	3105
812.954	3686
813.053	3789
813.153	3019
813.252	2367
813.351	3639
813.450	4152
813.549	3584
813.648	4135
813.747	3420
813.846	4384
813.945	3475
814.044	4308
814.143	3423
814.242	4314
814.341	2437
814.439	4260
814.538	3846
814.637	3947
814.736	3210
814.835	4368
814.933	3460
815.032	5083
815.131	3896
815.229	3213
815.328	4380
815.427	4297
815.525	5644
815.624	4155
815.722	4347
815.821	5078
815.919	5402
816.018	5112
816.116	5856
816.215	5270
816.313	6159
816.412	6145
816.510	6065
816.609	7347
816.707	6544
816.805	7314
816.904	6844
817.002	8378
817.100	9279
817.198	9567
817.296	9562
817.395	11767
817.493	14069
817.591	16033
817.689	22239
817.787	29033
817.885	44930
817.983	73294
818.081	140789
818.179	290651
818.277	537354
818.375	448860
818.473	219777
818.571	108187
818.669	69965
818.767	57094
818.865	54921
818.963	65015
819.061	86001
819.158	137102
819.256	247939
819.354	464789
819.452	672324
819.549	497780
819.647	277088
819.745	147719
819.842	90928
819.940	61722
820.038	44469
820.135	34343
820.233	28870
820.330	22713
820.428	18202
820.525	17245
820.623	15506
820.720	12369
820.818	12069
820.915	11557
821.012	11172
821.110	7814
821.207	9073
821.304	7653
821.402	7026
821.499	8396
821.596	7566
821.693	6421
821.791	6895
821.888	5535
821.985	6604
822.082	5934
822.179	6966
822.276	4999
822.373	4834
822.470	5138
822.567	4719
822.664	3841
822.761	5571
822.858	3725
822.955	4460
823.052	4141
823.149	3485
823.246	3897
823.343	3142
823.440	4011
823.536	3176
823.633	3379
823.730	3055
823.827	3761
823.923	4037
824.020	5225
824.117	3149
824.213	2853
824.310	3715
824.407	2569
824.503	4170
824.600	3818
824.696	3212
824.793	3939
824.889	3249
824.986	2754
825.082	2389
825.179	3478
825.275	3126
825.371	2781
825.468	2821
825.564	3002
825.660	3533
825.757	2701
825.853	3822
825.949	2095
826.045	3220
826.142	2284
826.238	2314
826.334	2556
826.430	2294
826.526	3236
826.622	2505
826.718	2745
826.814	1687
826.910	3605
827.006	1779
827.102	2512
827.198	3048
827.294	1797
827.390	2058
827.486	2204
827.582	1059
827.678	1996
827.774	2590
827.869	1116
827.965	3004
828.061	2132
828.157	2771
828.252	3014
828.348	1221
828.444	2634
828.539	1626
828.635	2512
828.731	2719
828.826	2053
828.922	2719
829.017	1852
829.113	2730
829.208	1837
829.304	1639
829.399	3020
829.495	1586
829.590	2896
829.685	1484
829.781	2016
829.876	1896
829.971	1781
830.066	1002
830.162	1890
830.257	1963
830.352	1920
830.447	2537
830.543	2243
830.638	382
830.733	2759
830.828	1081
830.923	2209
831.018	2051
831.113	1843
831.208	1063
831.303	1214
831.398	951
831.493	526
831.588	2005
831.683	841
831.778	2530
831.873	1844
831.967	2324
832.062	1173
832.157	942
832.252	2578
832.346	1658
832.441	2902
832.536	2807
832.631	3808
832.725	2214
832.820	672
832.914	1748
833.009	1761
833.104	1798
833.198	2980
833.293	1454
833.387	1935
833.482	2176
833.576	1187
833.670	1683
833.765	1470
833.859	1536
833.954	1637
834.048	1877
834.142	2351
834.237	1406
834.331	1832
834.425	931
834.519	1178
834.613	1929
834.708	1958
834.802	2130
834.896	1183
834.990	924
835.084	2379
835.178	584
835.272	1696
835.366	889
835.460	1559
835.554	2066
835.648	2295
835.742	986
835.836	1908
835.930	601
836.024	1650
836.117	3079
836.211	1075
836.305	2343
836.399	2233
836.493	316
836.586	2132
836.680	1333
836.774	1175
836.867	1674
836.961	1406
837.055	1034
837.148	1639
837.242	1199
837.335	750
837.429	1342
837.522	1739
837.616	1812
837.709	2438
837.803	2181
837.896	1894
837.989	1430
838.083	2700
838.176	2831
838.269	2288
838.363	2155
838.456	2010
838.549	2025
838.642	1239
838.735	3644
838.829	2249
838.922	530
839.015	695
839.108	939
839.201	1739
839.294	1761
839.387	2176
839.480	859
839.573	1334
839.666	1944
839.759	1984
839.852	1290
839.945	300
840.038	1532
840.131	1723
840.223	1097
840.316	1844
840.409	1475
840.502	1273
840.594	2047
840.687	750
840.780	1392
840.873	1380
840.965	1209
841.058	2507
841.150	2316
841.243	1307
841.336	1886
841.428	1097
841.521	716
841.613	1145
841.706	1048
841.798	1397
841.890	1184
841.983	668
842.075	2220
842.167	1435
842.260	735
842.352	2668
842.444	2212
842.537	2714
842.629	3885
842.721	2147
842.813	2017
842.905	-29
842.997	1825
843.090	969
843.182	2034
843.274	2744
843.366	5089
843.458	7493
843.550	5573
843.642	1653
843.734	1871
843.826	2043
843.918	2051
844.009	2094
844.101	1495
844.193	1331
844.285	1055
844.377	1848
844.469	1987
844.560	1717
844.652	2065
844.744	1507
844.835	1439
844.927	894
845.019	1516
845.110	1468
845.202	1005
845.293	861
845.385	1060
845.476	2365
845.568	1645
845.659	914
845.751	2220
845.842	482
845.934	996
846.025	791
846.116	1350
846.208	1460
846.299	1357
846.390	2241
846.482	1542
846.573	1962
846.664	1603
846.755	2174
846.846	2704
846.937	-13
847.029	1843
847.120	2291
847.211	823
847.302	1525
847.393	186
847.484	1344
847.575	1046
847.666	566
847.757	1587
847.847	1617
847.938	1236
848.029	829
848.120	2072
848.211	1800
848.302	836
848.392	885
848.483	1376
848.574	889
848.664	1116
848.755	1592
848.846	1242
848.936	1476
849.027	609
849.118	1411
849.208	932
849.299	1534
849.389	1475
849.480	1847
849.570	1601
849.661	2628
849.751	2259
849.841	1487
849.932	1228
850.022	416
850.112	2253
850.203	396
850.293	1007
850.383	1077
850.474	554
850.564	893
850.654	1447
850.744	880
850.834	359
850.924	646
851.014	853
851.104	1185
851.194	828
851.284	359
851.374	610
851.464	1449
851.554	2325
851.644	2123
851.734	3146
851.824	4358
851.914	6096
852.004	13127
852.094	9842
852.183	2298
852.273	2179
852.363	1062
852.452	424
852.542	924
852.632	854
852.721	1082
852.811	350
852.901	1771
852.990	975
853.080	852
853.169	958
853.259	252
853.348	785
853.438	495
853.527	1526
853.617	941
853.706	749
853.795	1195
853.885	4125
853.974	4427
854.063	8962
854.152	12954
854.242	6176
854.331	1376
854.420	1218
854.509	259
854.598	82
854.687	934
854.777	1040
854.866	937
854.955	917
855.044	400
855.133	899
855.222	1157
855.311	941
855.400	1257
855.488	636
855.577	310
855.666	940
855.755	1275
855.844	1904
855.933	1098
856.021	1397
856.110	1377
856.199	453
856.288	674
856.376	746
856.465	-19
856.554	1444
856.642	626
856.731	1139
856.819	797
856.908	1269
856.996	856
857.085	720
857.173	822
857.262	1261
857.350	952
857.438	945
857.527	865
857.615	491
857.703	1031
857.792	596
857.880	612
857.968	266
858.056	573
858.145	1019
858.233	219
858.321	1177
858.409	1780
858.497	288
858.585	-212
858.673	968
858.761	339
858.849	1005
858.937	271
859.025	871
859.113	1373
859.201	97
859.289	1282
859.377	569
859.465	884
859.552	845
859.640	1450
859.728	867
859.816	317
859.903	687
859.991	665
860.079	1193
860.166	661
860.254	122
860.342	1269
860.429	377
860.517	585
860.604	802
860.692	1463
860.779	-53
860.867	1031
860.954	966
861.042	654
861.129	1360
861.216	949
861.304	674
861.391	829
861.478	871
861.565	1001
861.653	1319
861.740	658
861.827	895
861.914	348
862.001	1354
862.089	778
862.176	1169
862.263	82
862.350	632
862.437	471
862.524	617
862.611	-54
862.698	404
862.785	1345
862.871	197
862.958	-581
863.045	547
863.132	1025
863.219	726
863.306	43
863.392	1208
863.479	655
863.566	808
863.652	821
863.739	442
863.826	747
863.912	-250
863.999	-211
864.086	395
864.172	-270
864.259	998
864.345	28
864.432	451
864.518	818
864.604	461
864.691	274
864.777	65
864.863	973
864.950	756
865.036	840
865.122	1045
865.209	1044
865.295	1131
865.381	1293
865.467	1167
865.553	1325
865.639	571
865.726	1225
865.812	2099
865.898	3337
865.984	3414
866.070	6430
866.156	6269
866.242	2315
866.328	587
866.414	1066
866.499	669
866.585	691
866.671	519
866.757	734
866.843	1136
866.928	25
867.014	830
867.100	1446
867.186	603
867.271	1264
867.357	1025
867.442	1666
867.528	1386
867.614	1390
867.699	154
867.785	1172
867.870	969
867.956	1781
868.041	1104
868.127	1047
868.212	477
868.297	463
868.383	482
868.468	486
868.553	1041
868.639	1775
868.724	2115
868.809	1658
868.894	1206
868.979	1260
869.065	738
869.150	-94
869.235	721
869.320	311
869.405	392
869.490	849
869.575	326
869.660	334
869.745	631
869.830	-131
869.915	566
870.000	240
870.085	474
870.169	293
870.254	373
870.339	1103
870.424	-426
870.509	673
870.593	585
870.678	821
870.763	1151
870.847	115
870.932	28
871.016	1000
871.101	1309
871.186	443
871.270	-452
871.355	854
871.439	325
871.523	152
871.608	576
871.692	915
871.777	486
871.861	857
871.945	527
872.030	319
872.114	659
872.198	375
872.282	-49
872.367	-96
872.451	110
872.535	1203
872.619	-406
872.703	-166
872.787	425
872.871	365
872.955	346
873.039	-409
873.123	-440
873.207	1115
873.291	154
873.375	88
873.459	238
873.543	-812
873.627	140
873.711	-409
873.794	270
873.878	-157
873.962	-2
874.045	1340
874.129	402
874.137	341
874.213	-276
874.245	199
874.296	972
874.352	437
874.380	174
874.460	384
874.464	392
874.547	224
874.568	246
874.631	313
874.676	46
874.714	-162
874.784	855
874.798	1050
874.881	1526
874.892	1249
874.965	-674
874.999	-171
875.048	519
875.107	259
875.131	176
875.215	-222
875.215	-221
875.298	312
875.323	164
875.381	-115
875.430	515
875.465	941
875.538	-244
875.548	-413
875.631	691
875.646	572
875.714	38
875.753	-9
875.798	-20
875.861	34
875.881	18
875.964	-331
875.968	-302
876.047	355
876.076	578
876.130	940
876.183	768
876.213	621
876.291	267
876.296	255
876.379	183
876.398	261
876.462	415
876.506	127
876.545	-15
876.613	767
876.628	900
876.711	21
876.721	136
876.794	1102
876.828	609
876.877	-174
876.935	-51
876.960	45
877.043	631
877.043	631
877.125	465
877.150	301
877.208	73
877.258	198
877.291	253
877.365	561
877.374	595
877.456	159
877.472	193
877.539	306
877.579	178
877.622	90
877.687	700
877.704	859
877.787	532
877.794	528
877.869	554
877.901	649
877.952	884
878.008	874
878.034	721
878.115	-92
878.117	-104
878.199	159
878.222	149
878.282	257
878.329	606
878.364	842
878.437	490
878.447	421
878.529	208
878.544	246
878.611	590
878.651	346
878.694	-4
878.758	132
878.776	244
878.858	516
878.865	575
878.941	837
878.972	377
879.023	-202
879.078	142
879.105	362
879.185	340
879.187	337
879.269	504
879.292	519
879.351	497
879.399	266
879.433	183
879.506	1061
879.516	1160
879.598	15
879.613	7
879.680	74
879.720	90
879.762	145
879.827	547
879.844	635
879.926	889
879.933	847
880.007	225
880.040	210
880.089	301
880.147	427
880.171	597
880.253	722
880.254	726
880.335	1147
880.360	894
880.417	666
880.467	1004
880.499	1363
880.574	2391
880.580	2399
880.662	1251
880.680	1004
880.744	214
880.787	161
880.825	392
880.893	460
880.907	406
880.989	341
881.000	269
881.070	209
881.106	373
881.152	301
881.213	340
881.233	425
881.315	186
881.319	195
881.396	547
881.426	536
881.478	417
881.532	368
881.559	307
881.639	275
881.641	278
881.722	318
881.745	317
881.803	390
881.852	278
881.885	111
881.958	89
881.966	108
882.047	662
882.064	609
882.129	636
882.171	1034
882.210	1240
882.277	1195
882.291	1125
882.372	211
882.383	228
882.454	929
882.489	855
882.535	461
882.596	558
882.616	713
882.697	874
882.702	893
882.778	913
882.808	868
882.859	829
882.914	711
882.940	579
883.020	120
883.021	122
883.102	400
883.127	632
883.183	759
883.233	392
883.264	310
883.339	761
883.345	769
883.426	323
883.445	193
883.507	158
883.551	481
883.587	614
883.657	589
883.668	673
883.749	1090
883.763	1213
883.830	1036
883.869	735
883.910	561
883.975	485
883.991	435
884.072	123
884.081	80
884.152	429
884.187	690
884.233	757
884.292	675
884.314	739
884.394	1131
884.398	1132
884.475	614
884.504	484
884.555	530
884.610	799
884.636	895
884.716	761
884.716	761
884.797	339
884.821	403
884.877	796
884.927	605
884.958	491
885.033	695
885.038	677
885.118	142
885.139	24
885.199	282
885.244	582
885.279	615
885.350	600
885.359	625
885.439	738
885.456	716
885.520	484
885.561	480
885.600	526
885.667	568
885.680	592
885.760	748
885.773	757
885.840	717
885.878	806
885.920	962
885.984	790
886.000	694
886.080	658
886.089	621
886.160	526
886.195	598
886.240	732
886.300	814
886.320	750
886.400	476
886.406	445
886.480	779
886.511	1059
886.560	1184
886.616	1146
886.640	1149
886.720	1179
886.722	1175
886.800	888
886.827	838
886.879	705
886.932	471
886.959	584
887.038	943
887.039	949
887.119	1250
887.143	1303
887.198	1091
887.248	879
887.278	908
887.354	845
887.358	854
887.437	1245
887.459	1292
887.517	988
887.564	825
887.596	778
887.669	578
887.676	565
887.755	402
887.774	392
887.835	697
887.880	894
887.914	920
887.985	796
887.994	736
888.073	451
888.090	349
888.153	683
888.195	958
888.232	716
888.300	251
888.311	307
888.391	753
888.405	807
888.470	708
888.510	697
888.549	757
888.615	894
888.628	873
888.708	700
888.720	662
888.787	962
888.825	1146
888.866	902
888.930	531
888.945	558
889.024	687
889.035	709
889.103	1166
889.140	1393
889.182	1382
889.245	1356
889.261	1346
889.340	1289
889.349	1283
889.419	1520
889.454	1636
889.498	1567
889.559	1470
889.577	1406
889.656	1116
889.664	1089
889.735	1005
889.768	959
889.814	1052
889.873	1179
889.978	892
890.083	1268
890.187	824
890.292	1552
890.397	1421
890.501	1147
890.606	655
890.710	1910
890.815	946
890.919	1559
891.024	1063
891.128	1377
891.233	1144
891.337	1410
891.442	598
891.546	1285
891.650	1413
891.755	1152
891.859	2445
891.963	712
892.068	428
892.172	999
892.276	98
892.380	1054
892.484	834
892.589	1182
892.693	896
892.797	1065
892.901	1430
893.005	1137
893.109	332
893.213	1128
893.317	930
893.421	705
893.525	528
893.629	1163
893.733	1272
893.837	1273
893.941	242
894.045	1838
894.148	1801
894.252	4227
894.356	2117
894.460	1388
894.564	311
894.667	244
894.771	1164
894.875	1282
894.978	2059
895.082	155
895.186	795
895.289	1521
895.393	670
895.496	1764
895.600	992
895.703	407
895.807	-507
895.910	1275
896.014	158
896.117	631
896.221	584
896.324	582
896.427	109
896.531	1131
896.634	222
896.737	1209
896.840	357
896.944	85
897.047	769
897.150	329
897.253	-20
897.356	655
897.460	840
897.563	612
897.666	384
897.769	881
897.872	470
897.975	381
898.078	-338
898.181	1027
898.284	972
898.387	618
898.490	1140
898.593	1172
898.695	493
898.798	1047
898.901	457
899.004	588
899.107	937
899.209	401
899.312	395
899.415	886
899.518	-266
899.620	1714
899.723	124
899.826	1112
899.928	820
900.031	665
900.133	93
900.236	983
900.338	572
900.441	983
900.543	766
900.646	596
900.748	126
900.851	738
900.953	1010
901.055	1177
901.158	200
901.260	1373
901.362	71
901.465	-378
901.567	460
901.669	717
901.771	678
901.873	753
901.976	1737
902.078	604
902.180	893
902.282	-121
902.384	1532
902.486	331
902.588	-110
902.690	438
902.792	118
902.894	1332
902.996	868
903.098	508
903.200	699
903.302	177
903.404	-315
903.505	99
903.607	187
903.709	510
903.811	376
903.913	430
904.014	585
904.116	779
904.218	481
904.319	742
904.421	485
904.523	596
904.624	-47
904.726	352
904.827	380
904.929	-134
905.030	584
905.132	1094
905.233	1211
905.335	1222
905.436	774
905.537	397
905.639	598
905.740	170
905.841	739
905.943	709
906.044	96
906.145	239
906.247	470
906.348	1041
906.449	450
906.550	337
906.651	227
906.752	553
906.854	264
906.955	921
907.056	917
907.157	519
907.258	1013
907.359	672
907.460	894
907.561	636
907.662	-429
907.762	1204
907.863	-311
907.964	134
908.065	311
908.166	353
908.267	357
908.367	364
908.468	-54
908.569	639
908.670	1134
908.770	965
908.871	1045
908.971	945
909.072	140
909.173	288
909.273	511
909.374	445
909.474	353
909.575	1257
909.675	880
909.776	279
909.876	560
909.977	1054
910.077	624
910.177	705
910.278	990
910.378	-58
910.478	30
910.579	269
910.679	456
910.779	728
910.879	739
910.980	1211
911.080	-253
911.180	-317
911.280	632
911.380	119
911.480	695
911.580	145
911.680	280
911.780	396
911.880	86
911.980	70
912.080	34
912.180	1276
912.280	76
912.380	445
912.480	167
912.580	696
912.679	542
912.779	963
912.879	553
912.979	286
913.078	-115
913.178	981
913.278	204
913.377	716
913.477	474
913.577	376
913.676	741
913.776	987
913.875	750
913.975	1141
914.074	-28
914.174	-16
914.273	-301
914.373	1424
914.472	685
914.572	-75
914.671	224
914.770	474
914.870	512
914.969	892
915.068	358
915.167	332
915.267	551
915.366	942
915.465	853
915.564	35
915.663	294
915.763	436
915.862	584
915.961	333
916.060	191
916.159	442
916.258	426
916.357	870
916.456	523
916.555	-138
916.654	546
916.752	434
916.851	149
916.950	1291
917.049	-38
917.148	430
917.247	797
917.345	1034
917.444	548
917.543	156
917.642	526
917.740	114
917.839	501
917.937	329
918.036	550
918.135	363
918.233	30
918.332	310
918.430	-252
918.529	553
918.627	400
918.726	248
918.824	807
918.923	137
919.021	670
919.119	69
919.218	913
919.316	503
919.414	33
919.512	-138
919.611	745
919.709	543
919.807	1127
919.905	552
920.003	530
920.102	173
920.200	-413
920.298	648
920.396	246
920.494	274
920.592	-10
920.690	971
920.788	-181
920.886	172
920.984	131
921.082	555
921.180	1149
921.277	890
921.375	471
921.473	99
921.571	-335
921.669	437
921.766	-129
921.864	1430
921.962	466
922.060	707
922.157	250
922.255	684
922.352	588
922.450	1212
922.548	488
922.645	333
922.743	347
922.840	891
922.938	294
923.035	954
923.133	-311
923.230	132
923.327	1150
923.425	553
923.522	801
923.619	618
923.717	-86
923.814	618
923.911	283
924.008	1599
924.106	-54
924.203	778
924.300	529
924.397	612
924.494	1564
924.591	868
924.688	907
924.786	191
924.883	354
924.979	745
925.077	186
925.173	1529
925.270	-41
925.367	42
925.464	841
925.561	1200
925.658	528
925.755	144
925.852	84
925.948	273
926.045	918
926.142	737
926.239	721
926.335	521
926.432	203
926.529	678
926.625	637
926.722	993
926.818	70
926.915	1421
927.011	971
927.108	510
927.204	186
927.301	923
927.397	1141
927.494	502
927.590	117
927.687	743
927.783	889
927.879	333
927.976	507
928.072	855
928.168	209
928.264	1847
928.361	329
928.457	339
928.553	1
928.649	1021
928.745	-211
928.841	992
928.937	25
929.033	1216
929.129	297
929.225	450
929.321	706
929.417	802
929.513	-256
929.609	204
929.705	325
929.801	196
929.897	366
929.993	142
930.089	655
930.184	836
930.280	493
930.376	220
930.471	161
930.567	552
930.663	187
930.758	332
930.854	149
930.950	675
931.045	909
931.141	1243
931.236	-36
931.332	103
931.427	-7
931.523	165
931.618	411
931.714	376
931.809	350
931.905	870
932.000	191
932.095	1339
932.191	162
932.286	852
932.381	722
932.476	-51
932.572	-94
932.667	441
932.762	478
932.857	1195
932.952	470
933.047	482
933.142	602
933.237	888
933.332	-232
933.427	634
933.522	213
933.617	577
933.712	651
933.807	375
933.902	-380
933.997	1427
934.092	518
934.187	195
934.282	731
934.376	-41
934.471	-382
934.566	-147
934.661	1271
934.755	707
934.850	402
934.945	679
935.039	-578
935.134	202
935.228	-32
935.323	830
935.417	653
935.512	202
935.606	140
935.701	745
935.795	542
935.890	390
935.984	486
936.079	206
936.173	544
936.267	517
936.362	617
936.456	831
936.550	490
936.644	358
936.738	155
936.833	723
936.927	376
937.021	1218
937.115	-246
937.209	40
937.303	652
937.397	530
937.491	634
937.585	68
937.679	-233
937.773	956
937.867	-229
937.961	344
938.055	-38
938.149	836
938.243	-95
938.337	801
938.430	46
938.524	247
938.618	76
938.712	753
938.805	-631
938.899	-247
938.993	-431
939.086	589
939.180	786
939.274	-284
939.367	-41
939.461	936
939.554	795
939.648	548
939.741	172
939.835	364
939.928	-34
940.022	333
940.115	-553
940.208	367
940.302	88
940.395	1273
940.488	-565
940.582	270
940.675	272
940.768	759
940.861	829
940.954	671
941.048	275
941.141	184
941.234	622
941.327	873
941.420	1181
941.513	348
941.606	-266
941.699	679
941.792	347
941.885	589
941.978	-123
942.071	573
942.164	-340
942.257	-43
942.349	158
942.442	542
942.535	-387
942.628	-8
942.721	1044
942.813	-430
942.906	1290
942.999	331
943.091	-389
943.184	289
943.277	-548
943.369	772
943.462	-176
943.554	122
943.647	-366
943.739	292
943.832	-196
943.924	-809
944.017	-441
944.109	-414
944.201	978
944.294	-14
944.386	-182
944.478	-146
944.571	-615
944.663	90
944.755	581
944.847	915
944.940	169
945.032	-55
945.124	-858
945.216	619
945.308	312
945.400	-409
945.492	392
945.584	518
945.676	481
945.768	-260
945.860	-13
945.952	-319
946.044	162
946.136	590
946.228	248
946.320	-113
946.412	179
946.503	-768
946.595	540
946.687	-176
946.779	-250
946.870	656
946.962	-398
947.054	66
947.145	-92
947.237	188
947.329	576
947.420	143
947.512	-1230
947.603	446
947.695	-615
947.786	-994
947.878	132
947.969	668
948.061	-631
948.152	-41
948.243	42
948.335	-5
948.426	-288
948.517	-748
948.609	-478
948.700	-633
948.791	117
948.882	-12
948.973	-669
949.065	-614
949.156	-105
949.247	-470
949.338	-655
949.429	-299
949.520	65
949.611	-1546
949.702	-43
949.793	-434
949.884	587
949.975	229
950.066	-654
950.157	1223
950.247	7
950.338	-294
950.429	-60
950.520	-112
950.611	-78
950.701	745
950.792	-348
950.883	36
950.973	-257
951.064	-131
951.155	-20
951.245	135
951.336	466
951.427	-400
951.517	450
951.608	-233
951.698	-85
951.788	801
951.879	-240
951.969	188
952.060	219
952.150	-196
952.240	239
952.331	-1448
952.421	1030
952.511	-457
952.602	113
952.692	-347
952.782	779
952.872	-176
952.962	-317
953.052	191
953.143	-1093
953.233	8
953.323	580
953.413	250
953.503	784
953.593	-151
953.683	236
953.773	-595
953.863	-718
953.953	-609
954.042	-189
954.132	-412
954.222	32
954.312	-73
954.402	-961
954.492	240
954.581	114
954.671	-15
954.761	-1439
954.850	741
954.940	-805
955.030	320
955.119	-20
955.209	963
955.298	-796
955.388	257
955.477	-25
955.567	-719
955.656	99
955.746	57
955.835	-772
955.925	-175
956.014	-329
956.103	-8
956.193	-504
956.282	112
956.371	152
956.461	-346
956.550	-1280
956.639	-14
956.728	-940
956.817	-499
956.906	-173
956.995	643
957.085	-288
957.174	594
957.263	-277
957.352	-735
957.441	35
957.530	47
957.619	509
957.708	466
957.796	-244
957.885	460
957.974	-291
958.063	38
958.152	-266
958.241	469
958.329	-219
958.418	128
958.507	-231
958.596	832
958.684	-167
958.773	809
958.861	294
958.950	313
959.039	680
959.127	1199
959.216	615
959.304	339
959.393	-114
959.481	140
959.570	693
959.658	553
959.746	96
959.835	1205
959.923	682
960.011	-406
960.100	13
960.188	426
960.276	-504
960.365	254
960.453	-233
960.541	-633
960.629	550
960.717	-230
960.805	-455
960.893	640
960.981	-838
961.069	661
961.158	-971
961.245	1023
961.333	-72
961.421	-629
961.509	-41
961.597	-655
961.685	-475
961.773	24
961.861	-766
961.949	384
962.036	-395
962.124	790
962.212	325
962.299	71
962.387	-208
962.475	-59
962.562	-1211
962.650	655
962.738	-269
962.825	418
962.913	-5
963.000	-294
963.088	-430
963.175	463
963.263	-74
963.350	750
963.438	-675
963.525	383
963.612	575
963.700	2219
963.787	5274
963.874	1669
963.962	-298
964.049	366
964.136	96
964.223	-420
964.310	-723
964.398	8
964.485	-495
964.572	-385
964.659	193
964.746	823
964.833	-193
964.920	-1
965.007	591
965.094	320
965.181	-103
965.268	342
965.355	347
965.441	-43
965.528	-1104
965.615	-312
965.702	-992
965.789	-596
965.875	-306
965.962	624
966.049	-378
966.136	-432
966.222	-1182
966.309	-360
966.395	-298
966.482	632
966.569	-870
966.655	-104
966.742	-1115
966.828	198
966.915	-433
967.001	389
967.087	-1181
967.174	171
967.260	-100
967.347	1038
967.433	883
967.519	3055
967.605	626
967.692	-234
967.778	-5
967.864	232
967.950	-419
968.036	-440
968.123	-203
968.209	342
968.295	-1309
968.381	812
968.467	-207
968.553	-994
968.639	350
968.725	-726
968.811	316
968.897	480
968.983	-214
969.069	-654
969.154	46
969.240	833
969.326	-751
969.412	-229
969.497	-135
969.583	-21
969.669	277
969.755	198
969.840	42
969.926	363
970.012	-400
970.097	-365
970.183	-48
970.268	41
970.354	294
970.439	-203
970.525	2929
970.610	243
970.696	283
970.781	156
970.866	-307
970.952	606
971.037	-1215
971.122	325
971.208	-694
971.293	695
971.378	-1461
971.463	28
971.549	789
971.634	-281
971.719	-178
971.804	-656
971.889	559
971.974	-475
972.059	-818
972.144	721
972.229	-410
972.314	-699
972.399	213
972.484	-679
972.569	-111
972.654	-667
972.739	1457
972.824	905
972.908	38
972.993	158
973.078	-969
973.163	-686
973.247	21
973.332	-1138
973.417	971
973.501	-1094
973.586	93
973.671	-85
973.755	213
973.840	641
973.924	15
974.009	-574
974.093	-642
974.178	737
974.262	41
974.346	-17
974.431	-83
974.515	-746
974.600	83
974.684	600
974.768	-662
974.852	335
974.937	-617
975.021	246
975.105	-306
975.189	111
975.273	110
975.358	-581
975.442	-1400
975.526	220
975.610	-708
975.694	-438
975.778	907
975.862	-541
975.946	-2128
976.030	330
976.114	-186
976.198	21
976.281	-493
976.365	-157
976.449	-749
976.533	135
976.617	-587
976.700	-496
976.784	108
976.868	-812
976.951	526
977.035	52
977.119	-897
977.202	-185
977.286	-620
977.369	-312
977.453	-232
977.536	-216
977.620	-984
977.703	-121
977.787	-1307
977.870	-81
977.953	60
978.037	-831
978.120	336
978.203	-615
978.287	317
978.370	96
978.453	-1221
978.536	-575
978.620	456
978.703	173
978.786	-55
978.869	-990
978.952	-906
979.035	729
979.118	445
979.201	-731
979.284	-1008
979.367	-878
979.450	-465
979.533	-1495
979.616	-902
979.699	-467
979.782	-70
979.865	-138
979.948	-1020
980.030	-855
980.113	-1917
980.196	-1406
980.279	-283
980.361	-426
980.444	-995
980.526	-1064
980.609	-721
980.692	-836
980.774	150
980.857	-1846
980.939	242
981.022	-445
981.104	-484
981.187	-641
981.269	159
981.352	-543
981.434	-911
981.516	-1324
981.599	278
981.681	672
981.763	-992
981.846	-333
981.928	-914
982.010	-914
982.092	-1115
982.174	-737
982.256	-1316
982.339	-223
982.421	-698
982.503	-53
982.585	-1767
982.667	-811
982.749	-641
982.831	-633
982.913	-909
982.995	-809
983.077	-1149
983.158	-911
983.240	-1823
983.322	-627
983.404	344
983.486	-1109
983.568	-927
983.649	-615
983.731	-257
983.813	-1106
983.894	-547
983.976	-1033
984.058	-1807
984.139	-128
984.221	-2350
984.302	-275
984.384	-1511
984.465	-1611
984.547	-915
984.628	-642
984.710	-425
984.791	-830
984.872	-969
984.954	-1434
985.035	-1127
985.116	-1380
985.198	-1796
985.279	534
985.360	-949
985.441	-1323
985.522	-883
985.604	-1957
985.685	-2617
985.766	-108
985.847	-526
985.928	-1455
986.009	-1946
986.090	-1278
986.171	-776
986.252	-2487
986.333	-747
986.414	-1299
986.495	-1011
986.576	-793
986.656	-1010
986.737	-1031
986.818	-890
986.899	-1675
986.980	-1457
987.060	-365
987.141	-1388
987.222	-945
987.302	-1464
987.383	-834
987.464	-1715
987.544	-1059
987.625	-1676
987.705	-598
987.786	-1671
987.866	-1478
987.947	-1632
988.027	-927
988.108	-1802
988.188	-741
988.268	-1413
988.349	-1016
988.429	-1888
988.509	-1346
988.589	-1530
988.670	-2007
988.750	-95
988.830	-877
988.910	-724
988.990	-1288
989.070	-1378
989.151	-1526
989.231	-1611
989.311	-199
989.391	-365
989.471	-463
989.551	-2215
989.631	-2160
989.711	-391
989.791	-1642
989.870	-2141
989.950	-685
990.030	-2301
990.110	-934
990.190	-1634
990.269	-1183
990.349	-1537
990.429	-1319
990.509	-1412
990.588	-1711
990.668	-1286
990.747	-2075
990.827	-1996
990.907	-550
990.986	-1866
991.066	-697
991.145	-1770
991.225	-324
991.304	-2037
991.383	-823
991.463	-2101
991.542	-1641
991.622	-2020
991.701	-1652
991.780	-1546
991.859	-957
991.939	-1524
992.018	-990
992.097	-1178
992.176	-1091
992.256	-1612
992.335	-1556
992.414	-1444
992.493	-1893
992.572	-1732
992.651	-426
992.730	-864
992.809	-1229
992.888	-2171
992.967	-1932
993.046	-579
993.125	-1899
993.203	-1400
993.282	-620
993.361	-1712
993.440	-171
993.519	-1756
993.597	-955
993.676	-2071
993.755	-836
993.834	-1088
993.912	-1851
993.991	-931
994.069	-1566
994.148	-2296
994.226	-975
994.305	-1477
994.384	-1262
994.462	-578
994.540	-1999
994.619	-2552
994.697	-1418
994.776	-2115
994.854	-588
994.932	-2033
995.011	-1393
995.089	-1760
995.167	-2235
995.245	-1697
995.324	-1889
995.402	-1225
995.480	-1412
995.558	-1658
995.636	-2188
995.714	-1462
995.792	-1048
995.870	-1834
995.948	-1384
996.026	-770
996.104	-2386
996.182	-1154
996.260	-1142
996.338	-1651
996.416	-1304
996.494	-2225
996.572	-1254
996.649	-1604
996.727	-1894
996.805	-1587
996.883	-1636
996.960	-1377
997.038	-955
997.116	-1073
997.193	-1993
997.271	-1508
997.348	-1347
997.426	-1571
997.504	-2078
997.581	-1223
997.658	-1058
997.736	-2219
997.813	-1788
997.891	-1677
997.968	-2698
998.046	-1920
998.123	-1492
998.200	-1326
998.277	-1621
998.355	-293
998.432	-2359
998.509	-1492
998.586	-1264
998.663	-1244
998.741	-960
998.818	-1770
998.895	-1660
998.972	-1416
999.049	-1462
999.126	-1543
999.203	-1336
999.280	-1019
999.357	-2133
999.434	-1242
999.511	-1615
999.587	-728
999.664	-1917
999.741	-1253
999.818	-1307
999.895	-2105
999.971	-1329
1000.048	-1348
1000.125	-995
1000.202	-1788
1000.278	-449
1000.355	-1136
1000.431	-1916
1000.508	-997
1000.584	-1424
1000.661	-869
1000.738	-2286
1000.814	-1772
1000.890	-862
1000.967	-2160
1001.043	-1288
1001.120	-1595
1001.196	-1430
1001.272	-1734
1001.349	-1571
1001.425	-953
1001.501	-1429
1001.577	-1101
1001.654	-822
1001.730	-2474
1001.806	-1130
1001.882	-2186
1001.958	-1095
1002.034	-1504
1002.110	-1536
1002.186	-2483
1002.262	-2116
1002.338	-1848
1002.414	-1133
1002.490	-1009
1002.566	-1527
1002.642	-1107
1002.718	-1724
1002.794	-1608
1002.870	-1762
1002.945	-2103
1003.021	-1014
1003.097	-2136
1003.173	-989
1003.248	-2717
1003.324	-1053
1003.400	-1352
1003.475	-1675
1003.551	-1605
1003.626	-1391
1003.702	-2479
1003.777	-1212
1003.853	-1671
1003.928	-1596
1004.004	-1757
1004.079	-860
1004.155	-1094
1004.230	-2343
1004.305	-691
1004.381	-1497
1004.456	-1988
1004.531	-1605
1004.607	-1600
1004.682	-1468
1004.757	-1635
1004.832	-1398
1004.907	-1678
1004.982	-1465
1005.057	-1208
1005.133	-2250
1005.208	-1453
1005.283	-1255
1005.358	-1207
1005.433	-1543
1005.508	-1049
1005.583	-2057
1005.657	-1848
1005.732	-771
1005.807	-1619
1005.882	-1328
1005.957	-1136
1006.032	-1179
1006.106	-1806
1006.181	-1686
1006.256	-1742
1006.331	-2054
1006.405	-1935
1006.480	-444
1006.554	-1647
1006.629	-1216
1006.704	-2207
1006.778	-1148
1006.853	-1093
1006.927	-1951
1007.002	-2322
1007.076	-1450
1007.150	-2309
1007.225	-1794
1007.299	-1440
1007.373	-1780
1007.448	-1673
1007.522	-1316
1007.596	-946
1007.671	-1530
1007.745	-1475
1007.819	-2776
1007.893	-1410
1007.967	-1714
1008.041	-2848
1008.115	-250
1008.190	-1146
1008.264	-1779
1008.338	-3408
1008.412	-1253
1008.486	-1750
1008.560	-1764
1008.633	-1871
1008.707	-1263
1008.781	-1683
1008.855	-1784
1008.929	-1373
1009.003	-1987
1009.076	-1150
1009.150	-1418
1009.224	-1631
1009.298	-1811
1009.371	-2256
1009.445	-1040
1009.519	-1229
1009.592	-1637
1009.666	-1395
1009.739	-908
1009.813	-1847
1009.886	-1543
1009.960	-2617
1010.033	-1635
1010.107	-1240
1010.180	-2370
1010.253	-725
1010.327	-1951
1010.400	-1584
1010.473	-1983
1010.547	-1229
1010.620	-1530
1010.693	-973
1010.766	-1471
1010.840	-1367
1010.913	-1351
1010.986	-1755
1011.059	-1615
1011.132	-2173
1011.205	-799
1011.278	-1600
1011.351	-1843
1011.424	-1163
1011.497	-1426
1011.570	-2844
1011.643	-1250
1011.716	-2192
1011.789	-1349
1011.862	-1375
1011.934	-1473
1012.007	-2613
1012.080	-1732
1012.153	-1649
1012.225	-1054
1012.298	-1777
1012.371	-1650
1012.443	-1180
1012.516	-1928
1012.588	-1789
1012.661	-1154
1012.733	-2241
1012.806	-162
1012.879	-2710
1012.951	-1404
1013.023	-1903
1013.096	-1324
1013.168	-1574
1013.241	-1129
1013.313	-1739
1013.385	-1827
1013.458	-1476
1013.530	-1141
1013.602	-2497
1013.674	-853
1013.746	-1777
1013.819	-1691
1013.891	-1328
1013.963	-1719
1014.035	-1983
1014.107	-1639
1014.179	-1464
1014.251	-2718
1014.323	-1642
1014.395	-1741
1014.467	-2181
1014.539	-1927
1014.611	-1422
1014.683	-1432
1014.754	-1381
1014.826	-1812
1014.898	-1374
1014.970	-2233
1015.042	-1076
1015.113	-1200
1015.185	-2093
1015.257	-1619
1015.328	-1369
1015.400	-1626
1015.471	-1984
1015.543	-2800
1015.615	-1389
1015.686	-929
1015.757	-2240
1015.829	-703
1015.901	-2100
1015.972	-1203
1016.043	-2064
1016.115	-1417
1016.186	-2886
1016.257	-2227
1016.328	-1663
1016.400	-2146
1016.471	-2377
1016.542	-2408
1016.613	-2155
1016.685	-1560
1016.756	-2307
1016.827	-2833
1016.898	-1464
1016.969	-1019
1017.040	-2248
1017.111	-1561
1017.182	-2688
1017.253	-2609
1017.324	-1085
1017.395	-1846
1017.466	-1506
1017.537	-1693
1017.608	-1432
1017.678	-2345
1017.749	-2344
1017.820	-2137
1017.891	-2051
1017.961	-2410
1018.032	-1493
1018.103	-1227
1018.173	-2324
1018.244	-2183
1018.315	-1880
1018.385	-1510
1018.456	-2499
1018.526	-2112
1018.597	-2334
1018.667	-1921
1018.738	-2160
1018.808	-2011
1018.878	-2015
1018.949	-1798
1019.019	-1828
1019.089	-2150
1019.160	-1621
1019.230	-2507
1019.300	-2702
1019.371	-2085
1019.441	-1507
1019.511	-1576
1019.581	-2593
1019.651	-1946
1019.721	-2397
1019.791	-2048
1019.861	-2806
1019.931	-1642
1020.001	-2957
1020.071	-1518
1020.141	-2603
1020.211	-2326
1020.281	-2077
1020.351	-1833
1020.421	-1521
1020.491	-1112
1020.560	-2430
1020.630	-2593
1020.700	-1824
1020.770	-1957
1020.839	-1385
1020.909	-2064
1020.979	-2817
1021.048	-2170
1021.118	-2633
1021.187	-2239
1021.257	-2880
1021.326	-1347
1021.396	-2633
1021.465	-1569
1021.535	-2044
1021.604	-2270
1021.674	-2438
1021.743	-2133
1021.812	-3014
1021.882	-1620
1021.951	-2656
1022.020	-1617
1022.089	-2824
1022.159	-2036
1022.228	-2453
1022.297	-2249
1022.366	-2135
1022.435	-1796
1022.504	-2635
1022.573	-2423
1022.642	-1720
1022.711	-2168
1022.781	-1837
1022.849	-2122
1022.918	-2095
1022.987	-2017
1023.056	-2658
1023.125	-2309
1023.194	-2694
1023.263	-1311
1023.331	-1659
1023.400	-2086
1023.469	-3088
1023.538	-1227
1023.606	-3265
1023.675	-2252
1023.744	-3295
1023.812	-2273
1023.881	-2028
1023.949	-2613
1024.018	-2421
1024.086	-2610
1024.155	-1881
1024.223	-2881
1024.292	-2929
1024.360	-1694
1024.429	-2932
1024.497	-2632
1024.565	-2549
1024.634	-2474
1024.702	-2834
1024.770	-2043
1024.838	-2383
1024.907	-2214
1024.975	-2374
1025.043	-1824
1025.111	-3200
1025.179	-1994
1025.247	-2393
1025.315	-2362
1025.383	-2303
1025.451	-2584
1025.519	-2205
1025.587	-3062
1025.655	-3027
1025.723	-2450
1025.791	-1658
1025.859	-2035
1025.927	-2066
1025.995	-2939
1026.062	-2338
1026.130	-2704
1026.198	-2783
1026.266	-2490
1026.333	-2212
1026.401	-1578
1026.469	-2446
1026.536	-2693
1026.604	-2965
1026.671	-2544
1026.739	-2552
1026.806	-2928
1026.874	-2912
1026.941	-2327
1027.009	-2648
1027.076	-2285
1027.144	-1676
1027.211	-2493
1027.278	-2163
1027.345	-2354
1027.413	-2209
1027.480	-2327
1027.547	-2592
1027.614	-2068
1027.682	-2569
1027.749	-2620
1027.816	-2385
1027.883	-2027
1027.950	-3025
1028.017	-2371
1028.084	-2438
1028.151	-2242
1028.218	-1938
1028.285	-2263
1028.352	-2525
1028.419	-2289
1028.486	-2283
1028.553	-2135
1028.619	-2366
1028.686	-2515
1028.753	-2883
1028.820	-2756
1028.886	-2731
1028.953	-2634
1029.020	-2739
1029.086	-2285
1029.153	-2879
1029.220	-2704
1029.286	-2358
1029.353	-2492
1029.419	-3176
1029.486	-2092
1029.552	-3348
1029.619	-3077
1029.685	-2688
1029.751	-2001
1029.818	-2140
1029.884	-2267
1029.951	-2553
1030.017	-2096
1030.083	-2120
1030.149	-1866
1030.216	-3049
1030.282	-2718
1030.348	-2551
1030.414	-2183
1030.480	-3018
1030.546	-2836
1030.612	-1994
1030.678	-1811
1030.744	-3038
1030.810	-2431
1030.876	-2257
1030.942	-2102
1031.008	-2367
1031.074	-1767
1031.140	-2867
1031.206	-1283
1031.272	-2846
1031.337	-2261
1031.403	-1651
1031.469	-1862
1031.534	-2702
1031.600	-1715
1031.666	-2910
1031.731	-2364
1031.797	-3076
1031.863	-2926
1031.928	-2633
1031.994	-2343
1032.059	-2182
1032.125	-1729
1032.190	-2829
1032.256	-2055
1032.321	-2835
1032.386	-1362
1032.452	-2251
1032.517	-1718
1032.582	-2504
1032.647	-2004
1032.713	-3068
1032.778	-1870
1032.843	-2145
1032.908	-1712
1032.974	-2922
1033.039	-2266
1033.104	-2081
1033.169	-2590
1033.234	-1908
1033.299	-2084
1033.364	-2096
1033.429	-2411
1033.494	-2009
1033.559	-2668
1033.624	-2191
1033.688	-1637
1033.753	-3081
1033.818	-1745
1033.883	-2713
1033.948	-2627
1034.013	-2207
1034.077	-2279
1034.142	-2311
1034.207	-1618
1034.271	-1552
1034.336	-1684
1034.400	-2127
1034.465	-1225
1034.530	-2290
1034.594	-2570
1034.658	-2679
1034.723	-1505
1034.787	-2343
1034.852	-1339
1034.916	-2436
1034.981	-2762
1035.045	-2505
1035.109	-2304
1035.173	-2028
1035.238	-2858
1035.302	-2505
1035.366	-2348
1035.430	-1367
1035.495	-1792
1035.559	-2443
1035.623	-2069
1035.687	-2940
1035.751	-2577
1035.815	-2346
1035.879	-2427
1035.943	-2095
1036.007	-2383
1036.071	-2913
1036.135	-2369
1036.198	-1724
1036.262	-2264
1036.326	-2562
1036.390	-2279
1036.454	-2447
1036.517	-1716
1036.581	-2811
1036.645	-1681
1036.709	-1798
1036.772	-1960
1036.836	-2174
1036.900	-2287
1036.963	-2594
1037.026	-2178
1037.090	-2101
1037.154	-2772
1037.217	-1962
1037.280	-2763
1037.344	-2077
1037.407	-2341
1037.471	-1699
1037.534	-2358
1037.597	-3046
1037.661	-1733
1037.724	-1788
1037.787	-2543
1037.850	-3318
1037.913	-2336
1037.977	-2633
1038.040	-2612
1038.103	-2381
1038.166	-1957
1038.229	-1466
1038.292	-2641
1038.355	-2265
1038.418	-1870
1038.481	-2621
1038.544	-2198
1038.607	-2563
1038.670	-2508
1038.732	-2306
1038.795	-2037
1038.858	-2547
1038.921	-2071
1038.984	-1464
1039.046	-2006
1039.109	-2111
1039.172	-2503
1039.234	-2012
1039.297	-2174
1039.360	-1803
1039.422	-2436
1039.485	-2838
1039.547	-2180
1039.610	-2525
1039.672	-2796
1039.734	-2107
1039.797	-2154
1039.859	-2151
1039.922	-2991
1039.984	-2092
1040.046	-1663
1040.109	-1615
1040.171	-2314
1040.233	-3046
1040.295	-1773
1040.358	-2662
1040.420	-2397
1040.482	-2417
1040.544	-2623
1040.606	-2675
1040.668	-2393
1040.730	-1807
1040.792	-2536
1040.854	-2119
1040.916	-2171
1040.978	-2746
1041.040	-1766
1041.102	-2508
1041.164	-2497
1041.225	-1864
1041.287	-1998
1041.349	-3205
1041.411	-2904
1041.472	-2565
1041.534	-2096
1041.596	-2140
1041.657	-2878
1041.719	-2495
1041.781	-2781
1041.842	-2381
1041.904	-2555
1041.965	-2845
1042.027	-2148
1042.088	-2417
1042.150	-1813
1042.211	-2685
1042.272	-2304
1042.334	-3283
1042.395	-2341
1042.456	-2870
1042.518	-2319
1042.579	-3025
1042.640	-2700
1042.701	-2065
1042.763	-2532
1042.824	-2320
1042.885	-2735
1042.946	-1793
1043.007	-2705
1043.068	-2692
1043.129	-2401
1043.190	-3066
1043.251	-2486
1043.312	-2747
1043.373	-2345
1043.434	-2767
1043.495	-2616
1043.556	-1402
1043.616	-2137
1043.677	-2855
1043.738	-2664
1043.799	-1569
1043.859	-2570
1043.920	-2577
1043.981	-1910
1044.041	-2459
1044.102	-2395
1044.162	-2019
1044.223	-2972
1044.284	-2890
1044.344	-1999
1044.405	-2802
1044.465	-3094
1044.525	-2568
1044.586	-2542
1044.646	-2067
1044.707	-1415
1044.767	-2102
1044.827	-2303
1044.887	-3086
1044.948	-1926
1045.008	-2226
1045.068	-1786
1045.128	-1957
1045.188	-2225
1045.249	-1930
1045.309	-1601
1045.369	-2162
1045.429	-2768
1045.489	-2248
1045.549	-2365
1045.609	-2280
1045.669	-3034
1045.729	-2531
1045.789	-2756
1045.848	-2778
1045.908	-2632
1045.968	-2082
1046.028	-1685
1046.088	-2205
1046.147	-2464
1046.207	-1580
1046.267	-2056
1046.326	-2038
1046.386	-1332
1046.446	-1880
1046.505	-2445
1046.565	-873
1046.624	-1488
1046.684	-1184
1046.743	-1982
1046.803	-1128
1046.862	-679
1046.922	0
