'Start Wavelength	183.907
'End Wavelength	1046.922
'Gate Delay	5.000
'Gate Width (ms)	1.050
'Laser Output Level	0.000
'X Position	0.000
'Y Position	0.000
'Z Position	0.000
'Grid Point Number	1.000
'Shot Number	100.000
183.907	637.000
183.977	-437.000
184.047	-202
184.116	1247
184.186	-627
184.256	253
184.325	-71
184.395	-949
184.465	88
184.534	274
184.604	-619
184.674	-78
184.743	-340
184.813	113
184.883	-7
184.952	-402
185.022	-36
185.092	439
185.161	246
185.231	-52
185.301	397
185.370	629
185.440	-798
185.509	169
185.579	-632
185.649	-159
185.718	-533
185.788	436
185.857	-121
185.927	-203
185.996	-66
186.066	-426
186.136	-325
186.205	91
186.275	-333
186.344	-87
186.414	-30
186.483	-631
186.553	1272
186.622	839
186.692	-317
186.761	45
186.831	-569
186.900	-568
186.970	257
187.039	513
187.109	714
187.178	-110
187.248	359
187.317	523
187.387	235
187.456	227
187.526	19
187.595	500
187.664	-217
187.734	670
187.803	-100
187.873	613
187.942	-222
188.012	305
188.081	-46
188.150	72
188.220	501
188.289	234
188.358	-31
188.428	564
188.497	-153
188.567	489
188.636	-355
188.705	-168
188.775	95
188.844	-142
188.913	546
188.983	627
189.052	31
189.121	-506
189.191	-325
189.260	114
189.329	-389
189.399	-277
189.468	193
189.537	456
189.606	-200
189.676	1161
189.745	29
189.814	793
189.883	-386
189.953	-422
190.022	186
190.091	1125
190.161	812
190.230	416
190.299	-447
190.368	686
190.437	-677
190.507	1039
190.576	172
190.645	83
190.714	243
190.783	90
190.853	-336
190.922	999
190.991	194
191.060	556
191.129	-704
191.198	511
191.268	-78
191.337	508
191.406	-26
191.475	-164
191.544	-760
191.613	730
191.682	-561
191.752	247
191.821	-239
191.890	517
191.959	290
192.028	-123
192.097	-239
192.166	677
192.235	-967
192.304	343
192.373	704
192.442	-17
192.511	-5
192.580	649
192.650	-126
192.719	272
192.788	135
192.857	-415
192.926	-208
192.995	471
193.064	335
193.133	795
193.202	256
193.271	1264
193.340	766
193.409	333
193.478	768
193.547	615
193.615	467
193.684	1900
193.753	589
193.822	891
193.891	588
193.960	717
194.029	-263
194.098	754
194.167	-12
194.236	516
194.305	-321
194.374	380
194.443	357
194.512	287
194.580	789
194.649	574
194.718	242
194.787	126
194.856	36
194.925	460
194.994	-783
195.062	820
195.131	-441
195.200	1049
195.269	277
195.338	39
195.407	427
195.475	881
195.544	571
195.613	815
195.682	564
195.751	656
195.819	-338
195.888	419
195.957	838
196.026	1059
196.094	1330
196.163	692
196.232	122
196.301	496
196.369	-125
196.438	391
196.507	4
196.576	155
196.644	-122
196.713	235
196.782	-638
196.850	1011
196.919	127
196.988	1173
197.056	-259
197.125	405
197.194	38
197.262	64
197.331	-172
197.400	68
197.468	-377
197.537	542
197.606	-96
197.674	573
197.743	892
197.812	903
197.880	884
197.949	928
198.017	653
198.086	1083
198.155	976
198.223	998
198.292	1184
198.360	120
198.429	469
198.497	-246
198.566	283
198.635	1119
198.703	770
198.772	1954
198.840	296
198.909	1631
198.977	200
199.046	415
199.114	685
199.183	497
199.251	77
199.320	698
199.388	358
199.457	291
199.525	869
199.594	592
199.662	949
199.731	326
199.799	46
199.867	887
199.936	-202
200.004	1185
200.073	-8
200.141	533
200.210	-889
200.278	284
200.346	16
200.415	730
200.483	-849
200.552	482
200.620	-247
200.688	1132
200.757	-161
200.825	88
200.893	-236
200.962	719
201.030	-92
201.098	-157
201.167	195
201.235	42
201.303	165
201.372	621
201.440	647
201.508	968
201.577	-152
201.645	604
201.713	549
201.781	817
201.850	356
201.918	680
201.986	-402
202.055	1119
202.123	594
202.191	312
202.259	262
202.327	742
202.396	409
202.464	1085
202.532	611
202.600	1230
202.669	141
202.737	213
202.805	-59
202.873	451
202.941	-72
203.009	1116
203.078	222
203.146	524
203.214	-346
203.282	888
203.350	697
203.418	356
203.487	800
203.555	1176
203.623	1099
203.691	883
203.759	-540
203.827	309
203.895	632
203.963	672
204.031	-34
204.099	688
204.168	-395
204.236	1313
204.304	164
204.372	561
204.440	550
204.508	214
204.576	-424
204.644	599
204.712	-401
204.780	419
204.848	702
204.916	907
204.984	877
205.052	1010
205.120	532
205.188	826
205.256	193
205.324	1195
205.392	-6
205.460	457
205.528	86
205.596	941
205.664	174
205.732	268
205.799	1211
205.867	2575
205.935	162
206.003	987
206.071	740
206.139	710
206.207	450
206.275	668
206.343	640
206.411	1143
206.478	367
206.546	421
206.614	-16
206.682	654
206.750	194
206.818	1286
206.885	529
206.953	-735
207.021	850
207.089	812
207.157	638
207.225	703
207.292	581
207.360	174
207.428	331
207.496	123
207.563	724
207.631	1623
207.699	410
207.767	799
207.834	-277
207.902	1204
207.970	902
208.038	958
208.105	776
208.173	264
208.241	378
208.309	1767
208.376	1724
208.444	1616
208.512	503
208.579	-572
208.647	644
208.715	1260
208.782	1134
208.850	1249
208.918	123
208.985	443
209.053	1097
209.120	1691
209.188	116
209.256	1532
209.323	1
209.391	1111
209.459	1046
209.526	1214
209.594	171
209.661	479
209.729	1259
209.796	1670
209.864	749
209.932	-223
209.999	1429
210.067	1375
210.134	933
210.202	754
210.269	1289
210.337	1282
210.404	490
210.472	776
210.539	1249
210.607	1677
210.674	950
210.742	2426
210.809	511
210.877	932
210.944	927
211.012	322
211.079	1277
211.146	382
211.214	1124
211.281	1200
211.349	1007
211.416	1641
211.484	1628
211.551	1313
211.618	229
211.686	1120
211.753	701
211.821	1466
211.888	55
211.955	1006
212.023	184
212.090	1752
212.157	799
212.225	1706
212.292	1959
212.359	2831
212.427	5676
212.494	3034
212.561	1370
212.629	1286
212.696	689
212.763	1548
212.831	650
212.898	1712
212.965	173
213.032	1509
213.100	1253
213.167	1465
213.234	1203
213.301	1440
213.369	982
213.436	1538
213.503	829
213.570	1218
213.638	546
213.705	503
213.772	62
213.839	899
213.906	1657
213.973	1124
214.041	218
214.108	1917
214.175	1066
214.242	1365
214.309	1165
214.376	1780
214.444	862
214.511	2314
214.578	476
214.645	1447
214.712	1921
214.779	1610
214.846	-130
214.913	2862
214.980	1680
215.048	1597
215.115	1099
215.182	2471
215.249	107
215.316	696
215.383	2079
215.450	1549
215.517	1126
215.584	1465
215.651	801
215.718	1848
215.785	1283
215.852	865
215.919	1826
215.986	1496
216.053	1153
216.120	626
216.187	768
216.254	1137
216.321	498
216.388	1334
216.455	1263
216.522	2014
216.589	1628
216.656	1928
216.722	1733
216.789	2496
216.856	1449
216.923	2053
216.990	1793
217.057	1855
217.124	2409
217.191	2065
217.258	2125
217.324	2551
217.391	2943
217.458	2450
217.525	1843
217.592	1609
217.659	467
217.725	2575
217.792	1109
217.859	2651
217.926	319
217.993	1207
218.059	2093
218.126	1160
218.193	352
218.260	1359
218.327	810
218.393	1577
218.460	914
218.527	1411
218.594	653
218.660	985
218.727	2161
218.794	935
218.860	1451
218.927	442
218.994	971
219.061	189
219.127	1188
219.194	1881
219.261	615
219.327	617
219.394	1485
219.461	343
219.527	981
219.594	1402
219.661	930
219.727	371
219.794	1721
219.860	806
219.927	1220
219.994	2098
220.060	1181
220.127	2408
220.193	1689
220.260	2103
220.326	2761
220.393	4316
220.460	4831
220.526	2695
220.593	2123
220.659	3907
220.726	2393
220.792	5108
220.859	4303
220.925	6297
220.992	7435
221.058	7180
221.125	5572
221.191	4345
221.258	1896
221.324	2951
221.391	2086
221.457	2338
221.524	1520
221.590	2613
221.657	4300
221.723	3031
221.789	2234
221.856	3618
221.922	1299
221.989	1717
222.055	1076
222.121	1447
222.188	2493
222.254	1626
222.321	1221
222.387	769
222.453	628
222.520	1234
222.586	572
222.652	2153
222.719	165
222.785	2518
222.851	386
222.918	315
222.984	1106
223.050	1616
223.116	-369
223.183	1894
223.249	428
223.315	309
223.382	321
223.448	782
223.514	37
223.580	969
223.647	923
223.713	327
223.779	1009
223.845	981
223.911	1013
223.978	522
224.044	1238
224.110	414
224.176	1146
224.242	1095
224.309	-630
224.375	761
224.441	385
224.507	279
224.573	199
224.639	1489
224.705	173
224.772	1027
224.838	754
224.904	715
224.970	243
225.036	649
225.102	742
225.168	2147
225.234	1475
225.300	457
225.366	-149
225.432	1344
225.499	498
225.565	614
225.631	1115
225.697	1600
225.763	1447
225.829	2196
225.895	569
225.961	2170
226.027	1517
226.093	2091
226.159	2905
226.225	4915
226.291	7460
226.357	12851
226.423	7795
226.489	4896
226.554	2238
226.620	3819
226.686	3649
226.752	5574
226.818	8151
226.884	14402
226.950	13252
227.016	7104
227.082	4600
227.148	2743
227.214	2654
227.279	2706
227.345	1564
227.411	1528
227.477	584
227.543	2489
227.609	2186
227.674	2945
227.740	1480
227.806	1305
227.872	817
227.938	1937
228.003	1570
228.069	1161
228.135	-16
228.201	1611
228.267	1067
228.332	828
228.398	363
228.464	1114
228.530	829
228.595	1422
228.661	-389
228.727	1707
228.792	2176
228.858	789
228.924	-503
228.990	2988
229.055	283
229.121	2288
229.187	682
229.252	670
229.318	1131
229.384	1916
229.449	460
229.515	-305
229.581	96
229.646	2336
229.712	857
229.777	1561
229.843	1173
229.909	2672
229.974	2014
230.040	2434
230.105	1006
230.171	1551
230.236	2247
230.302	3405
230.368	1531
230.433	1529
230.499	1593
230.564	3042
230.630	913
230.695	1056
230.761	1788
230.826	367
230.892	2437
230.957	1593
231.023	947
231.088	1589
231.154	2043
231.219	1912
231.284	556
231.350	2162
231.415	-184
231.481	1436
231.546	615
231.612	1298
231.677	888
231.742	652
231.808	2145
231.873	637
231.939	-561
232.004	2682
232.069	1815
232.135	578
232.200	545
232.265	1577
232.331	412
232.396	106
232.461	117
232.527	597
232.592	-191
232.657	1528
232.723	742
232.788	878
232.853	1733
232.918	1197
232.984	466
233.049	493
233.114	-497
233.179	1084
233.245	1112
233.310	2488
233.375	508
233.440	1088
233.506	111
233.571	1044
233.636	328
233.701	861
233.766	1125
233.832	1588
233.897	181
233.962	68
234.027	1330
234.092	1510
234.157	878
234.222	198
234.288	1524
234.353	3018
234.418	3659
234.483	2759
234.548	2261
234.613	1679
234.678	1930
234.743	1504
234.808	4181
234.873	2087
234.938	2668
235.004	2089
235.069	895
235.134	1271
235.199	2098
235.264	1681
235.329	101
235.394	2090
235.459	2281
235.524	848
235.589	651
235.654	601
235.719	-55
235.784	1853
235.849	1114
235.913	2656
235.978	2036
236.043	2547
236.108	1232
236.173	1356
236.238	1793
236.303	828
236.368	869
236.433	2543
236.498	2623
236.563	3366
236.627	6864
236.692	18573
236.757	16825
236.822	8323
236.887	5213
236.952	4792
237.017	2240
237.081	5557
237.146	4710
237.211	11479
237.276	18568
237.341	24366
237.405	15326
237.470	8072
237.535	5103
237.600	4189
237.664	3119
237.729	2085
237.794	2642
237.859	8351
237.923	3590
237.988	2070
238.053	2554
238.118	3139
238.182	5472
238.247	6440
238.312	1833
238.376	2328
238.441	210
238.506	2299
238.570	-285
238.635	3098
238.700	1518
238.764	853
238.829	2710
238.893	2369
238.958	2610
239.023	1664
239.087	1442
239.152	2113
239.216	1490
239.281	2119
239.346	2018
239.410	1095
239.475	802
239.539	5454
239.604	3231
239.668	2503
239.733	1129
239.797	1633
239.862	2487
239.926	4007
239.991	2490
240.055	2313
240.120	384
240.184	1011
240.249	389
240.313	1610
240.378	688
240.442	3609
240.507	4868
240.571	1388
240.635	1817
240.700	3646
240.764	146
240.829	970
240.893	24
240.957	2179
241.022	2913
241.086	4686
241.151	1956
241.215	949
241.279	1677
241.344	1235
241.408	1828
241.472	1911
241.537	2000
241.601	2662
241.665	675
241.730	1257
241.794	2434
241.858	1815
241.922	1431
241.987	2095
242.051	1373
242.115	1097
242.179	1981
242.244	1338
242.308	1781
242.372	1426
242.436	1792
242.501	2157
242.565	550
242.629	1045
242.693	1648
242.757	884
242.822	974
242.886	2009
242.950	1630
243.014	657
243.078	1859
243.142	2208
243.206	1473
243.271	3713
243.335	1511
243.399	4878
243.463	8443
243.527	22179
243.591	8475
243.655	3622
243.719	1669
243.783	3338
243.847	3473
243.911	5993
243.975	3757
244.040	2380
244.104	3478
244.168	1603
244.232	1822
244.296	3472
244.360	4201
244.424	1794
244.488	1497
244.552	2665
244.615	-585
244.679	1987
244.743	1546
244.807	1684
244.871	1095
244.935	1399
244.999	-150
245.063	2098
245.127	1847
245.191	3614
245.255	2324
245.319	2637
245.383	1128
245.446	2896
245.510	294
245.574	1875
245.638	1427
245.702	65
245.766	3433
245.829	2579
245.893	1378
245.957	1235
246.021	1510
246.085	2521
246.149	1722
246.212	5250
246.276	5621
246.340	3242
246.404	2347
246.467	3518
246.531	2133
246.595	3031
246.659	3219
246.722	1309
246.786	2711
246.850	2657
246.913	2860
246.977	134
247.041	1952
247.104	1910
247.168	1441
247.232	4727
247.295	7974
247.359	4721
247.423	1842
247.486	4942
247.550	3442
247.614	1727
247.677	2805
247.741	2783
247.804	1526
247.868	1940
247.932	3250
247.995	8777
248.059	3122
248.122	2169
248.186	3591
248.249	5509
248.313	12452
248.376	14752
248.440	7542
248.503	3441
248.567	4782
248.630	4172
248.694	7169
248.757	8219
248.821	14006
248.884	11179
248.948	7842
249.011	11850
249.075	15156
249.138	14352
249.202	6312
249.265	4450
249.328	5092
249.392	3746
249.455	4561
249.519	2864
249.582	2587
249.645	6252
249.709	3904
249.772	3708
249.835	3340
249.899	3562
249.962	2949
250.025	3379
250.089	5421
250.152	8204
250.215	4483
250.279	3085
250.342	3958
250.405	4333
250.468	3070
250.532	4691
250.595	7627
250.658	20679
250.721	35039
250.785	14415
250.848	8630
250.911	4245
250.974	4256
251.038	5846
251.101	9779
251.164	5984
251.227	6585
251.290	6813
251.354	9148
251.417	28434
251.480	31936
251.543	23234
251.606	48567
251.669	41029
251.732	19203
251.795	15405
251.859	16734
251.922	32746
251.985	22045
252.048	10690
252.111	7345
252.174	6207
252.237	9866
252.300	18739
252.363	21260
252.426	39445
252.489	18919
252.552	10487
252.615	5744
252.678	8075
252.741	15001
252.804	20792
252.867	42658
252.930	26899
252.993	12964
253.056	9496
253.119	5474
253.182	4687
253.245	8008
253.308	7646
253.371	5069
253.434	5677
253.497	4548
253.559	8811
253.622	6197
253.685	7067
253.748	6544
253.811	4090
253.874	3997
253.937	3666
254.000	3324
254.062	5877
254.125	7893
254.188	9397
254.251	7594
254.314	4229
254.376	5119
254.439	7419
254.502	4950
254.565	5224
254.628	10875
254.690	5681
254.753	2471
254.816	3054
254.878	2797
254.941	5265
255.004	6201
255.067	3284
255.129	2320
255.192	2316
255.255	843
255.317	2455
255.380	799
255.443	1449
255.505	520
255.568	-62
255.631	980
255.693	1903
255.756	283
255.819	2184
255.881	32
255.944	1708
256.006	647
256.069	498
256.132	810
256.194	2134
256.257	3741
256.319	3323
256.382	2300
256.444	3402
256.507	1986
256.569	2254
256.632	2826
256.694	4462
256.757	12572
256.819	35709
256.882	16530
256.944	5336
257.007	4574
257.069	4788
257.132	3300
257.194	3981
257.257	2288
257.319	2392
257.381	4008
257.444	10023
257.506	35637
257.569	42698
257.631	17462
257.693	9998
257.756	5653
257.818	3626
257.880	2792
257.943	3873
258.005	1777
258.067	2593
258.130	2717
258.192	2826
258.254	2221
258.317	2857
258.379	1806
258.441	4593
258.503	5231
258.566	4832
258.628	6959
258.690	2097
258.753	2446
258.815	4298
258.877	2290
258.939	2343
259.001	2490
259.064	1806
259.126	1982
259.188	3959
259.250	2685
259.312	3117
259.375	4922
259.437	3184
259.499	1807
259.561	1988
259.623	1665
259.685	2735
259.747	2535
259.809	5943
259.872	8465
259.934	14373
259.996	16021
260.058	5767
260.120	1317
260.182	2334
260.244	1474
260.306	1466
260.368	2231
260.430	1911
260.492	5172
260.554	9360
260.616	3002
260.678	8346
260.740	8022
260.802	2914
260.864	2045
260.926	1313
260.988	3192
261.050	2419
261.112	7422
261.174	15545
261.236	8239
261.298	2853
261.359	3317
261.421	6361
261.483	1891
261.545	2132
261.607	480
261.669	1480
261.731	2146
261.793	6478
261.854	2339
261.916	3440
261.978	2272
262.040	3015
262.102	2105
262.164	1743
262.225	2264
262.287	2356
262.349	4111
262.411	3671
262.472	1826
262.534	2342
262.596	4157
262.658	1862
262.719	791
262.781	2785
262.843	3755
262.904	2982
262.966	1950
263.028	3318
263.090	11499
263.151	33545
263.213	12896
263.275	7097
263.336	2657
263.398	1839
263.459	442
263.521	1648
263.583	3884
263.644	3438
263.706	835
263.767	228
263.829	613
263.891	698
263.952	-25
264.014	719
264.075	2074
264.137	10035
264.198	3690
264.260	1680
264.321	936
264.383	3794
264.444	13762
264.506	4830
264.567	1769
264.629	6057
264.690	13049
264.752	4756
264.813	2444
264.875	1018
264.936	2658
264.998	2021
265.059	638
265.120	1995
265.182	3302
265.243	19012
265.305	22076
265.366	5371
265.427	2295
265.489	2339
265.550	386
265.611	2245
265.673	1828
265.734	1861
265.795	1477
265.857	1889
265.918	1712
265.979	6252
266.040	30422
266.102	28930
266.163	7594
266.224	5116
266.286	1799
266.347	958
266.408	1405
266.469	1914
266.530	764
266.592	725
266.653	2348
266.714	3848
266.775	1568
266.836	1374
266.898	-74
266.959	2875
267.020	2160
267.081	2720
267.142	1827
267.203	674
267.264	-520
267.326	2466
267.387	784
267.448	267
267.509	889
267.570	1267
267.631	594
267.692	943
267.753	912
267.814	346
267.875	2327
267.936	6621
267.997	5263
268.058	4135
268.119	1868
268.180	1569
268.241	305
268.302	878
268.363	463
268.424	1073
268.485	981
268.546	877
268.607	199
268.668	966
268.729	401
268.790	570
268.851	352
268.912	3686
268.972	3884
269.033	2151
269.094	244
269.155	1189
269.216	505
269.277	688
269.338	1002
269.398	1411
269.459	802
269.520	3137
269.581	2525
269.642	3527
269.702	1249
269.763	1833
269.824	442
269.885	1733
269.945	3085
270.006	1468
270.067	197
270.128	868
270.188	-47
270.249	670
270.310	727
270.370	842
270.431	371
270.492	678
270.553	507
270.613	2185
270.674	5632
270.734	2169
270.795	987
270.856	1910
270.916	365
270.977	1430
271.038	1465
271.098	1701
271.159	1942
271.219	2885
271.280	1103
271.340	1251
271.401	323
271.462	2802
271.522	2328
271.583	1394
271.643	1264
271.704	1468
271.764	1380
271.825	3348
271.885	12638
271.946	18415
272.006	6027
272.066	7399
272.127	13729
272.187	3997
272.248	2201
272.308	2086
272.369	8776
272.429	6243
272.489	3915
272.550	4451
272.610	4533
272.671	3490
272.731	2097
272.791	4016
272.852	2000
272.912	2404
272.972	1121
273.033	1449
273.093	1333
273.153	2669
273.214	2121
273.274	2388
273.334	8198
273.394	14774
273.455	5519
273.515	5105
273.575	12575
273.635	5222
273.696	5654
273.756	12103
273.816	5204
273.876	3322
273.936	4621
273.997	8988
274.057	2483
274.117	1800
274.177	3363
274.237	16460
274.297	14352
274.358	7902
274.418	9910
274.478	8793
274.538	2795
274.598	1570
274.658	6234
274.718	8082
274.778	2986
274.838	2192
274.898	3204
274.958	10808
275.018	11112
275.078	8013
275.138	2793
275.198	1533
275.258	1125
275.318	2439
275.378	3718
275.438	5614
275.498	2704
275.558	5164
275.618	12381
275.678	9326
275.738	6473
275.798	5134
275.858	3314
275.918	1395
275.978	1406
276.038	2146
276.098	1227
276.157	2631
276.217	9323
276.277	3961
276.337	2745
276.397	1388
276.457	1718
276.517	930
276.576	891
276.636	549
276.696	1320
276.756	6606
276.815	3794
276.875	1889
276.935	1586
276.995	1851
277.055	278
277.114	1568
277.174	611
277.234	7817
277.293	2843
277.353	1615
277.413	1407
277.472	1474
277.532	1442
277.592	1821
277.651	5163
277.711	10562
277.771	2926
277.830	13260
277.890	10874
277.950	6080
278.009	21989
278.069	8626
278.128	7954
278.188	10742
278.248	3915
278.307	11142
278.367	6494
278.426	3309
278.486	1315
278.545	766
278.605	630
278.664	1199
278.724	729
278.783	4728
278.843	13664
278.902	3979
278.962	1728
279.021	3291
279.081	3038
279.140	3726
279.199	2743
279.259	3093
279.318	2946
279.378	3779
279.437	5707
279.496	20044
279.556	55874
279.615	42655
279.675	10977
279.734	6843
279.793	9064
279.853	16693
279.912	6422
279.971	3879
280.031	2826
280.090	7039
280.149	12474
280.208	8735
280.268	39135
280.327	39752
280.386	8546
280.445	7597
280.505	6691
280.564	4402
280.623	3257
280.682	4593
280.742	6943
280.801	2513
280.860	762
280.919	1879
280.978	530
281.037	1220
281.097	338
281.156	1421
281.215	390
281.274	1824
281.333	8188
281.392	6496
281.451	1024
281.510	1536
281.569	169
281.628	531
281.688	246
281.747	1413
281.806	500
281.865	1403
281.924	421
281.983	493
282.042	464
282.101	689
282.160	116
282.219	-209
282.278	176
282.337	4477
282.396	3176
282.454	1576
282.513	1153
282.572	7573
282.631	4082
282.690	747
282.749	683
282.808	729
282.867	588
282.926	1846
282.985	517
283.043	889
283.102	528
283.161	1122
283.220	2497
283.279	8734
283.338	2114
283.396	1159
283.455	712
283.514	1094
283.573	1880
283.631	1954
283.690	198
283.749	497
283.808	2427
283.866	3942
283.925	1101
283.984	1277
284.043	1573
284.101	1746
284.160	-16
284.219	3074
284.277	1037
284.336	2514
284.395	9691
284.453	10346
284.512	1959
284.570	4187
284.629	2713
284.688	2503
284.746	2995
284.805	3415
284.863	3812
284.922	5647
284.981	7735
285.039	11062
285.098	17470
285.156	41183
285.215	72267
285.273	71281
285.332	46598
285.390	25804
285.449	14158
285.507	10462
285.566	7440
285.624	5611
285.683	2782
285.741	4032
285.799	2668
285.858	2829
285.916	2514
285.975	1715
286.033	1387
286.091	1501
286.150	646
286.208	1633
286.267	1323
286.325	1733
286.383	2360
286.442	2499
286.500	884
286.558	944
286.616	464
286.675	1396
286.733	434
286.791	1707
286.850	1999
286.908	2568
286.966	3677
287.024	1775
287.083	758
287.141	824
287.199	761
287.257	2636
287.315	967
287.374	1386
287.432	4720
287.490	3545
287.548	1665
287.606	1214
287.664	516
287.723	2459
287.781	3658
287.839	2335
287.897	2408
287.955	4397
288.013	6139
288.071	12442
288.129	44036
288.187	113697
288.245	61199
288.303	20749
288.361	10777
288.419	7330
288.477	5195
288.535	3547
288.593	2836
288.651	2512
288.709	913
288.767	1793
288.825	594
288.883	1585
288.941	1236
288.999	331
289.057	413
289.115	892
289.173	32
289.231	1066
289.289	281
289.346	807
289.404	604
289.462	2315
289.520	1590
289.578	1902
289.636	-93
289.694	42
289.751	391
289.809	565
289.867	-65
289.925	1688
289.983	697
290.040	22
290.098	505
290.156	-131
290.214	664
290.271	354
290.329	267
290.387	-133
290.444	-542
290.502	254
290.560	202
290.617	916
290.675	365
290.733	377
290.790	520
290.848	339
290.906	413
290.963	783
291.021	856
291.078	375
291.136	580
291.194	5230
291.251	12939
291.309	3802
291.366	306
291.424	271
291.481	1035
291.539	1124
291.596	-641
291.654	270
291.711	179
291.769	782
291.826	1936
291.884	1513
291.941	78
291.999	518
292.056	785
292.114	1367
292.171	335
292.228	762
292.286	282
292.343	2417
292.401	3002
292.458	1529
292.515	349
292.573	1349
292.630	811
292.687	2147
292.745	632
292.802	1777
292.859	7765
292.917	9452
292.974	5540
293.031	2316
293.089	897
293.146	525
293.203	397
293.260	329
293.318	83
293.375	4182
293.432	1158
293.489	712
293.546	164
293.604	1533
293.661	4459
293.718	15790
293.775	8799
293.832	3626
293.889	1731
293.947	1647
294.004	1202
294.061	1481
294.118	3667
294.175	11885
294.232	19580
294.289	7016
294.346	3390
294.403	3502
294.460	1968
294.517	1513
294.574	695
294.631	1084
294.688	1450
294.745	4654
294.802	18565
294.859	28624
294.916	10034
294.973	4199
295.030	2567
295.087	1138
295.144	1666
295.201	1965
295.258	931
295.315	1933
295.372	6107
295.429	12738
295.486	5370
295.542	3956
295.599	12616
295.656	25243
295.713	13471
295.770	13368
295.827	5640
295.883	3979
295.940	1256
295.997	4286
296.054	2948
296.111	1583
296.167	1809
296.224	1225
296.281	756
296.338	875
296.394	428
296.451	1535
296.508	4782
296.564	11912
296.621	7871
296.678	13224
296.734	21100
296.791	9132
296.848	4047
296.904	4094
296.961	9366
297.018	14573
297.074	11944
297.131	4795
297.187	3217
297.244	3867
297.301	11050
297.357	22752
297.414	7918
297.470	2990
297.527	2076
297.583	1795
297.640	686
297.696	1458
297.753	390
297.809	549
297.866	911
297.922	1539
297.979	951
298.035	466
298.092	2138
298.148	8313
298.204	7845
298.261	3735
298.317	5731
298.374	17992
298.430	10905
298.486	4290
298.543	2140
298.599	3324
298.656	3408
298.712	6349
298.768	17469
298.824	14216
298.881	4821
298.937	2511
298.993	1792
299.050	2646
299.106	1816
299.162	1568
299.218	1445
299.275	1334
299.331	1972
299.387	4481
299.443	13822
299.500	14978
299.556	5517
299.612	1948
299.668	1813
299.724	2354
299.780	1037
299.837	1598
299.893	2979
299.949	12030
300.005	14902
300.061	12147
300.117	22019
300.173	11499
300.229	3705
300.285	4702
300.341	5728
300.397	3165
300.453	1768
300.510	1221
300.566	1345
300.622	1799
300.678	3927
300.734	10905
300.790	11363
300.845	13873
300.901	7794
300.957	11312
301.013	9988
301.069	3836
301.125	1604
301.181	2718
301.237	1705
301.293	767
301.349	1306
301.405	1486
301.461	307
301.516	2746
301.572	1976
301.628	3901
301.684	3623
301.740	6248
301.796	9901
301.851	6436
301.907	10773
301.963	9583
302.019	13935
302.074	38077
302.130	39860
302.186	20434
302.242	8528
302.297	5135
302.353	4315
302.409	9385
302.464	8218
302.520	6218
302.576	14143
302.631	18104
302.687	10395
302.743	5135
302.798	1917
302.854	2109
302.910	2170
302.965	3067
303.021	5829
303.076	4986
303.132	5942
303.187	7449
303.243	3168
303.299	2207
303.354	1104
303.410	2370
303.465	1470
303.521	1638
303.576	1904
303.632	1892
303.687	4180
303.743	12992
303.798	10645
303.853	5345
303.909	2838
303.964	2417
304.020	3054
304.075	6291
304.130	4278
304.186	9425
304.241	10627
304.297	8519
304.352	3568
304.358	3493
304.407	2877
304.449	2034
304.463	1754
304.518	1879
304.539	1893
304.573	1895
304.629	1774
304.630	1817
304.684	3895
304.720	7246
304.739	8866
304.794	15235
304.811	13210
304.850	8346
304.902	2974
304.905	2635
304.960	2589
304.992	2803
305.015	2910
305.071	2966
305.083	2616
305.126	1363
305.173	1051
305.181	1010
305.236	1716
305.264	1748
305.292	1818
305.347	2677
305.354	2750
305.402	3109
305.445	3250
305.457	3294
305.512	3739
305.535	3749
305.567	3837
305.622	4243
305.626	4363
305.678	7657
305.716	14521
305.733	16638
305.788	18004
305.807	15505
305.843	11815
305.897	13153
305.898	13149
305.953	14046
305.988	9244
306.008	6746
306.063	4953
306.078	4526
306.118	3496
306.168	1997
306.173	1869
306.228	1787
306.259	1729
306.283	1800
306.338	1811
306.349	2022
306.393	2871
306.440	2966
306.448	2948
306.503	2733
306.530	3020
306.558	4344
306.613	9757
306.620	10405
306.668	13985
306.711	17261
306.723	17265
306.778	12393
306.801	9573
306.833	7091
306.888	3847
306.892	3747
306.943	2861
306.982	2239
306.997	2130
307.052	2451
307.072	2484
307.107	2701
307.162	3543
307.163	3558
307.217	5852
307.253	7300
307.272	7495
307.327	8074
307.343	7413
307.381	6412
307.434	5455
307.436	5598
307.491	11612
307.524	16390
307.546	16975
307.600	16498
307.614	14566
307.655	9215
307.704	5989
307.710	5975
307.765	7092
307.795	8725
307.819	10322
307.874	16078
307.885	16250
307.929	14046
307.975	11961
307.984	12597
308.038	19254
308.065	23383
308.093	38413
308.148	77077
308.156	84917
308.202	116008
308.246	134371
308.257	130806
308.312	79147
308.336	57330
308.366	43531
308.421	26016
308.426	24579
308.475	16361
308.517	11644
308.530	10810
308.585	8905
308.607	8454
308.639	8694
308.694	9414
308.697	9493
308.748	15435
308.787	22092
308.803	21954
308.857	16798
308.877	14725
308.912	13972
308.967	13657
308.967	13669
309.021	19784
309.058	24549
309.076	30932
309.130	53151
309.148	61746
309.185	98999
309.238	161998
309.239	162399
309.293	164253
309.328	152445
309.348	135278
309.402	75202
309.418	59424
309.457	42557
309.508	25698
309.511	25209
309.566	20000
309.598	17557
309.620	17722
309.674	19791
309.688	20402
309.729	19165
309.778	16881
309.783	16653
309.837	13190
309.868	11741
309.892	14802
309.946	22523
309.959	24870
310.001	29648
310.049	33430
310.055	32276
310.109	19444
310.139	11696
310.163	9331
310.218	6177
310.229	5589
310.272	4985
310.319	4777
310.326	4637
310.381	3604
310.409	3101
310.435	3289
310.489	3597
310.499	3696
310.543	3800
310.589	3768
310.598	3899
310.652	4749
310.679	5122
310.706	4392
310.760	2972
310.769	2718
310.814	2583
310.859	2526
310.868	2564
310.923	2692
310.948	2836
310.977	3220
311.031	3890
311.038	3983
311.085	3817
311.128	3433
311.139	3472
311.193	3800
311.218	3919
311.247	3597
311.301	2946
311.308	2854
311.356	3260
311.398	3592
311.410	3455
311.464	2873
311.488	2565
311.518	2797
311.572	3132
311.578	3179
311.626	4268
311.668	5173
311.680	5221
311.734	5297
311.758	5335
311.788	5241
311.842	5079
311.847	5048
311.896	7310
311.937	9261
311.950	8857
312.004	7005
312.027	6152
312.058	5462
312.112	4245
312.117	4119
312.165	4196
312.207	4258
312.297	6959
312.386	5256
312.476	4393
312.566	7373
312.656	4390
312.745	3101
312.835	4026
312.925	3681
313.015	4187
313.104	3500
313.194	3623
313.284	3572
313.374	3760
313.463	3905
313.553	3435
313.643	2687
313.732	2371
313.822	3768
313.912	3713
314.001	3493
314.091	4689
314.180	5841
314.270	4872
314.360	5856
314.449	4706
314.539	2276
314.628	2897
314.718	3474
314.808	4434
314.897	2665
314.987	3229
315.076	4442
315.166	4459
315.255	4501
315.345	4681
315.434	4116
315.524	4656
315.613	4541
315.703	5079
315.792	4757
315.881	5255
315.971	4068
316.060	7502
316.150	11882
316.239	12052
316.328	3745
316.418	2870
316.507	3518
316.597	4446
316.686	3312
316.775	6703
316.865	13000
316.954	3726
317.043	2490
317.133	3647
317.222	2876
317.311	2994
317.400	1503
317.490	4526
317.579	2892
317.668	3186
317.757	3671
317.847	5443
317.936	8879
318.025	8428
318.114	5091
318.203	4399
318.293	9665
318.382	18907
318.471	13492
318.560	22892
318.649	46568
318.738	8240
318.828	5712
318.917	5579
319.006	6745
319.095	19268
319.184	57368
319.273	23933
319.362	10834
319.451	4671
319.540	3806
319.629	9368
319.718	13845
319.807	7966
319.896	18067
319.985	66760
320.074	17382
320.163	6367
320.252	8411
320.341	9779
320.430	8035
320.519	8198
320.608	3757
320.697	5339
320.786	4280
320.875	5054
320.964	6333
321.053	8781
321.142	13377
321.230	12767
321.319	11070
321.408	27064
321.497	9961
321.586	10239
321.675	13002
321.764	11957
321.852	8897
321.941	15098
322.030	7868
322.119	12409
322.207	25691
322.296	18638
322.385	9730
322.474	10630
322.562	31028
322.651	14499
322.740	10760
322.829	14858
322.917	16904
323.006	8524
323.095	8245
323.183	6323
323.272	10307
323.361	18150
323.449	50660
323.538	15292
323.626	38188
323.715	17481
323.804	9354
323.892	33025
323.981	14865
324.069	6177
324.158	18857
324.246	15239
324.335	6385
324.424	9502
324.512	3836
324.601	6058
324.689	12002
324.778	19651
324.866	11749
324.954	4679
325.043	3975
325.131	8678
325.220	13793
325.308	14880
325.397	11129
325.485	6424
325.574	3468
325.662	2868
325.750	3154
325.839	3680
325.927	2948
326.015	4306
326.104	6260
326.192	6961
326.280	2706
326.369	3674
326.457	4431
326.545	7776
326.634	3828
326.722	2542
326.810	2643
326.898	2964
326.987	3088
327.075	7120
327.163	8218
327.251	3944
327.340	9017
327.428	10144
327.516	1978
327.604	3718
327.692	2716
327.781	3551
327.869	5746
327.957	4069
328.045	3742
328.133	2884
328.221	4174
328.309	3805
328.397	3608
328.485	4155
328.574	4930
328.662	16120
328.750	8757
328.838	3921
328.926	2498
329.014	2844
329.102	5202
329.190	14235
329.278	7701
329.366	3019
329.454	3282
329.542	3932
329.630	2722
329.718	4880
329.806	6004
329.893	7956
329.981	10869
330.069	21813
330.157	75163
330.245	143014
330.333	78288
330.421	19860
330.509	11629
330.597	21841
330.684	13952
330.772	6992
330.860	10772
330.948	13272
331.036	4933
331.123	2386
331.211	3173
331.299	4668
331.387	12795
331.475	17902
331.562	4785
331.650	3123
331.738	2918
331.825	5055
331.913	2519
332.001	1932
332.089	4545
332.176	7896
332.264	17999
332.352	11532
332.439	4527
332.527	3370
332.614	2970
332.702	3956
332.790	3215
332.877	8545
332.965	15177
333.052	3757
333.140	4291
333.228	8364
333.315	3531
333.403	3572
333.490	10867
333.578	7811
333.665	7876
333.753	5431
333.840	2554
333.928	5127
334.015	11930
334.103	20870
334.190	63533
334.278	13022
334.365	5411
334.452	3226
334.540	2480
334.627	3998
334.715	5781
334.802	11826
334.889	63359
334.977	47829
335.064	6036
335.151	3712
335.239	4768
335.326	7636
335.413	37647
335.501	40115
335.588	5024
335.675	3387
335.762	6101
335.850	9608
335.937	5333
336.024	16125
336.111	66416
336.199	20803
336.286	4297
336.373	2900
336.460	2064
336.547	2540
336.635	4225
336.722	3425
336.809	3833
336.896	6165
336.983	22852
337.070	53148
337.157	66617
337.245	42169
337.332	24171
337.419	4160
337.506	4170
337.593	4545
337.680	20312
337.767	52839
337.854	13778
337.941	14427
338.028	14118
338.115	5085
338.202	7190
338.289	13703
338.376	38139
338.463	11716
338.550	35007
338.637	28984
338.724	9873
338.811	11019
338.898	3149
338.984	2502
339.071	4114
339.158	4670
339.245	10429
339.332	6460
339.419	9381
339.506	6777
339.593	1542
339.679	2864
339.766	1879
339.853	4798
339.940	6543
340.027	2480
340.113	2847
340.200	3838
340.287	2702
340.374	3869
340.460	6976
340.547	2896
340.634	5839
340.720	19675
340.807	8019
340.894	2506
340.980	2577
341.067	1340
341.154	3123
341.240	3881
341.327	8343
341.414	4151
341.500	3456
341.587	3084
341.674	2314
341.760	6349
341.847	7449
341.933	1858
342.020	933
342.106	2066
342.193	3066
342.279	5021
342.366	3690
342.452	6375
342.539	3482
342.625	8696
342.712	19687
342.798	8228
342.885	3014
342.971	1610
343.058	1389
343.144	1907
343.230	1835
343.317	2177
343.403	1713
343.490	2288
343.576	1379
343.662	2406
343.749	2337
343.835	3149
343.921	7440
344.008	37830
344.094	71002
344.180	15419
344.267	7402
344.353	24368
344.439	20969
344.525	9529
344.612	8164
344.698	7853
344.784	3994
344.870	2414
344.957	1915
345.043	4406
345.129	2967
345.215	6117
345.301	3144
345.387	2724
345.474	876
345.560	1934
345.646	2027
345.732	2177
345.818	2926
345.904	2376
345.990	2263
346.076	3812
346.162	5452
346.249	3019
346.335	1572
346.421	2194
346.507	10022
346.593	29895
346.679	5837
346.765	3363
346.851	2042
346.937	1153
347.023	3081
347.108	2359
347.194	2724
347.280	1548
347.366	2559
347.452	10099
347.538	35197
347.624	27988
347.710	21182
347.796	3542
347.882	2554
347.967	2975
348.053	4624
348.139	2575
348.225	1922
348.311	1647
348.397	1783
348.482	2910
348.568	3783
348.654	1280
348.740	2073
348.825	491
348.911	4644
348.997	18756
349.083	31759
349.168	4028
349.254	2864
349.340	2930
349.425	1603
349.511	2238
349.597	3643
349.682	6740
349.768	22714
349.854	9204
349.939	3380
350.025	1682
350.110	2829
350.196	1354
350.282	462
350.367	1761
350.453	3126
350.538	4252
350.624	2947
350.709	3127
350.795	1160
350.880	2028
350.966	2934
351.051	3917
351.137	2184
351.222	2052
351.308	8273
351.393	20049
351.479	4589
351.564	1820
351.649	2384
351.735	1146
351.820	1742
351.906	2245
351.991	3185
352.076	13953
352.162	17114
352.247	2999
352.332	2882
352.418	5701
352.503	7588
352.588	30334
352.673	19554
352.759	4642
352.844	2145
352.929	3134
353.014	4136
353.100	2603
353.185	3322
353.270	6234
353.355	5585
353.441	2020
353.526	2847
353.611	5928
353.696	5778
353.781	4780
353.866	1687
353.952	3002
354.037	6281
354.122	12879
354.207	10989
354.292	4408
354.377	1827
354.462	1833
354.547	2513
354.632	2525
354.717	5185
354.802	4177
354.887	2462
354.972	2007
355.057	1150
355.142	1321
355.227	2310
355.312	3245
355.397	9797
355.482	20392
355.567	9842
355.652	7514
355.737	8479
355.822	27491
355.907	19029
355.991	3583
356.076	1545
356.161	2658
356.246	1954
356.331	2787
356.416	6353
356.501	43267
356.585	37228
356.670	4843
356.755	4741
356.840	6975
356.924	30691
357.009	91262
357.094	31281
357.179	7602
357.263	5502
357.348	5745
357.433	5617
357.517	5406
357.602	3857
357.687	3104
357.771	7397
357.856	25045
357.941	13318
358.025	26656
358.110	92237
358.195	38535
358.279	6383
358.364	5440
358.448	19181
358.533	50117
358.617	33176
358.702	34458
358.787	10348
358.871	6840
358.956	5604
359.040	1686
359.125	1260
359.209	3139
359.294	12419
359.378	19411
359.462	5846
359.547	3356
359.631	2103
359.716	1559
359.800	3222
359.885	5840
359.969	2060
360.053	2318
360.138	2961
360.222	3740
360.306	5784
360.391	5759
360.475	14320
360.559	26980
360.644	19233
360.728	12033
360.812	25734
360.896	59073
360.981	26512
361.065	13354
361.149	4803
361.233	2860
361.318	2873
361.402	3596
361.486	2920
361.570	2620
361.654	2960
361.739	9750
361.823	40857
361.907	55377
361.991	8867
362.075	6475
362.159	11990
362.243	8511
362.327	5382
362.411	5757
362.495	4400
362.580	2754
362.664	2162
362.748	1233
362.832	2373
362.916	3273
363.000	10270
363.084	39893
363.168	62565
363.252	13740
363.336	7474
363.420	10180
363.503	49226
363.587	50389
363.671	7917
363.755	4696
363.839	7031
363.923	2647
364.007	7121
364.091	8323
364.175	18623
364.258	72076
364.342	31457
364.426	13909
364.510	7721
364.594	10024
364.677	14957
364.761	52920
364.845	34119
364.929	13181
365.013	8158
365.096	8985
365.180	9291
365.264	22806
365.347	73400
365.431	30360
365.515	6389
365.598	2125
365.682	4494
365.766	8753
365.849	9581
365.933	4183
366.017	7328
366.100	4028
366.184	1002
366.267	3389
366.351	1745
366.435	1284
366.518	576
366.602	840
366.685	2025
366.769	2883
366.852	7072
366.936	10035
367.019	4024
367.103	5979
367.186	12539
367.270	3408
367.353	149
367.436	1814
367.520	1128
367.603	2161
367.687	3618
367.770	7290
367.853	4921
367.937	17320
368.020	24727
368.104	4860
368.187	5713
368.270	9103
368.353	7459
368.437	11004
368.520	24915
368.603	14314
368.687	21584
368.770	35139
368.853	8873
368.936	10698
369.020	10406
369.103	3025
369.186	2060
369.269	3076
369.352	5538
369.436	6939
369.519	4668
369.602	1141
369.685	3726
369.768	2927
369.851	3217
369.934	1768
370.018	3231
370.101	5033
370.184	6671
370.267	5540
370.350	9018
370.433	13802
370.516	28594
370.599	28287
370.682	7865
370.765	20115
370.848	26029
370.931	42751
371.014	17458
371.097	3035
371.180	2737
371.263	1580
371.346	708
371.429	2024
371.511	761
371.594	4518
371.677	9164
371.760	12571
371.843	8442
371.926	38325
372.009	74355
372.091	24924
372.174	17937
372.257	39248
372.340	14730
372.423	15840
372.505	18825
372.588	7086
372.671	15734
372.754	41887
372.836	20275
372.919	25525
373.002	44400
373.085	10571
373.167	8183
373.250	18912
373.332	40471
373.415	57469
373.498	99366
373.580	36783
373.663	47804
373.746	57378
373.828	14294
373.911	7323
373.993	10488
374.076	46034
374.159	37372
374.241	14786
374.324	36927
374.406	23487
374.489	33910
374.571	82597
374.654	32041
374.736	19358
374.819	52691
374.901	77019
374.983	69656
375.066	12849
375.148	7460
375.231	38233
375.313	65180
375.395	21823
375.478	4857
375.560	3095
375.643	4281
375.725	18786
375.807	65524
375.890	51981
375.972	21835
376.054	12993
376.136	19849
376.219	8474
376.301	22476
376.383	54857
376.465	20474
376.548	12313
376.630	17932
376.712	48617
376.794	19804
376.877	3137
376.959	419
377.041	3630
377.123	9721
377.205	11732
377.287	1388
377.369	1878
377.452	1918
377.534	1594
377.616	1847
377.698	1051
377.780	863
377.862	2124
377.944	2276
378.026	726
378.108	1761
378.190	949
378.272	2128
378.354	1804
378.436	1229
378.518	5088
378.600	18635
378.682	15156
378.764	26330
378.846	19299
378.928	6536
379.010	7684
379.091	4676
379.173	1508
379.255	1598
379.337	3203
379.419	14425
379.501	37272
379.583	14471
379.664	4134
379.746	8277
379.828	27036
379.910	34877
379.991	28196
380.073	4720
380.155	2400
380.237	2820
380.318	1993
380.400	1191
380.482	6722
380.564	6890
380.645	7545
380.727	6896
380.809	4867
380.890	2567
380.972	725
381.053	2058
381.135	3098
381.217	9075
381.298	26139
381.380	11282
381.461	12720
381.543	51557
381.624	54768
381.706	10229
381.787	6182
381.869	6988
381.951	24216
382.032	75862
382.113	47402
382.195	9687
382.276	8099
382.358	16791
382.439	41505
382.521	50624
382.602	69214
382.684	34042
382.765	61852
382.846	59399
382.928	57378
383.009	31534
383.090	29888
383.172	96938
383.253	124918
383.334	52882
383.416	64313
383.497	32219
383.578	14242
383.659	28094
383.741	95944
383.822	198208
383.903	96585
383.984	47607
384.066	84574
384.147	48331
384.228	10387
384.309	7173
384.390	5040
384.471	3331
384.553	4225
384.634	5625
384.715	6703
384.796	3868
384.877	5660
384.958	23716
385.039	26177
385.120	8900
385.201	5812
385.282	6617
385.363	7477
385.444	4951
385.525	12250
385.606	34754
385.687	28172
385.768	8211
385.849	10595
385.930	41374
386.011	60945
386.092	14719
386.173	4096
386.254	3996
386.335	4735
386.416	5315
386.496	17237
386.577	25675
386.658	10544
386.739	6045
386.820	7244
386.901	4966
386.981	4441
387.062	2024
387.143	6318
387.224	24705
387.304	23016
387.385	8367
387.466	5516
387.547	8701
387.627	3960
387.708	10176
387.789	45155
387.869	49770
387.950	13821
388.031	3011
388.111	2259
388.192	11759
388.273	17706
388.353	8414
388.434	4716
388.514	9960
388.595	41020
388.676	48818
388.756	24927
388.837	23228
388.917	12247
388.998	2200
389.078	3501
389.159	3069
389.239	1126
389.320	5029
389.400	2884
389.480	12192
389.561	26603
389.641	12722
389.722	4846
389.802	7536
389.883	13220
389.963	31134
390.043	19638
390.124	7163
390.204	10616
390.284	28910
390.365	19111
390.445	34464
390.525	73818
390.605	57802
390.686	15468
390.766	6191
390.846	3136
390.927	1632
391.007	1447
391.087	4140
391.167	3586
391.247	1470
391.328	5917
391.408	10208
391.488	6945
391.568	1089
391.648	3009
391.728	4396
391.808	4809
391.888	4643
391.969	15319
392.049	23144
392.129	11985
392.209	13164
392.289	29299
392.369	17919
392.449	19351
392.529	9249
392.609	6433
392.689	9212
392.769	27495
392.849	22518
392.929	19895
393.009	43741
393.089	24002
393.169	11330
393.248	40022
393.328	176888
393.408	174254
393.488	33817
393.568	9265
393.648	5512
393.728	4278
393.807	3235
393.887	5049
393.967	3895
394.047	7248
394.127	10554
394.206	21600
394.286	83004
394.366	269613
394.446	271325
394.525	79303
394.605	22379
394.685	18024
394.764	31688
394.844	49497
394.924	30547
395.003	8892
395.083	5984
395.163	5769
395.242	4177
395.322	5994
395.402	3294
395.481	7886
395.561	22472
395.640	50546
395.720	36353
395.799	59296
395.879	48455
395.958	38324
396.038	124310
396.117	342312
396.197	351593
396.276	136670
396.356	49706
396.435	31280
396.515	17861
396.594	12909
396.673	15955
396.753	54375
396.832	163811
396.912	120521
396.991	29421
397.070	8177
397.150	3623
397.229	3986
397.308	3114
397.388	4601
397.467	3303
397.546	2599
397.625	307
397.705	3980
397.784	3268
397.863	2666
397.942	1287
398.022	3321
398.101	18572
398.180	49984
398.259	24349
398.338	6236
398.417	2791
398.497	1975
398.576	3030
398.655	771
398.734	1214
398.813	2733
398.892	18370
398.971	54188
399.050	23695
399.129	2819
399.208	1163
399.287	2976
399.366	922
399.445	1500
399.524	2465
399.603	402
399.682	3965
399.761	17744
399.840	56792
399.919	41182
399.998	5710
400.077	-133
400.156	683
400.235	3499
400.313	1800
400.392	3497
400.471	14397
400.550	20860
400.629	4345
400.708	3673
400.786	3586
400.865	12908
400.944	12491
401.023	6244
401.102	489
401.180	788
401.259	1157
401.338	1429
401.416	2669
401.495	2004
401.574	2526
401.652	1636
401.731	3604
401.810	1828
401.888	781
401.967	1172
402.046	1605
402.124	3449
402.203	2714
402.281	3127
402.360	5022
402.438	16059
402.517	9766
402.596	4020
402.674	2510
402.753	2087
402.831	1667
402.910	2826
402.988	8939
403.066	27015
403.145	16577
403.223	10956
403.302	22221
403.380	16896
403.459	15596
403.537	5827
403.615	1957
403.694	211
403.772	1319
403.850	801
403.929	742
404.007	1297
404.085	3703
404.164	2906
404.242	2231
404.320	13993
404.398	40475
404.477	43748
404.555	69869
404.633	58687
404.711	32374
404.789	19525
404.868	3733
404.946	1388
405.024	1284
405.102	638
405.180	-66
405.258	-505
405.336	1791
405.415	1264
405.493	4538
405.571	3541
405.649	589
405.727	1171
405.805	2518
405.883	2687
405.961	3552
406.039	3329
406.117	695
406.195	3298
406.273	15806
406.351	53331
406.429	32194
406.507	5925
406.585	1324
406.663	1707
406.740	1623
406.818	1400
406.896	818
406.974	1654
407.052	4121
407.130	32427
407.208	41593
407.285	9383
407.363	405
407.441	1762
407.519	455
407.596	1723
407.674	4371
407.752	12158
407.830	15186
407.907	7557
407.985	1429
408.063	1459
408.141	618
408.218	4286
408.296	2091
408.373	1374
408.451	2106
408.529	1329
408.606	133
408.684	308
408.762	405
408.839	-140
408.917	-397
408.994	841
409.072	-928
409.149	286
409.227	1254
409.304	1017
409.382	477
409.459	-90
409.537	1249
409.614	1053
409.692	937
409.769	196
409.846	195
409.924	3144
410.001	896
410.079	883
410.156	1676
410.233	1965
410.311	645
410.388	705
410.465	1014
410.543	1046
410.620	827
410.697	1409
410.775	1064
410.852	-958
410.929	1649
411.006	2634
411.083	1047
411.161	4869
411.238	6838
411.315	3373
411.392	735
411.469	3158
411.547	3162
411.624	536
411.701	438
411.778	1559
411.855	3008
411.932	1252
412.009	148
412.086	1286
412.163	2145
412.240	1996
412.317	3394
412.394	2652
412.471	1506
412.548	204
412.625	-130
412.702	1551
412.779	3893
412.856	2377
412.933	1006
413.010	625
413.087	3056
413.164	12731
413.241	17051
413.318	3772
413.395	2890
413.471	3520
413.548	1056
413.625	767
413.702	1301
413.779	751
413.855	397
413.932	-185
414.009	-852
414.086	172
414.162	610
414.239	2793
414.316	12938
414.393	26564
414.469	7959
414.546	1102
414.623	191
414.699	769
414.776	923
414.853	150
414.929	890
415.006	349
415.082	1861
415.159	1234
415.236	490
415.312	1346
415.389	2111
415.465	3492
415.542	1510
415.618	-249
415.695	2625
415.771	1350
415.848	903
415.924	1544
416.000	242
416.077	1307
416.153	-760
416.230	-429
416.306	327
416.383	469
416.459	135
416.535	154
416.612	-459
416.688	175
416.764	-159
416.841	-225
416.917	-17
416.993	708
417.069	1581
417.146	3029
417.222	4618
417.298	1499
417.374	7
417.451	1675
417.527	756
417.603	2030
417.679	800
417.755	635
417.831	-892
417.908	-252
417.984	-260
418.060	-94
418.136	2502
418.212	2814
418.288	868
418.364	649
418.440	-269
418.516	2557
418.592	3216
418.668	5438
418.744	6590
418.820	5091
418.896	618
418.972	-547
419.048	-736
419.124	3104
419.200	563
419.276	202
419.352	-1
419.428	958
419.504	-182
419.579	1347
419.655	193
419.731	317
419.807	3672
419.883	8115
419.959	4984
420.034	1626
420.110	3997
420.186	16588
420.262	12083
420.337	2244
420.413	1343
420.489	540
420.565	964
420.640	256
420.716	961
420.792	-1093
420.867	510
420.943	-625
421.019	1051
421.094	610
421.170	-254
421.245	-205
421.321	601
421.397	236
421.472	1887
421.548	3879
421.623	3699
421.699	1259
421.774	606
421.850	495
421.925	1973
422.001	1272
422.076	1189
422.152	1398
422.227	2462
422.302	3570
422.378	3347
422.453	7346
422.529	23290
422.604	91161
422.679	171382
422.755	90569
422.830	20863
422.905	6671
422.981	3315
423.056	1989
423.131	1578
423.207	879
423.282	1589
423.357	4321
423.432	2081
423.508	3025
423.583	5768
423.658	4443
423.733	1262
423.808	2386
423.883	1962
423.959	1216
424.034	-107
424.109	793
424.184	-718
424.259	223
424.334	-216
424.409	-444
424.484	194
424.559	1550
424.634	-244
424.709	-73
424.784	1277
424.859	1361
424.934	1610
425.009	12434
425.084	17862
425.159	5651
425.234	1699
425.309	173
425.384	7037
425.459	10813
425.534	3637
425.609	299
425.683	173
425.758	-404
425.833	476
425.908	1457
425.983	6573
426.058	18187
426.132	7885
426.207	2181
426.282	4274
426.357	1956
426.431	117
426.506	86
426.581	113
426.655	162
426.730	271
426.805	28
426.879	815
426.954	588
427.029	3164
427.103	19645
427.178	44170
427.253	18051
427.327	2332
427.402	5504
427.476	13491
427.551	5905
427.625	2177
427.700	1354
427.774	-598
427.849	1785
427.923	-595
427.998	208
428.072	598
428.147	3451
428.221	9599
428.296	20996
428.370	8313
428.444	2076
428.519	5537
428.593	10704
428.667	9986
428.742	11687
428.816	9476
428.890	21498
428.965	26899
429.039	13671
429.113	12318
429.188	3390
429.262	361
429.336	2662
429.410	8491
429.485	7049
429.559	9327
429.633	6611
429.707	1145
429.781	6297
429.855	27073
429.930	33557
430.004	29586
430.078	53594
430.152	38601
430.226	33116
430.300	28568
430.374	3767
430.448	3258
430.522	19563
430.596	49560
430.670	26478
430.744	35060
430.818	50294
430.892	9732
430.966	775
431.040	1095
431.114	-291
431.188	-707
431.262	593
431.336	-52
431.410	4891
431.484	12682
431.557	6751
431.631	601
431.705	352
431.779	3754
431.853	15769
431.927	9730
432.000	997
432.074	490
432.148	1348
432.222	1005
432.295	-123
432.369	485
432.443	2561
432.516	21126
432.590	44976
432.664	16009
432.737	1712
432.811	-618
432.885	-113
432.958	317
433.032	-3
433.106	-323
433.179	-858
433.253	-374
433.326	-495
433.400	-587
433.473	-205
433.547	-838
433.620	-212
433.694	287
433.767	1655
433.841	-378
433.914	-268
433.988	163
434.061	-317
434.134	-677
434.208	-766
434.281	-1384
434.355	-277
434.428	-458
434.501	-285
434.575	-131
434.648	-394
434.721	-514
434.795	-56
434.868	-1309
434.941	-233
435.014	-323
435.088	-378
435.161	-223
435.234	1554
435.307	1402
435.381	244
435.454	-314
435.527	212
435.600	-306
435.673	-600
435.746	-309
435.819	-524
435.892	-145
435.966	143
436.039	372
436.112	496
436.185	-1054
436.258	-827
436.331	-1401
436.404	-358
436.477	-965
436.550	-506
436.623	379
436.696	-24
436.769	-304
436.842	-334
436.915	96
436.987	610
437.060	-222
437.133	-581
437.206	-1174
437.279	477
437.352	-323
437.425	-15
437.498	9
437.570	1623
437.643	2116
437.716	-608
437.789	-157
437.861	1542
437.934	6603
438.007	1875
438.080	-346
438.152	530
438.225	2693
438.298	27510
438.370	62382
438.443	23256
438.516	5634
438.588	1399
438.661	498
438.734	58
438.806	140
438.879	1664
438.951	1080
439.024	3248
439.096	16
439.169	69
439.241	-965
439.314	-356
439.386	1232
439.459	2141
439.531	3335
439.604	495
439.676	776
439.749	-580
439.821	-736
439.893	-1005
439.966	84
440.038	792
440.110	908
440.183	-500
440.255	-466
440.327	1285
440.400	11339
440.472	41467
440.544	23156
440.617	2305
440.689	2774
440.761	2940
440.833	5311
440.905	2799
440.978	-141
441.050	-903
441.122	153
441.194	-426
441.266	89
441.338	-286
441.411	1539
441.483	12610
441.555	15738
441.627	3191
441.699	2017
441.771	1359
441.843	56
441.915	-798
441.987	-639
442.059	-350
442.131	197
442.203	2383
442.275	1965
442.347	1279
442.419	552
442.491	5122
442.563	11531
442.635	8581
442.706	12444
442.778	8572
442.850	16
442.922	-692
442.994	715
443.066	1274
443.137	1106
443.209	-237
443.281	737
443.353	3314
443.425	10667
443.496	25312
443.568	20288
443.640	6531
443.711	1115
443.783	877
443.855	119
443.926	-383
443.998	761
444.070	1340
444.141	808
444.213	1884
444.285	1674
444.356	1232
444.428	947
444.499	-313
444.571	-601
444.642	-587
444.714	-126
444.785	881
444.857	3589
444.928	8799
445.000	4254
445.071	5014
445.143	5576
445.214	2271
445.285	4167
445.357	15152
445.428	26488
445.500	48557
445.571	29340
445.642	11994
445.714	11271
445.785	14074
445.856	2450
445.928	1803
445.999	1433
446.070	942
446.141	821
446.213	1643
446.284	193
446.355	787
446.426	-50
446.497	714
446.569	1711
446.640	3372
446.711	941
446.782	-272
446.853	667
446.924	591
446.995	35
447.066	1417
447.138	3410
447.209	1393
447.280	-146
447.351	-499
447.422	-348
447.493	1013
447.564	1281
447.635	1041
447.706	-164
447.777	-667
447.847	-7
447.918	-61
447.989	681
448.060	2580
448.131	6152
448.202	4761
448.273	2909
448.344	982
448.414	329
448.485	-45
448.556	211
448.627	-543
448.698	1185
448.768	-1093
448.839	-487
448.910	3064
448.981	1895
449.051	502
449.122	80
449.193	-130
449.263	253
449.334	425
449.405	1238
449.475	2884
449.546	2502
449.616	3678
449.687	3333
449.758	1175
449.828	-65
449.899	47
449.969	-312
450.040	105
450.110	405
450.181	1143
450.251	-510
450.322	17
450.392	642
450.463	584
450.533	-60
450.604	436
450.674	-108
450.744	576
450.815	-337
450.885	250
450.955	-322
451.026	-880
451.096	283
451.166	851
451.237	4251
451.307	10098
451.377	2483
451.447	-143
451.518	161
451.588	-481
451.658	550
451.728	1960
451.799	12245
451.869	11677
451.939	939
452.009	153
452.079	-293
452.149	453
452.219	2794
452.289	13755
452.360	7281
452.430	513
452.500	936
452.570	628
452.640	1633
452.710	7020
452.780	10783
452.850	5344
452.920	3364
452.990	979
453.060	627
453.129	1387
453.199	1555
453.269	18240
453.339	31174
453.409	44160
453.479	51367
453.549	72013
453.619	70968
453.688	22785
453.758	3231
453.828	1213
453.898	380
453.968	972
454.037	303
454.087	-198
454.107	-416
454.168	210
454.177	287
454.247	-817
454.249	-762
454.316	193
454.330	446
454.386	1207
454.411	3285
454.456	6573
454.492	7779
454.525	8872
454.574	3962
454.595	1857
454.655	924
454.665	792
454.734	1015
454.736	1124
454.804	3461
454.817	5319
454.873	12250
454.898	11872
454.943	11184
454.979	6837
455.013	3110
455.060	2078
455.082	1725
455.141	3086
455.152	3258
455.221	9998
455.222	10168
455.291	16857
455.303	16477
455.360	14305
455.384	18567
455.430	24783
455.465	18238
455.499	12475
455.546	11681
455.569	11106
455.627	6034
455.638	5177
455.707	17
455.708	30
455.777	505
455.789	637
455.846	1029
455.869	995
455.916	979
455.950	937
455.985	788
456.031	622
456.054	591
456.112	152
456.124	45
456.193	712
456.193	701
456.262	1310
456.274	1473
456.332	1926
456.355	1649
456.401	951
456.436	734
456.470	549
456.516	195
456.540	41
456.597	-461
456.609	-560
456.678	24
456.678	15
456.747	80
456.759	1
456.817	-245
456.840	-164
456.886	-160
456.920	-24
456.955	312
457.001	500
457.024	576
457.082	1049
457.093	1108
457.162	1644
457.163	1660
457.232	1562
457.243	1463
457.301	809
457.324	325
457.370	-388
457.405	14
457.439	447
457.485	354
457.508	323
457.566	739
457.577	799
457.646	498
457.647	515
457.715	1390
457.727	1454
457.784	1590
457.808	1848
457.853	2451
457.889	2913
457.922	2981
457.969	2388
457.991	2290
458.050	2119
458.060	2110
458.129	3783
458.130	3813
458.198	3050
458.211	2773
458.267	1654
458.292	1107
458.336	900
458.372	1176
458.405	1476
458.453	1942
458.474	2241
458.533	3594
458.543	3758
458.611	5665
458.614	5721
458.680	3752
458.694	3057
458.749	1763
458.775	1519
458.818	1430
458.855	1163
458.887	920
458.936	1192
458.955	1215
459.016	643
459.024	644
459.093	1183
459.097	1200
459.162	937
459.177	1137
459.230	2293
459.257	2539
459.299	2419
459.338	2179
459.368	2046
459.418	2578
459.437	2609
459.499	1568
459.505	1493
459.574	1098
459.579	1122
459.643	1237
459.659	1141
459.711	1174
459.740	1332
459.780	1584
459.820	1649
459.849	1564
459.900	1854
459.917	2007
459.981	2084
459.986	2051
460.054	2029
460.061	2060
460.123	2273
460.141	2183
460.191	2451
460.222	2402
460.260	2234
460.302	2855
460.328	3044
460.382	3040
460.397	3098
460.462	2700
460.465	2747
460.534	4737
460.543	4966
460.602	11177
460.623	13708
460.671	20039
460.703	26515
460.739	23293
460.783	15260
460.808	12946
460.864	4149
460.876	3306
460.944	2474
460.945	2454
461.013	2176
461.024	2034
461.081	1673
461.104	1973
461.150	1958
461.184	1457
461.218	1709
461.264	2100
461.286	2010
461.345	1743
461.355	1770
461.423	2559
461.425	2557
461.491	2442
461.505	2640
461.559	7208
461.585	9094
461.628	12639
461.665	16821
461.696	17624
461.745	20014
461.764	17901
461.825	5077
461.832	4697
461.901	2843
461.905	2824
461.969	2015
461.985	1855
462.037	2831
462.065	3307
462.105	3763
462.145	4336
462.173	6252
462.225	9789
462.241	10475
462.305	14650
462.310	14248
462.378	6706
462.385	5612
462.446	3403
462.465	3235
462.514	3082
462.545	2981
462.582	2908
462.625	2815
462.650	2901
462.705	3163
462.718	3222
462.785	3772
462.786	3812
462.854	5491
462.865	5903
462.922	6369
462.945	6667
462.990	5548
463.025	3676
463.058	3015
463.104	2601
463.126	2498
463.184	2590
463.194	2673
463.262	3256
463.264	3266
463.330	3276
463.344	3310
463.398	4068
463.424	4332
463.466	4068
463.504	4094
463.533	4242
463.583	4199
463.601	4185
463.663	3956
463.669	4067
463.737	5632
463.743	5774
463.805	10684
463.823	12112
463.873	17406
463.903	20884
463.940	20443
463.982	20275
464.008	16202
464.062	5353
464.076	4897
464.142	3320
464.144	3288
464.211	2525
464.221	2463
464.279	4063
464.301	4591
464.347	4464
464.381	4448
464.414	5162
464.461	6323
464.482	6302
464.540	6131
464.550	5989
464.617	4476
464.620	4427
464.685	5219
464.699	5368
464.753	6849
464.779	7705
464.820	8266
464.859	8676
464.888	8537
464.938	8094
464.956	8227
465.018	8871
465.023	8858
465.091	8358
465.098	8292
465.158	7092
465.177	6743
465.226	6940
465.257	7024
465.293	6995
465.336	6876
465.361	7578
465.416	9359
465.428	10296
465.495	15118
465.496	15189
465.563	22587
465.575	23930
465.631	27491
465.654	29066
465.698	18894
465.734	9624
465.765	8509
465.813	7022
465.833	7091
465.893	7685
465.900	7645
465.968	7375
465.972	7325
466.035	7827
466.052	7983
466.102	7778
466.131	7652
466.170	8407
466.210	9135
466.237	9233
466.290	9382
466.304	9503
466.369	9966
466.372	10010
466.439	10852
466.449	10940
466.506	12462
466.528	13043
466.573	17597
466.607	20925
466.641	26894
466.687	35216
466.708	37478
466.766	43768
466.775	40623
466.842	16055
466.845	14867
466.909	12709
466.925	12236
466.977	12368
467.004	12448
467.044	12634
467.083	12780
467.111	13906
467.163	15967
467.178	16006
467.242	16035
467.245	16000
467.312	14748
467.321	14560
467.379	14205
467.400	14038
467.446	14792
467.480	15293
467.559	12524
467.638	11713
467.717	11354
467.796	11798
467.875	11740
467.955	13106
468.034	23564
468.113	39832
468.192	52222
468.271	12570
468.350	9310
468.429	9783
468.508	9212
468.588	8963
468.667	9645
468.746	10997
468.825	9939
468.904	7987
468.983	10939
469.062	15790
469.141	17092
469.220	8446
469.299	8678
469.378	10014
469.456	11415
469.535	11577
469.614	9761
469.693	10747
469.772	13216
469.851	17383
469.930	10802
470.009	9205
470.088	8140
470.166	9942
470.245	9534
470.324	10764
470.403	8394
470.482	8368
470.560	8232
470.639	9241
470.718	8366
470.797	7966
470.875	9885
470.954	14214
471.033	14256
471.111	6795
471.190	7175
471.269	6796
471.347	7421
471.426	8291
471.505	9425
471.583	10285
471.662	8623
471.740	8184
471.819	7365
471.898	7751
471.976	7403
472.055	7593
472.133	8764
472.212	11659
472.290	12154
472.369	8018
472.447	7368
472.526	6555
472.604	7152
472.683	7787
472.761	7312
472.839	7591
472.918	6793
472.996	6985
473.075	8664
473.153	7709
473.231	6441
473.310	8797
473.388	8086
473.466	8544
473.545	8256
473.623	10163
473.701	9445
473.780	8295
473.858	6293
473.936	9913
474.014	7283
474.093	9353
474.171	11929
474.249	18220
474.327	10234
474.405	6968
474.484	7099
474.562	6216
474.640	6054
474.718	7792
474.796	8219
474.874	8731
474.952	6276
475.030	7128
475.108	7701
475.187	10268
475.265	10533
475.343	11246
475.421	10117
475.499	7634
475.577	8300
475.655	11575
475.733	22170
475.811	35187
475.889	29910
475.966	16536
476.044	7603
476.122	8558
476.200	9243
476.278	8203
476.356	6752
476.434	7470
476.512	7697
476.590	9948
476.667	7678
476.745	6012
476.823	6796
476.901	7883
476.979	7713
477.056	7288
477.134	7175
477.212	7690
477.290	6420
477.367	5465
477.445	6246
477.523	5702
477.601	7165
477.678	6405
477.756	8188
477.834	9413
477.911	5573
477.989	6889
478.066	6452
478.144	7284
478.222	7120
478.299	9815
478.377	8596
478.454	5470
478.532	5152
478.609	5836
478.687	5979
478.764	5625
478.842	5802
478.919	6040
478.997	5816
479.074	6527
479.152	7938
479.229	9335
479.307	4538
479.384	4638
479.461	5286
479.539	6665
479.616	6930
479.694	5696
479.771	6553
479.848	7582
479.926	8667
480.003	10908
480.080	5712
480.157	5189
480.235	5177
480.312	6099
480.389	6563
480.467	11628
480.544	12450
480.621	6024
480.698	6063
480.775	7494
480.853	7598
480.930	5828
481.007	5717
481.084	7813
481.161	8743
481.238	7746
481.315	6096
481.392	5065
481.470	5840
481.547	6931
481.624	5057
481.701	6586
481.778	5688
481.855	6867
481.932	12029
482.009	19824
482.086	10818
482.163	5872
482.240	6815
482.317	10750
482.393	7243
482.470	5589
482.547	6012
482.624	5590
482.701	5741
482.778	5466
482.855	4693
482.932	4960
483.009	4771
483.085	5765
483.162	5614
483.239	6612
483.316	4256
483.393	4287
483.469	4637
483.546	7107
483.623	7099
483.699	5421
483.776	5383
483.853	6976
483.930	14501
484.006	32601
484.083	51135
484.160	27785
484.236	40384
484.313	28128
484.389	21286
484.466	19421
484.543	17773
484.619	17998
484.696	19365
484.772	20935
484.849	21604
484.925	17730
485.002	17667
485.078	19662
485.155	18377
485.231	16990
485.308	16078
485.384	18057
485.461	22966
485.537	33242
485.614	34970
485.690	17467
485.766	16073
485.843	16695
485.919	18981
485.995	18606
486.072	14029
486.148	13926
486.224	14179
486.301	15215
486.377	18458
486.453	16609
486.530	17422
486.606	23628
486.682	25474
486.758	29857
486.835	31657
486.911	28410
486.987	41036
487.063	33393
487.139	34824
487.215	25601
487.292	17885
487.368	15900
487.444	16077
487.520	19444
487.596	16104
487.672	20586
487.748	27042
487.824	31472
487.900	19465
487.976	16469
488.052	15912
488.128	20303
488.204	14473
488.280	15325
488.356	21365
488.432	40712
488.508	51507
488.584	16797
488.660	13521
488.736	13939
488.812	15158
488.888	17520
488.964	20918
489.039	35055
489.115	44352
489.191	25728
489.267	14154
489.343	14018
489.418	12396
489.494	11997
489.570	10167
489.646	12864
489.722	11806
489.797	13897
489.873	23610
489.949	44348
490.024	29150
490.100	11850
490.176	12090
490.251	13189
490.327	13953
490.403	10721
490.478	10285
490.554	8788
490.629	10361
490.705	10592
490.781	10204
490.856	10855
490.932	12301
491.007	11547
491.083	11758
491.158	11674
491.234	18203
491.309	33795
491.385	28569
491.460	10677
491.536	12100
491.611	10387
491.686	10729
491.762	14297
491.837	22232
491.913	35510
491.988	48463
492.063	49516
492.139	21144
492.214	14244
492.289	7894
492.365	8576
492.440	9720
492.515	9835
492.590	10131
492.666	8508
492.741	13531
492.816	18100
492.891	9110
492.967	9130
493.042	7555
493.117	8215
493.192	9545
493.267	21957
493.342	58874
493.418	63850
493.493	11117
493.568	7782
493.643	7214
493.718	11323
493.793	14586
493.868	12736
493.943	8860
494.018	7615
494.093	8154
494.168	8824
494.243	6217
494.318	6677
494.393	7152
494.468	6356
494.543	6296
494.618	7888
494.693	7023
494.768	8254
494.842	6113
494.917	7323
494.992	7459
495.067	6880
495.142	6594
495.217	7721
495.292	6756
495.366	8517
495.441	8602
495.516	12771
495.591	17635
495.665	47676
495.740	86306
495.815	31213
495.890	10836
495.964	8252
496.039	12142
496.114	8922
496.188	11627
496.263	10425
496.338	10163
496.412	13107
496.487	14039
496.561	12353
496.636	12861
496.710	12360
496.785	13737
496.860	14877
496.934	12504
497.009	13654
497.083	12483
497.158	14572
497.232	16568
497.307	20363
497.381	18783
497.455	23353
497.530	27902
497.604	23253
497.679	26849
497.753	36901
497.827	44611
497.902	40584
497.976	50103
498.050	117577
498.125	313842
498.199	242051
498.273	53054
498.348	46176
498.422	41566
498.496	38193
498.570	33830
498.645	30584
498.719	27818
498.793	29629
498.867	36118
498.941	51857
499.016	152529
499.090	302722
499.164	77373
499.238	18691
499.312	15824
499.386	17224
499.460	16050
499.534	15336
499.609	19192
499.683	25099
499.757	24700
499.831	72355
499.905	218935
499.979	152651
500.053	27687
500.127	25006
500.201	14966
500.275	12471
500.349	12299
500.422	13004
500.496	18348
500.570	42828
500.644	127550
500.718	195503
500.792	31688
500.866	15139
500.940	17386
501.013	13824
501.087	13331
501.161	20025
501.235	28074
501.309	82188
501.382	197766
501.456	129320
501.530	36286
501.603	57860
501.677	18240
501.751	8906
501.825	13791
501.898	31775
501.972	74831
502.046	34707
502.119	13557
502.193	38622
502.266	77802
502.340	31616
502.413	39846
502.487	65892
502.561	32699
502.634	10443
502.708	8584
502.781	6680
502.855	7506
502.928	5854
503.002	7293
503.075	6377
503.149	6254
503.222	7637
503.295	7990
503.369	10495
503.442	17619
503.516	66632
503.589	136235
503.662	73353
503.736	28116
503.809	63984
503.882	48203
503.956	79304
504.029	51438
504.102	17893
504.175	16611
504.249	8136
504.322	10564
504.395	8868
504.468	6301
504.542	6923
504.615	5015
504.688	5572
504.761	3864
504.834	7999
504.907	6697
504.980	9762
505.053	6148
505.127	6937
505.200	11842
505.273	10893
505.346	6918
505.419	4680
505.492	5280
505.565	4093
505.638	4968
505.711	5149
505.784	3503
505.857	5179
505.930	6769
506.003	4906
506.076	7335
506.149	7994
506.221	8193
506.294	11568
506.367	36643
506.440	101885
506.513	38709
506.586	10543
506.659	5181
506.731	5117
506.804	6492
506.877	7704
506.950	5393
507.022	6027
507.095	6647
507.168	8640
507.241	5536
507.313	4364
507.386	3852
507.459	6734
507.531	3140
507.604	3604
507.677	5364
507.749	2572
507.822	8067
507.894	13562
507.967	15523
508.040	10085
508.112	8625
508.185	8925
508.257	7142
508.330	10701
508.402	7339
508.475	7916
508.547	8448
508.620	9448
508.692	13123
508.765	8874
508.837	5883
508.909	7252
508.982	5370
509.054	7453
509.127	6122
509.199	6009
509.271	4252
509.344	5651
509.416	6243
509.488	6543
509.560	5469
509.633	5849
509.705	6901
509.777	7213
509.849	8659
509.922	6555
509.994	5536
510.066	7641
510.138	7681
510.210	17932
510.283	13833
510.355	11779
510.427	10169
510.499	9084
510.571	8054
510.643	8713
510.715	12478
510.787	8760
510.859	9471
510.931	10146
511.003	11408
511.076	10618
511.148	8486
511.219	9015
511.291	15026
511.363	15071
511.435	8340
511.507	7053
511.579	6961
511.651	8515
511.723	5782
511.795	6751
511.867	7638
511.939	11227
512.010	19099
512.082	13626
512.154	7191
512.226	7921
512.298	13560
512.369	15707
512.441	13140
512.513	11479
512.585	8092
512.656	10094
512.728	9918
512.800	8836
512.871	8496
512.943	8024
513.015	6279
513.086	9432
513.158	8440
513.230	8712
513.301	10029
513.373	10235
513.444	7681
513.516	7140
513.588	6912
513.659	8893
513.731	8780
513.802	7563
513.874	15878
513.945	19613
514.016	8315
514.088	8236
514.159	6371
514.231	11601
514.302	14591
514.374	12599
514.445	10876
514.516	25047
514.588	14109
514.659	13035
514.730	20976
514.802	15684
514.873	14823
514.944	18976
515.016	14225
515.087	13058
515.158	17705
515.229	23943
515.301	18580
515.372	25932
515.443	16899
515.514	12896
515.585	8860
515.656	9739
515.728	8894
515.799	6861
515.870	8259
515.941	7709
516.012	7677
516.083	11981
516.154	10762
516.225	12508
516.296	11879
516.367	10744
516.438	8694
516.509	11223
516.580	17297
516.651	50978
516.722	128689
516.793	50629
516.864	16410
516.935	17460
517.006	17000
517.077	22737
517.148	52656
517.219	159877
517.289	192676
517.360	106724
517.431	31828
517.502	11370
517.573	11892
517.643	12185
517.714	13383
517.785	13386
517.856	11218
517.926	15111
517.997	13734
518.068	13981
518.138	19405
518.209	30803
518.280	126550
518.350	325127
518.421	93268
518.492	17426
518.562	12781
518.633	13024
518.703	9790
518.774	15084
518.845	21569
518.915	18641
518.986	12351
519.056	15343
519.127	23420
519.197	43838
519.268	111487
519.338	54323
519.408	15309
519.479	15039
519.549	10374
519.620	10942
519.690	7602
519.760	8762
519.831	7417
519.901	7661
519.971	7593
520.042	8899
520.112	9132
520.182	9911
520.253	10710
520.323	8704
520.393	12311
520.463	18456
520.534	12063
520.604	26433
520.674	12877
520.744	13500
520.814	27894
520.885	24542
520.955	49579
521.025	131433
521.095	35165
521.165	9766
521.235	7773
521.305	6421
521.375	7739
521.445	7936
521.515	8331
521.585	11509
521.655	7969
521.725	10163
521.795	7969
521.865	5465
521.935	14032
522.005	8661
522.075	6113
522.145	8397
522.215	8473
522.285	12202
522.355	17957
522.424	33582
522.494	23405
522.564	11636
522.634	20725
522.704	46356
522.774	14762
522.843	7295
522.913	7111
522.983	7396
523.053	5284
523.122	7613
523.192	9857
523.262	26117
523.331	18792
523.401	7811
523.471	5681
523.540	6513
523.610	3932
523.680	5736
523.749	5882
523.819	9324
523.888	6634
523.958	4974
524.027	6113
524.097	7120
524.166	5719
524.236	5008
524.305	7846
524.375	5531
524.444	4585
524.514	7647
524.583	5825
524.653	8083
524.722	9199
524.791	4758
524.861	6851
524.930	4705
524.999	5450
525.069	8270
525.138	7267
525.207	8224
525.277	5731
525.346	5757
525.415	6338
525.484	5927
525.554	6437
525.623	7047
525.692	5819
525.761	5596
525.830	5452
525.900	5589
525.969	7991
526.038	10492
526.107	13258
526.176	31949
526.245	20160
526.314	15394
526.383	22134
526.452	21577
526.522	44642
526.591	40778
526.660	20730
526.729	11427
526.797	14767
526.867	41161
526.935	144156
527.004	124151
527.073	41672
527.142	9006
527.211	7134
527.280	7228
527.349	6609
527.418	3311
527.487	5799
527.555	3933
527.624	4527
527.693	3215
527.762	4438
527.831	2143
527.899	4677
527.968	4640
528.037	3476
528.106	6081
528.174	9007
528.243	9116
528.312	12807
528.380	12404
528.449	5347
528.518	5475
528.586	2629
528.655	4631
528.723	3287
528.792	4311
528.861	3011
528.929	3198
528.998	3831
529.066	3215
529.135	3514
529.203	3353
529.272	2601
529.340	4275
529.409	5636
529.477	3913
529.545	5277
529.614	7679
529.682	5771
529.751	8329
529.819	9574
529.887	5156
529.956	4401
530.024	5729
530.092	2165
530.161	4681
530.229	6502
530.297	3959
530.365	4362
530.434	3622
530.502	2624
530.570	3993
530.638	1958
530.707	5711
530.775	5178
530.843	3130
530.911	3711
530.979	3655
531.047	3788
531.115	5706
531.183	4298
531.252	3817
531.320	3373
531.388	3222
531.456	5368
531.524	3358
531.592	4381
531.660	6443
531.728	3105
531.796	4293
531.864	4011
531.932	4305
532.000	3313
532.067	4514
532.135	4420
532.203	6544
532.271	5421
532.339	11127
532.407	20040
532.475	10272
532.542	7834
532.610	7698
532.678	11161
532.746	53082
532.814	86591
532.881	16781
532.949	5241
533.017	5484
533.084	4639
533.152	4710
533.220	4075
533.287	4217
533.355	4028
533.423	5479
533.490	3394
533.558	5322
533.625	4687
533.693	5020
533.761	5213
533.828	5850
533.896	4672
533.963	10848
534.031	12617
534.098	14209
534.166	7615
534.233	5811
534.300	7091
534.368	6759
534.435	5137
534.503	6286
534.570	5398
534.637	4734
534.705	4543
534.772	6109
534.840	7256
534.907	18813
534.974	15763
535.041	6207
535.109	6646
535.176	4207
535.243	4999
535.310	4636
535.378	3852
535.445	4398
535.512	4265
535.579	5410
535.646	3385
535.714	5351
535.781	7190
535.848	6769
535.915	7398
535.982	7870
536.049	6341
536.116	7898
536.183	5613
536.250	5748
536.317	5118
536.384	7309
536.451	7988
536.518	8246
536.585	4665
536.652	9053
536.719	9412
536.786	6099
536.853	6239
536.920	11040
536.987	12127
537.053	14899
537.120	56627
537.187	32721
537.254	5378
537.321	3863
537.388	5773
537.454	3499
537.521	4176
537.588	3565
537.654	7011
537.721	6584
537.788	6830
537.855	4767
537.921	4616
537.988	4547
538.055	5252
538.121	3872
538.188	5584
538.254	8305
538.321	11864
538.388	7643
538.454	4810
538.521	5075
538.587	4219
538.654	4557
538.720	4665
538.787	4993
538.853	4290
538.920	6334
538.986	6505
539.053	4675
539.119	5216
539.185	5719
539.252	6811
539.318	8143
539.385	8220
539.451	5864
539.517	8177
539.583	9183
539.650	20557
539.716	35290
539.782	9534
539.849	5002
539.915	6879
539.981	5794
540.047	6066
540.114	6564
540.180	7262
540.246	5547
540.312	7905
540.378	12362
540.444	11674
540.510	19980
540.576	39100
540.643	10083
540.709	4152
540.775	5660
540.841	4959
540.907	10240
540.973	14238
541.039	9600
541.105	8659
541.171	5814
541.237	4895
541.303	6600
541.369	8021
541.435	9391
541.500	11014
541.566	6020
541.632	4684
541.698	4606
541.764	5275
541.830	4087
541.896	4433
541.961	5728
542.027	4842
542.093	5144
542.159	5418
542.224	6047
542.290	10000
542.356	11749
542.421	11276
542.487	8878
542.553	5593
542.618	8569
542.684	4957
542.750	6038
542.815	8049
542.881	14321
542.947	38648
543.012	20458
543.078	5471
543.143	5439
543.209	6019
543.274	5686
543.340	7069
543.405	17210
543.471	18125
543.536	6232
543.602	6412
543.667	5142
543.732	6478
543.798	6010
543.863	5301
543.928	4581
543.994	4572
544.059	5780
544.124	4713
544.190	5124
544.255	5654
544.320	6549
544.386	5596
544.451	7910
544.516	8472
544.581	9846
544.646	28161
544.712	30442
544.777	8400
544.842	8306
544.907	7787
544.972	6456
545.037	7514
545.102	8428
545.168	7114
545.233	8033
545.298	9987
545.363	10060
545.428	10168
545.493	18640
545.558	27854
545.623	11581
545.688	7338
545.753	8531
545.818	7376
545.883	9287
545.947	7569
546.012	9647
546.077	7981
546.142	8527
546.207	7118
546.272	9440
546.337	7813
546.401	9165
546.466	7862
546.531	7700
546.596	8012
546.661	8298
546.725	8133
546.790	7941
546.855	7419
546.919	6724
546.984	8416
547.049	7614
547.113	10220
547.178	7910
547.243	9481
547.307	10690
547.372	11522
547.436	12284
547.501	8660
547.565	8929
547.630	9985
547.695	10358
547.759	12054
547.823	10048
547.888	8894
547.952	8974
548.017	10237
548.081	11069
548.146	14395
548.210	12646
548.274	8001
548.339	8382
548.403	8843
548.468	8446
548.532	7652
548.596	9157
548.660	8383
548.725	9977
548.789	10260
548.853	12034
548.917	10870
548.982	15598
549.046	12577
549.110	9425
549.174	8561
549.238	7872
549.303	7688
549.367	9653
549.431	7327
549.495	9210
549.559	7695
549.623	9650
549.687	10512
549.751	12900
549.815	9957
549.879	11142
549.943	9276
550.007	11489
550.071	10379
550.135	13136
550.199	10511
550.263	10494
550.327	11733
550.391	14973
550.455	10307
550.519	9578
550.582	12305
550.646	13970
550.710	12237
550.774	11551
550.838	11375
550.901	11351
550.965	11096
551.029	12394
551.093	14898
551.156	20840
551.220	37147
551.284	29409
551.347	19858
551.411	46699
551.475	35985
551.538	13465
551.602	10992
551.666	10114
551.729	9011
551.793	10923
551.856	10795
551.920	11216
551.983	10028
552.047	10686
552.110	9583
552.174	9803
552.237	8865
552.301	10083
552.364	9147
552.428	10596
552.491	9435
552.554	9941
552.618	10187
552.681	10776
552.745	10312
552.808	13901
552.871	14630
552.934	12320
552.998	10571
553.061	11378
553.124	10890
553.187	11320
553.251	11497
553.314	12122
553.377	12763
553.440	25206
553.503	81753
553.567	90210
553.630	15465
553.693	11509
553.756	10334
553.819	9826
553.882	9598
553.945	8967
554.008	8329
554.071	8456
554.134	9271
554.197	8789
554.260	8828
554.323	10203
554.386	9408
554.449	9185
554.512	8826
554.575	8506
554.638	8917
554.701	8899
554.764	8245
554.827	9328
554.889	7749
554.952	7678
555.015	8231
555.078	8625
555.141	7710
555.203	8380
555.266	7843
555.329	9006
555.391	7735
555.454	9115
555.517	7886
555.580	8223
555.642	6718
555.705	7439
555.768	7529
555.830	7568
555.893	7153
555.955	7605
556.018	7248
556.080	7672
556.143	6843
556.206	6960
556.268	7622
556.330	7930
556.393	7503
556.455	8239
556.518	13434
556.580	10300
556.643	7200
556.705	6969
556.767	4977
556.830	8079
556.892	7688
556.955	10219
557.017	7577
557.079	7510
557.142	6996
557.204	8385
557.266	13946
557.328	11141
557.391	6446
557.453	6202
557.515	6306
557.577	7735
557.639	8058
557.701	6620
557.764	5647
557.826	6670
557.888	7530
557.950	7362
558.012	7335
558.074	9958
558.136	14457
558.198	22524
558.260	10533
558.322	7495
558.384	9130
558.446	9865
558.508	9263
558.570	12093
558.632	17622
558.694	21870
558.756	23197
558.818	68707
558.880	112545
558.942	29282
559.003	25928
559.065	12169
559.127	9732
559.189	8277
559.251	9858
559.312	13330
559.374	32087
559.436	73881
559.498	27003
559.559	9172
559.621	8517
559.683	11809
559.744	18762
559.806	44081
559.868	41970
559.929	13270
559.991	11353
560.052	14430
560.114	25358
560.176	15882
560.237	19509
560.299	21284
560.360	9271
560.422	8375
560.483	8352
560.545	8346
560.606	8289
560.667	8255
560.729	7240
560.790	7450
560.852	7729
560.913	7884
560.974	7582
561.036	6903
561.097	7786
561.158	6729
561.220	8219
561.281	7577
561.342	8170
561.403	9037
561.465	11188
561.526	21884
561.587	20253
561.648	9453
561.709	8397
561.771	8025
561.832	8054
561.893	7018
561.954	7310
562.015	8530
562.076	8438
562.137	8932
562.198	8078
562.259	8143
562.320	8496
562.381	8003
562.442	9656
562.503	8978
562.564	7756
562.625	8544
562.686	7649
562.747	8861
562.808	8459
562.869	9431
562.930	11104
562.991	11348
563.051	9091
563.112	8249
563.173	7725
563.234	8552
563.294	7853
563.355	7189
563.416	8614
563.477	8835
563.537	9002
563.598	8336
563.659	9254
563.720	8548
563.780	8521
563.841	8515
563.901	8173
563.962	8897
564.023	8819
564.083	8728
564.144	9081
564.204	9125
564.265	10139
564.325	12282
564.386	21214
564.446	15006
564.507	8835
564.567	9224
564.628	8758
564.688	9129
564.749	8864
564.809	11765
564.869	10747
564.930	9827
564.990	9737
565.050	8675
565.111	9335
565.171	9788
565.231	8745
565.292	10109
565.352	8952
565.412	10286
565.472	9610
565.532	10711
565.593	10259
565.653	10626
565.713	10473
565.773	11382
565.833	11445
565.893	14251
565.953	10348
566.013	11891
566.074	12170
566.134	16518
566.194	22002
566.254	20782
566.314	14856
566.374	14045
566.434	14796
566.494	15006
566.554	13780
566.614	16317
566.673	16166
566.733	17906
566.793	18579
566.853	19980
566.913	19619
566.973	21873
567.033	20444
567.092	20080
567.152	19669
567.212	21431
567.272	22318
567.331	23793
567.391	24421
567.451	27137
567.511	29417
567.570	27699
567.630	22606
567.690	21888
567.749	23710
567.809	25431
567.868	29345
567.928	31750
567.988	37372
568.047	44639
568.107	55722
568.166	79555
568.226	118161
568.285	149511
568.345	134568
568.404	116510
568.464	100306
568.523	93760
568.582	93716
568.642	104383
568.701	129292
568.761	183272
568.820	257764
568.879	252315
568.939	201813
568.998	158386
569.057	124153
569.116	99924
569.176	81289
569.235	66863
569.294	57475
569.353	48345
569.413	43362
569.472	38102
569.531	33692
569.590	29838
569.649	27723
569.708	24818
569.767	23675
569.827	23581
569.886	20438
569.945	18852
570.004	18394
570.063	16349
570.122	16539
570.181	16664
570.240	16985
570.299	15683
570.358	14316
570.417	13186
570.475	13027
570.534	13467
570.593	12245
570.652	13451
570.711	12209
570.770	11066
570.829	12645
570.887	11477
570.946	12011
571.005	10415
571.064	9557
571.122	12233
571.181	10932
571.240	10278
571.299	8955
571.357	10970
571.416	10579
571.475	12335
571.533	10854
571.592	9729
571.650	9838
571.709	9112
571.768	9730
571.826	9898
571.885	8295
571.943	9421
572.002	8416
572.060	9506
572.119	8832
572.177	8859
572.236	8093
572.294	7673
572.352	8102
572.411	8005
572.469	7313
572.528	8680
572.586	7824
572.644	9955
572.703	9227
572.761	8859
572.819	7526
572.877	7315
572.936	7093
572.994	7775
573.052	7163
573.110	8163
573.169	7507
573.227	7140
573.285	7440
573.343	7434
573.401	7049
573.459	8276
573.517	7595
573.576	7788
573.634	8371
573.692	7333
573.750	6664
573.808	7597
573.866	8211
573.924	10617
573.982	8765
574.040	7504
574.098	6821
574.155	7565
574.213	7178
574.271	7388
574.329	8078
574.387	7273
574.445	6652
574.503	7462
574.560	5665
574.618	7378
574.676	5873
574.734	7055
574.792	7145
574.849	7740
574.907	6483
574.965	7085
575.022	5612
575.080	7379
575.138	7338
575.195	6846
575.253	7326
575.311	7198
575.368	6704
575.426	6679
575.483	8154
575.541	7340
575.598	6789
575.656	8532
575.713	6206
575.771	7243
575.828	6176
575.886	7357
575.943	7507
576.001	6875
576.058	8379
576.115	7994
576.173	9192
576.230	9869
576.287	9298
576.345	8949
576.402	7807
576.459	8811
576.517	7599
576.574	8709
576.631	8162
576.688	7892
576.746	8218
576.803	8953
576.860	6896
576.917	8483
576.974	8382
577.031	7567
577.089	7928
577.146	8124
577.203	8552
577.260	8906
577.317	8546
577.374	10434
577.431	7865
577.488	8789
577.545	7804
577.602	8618
577.659	9390
577.716	9252
577.773	9222
577.830	8457
577.886	7951
577.943	8656
578.000	7659
578.057	9092
578.114	9184
578.171	10792
578.227	13147
578.284	11826
578.341	10589
578.398	10341
578.454	10381
578.511	10819
578.568	10914
578.625	9457
578.681	8717
578.738	8278
578.794	8622
578.851	9860
578.908	8277
578.964	9533
579.021	9308
579.077	9472
579.134	8301
579.190	8539
579.247	8076
579.303	8110
579.360	8062
579.416	9338
579.473	8199
579.529	8537
579.586	8829
579.642	8897
579.698	9131
579.755	9693
579.811	9253
579.867	9339
579.924	9522
579.980	10727
580.036	11741
580.093	14338
580.149	17485
580.205	17896
580.261	13792
580.317	12646
580.374	11604
580.430	12804
580.486	11910
580.542	10810
580.598	10309
580.619	10273
580.654	10218
580.692	10190
580.710	10188
580.765	10624
580.767	10646
580.823	10728
580.838	10510
580.879	9949
580.911	10316
580.935	10608
580.984	9547
580.991	9410
581.047	9833
581.057	10233
581.103	12037
581.130	12179
581.159	12332
581.203	12782
581.215	12922
581.270	12550
581.276	12463
581.326	11645
581.349	11349
581.382	10901
581.422	10884
581.438	10898
581.494	10370
581.494	10368
581.550	10699
581.567	10826
581.606	10957
581.640	11344
581.661	11644
581.713	11423
581.717	11406
581.773	10587
581.786	10625
581.829	10724
581.859	10630
581.885	10599
581.932	11361
581.940	11490
581.996	11897
582.004	11757
582.052	10982
582.077	11126
582.107	11316
582.150	11967
582.163	12171
582.219	12805
582.223	12691
582.274	11314
582.296	11897
582.330	12792
582.368	12747
582.386	12842
582.441	13116
582.441	13115
582.497	12814
582.514	12867
582.552	13140
582.587	13294
582.608	13338
582.659	12535
582.663	12475
582.719	12363
582.732	12582
582.774	13337
582.805	13672
582.830	13962
582.877	14050
582.885	14028
582.941	14098
582.950	14105
582.996	14356
583.023	14886
583.052	15721
583.095	16339
583.107	16419
583.162	17769
583.168	17885
583.218	18864
583.240	18215
583.273	17118
583.313	16765
583.328	16670
583.384	16141
583.385	16144
583.439	16148
583.458	16132
583.494	16058
583.531	15526
583.549	15409
583.603	15962
583.605	15972
583.660	16015
583.676	16078
583.715	16306
583.748	16931
583.770	17360
583.820	16723
583.825	16657
583.881	16852
583.893	16909
583.936	17059
583.965	17323
583.991	17538
584.038	17802
584.046	17896
584.101	18823
584.110	18826
584.156	18713
584.183	18688
584.211	18710
584.255	18938
584.266	18945
584.321	19545
584.328	19520
584.376	19776
584.400	20292
584.431	20678
584.472	19670
584.486	19442
584.541	20901
584.545	20937
584.596	21491
584.617	21506
584.651	21799
584.689	22626
584.706	22750
584.761	23213
584.762	23201
584.816	23200
584.834	23458
584.871	23806
584.906	23778
584.926	23854
584.978	25102
584.980	25148
585.035	25555
585.051	25717
585.090	26554
585.123	27156
585.145	27335
585.195	27815
585.200	27948
585.254	28713
585.267	29355
585.309	31594
585.340	32235
585.364	32338
585.412	31864
585.419	31766
585.473	32078
585.484	32134
585.528	33687
585.556	35245
585.583	36910
585.628	41114
585.637	42378
585.692	51584
585.700	52846
585.747	57984
585.772	54839
585.801	47485
585.845	40183
585.856	39348
585.910	38243
585.917	38172
585.965	39017
585.989	39448
586.019	40205
586.061	41049
586.074	41302
586.128	42917
586.133	43000
586.183	44491
586.205	44900
586.237	45500
586.277	46383
586.292	46912
586.346	48342
586.349	48407
586.401	50059
586.421	50631
586.455	51807
586.493	53980
586.509	55774
586.564	61821
586.565	61972
586.618	72504
586.637	73025
586.672	68211
586.709	64462
586.727	63854
586.781	64613
586.781	64687
586.835	66508
586.853	67356
586.889	68925
586.925	70340
586.944	71432
586.996	74807
586.998	75014
587.052	79046
587.068	80050
587.106	82349
587.140	84756
587.161	86540
587.212	90329
587.215	90652
587.269	96226
587.284	97521
587.323	101144
587.356	104122
587.377	106894
587.427	113325
587.431	113878
587.485	119618
587.499	121260
587.539	127624
587.571	132302
587.593	136282
587.643	144379
587.648	145357
587.702	155680
587.715	158034
587.755	167534
587.786	174353
587.810	180874
587.858	194734
587.864	196663
587.917	214096
587.930	218026
587.971	234461
588.001	246385
588.025	257260
588.073	278366
588.079	281757
588.133	310903
588.145	317267
588.187	345956
588.217	365798
588.241	385013
588.288	423539
588.295	430447
588.348	487024
588.360	498866
588.402	553656
588.431	592643
588.456	633194
588.503	711756
588.510	726266
588.564	842615
588.575	866786
588.617	982047
588.646	1060560
588.671	1135167
588.718	1274034
588.725	1292990
588.778	1418265
588.789	1436678
588.832	1403038
588.861	1349343
588.886	1209557
588.932	905944
588.939	888394
588.993	830781
589.004	837810
589.047	1177039
589.075	1378198
589.100	1455474
589.147	1545080
589.154	1537060
589.207	1440769
589.218	1419853
589.261	1359050
589.290	1322745
589.314	1334386
589.361	1360331
589.368	1370289
589.421	1439553
589.433	1448398
589.475	1371514
589.504	1283361
589.528	1153405
589.576	912630
589.582	936159
589.635	1229966
589.647	1282135
589.689	1372041
589.718	1405439
589.742	1321850
589.790	1141258
589.795	1123670
589.849	943479
589.861	901255
589.902	796729
589.932	717971
589.955	673526
590.004	579650
590.009	573945
590.062	501813
590.075	483570
590.115	445175
590.146	414464
590.168	397861
590.218	358776
590.222	357069
590.275	326798
590.289	318100
590.328	299588
590.360	283774
590.381	274762
590.431	251693
590.435	251130
590.488	232786
590.503	227314
590.541	218201
590.574	209192
590.594	204286
590.645	190378
590.647	190366
590.700	178744
590.716	174949
590.753	169023
590.787	162860
590.806	159976
590.859	150615
590.859	150857
590.912	144249
590.930	141699
590.965	137914
591.001	133594
591.018	131821
591.071	125696
591.072	125329
591.124	122078
591.143	120435
591.177	116871
591.214	112537
591.230	112172
591.283	110152
591.285	109788
591.336	105838
591.356	103918
591.389	102286
591.427	99841
591.442	99174
591.495	95773
591.498	95269
591.547	91297
591.569	89218
591.600	88770
591.640	87656
591.653	87373
591.706	85215
591.711	84766
591.759	83287
591.782	82215
591.811	82319
591.853	81877
591.864	81286
591.917	77130
591.924	76353
591.969	75111
591.995	74002
592.022	73400
592.066	71969
592.075	72273
592.127	72979
592.137	72932
592.180	72854
592.208	72354
592.233	70364
592.279	66149
592.285	66187
592.338	65018
592.350	64585
592.390	63837
592.421	62947
592.443	62389
592.491	60658
592.495	60770
592.548	60059
592.562	59702
592.600	59088
592.633	58265
592.653	57989
592.704	56550
592.705	56849
592.775	55476
592.846	54397
592.916	54291
592.987	52765
593.058	52197
593.128	49717
593.199	50058
593.270	47984
593.341	46337
593.411	45817
593.482	46255
593.553	44988
593.623	43268
593.694	43938
593.764	43287
593.835	41576
593.906	41525
593.976	39251
594.047	40434
594.117	42396
594.188	41815
594.258	38569
594.329	36568
594.399	36389
594.470	36631
594.540	34913
594.611	34876
594.681	34064
594.751	34793
594.822	34835
594.892	35254
594.963	33829
595.033	33759
595.103	32803
595.174	35209
595.244	40255
595.314	44987
595.384	32650
595.455	31563
595.525	31256
595.595	31190
595.665	31255
595.736	30178
595.806	30229
595.876	29680
595.946	29444
596.016	27738
596.087	27629
596.157	28135
596.227	29023
596.297	28788
596.367	28961
596.437	30450
596.507	35046
596.577	38360
596.647	30185
596.717	26878
596.787	27316
596.857	27090
596.927	27221
596.997	27340
597.067	27195
597.137	28658
597.207	29196
597.277	26960
597.347	26921
597.417	26629
597.487	27394
597.557	26547
597.626	26823
597.696	28115
597.766	29407
597.836	34911
597.906	26564
597.975	25401
598.045	24140
598.115	24497
598.185	24257
598.254	25850
598.324	26608
598.394	25265
598.464	25997
598.533	24530
598.603	24005
598.672	23791
598.742	23486
598.812	23799
598.881	23631
598.951	24029
599.020	22992
599.090	23600
599.159	23630
599.229	23213
599.299	22280
599.368	22266
599.437	21529
599.507	22568
599.576	23371
599.646	24787
599.715	23850
599.785	22172
599.854	23825
599.924	26016
599.993	24063
600.062	22388
600.132	21974
600.201	22520
600.270	23978
600.340	22538
600.409	21754
600.478	23223
600.547	22575
600.617	22831
600.686	21537
600.755	21505
600.824	21552
600.894	20792
600.963	20694
601.032	20292
601.101	20109
601.170	20438
601.239	20180
601.308	21015
601.378	20548
601.447	21204
601.516	20215
601.585	22085
601.654	20952
601.723	20687
601.792	21922
601.861	22264
601.930	24294
601.999	22045
602.068	20227
602.137	21591
602.206	20910
602.275	21476
602.343	22029
602.412	21395
602.481	20845
602.550	20098
602.619	20349
602.688	21428
602.756	21428
602.825	20034
602.894	20934
602.963	19358
603.032	21204
603.100	20417
603.169	21130
603.238	19880
603.307	20379
603.375	20268
603.444	20183
603.513	20205
603.581	20275
603.650	20133
603.719	18221
603.787	18733
603.856	18816
603.924	19163
603.993	19451
604.061	19245
604.130	19358
604.198	20491
604.267	20524
604.335	19979
604.404	18554
604.472	19680
604.541	20426
604.609	19937
604.678	20426
604.746	19778
604.815	19984
604.883	19492
604.951	20465
605.020	19514
605.088	19179
605.156	19610
605.225	19478
605.293	19140
605.361	18993
605.429	19388
605.498	18368
605.566	19823
605.634	19683
605.702	20122
605.771	20253
605.839	20539
605.907	19777
605.975	19760
606.043	19603
606.111	19061
606.180	20512
606.248	22486
606.316	23015
606.384	20226
606.452	22073
606.520	21140
606.588	19501
606.656	17299
606.724	17738
606.792	16743
606.860	16451
606.928	15464
606.996	15994
607.064	15838
607.132	15497
607.200	15136
607.267	15950
607.335	15292
607.403	16319
607.471	15529
607.539	16166
607.607	16540
607.674	15076
607.742	15431
607.810	15260
607.878	15632
607.946	14219
608.013	15351
608.081	15817
608.149	15240
608.216	14618
608.284	16266
608.352	16580
608.419	16070
608.487	20703
608.555	16467
608.622	15477
608.690	15832
608.757	16282
608.825	15949
608.893	16435
608.960	18279
609.028	20536
609.095	22953
609.163	15611
609.230	14755
609.298	15152
609.365	13844
609.432	15110
609.500	16021
609.567	16779
609.635	17511
609.702	18103
609.769	18749
609.837	18622
609.904	17454
609.971	16083
610.039	20487
610.106	25091
610.173	37925
610.241	78887
610.308	90396
610.375	55341
610.442	23521
610.509	16675
610.577	16510
610.644	16098
610.711	16353
610.778	15783
610.845	15781
610.912	16163
610.980	19479
611.047	23499
611.114	19157
611.181	16370
611.248	14080
611.315	17551
611.382	15633
611.449	16662
611.516	17595
611.583	15537
611.650	15998
611.717	16764
611.784	16123
611.851	16818
611.918	19414
611.984	20483
612.051	27127
612.118	51595
612.185	113106
612.252	77255
612.319	22931
612.386	19290
612.452	18278
612.519	19230
612.586	23986
612.653	19147
612.719	17335
612.786	16540
612.853	14879
612.919	16098
612.986	17038
613.053	14896
613.120	14898
613.186	13141
613.253	16000
613.319	14414
613.386	15012
613.453	15376
613.519	16579
613.586	17871
613.652	22905
613.719	18486
613.785	18682
613.852	16214
613.918	14137
613.985	17387
614.051	21232
614.118	38909
614.184	35439
614.250	16972
614.317	15612
614.383	15235
614.449	14370
614.516	15063
614.582	15444
614.648	14353
614.715	15082
614.781	15132
614.847	16065
614.914	16104
614.980	17209
615.046	17017
615.112	17585
615.179	19385
615.245	24403
615.311	36681
615.377	69469
615.443	85259
615.509	47108
615.575	28600
615.642	23140
615.708	23290
615.774	25107
615.840	28830
615.906	42030
615.972	73467
616.038	149759
616.104	196583
616.170	207921
616.236	156700
616.302	47444
616.368	29908
616.434	24765
616.500	22864
616.565	23145
616.631	23370
616.697	21374
616.763	21850
616.829	25132
616.895	35644
616.961	34787
617.026	23621
617.092	17407
617.158	18572
617.224	15639
617.289	16558
617.355	16522
617.421	15774
617.487	16581
617.552	16387
617.618	14672
617.684	14375
617.749	18455
617.815	15295
617.880	15081
617.946	15500
618.012	16053
618.077	15465
618.143	16084
618.208	16221
618.274	15852
618.339	16100
618.405	14897
618.470	15097
618.536	16081
618.601	17533
618.667	16364
618.732	16295
618.798	15188
618.863	15145
618.928	15821
618.994	15887
619.059	17024
619.124	20078
619.190	16578
619.255	14701
619.320	15308
619.386	15525
619.451	14050
619.516	14934
619.581	14690
619.647	15074
619.712	14541
619.777	15506
619.842	15534
619.907	15905
619.972	15267
620.038	15718
620.103	14501
620.168	14344
620.233	15493
620.298	14621
620.363	14666
620.428	14427
620.493	14559
620.558	15049
620.623	14535
620.688	14309
620.753	14090
620.818	13957
620.883	13959
620.948	14698
621.013	14881
621.078	14428
621.143	13983
621.207	17876
621.272	15944
621.337	16724
621.402	17587
621.467	21546
621.532	22092
621.596	18669
621.661	16883
621.726	16366
621.791	16166
621.855	17208
621.920	18430
621.985	18889
622.049	21060
622.114	18912
622.179	18445
622.243	17832
622.308	17292
622.373	19372
622.437	19278
622.502	17887
622.566	17887
622.631	16867
622.695	18326
622.760	18141
622.824	18389
622.889	18818
622.953	18650
623.018	23612
623.082	22919
623.147	17864
623.211	17815
623.276	17929
623.340	16386
623.404	16555
623.469	17300
623.533	17498
623.597	16266
623.662	16620
623.726	16386
623.790	15429
623.854	16222
623.919	16251
623.983	16063
624.047	16881
624.111	15125
624.176	15922
624.240	16218
624.304	19710
624.368	15639
624.432	15993
624.496	16539
624.560	16994
624.625	17073
624.689	16598
624.753	14900
624.817	15758
624.881	15113
624.945	15634
625.009	15365
625.073	15322
625.137	15620
625.201	18203
625.265	17496
625.329	15525
625.393	15928
625.456	15191
625.520	16030
625.584	17345
625.648	20633
625.712	30481
625.776	63527
625.839	71181
625.903	29141
625.967	17205
626.031	28898
626.095	40793
626.158	18526
626.222	12687
626.286	14743
626.349	13068
626.413	11901
626.477	14707
626.540	12646
626.604	12376
626.668	14036
626.731	13355
626.795	13207
626.858	13005
626.922	12651
626.986	12387
627.049	11838
627.113	12941
627.176	11700
627.240	12026
627.303	12492
627.366	12434
627.430	13163
627.493	12050
627.557	12777
627.620	13495
627.684	12128
627.747	13238
627.810	11032
627.874	11954
627.937	10660
628.000	13109
628.064	11909
628.127	9119
628.190	11611
628.253	12603
628.317	11016
628.380	10984
628.443	11335
628.506	11060
628.569	10977
628.632	10490
628.696	10205
628.759	9916
628.822	9455
628.885	9984
628.948	10169
629.011	11800
629.074	10026
629.137	8471
629.200	9731
629.263	11834
629.326	8500
629.389	9621
629.452	10557
629.515	10569
629.578	10032
629.641	10464
629.704	9239
629.767	10569
629.830	10320
629.892	9798
629.955	8363
630.018	12087
630.081	8999
630.144	11671
630.207	8685
630.269	11973
630.332	10273
630.395	10345
630.458	9892
630.520	7944
630.583	9439
630.646	9516
630.708	9089
630.771	8840
630.834	9743
630.896	8861
630.959	8845
631.021	8737
631.084	9454
631.146	10721
631.209	10976
631.272	8561
631.334	9044
631.397	7775
631.459	7373
631.522	7840
631.584	8496
631.646	8902
631.709	9210
631.771	10490
631.834	9309
631.896	8529
631.958	7512
632.021	9564
632.083	8185
632.145	8661
632.208	8113
632.270	9006
632.332	7445
632.395	6382
632.457	9157
632.519	7166
632.581	9405
632.643	7477
632.706	7985
632.768	7751
632.830	8630
632.892	7810
632.954	6923
633.016	8587
633.078	7072
633.141	7598
633.203	7701
633.265	8383
633.327	7912
633.389	7385
633.451	8968
633.513	9121
633.575	9789
633.637	8797
633.698	7414
633.760	8685
633.822	7925
633.884	8287
633.946	7625
634.008	6936
634.070	7839
634.132	9688
634.193	7673
634.255	7715
634.317	7272
634.379	8141
634.441	7286
634.502	7353
634.564	8232
634.626	7733
634.687	7722
634.749	7464
634.811	7143
634.873	6753
634.934	7414
634.996	6883
635.057	6661
635.119	6060
635.181	7108
635.242	7553
635.304	5792
635.365	8789
635.427	6042
635.488	6729
635.550	6921
635.611	7544
635.673	5284
635.734	8086
635.796	7041
635.857	8415
635.918	5779
635.980	8667
636.041	6231
636.102	7786
636.164	7106
636.225	8113
636.286	5150
636.348	7038
636.409	6824
636.470	5942
636.531	7559
636.593	7772
636.654	7664
636.715	6945
636.776	5517
636.838	5633
636.899	6600
636.960	6214
637.021	5269
637.082	5361
637.143	6455
637.204	5405
637.265	4893
637.326	6198
637.387	6160
637.448	5029
637.509	6667
637.570	6088
637.631	6918
637.692	4286
637.753	5333
637.814	6674
637.875	6081
637.936	6824
637.997	5668
638.058	6008
638.119	7553
638.179	5631
638.240	5643
638.301	5027
638.362	4580
638.423	6077
638.483	7471
638.544	4158
638.605	6168
638.666	5515
638.726	5379
638.787	6464
638.848	5249
638.908	5140
638.969	6467
639.030	5641
639.090	4223
639.151	5268
639.211	6525
639.272	7285
639.332	10554
639.393	6201
639.453	5137
639.514	5137
639.574	4959
639.635	5026
639.695	5909
639.756	4398
639.816	5528
639.877	6426
639.937	8037
639.997	10362
640.058	5231
640.118	4062
640.178	5504
640.239	4585
640.299	4881
640.359	4806
640.420	5363
640.480	5929
640.540	3920
640.600	4356
640.661	4926
640.721	4686
640.781	6442
640.841	4215
640.901	6098
640.961	4985
641.021	5176
641.082	4679
641.142	7008
641.202	6385
641.262	3417
641.322	4898
641.382	3483
641.442	5105
641.502	5282
641.562	4836
641.622	4705
641.682	4970
641.742	4472
641.802	5264
641.861	5878
641.921	4135
641.981	5509
642.041	6236
642.101	6410
642.161	4155
642.221	3482
642.280	4985
642.340	3831
642.400	3773
642.460	5447
642.519	4975
642.579	4016
642.639	5378
642.698	1928
642.758	6564
642.818	4346
642.877	3713
642.937	4742
642.997	6606
643.056	6368
643.116	3641
643.175	6354
643.235	4553
643.294	3965
643.354	4812
643.414	4509
643.473	5972
643.532	4768
643.592	6061
643.651	7746
643.711	12911
643.770	22788
643.830	51586
643.889	106777
643.948	25219
644.008	6749
644.067	4356
644.126	3452
644.186	4499
644.245	4904
644.304	3082
644.363	6621
644.423	3015
644.482	3642
644.541	3949
644.600	2192
644.659	4988
644.719	4360
644.778	5965
644.837	6690
644.896	10786
644.955	20256
645.014	9317
645.073	5445
645.132	4494
645.191	5072
645.250	3275
645.309	5107
645.368	4019
645.427	5055
645.486	4000
645.545	7080
645.604	4208
645.663	3652
645.722	4193
645.781	4396
645.840	3634
645.898	3731
645.957	6370
646.016	5559
646.075	11155
646.134	19638
646.192	48290
646.251	68349
646.310	11469
646.369	4967
646.427	5174
646.486	3293
646.545	4174
646.603	3459
646.662	3889
646.721	3662
646.779	2459
646.838	2147
646.896	4935
646.955	4258
647.014	5273
647.072	6162
647.131	13436
647.189	7134
647.248	3530
647.306	3655
647.365	3332
647.423	1430
647.481	4611
647.540	2096
647.598	3695
647.657	2831
647.715	4683
647.773	2608
647.832	4527
647.890	1201
647.948	2770
648.007	4276
648.065	2614
648.123	2760
648.181	5061
648.240	5537
648.298	2968
648.356	2799
648.414	3628
648.472	3965
648.531	3034
648.589	3749
648.647	2834
648.705	3332
648.763	3298
648.821	3346
648.879	2993
648.937	2712
648.995	4053
649.053	2717
649.111	4410
649.169	6168
649.227	8978
649.285	14047
649.343	37575
649.401	20570
649.459	12199
649.516	9847
649.574	6050
649.632	15430
649.690	16545
649.748	7985
649.806	7899
649.863	13733
649.921	10851
649.979	6960
650.037	3573
650.094	1132
650.152	3415
650.210	2072
650.268	3341
650.325	3220
650.383	2934
650.440	2303
650.498	3521
650.556	2977
650.613	2557
650.671	3208
650.728	3258
650.786	3728
650.843	2586
650.901	893
650.958	3692
651.016	3271
651.073	3051
651.131	2632
651.188	2556
651.246	2893
651.303	1748
651.360	3027
651.418	2811
651.475	2769
651.532	1901
651.590	3073
651.647	2314
651.704	2332
651.762	2389
651.819	3205
651.876	1642
651.933	2237
651.990	2831
652.048	1821
652.105	2412
652.162	2469
652.219	1896
652.276	3229
652.333	3492
652.390	1636
652.448	3115
652.505	3144
652.562	2600
652.619	2913
652.676	6226
652.733	5259
652.790	2602
652.847	332
652.904	2609
652.961	1401
653.017	2130
653.074	2463
653.131	3078
653.188	1380
653.245	2670
653.302	2257
653.359	2215
653.415	2094
653.472	2501
653.529	2325
653.586	863
653.642	1784
653.699	2750
653.756	1592
653.813	1624
653.869	2970
653.926	2024
653.983	1589
654.039	2905
654.096	2282
654.152	3782
654.209	1519
654.266	2856
654.322	2084
654.379	2821
654.435	3544
654.492	2837
654.548	2731
654.605	5875
654.661	3978
654.717	1580
654.774	2714
654.830	2663
654.887	2637
654.943	2329
655.000	2473
655.056	1802
655.112	2484
655.168	1922
655.225	3129
655.281	3735
655.337	3356
655.394	6259
655.450	3796
655.506	3840
655.562	6380
655.618	6030
655.675	1682
655.731	2977
655.787	2050
655.843	3225
655.899	1921
655.955	2439
656.011	1741
656.067	1123
656.123	2659
656.179	2205
656.235	3444
656.291	535
656.347	2693
656.403	1017
656.459	2129
656.515	3063
656.571	2304
656.627	2164
656.683	2517
656.739	2556
656.795	2265
656.850	2060
656.906	2310
656.962	3409
657.018	892
657.074	2025
657.129	2634
657.185	1827
657.241	3106
657.297	1792
657.352	2566
657.408	2482
657.464	3079
657.519	2584
657.575	1842
657.630	1807
657.686	1606
657.742	1166
657.797	1627
657.853	1417
657.908	2006
657.964	1382
658.019	1809
658.075	3035
658.130	2344
658.186	912
658.241	2494
658.297	793
658.352	1705
658.407	1813
658.463	1649
658.518	1490
658.573	1849
658.629	2090
658.684	1787
658.739	1800
658.795	954
658.850	1720
658.905	1660
658.960	2098
659.016	1242
659.071	1669
659.126	2174
659.181	1583
659.236	4382
659.291	4379
659.346	2246
659.401	3329
659.457	3637
659.512	4073
659.567	3145
659.622	2485
659.677	1194
659.732	1269
659.787	2268
659.842	2377
659.897	3409
659.952	2251
660.007	1440
660.061	1521
660.116	1718
660.171	1370
660.226	1322
660.281	2635
660.336	1424
660.391	2263
660.445	687
660.500	2335
660.555	1889
660.610	2049
660.664	1660
660.719	1925
660.774	1966
660.828	1728
660.883	2251
660.938	2420
660.992	765
661.047	1913
661.101	1324
661.156	1483
661.211	1117
661.265	1752
661.320	2057
661.374	1712
661.429	1641
661.483	2345
661.538	1272
661.592	1905
661.647	2300
661.701	2349
661.755	1790
661.810	1778
661.864	1347
661.919	1306
661.973	2907
662.027	1464
662.081	910
662.136	1934
662.190	2231
662.244	2762
662.299	1468
662.353	2190
662.407	2098
662.461	1842
662.515	2028
662.569	1121
662.624	2613
662.678	1552
662.732	1462
662.786	2098
662.840	2047
662.894	2207
662.948	1331
663.002	1864
663.056	1672
663.110	1478
663.164	2025
663.218	1057
663.272	1128
663.326	1221
663.380	1723
663.434	1240
663.488	1586
663.542	1815
663.595	1468
663.649	1590
663.703	1924
663.757	2657
663.811	1557
663.864	2038
663.918	1733
663.972	1209
664.026	1649
664.079	1207
664.133	1955
664.187	1477
664.240	2113
664.294	1697
664.348	2083
664.401	1673
664.455	1544
664.508	1420
664.562	1640
664.615	1454
664.669	1481
664.722	1948
664.776	1266
664.829	2400
664.883	1857
664.936	1337
664.990	1237
665.043	2738
665.097	1664
665.150	2810
665.203	1097
665.257	2398
665.310	2260
665.363	1714
665.417	2740
665.470	1594
665.523	2286
665.576	1468
665.630	1779
665.683	1287
665.736	2449
665.789	1330
665.842	1117
665.895	2182
665.949	2008
666.002	2047
666.055	1583
666.108	1857
666.161	2317
666.214	3093
666.267	2149
666.320	2373
666.373	1669
666.426	2002
666.479	2526
666.532	2201
666.585	2480
666.638	2444
666.691	1968
666.744	2786
666.796	1429
666.849	1531
666.902	2027
666.955	679
667.008	1570
667.060	1511
667.113	1252
667.166	1164
667.219	2083
667.271	1079
667.324	1338
667.377	2586
667.430	2134
667.482	2226
667.535	2250
667.587	2373
667.640	1185
667.693	2124
667.745	3140
667.798	3838
667.850	2511
667.903	2174
667.955	1369
668.008	1711
668.060	3103
668.113	2216
668.165	2021
668.218	1152
668.270	1573
668.322	2610
668.375	1918
668.427	1565
668.479	1618
668.532	1913
668.584	1747
668.636	2298
668.689	2444
668.741	1543
668.793	2147
668.845	1348
668.898	2043
668.950	2419
669.002	1947
669.054	1978
669.106	1583
669.158	1822
669.211	2239
669.263	2803
669.315	2820
669.367	3249
669.419	2483
669.471	3159
669.523	2850
669.575	4760
669.627	2628
669.679	2471
669.731	2464
669.783	2462
669.835	2895
669.886	3076
669.938	1759
669.990	2732
670.042	2300
670.094	3392
670.146	2725
670.197	3695
670.249	4276
670.301	5385
670.353	8493
670.404	11358
670.456	17424
670.508	27236
670.560	45216
670.611	77757
670.663	138249
670.715	313927
670.766	449305
670.818	150559
670.869	29494
670.921	15436
670.972	9564
671.024	7592
671.075	6217
671.127	4403
671.178	3606
671.230	3843
671.281	3061
671.333	3139
671.384	2322
671.436	3086
671.487	3580
671.538	2782
671.590	2631
671.641	3313
671.692	4760
671.744	6345
671.795	6159
671.846	3379
671.897	2126
671.949	2498
672.000	2055
672.051	2253
672.102	2813
672.153	1930
672.204	2241
672.256	1807
672.307	1190
672.358	2182
672.409	1918
672.460	2315
672.511	1831
672.562	1713
672.613	1731
672.664	1194
672.715	1747
672.766	2457
672.817	2108
672.868	1876
672.919	1726
672.970	2025
673.021	1227
673.071	1485
673.122	1980
673.173	1685
673.224	1649
673.275	2309
673.326	1050
673.376	2208
673.427	696
673.478	735
673.528	1587
673.579	1685
673.630	927
673.680	2401
673.731	410
673.782	875
673.832	1906
673.883	1968
673.934	1168
673.984	1329
674.035	1471
674.085	1997
674.136	1037
674.186	1947
674.237	1349
674.287	3690
674.338	2778
674.388	1173
674.438	491
674.489	1043
674.539	1513
674.589	1187
674.640	1447
674.690	659
674.740	1380
674.791	2026
674.841	1099
674.891	1964
674.942	981
674.992	1096
675.042	867
675.092	1217
675.142	997
675.193	537
675.243	1366
675.293	1634
675.343	2322
675.393	1189
675.443	1563
675.493	1022
675.543	265
675.593	1045
675.643	870
675.693	1714
675.743	1460
675.793	1516
675.843	839
675.893	993
675.943	1470
675.993	1820
676.043	1591
676.093	967
676.142	1491
676.192	1556
676.242	1121
676.292	734
676.341	733
676.391	1073
676.441	1005
676.491	579
676.540	647
676.590	1002
676.640	744
676.689	376
676.739	656
676.789	867
676.838	635
676.888	1308
676.937	1095
676.987	757
677.037	792
677.086	785
677.136	840
677.185	1023
677.235	899
677.284	889
677.333	-186
677.383	-65
677.432	149
677.482	464
677.531	765
677.580	1070
677.630	780
677.679	65
677.728	169
677.778	425
677.827	108
677.876	1309
677.925	427
677.975	782
678.024	194
678.073	122
678.122	332
678.171	884
678.220	1211
678.269	1587
678.319	1314
678.368	723
678.417	1525
678.466	1226
678.515	898
678.564	1304
678.613	938
678.662	187
678.711	1036
678.760	604
678.809	527
678.857	1153
678.906	753
678.955	956
679.004	786
679.053	464
679.102	841
679.151	477
679.199	394
679.248	1044
679.297	31
679.346	675
679.394	570
679.443	550
679.492	1708
679.540	522
679.589	337
679.638	1267
679.686	252
679.735	1169
679.784	822
679.832	1054
679.881	1028
679.929	453
679.978	373
680.026	-121
680.075	735
680.123	825
680.172	101
680.220	47
680.268	898
680.317	261
680.365	384
680.414	789
680.462	-88
680.510	391
680.559	569
680.607	452
680.655	441
680.703	1007
680.752	510
680.800	-442
680.848	1079
680.896	738
680.945	661
680.993	169
681.041	779
681.089	879
681.137	426
681.185	90
681.233	180
681.258	255
681.281	306
681.329	-11
681.377	479
681.380	528
681.425	1044
681.473	1465
681.502	850
681.521	382
681.569	1300
681.617	763
681.624	780
681.665	755
681.713	924
681.745	666
681.761	507
681.809	508
681.857	1134
681.867	1108
681.904	932
681.952	700
681.989	428
682.000	327
682.048	1267
682.096	389
682.111	777
682.143	1513
682.191	660
682.233	1524
682.239	1639
682.286	1061
682.334	1119
682.354	996
682.382	765
682.430	1330
682.476	1067
682.477	1045
682.525	1207
682.572	852
682.598	1137
682.620	1355
682.667	1609
682.715	1165
682.720	1239
682.763	1716
682.810	1402
682.841	1376
682.857	1341
682.905	1211
682.952	1659
682.963	1684
683.000	1710
683.047	1836
683.085	2538
683.095	2706
683.142	1776
683.190	2435
683.206	2060
683.237	1332
683.284	2415
683.328	2151
683.332	2115
683.379	2214
683.426	1766
683.449	1960
683.473	2113
683.521	2058
683.568	2293
683.571	2279
683.615	1887
683.662	2186
683.693	2028
683.709	1916
683.757	2126
683.804	2012
683.814	2062
683.851	2191
683.898	2698
683.936	2152
683.945	2016
683.992	3177
684.039	2981
684.057	2786
684.086	2396
684.133	2386
684.179	2511
684.180	2501
684.227	3109
684.274	2381
684.300	2586
684.321	2731
684.368	2796
684.415	2358
684.422	2369
684.462	2503
684.509	2822
684.543	3017
684.556	3032
684.603	2751
684.649	3072
684.665	2957
684.696	2786
684.743	2904
684.786	3362
684.790	3383
684.837	2751
684.883	2827
684.908	3089
684.930	3366
684.977	3422
685.023	3252
685.029	3338
685.070	3705
685.117	3167
685.150	3185
685.164	3261
685.210	3925
685.257	4443
685.272	4175
685.303	3389
685.350	3760
685.393	3592
685.396	3587
685.443	3830
685.490	4315
685.514	4223
685.536	4057
685.583	4167
685.629	3470
685.636	3595
685.675	4378
685.722	4120
685.757	3996
685.768	3921
685.815	3602
685.861	4672
685.878	4425
685.908	4138
685.954	3529
686.000	4932
686.000	4945
686.047	4079
686.093	4665
686.121	4464
686.139	4383
686.185	4389
686.232	4541
686.242	4531
686.278	4382
686.324	4552
686.363	4015
686.370	3933
686.416	4451
686.463	4824
686.484	4846
686.509	4897
686.555	4679
686.601	5010
686.606	5008
686.647	4789
686.693	4493
686.727	4411
686.739	4404
686.785	4457
686.831	4762
686.848	4707
686.877	4592
686.923	4726
686.969	4532
686.969	4529
687.015	4635
687.061	4627
687.090	4691
687.107	4713
687.153	4540
687.199	4647
687.211	4672
687.245	4896
687.291	4867
687.332	5403
687.336	5451
687.382	4832
687.428	4932
687.453	5469
687.474	5689
687.520	5088
687.565	4371
687.574	4355
687.611	4884
687.657	5168
687.695	5598
687.702	5645
687.748	5679
687.794	5775
687.816	5703
687.839	5473
687.885	5629
687.931	5719
687.937	5629
687.976	5206
688.022	5055
688.058	5723
688.067	5911
688.113	5707
688.158	5250
688.179	5103
688.204	4944
688.249	5713
688.295	5780
688.300	5701
688.340	5281
688.386	5914
688.421	5858
688.431	5775
688.477	5400
688.522	5696
688.542	5578
688.567	5626
688.613	5882
688.658	6144
688.663	6113
688.703	5743
688.749	6226
688.784	5929
688.794	5860
688.839	6244
688.884	6278
688.905	6220
688.930	6120
688.975	5923
689.020	6048
689.026	5996
689.065	5999
689.110	6156
689.146	6419
689.155	6377
689.201	6342
689.246	6096
689.267	6023
689.291	6253
689.336	5892
689.381	6708
689.388	6713
689.426	6328
689.471	6247
689.509	5764
689.516	5757
689.561	6025
689.606	6378
689.630	6355
689.651	6272
689.696	6435
689.741	6519
689.750	6481
689.785	6298
689.830	6313
689.871	6208
689.875	6216
689.920	6159
689.965	5958
689.992	6010
690.010	6137
690.054	6418
690.099	6817
690.112	6805
690.144	6578
690.189	6463
690.233	6198
690.233	6209
690.278	6633
690.323	7121
690.354	7135
690.367	7058
690.412	7376
690.457	7074
690.474	7295
690.501	7781
690.546	7383
690.590	7777
690.595	7752
690.635	7825
690.680	8544
690.716	8765
690.724	8948
690.769	10189
690.813	11617
690.836	11887
690.857	12887
690.902	15461
690.946	18574
690.957	19328
690.991	26060
691.035	35660
691.077	44421
691.080	44437
691.124	40745
691.168	37677
691.198	35568
691.213	33040
691.257	25995
691.301	18514
691.318	15888
691.346	14752
691.390	12427
691.434	10591
691.439	10321
691.478	9947
691.522	9851
691.559	9454
691.567	9373
691.611	9117
691.655	8583
691.680	8246
691.699	8151
691.743	8271
691.787	7906
691.800	7834
691.831	7948
691.875	8350
691.919	8370
691.921	8358
691.964	8228
692.008	8455
692.041	8233
692.052	8256
692.096	8508
692.139	8602
692.162	8790
692.183	8888
692.227	8477
692.271	8658
692.282	8663
692.315	8709
692.359	8622
692.402	8284
692.403	8300
692.447	8269
692.490	8503
692.523	8189
692.534	8176
692.578	8587
692.622	8515
692.643	8844
692.666	9033
692.709	8868
692.753	8841
692.763	8776
692.797	8830
692.840	8861
692.884	9164
692.884	9185
692.928	8944
692.971	9251
693.004	9010
693.015	8982
693.059	8879
693.102	9171
693.124	8991
693.146	8984
693.189	9203
693.233	9701
693.245	9717
693.276	9910
693.320	10571
693.363	10879
693.365	10865
693.407	11780
693.450	12963
693.485	13840
693.493	14324
693.537	16841
693.580	18984
693.605	20318
693.624	23148
693.667	30007
693.710	36898
693.725	39451
693.753	52336
693.797	72630
693.840	93530
693.845	95521
693.883	89393
693.926	82092
693.966	75942
693.970	74354
694.013	56982
694.056	39514
694.086	27386
694.099	26226
694.142	22464
694.185	18899
694.206	17044
694.229	16176
694.272	14500
694.315	13002
694.326	12523
694.358	12178
694.401	12105
694.444	11683
694.446	11633
694.487	11086
694.530	10423
694.566	10011
694.573	10003
694.616	9702
694.659	9477
694.686	9342
694.702	9346
694.745	8997
694.787	9160
694.806	9009
694.830	9120
694.873	9329
694.916	9669
694.926	9708
694.959	9541
695.002	9461
695.044	8878
695.046	8853
695.087	9424
695.130	9800
695.166	9993
695.172	9933
695.215	9482
695.258	8907
695.286	8508
695.301	8731
695.343	9342
695.386	10119
695.406	10347
695.428	9964
695.471	9163
695.514	8652
695.526	8409
695.556	8720
695.599	9273
695.641	9851
695.646	9876
695.684	9586
695.726	9252
695.766	8884
695.769	8917
695.811	9195
695.854	9204
695.886	9392
695.896	9314
695.938	8685
695.981	8085
696.005	7769
696.023	8087
696.065	8817
696.108	9468
696.125	9717
696.150	9659
696.192	9468
696.235	9346
696.245	9324
696.277	9793
696.319	10168
696.361	10558
696.365	10556
696.404	10387
696.446	10402
696.485	10308
696.488	10343
696.530	10307
696.572	10382
696.604	10398
696.614	10392
696.656	10288
696.698	10028
696.724	9945
696.740	9875
696.783	9606
696.825	9304
696.844	9081
696.867	9229
696.909	9612
696.951	9862
696.964	9942
696.992	9873
697.034	9745
697.076	9460
697.083	9417
697.118	9507
697.160	9589
697.202	9516
697.203	9488
697.244	9700
697.286	9914
697.323	9955
697.327	9955
697.369	9794
697.411	9558
697.442	9373
697.453	9462
697.494	9798
697.536	10059
697.562	10206
697.578	10078
697.620	9632
697.661	9165
697.682	8941
697.703	9232
697.744	9767
697.786	10245
697.801	10394
697.828	10304
697.869	10078
697.911	9853
697.921	9789
697.952	9693
697.994	9463
698.035	9240
698.040	9182
698.077	9170
698.118	9188
698.160	9144
698.160	9116
698.201	9493
698.243	9779
698.279	10026
698.284	10060
698.325	10116
698.367	10150
698.399	10116
698.408	10093
698.449	9890
698.491	9702
698.518	9518
698.532	9545
698.573	9573
698.614	9585
698.638	9552
698.656	9677
698.697	9917
698.738	10174
698.757	10256
698.779	10185
698.820	10006
698.862	9815
698.877	9721
698.903	10130
698.944	10727
698.985	11330
698.996	11466
699.026	11223
699.067	10845
699.116	10366
699.235	10537
699.354	9583
699.474	10304
699.593	9779
699.713	10702
699.832	10277
699.951	11588
700.070	10194
700.190	9585
700.309	9808
700.428	10932
700.547	9925
700.667	9828
700.786	9990
700.905	10016
701.024	9359
701.143	9727
701.262	9371
701.381	9506
701.500	9182
701.619	8988
701.738	9412
701.857	9269
701.976	9806
702.095	9464
702.214	8975
702.333	9767
702.452	9082
702.571	10263
702.690	9303
702.809	9132
702.928	8833
703.047	8722
703.165	8725
703.284	8716
703.403	8135
703.522	10473
703.640	9470
703.759	11079
703.878	10528
703.997	8759
704.115	8574
704.234	8081
704.353	8031
704.471	8299
704.590	7651
704.708	8394
704.827	9033
704.946	8319
705.064	8211
705.183	9114
705.301	10239
705.420	14456
705.538	11123
705.656	11057
705.775	10902
705.893	17693
706.012	18974
706.130	11644
706.249	11559
706.367	11634
706.485	9852
706.604	10083
706.722	10320
706.840	11905
706.958	12717
707.077	9567
707.195	10093
707.313	10417
707.431	10681
707.549	10106
707.668	9396
707.786	10585
707.904	9341
708.022	9697
708.140	8982
708.258	10112
708.376	10047
708.494	9236
708.612	10772
708.730	14312
708.848	13121
708.966	12584
709.084	10765
709.202	12272
709.320	11385
709.438	12139
709.556	11431
709.674	11869
709.791	11057
709.909	10868
710.027	12071
710.145	12077
710.263	10982
710.380	11186
710.498	10494
710.616	10775
710.733	10174
710.851	9303
710.969	11759
711.086	10772
711.204	10563
711.322	10713
711.439	9994
711.557	10566
711.674	10056
711.792	11133
711.909	11328
712.027	12148
712.144	9528
712.262	10946
712.379	11071
712.497	15673
712.614	14753
712.732	13338
712.849	12227
712.966	13135
713.084	13168
713.201	12657
713.318	12179
713.436	12675
713.553	12005
713.670	13388
713.787	13011
713.905	12906
714.022	12103
714.139	11467
714.256	12330
714.373	12279
714.490	13221
714.608	18270
714.725	42596
714.842	42760
714.959	12848
715.076	11799
715.193	11470
715.310	11363
715.427	11181
715.544	10970
715.661	9783
715.778	11004
715.895	9967
716.011	11547
716.128	11091
716.245	11043
716.362	10869
716.479	10317
716.596	10624
716.713	10804
716.829	10163
716.946	10410
717.063	9351
717.180	9984
717.296	9396
717.413	9313
717.530	9781
717.646	9587
717.763	9721
717.880	9921
717.996	9289
718.113	9742
718.229	8287
718.346	8475
718.462	8936
718.579	10172
718.695	11160
718.812	11098
718.928	10155
719.045	9740
719.161	8884
719.277	8993
719.394	9467
719.510	9742
719.626	9118
719.743	10581
719.859	9255
719.975	9472
720.092	15544
720.208	26117
720.324	10377
720.440	9254
720.557	8333
720.673	11343
720.789	13263
720.905	23324
721.021	10991
721.137	9137
721.253	8504
721.369	8844
721.486	8370
721.602	11418
721.718	8527
721.834	7802
721.950	8290
722.066	8084
722.181	7272
722.297	8740
722.413	8520
722.529	8224
722.645	8042
722.761	8078
722.877	6750
722.993	7076
723.108	7157
723.224	6622
723.340	7838
723.456	8005
723.571	7337
723.687	7214
723.803	7769
723.918	7539
724.034	6402
724.150	7556
724.265	8020
724.381	11138
724.497	12965
724.612	7085
724.728	7037
724.843	6882
724.959	7293
725.074	11374
725.190	11299
725.305	7138
725.421	7037
725.536	6892
725.651	6296
725.767	6840
725.882	6715
725.997	6662
726.113	6112
726.228	6146
726.343	6831
726.459	6524
726.574	6301
726.689	5621
726.804	5382
726.920	6212
727.035	6174
727.150	7079
727.265	5798
727.380	7251
727.495	6491
727.610	5981
727.725	6672
727.841	6985
727.956	10190
728.071	9315
728.186	6181
728.301	6353
728.416	5312
728.531	6208
728.645	5717
728.760	5385
728.875	6182
728.990	6504
729.105	5484
729.220	5874
729.335	6263
729.449	4747
729.564	5080
729.679	5325
729.794	4551
729.908	7019
730.023	5455
730.138	6029
730.253	5542
730.367	5116
730.482	5708
730.596	5433
730.711	5373
730.826	5493
730.940	4512
731.055	5719
731.169	5305
731.284	5349
731.398	4979
731.513	5647
731.627	5420
731.742	5474
731.856	4932
731.970	5273
732.085	5581
732.199	5900
732.313	5915
732.428	6477
732.542	12117
732.656	9072
732.771	5606
732.885	5479
732.999	5114
733.113	5299
733.227	5164
733.342	5307
733.456	5000
733.570	5242
733.684	4605
733.798	4585
733.912	4659
734.026	4878
734.140	4304
734.254	5565
734.368	6654
734.482	7875
734.596	4554
734.710	5320
734.824	4701
734.938	5102
735.052	5056
735.166	5069
735.280	5106
735.393	4744
735.507	4189
735.621	5985
735.735	7574
735.849	5709
735.962	4290
736.076	5550
736.190	4701
736.303	5499
736.417	6438
736.531	5039
736.644	4134
736.758	3892
736.872	4663
736.985	4187
737.099	5000
737.212	4308
737.326	4009
737.439	5194
737.553	4611
737.666	4604
737.780	5181
737.893	4146
738.007	3877
738.120	4867
738.233	4233
738.347	4590
738.460	4120
738.573	4320
738.687	4077
738.800	5531
738.913	5025
739.026	4848
739.140	4122
739.253	4848
739.366	4407
739.479	4153
739.592	4251
739.705	5491
739.818	4713
739.932	4002
740.045	4534
740.158	4381
740.271	4574
740.384	4589
740.497	4640
740.610	4834
740.723	4860
740.836	5391
740.949	4460
741.062	4933
741.174	4066
741.287	3923
741.400	4240
741.513	5781
741.626	3982
741.739	4797
741.851	3844
741.964	4913
742.077	3958
742.189	4252
742.302	4495
742.415	4237
742.527	3636
742.640	4012
742.753	3839
742.865	4017
742.978	4052
743.090	3996
743.203	4054
743.316	4391
743.428	4123
743.541	4279
743.653	4048
743.766	4755
743.878	3882
743.990	5021
744.103	5124
744.215	4431
744.327	4514
744.440	5371
744.552	5000
744.664	4948
744.777	3777
744.889	3309
745.001	4887
745.113	4169
745.226	3479
745.338	4409
745.450	4153
745.562	4483
745.674	3084
745.786	4105
745.898	3764
746.010	4285
746.122	3642
746.234	3872
746.347	4668
746.459	4389
746.570	3032
746.682	3803
746.794	3644
746.906	4197
747.018	3400
747.130	4940
747.242	3841
747.354	3717
747.466	3372
747.577	4336
747.689	4027
747.801	4332
747.913	3341
748.024	3922
748.136	4204
748.248	4144
748.359	3832
748.471	4579
748.583	3818
748.694	5086
748.806	3946
748.918	4191
749.029	4443
749.141	3809
749.252	4302
749.364	4217
749.475	4980
749.587	4968
749.698	3429
749.809	5157
749.921	3913
750.032	4507
750.144	3733
750.255	4200
750.366	3572
750.478	4293
750.589	4265
750.700	4713
750.811	4281
750.923	5105
751.034	4187
751.145	6692
751.256	3800
751.367	4379
751.479	3768
751.590	4029
751.701	3986
751.812	3720
751.923	3910
752.034	4260
752.145	3751
752.256	4097
752.367	3262
752.478	3614
752.589	3629
752.700	3945
752.811	3566
752.922	3912
753.032	3668
753.143	4599
753.254	3671
753.365	4552
753.476	3167
753.586	4751
753.697	3874
753.808	3572
753.919	3983
754.029	4679
754.140	4012
754.251	3908
754.361	3544
754.472	4210
754.582	3410
754.693	4025
754.804	3151
754.914	3859
755.025	3537
755.135	4425
755.246	4925
755.356	4247
755.466	4624
755.577	4025
755.687	4428
755.798	4132
755.908	4089
756.018	4224
756.129	4251
756.239	4263
756.349	4781
756.460	4105
756.570	4693
756.680	4499
756.790	4252
756.900	4882
757.011	3543
757.121	4337
757.231	3802
757.341	4823
757.451	3881
757.561	4412
757.671	4955
757.781	3452
757.891	4374
758.001	4828
758.111	5138
758.221	5456
758.331	4621
758.441	5508
758.551	4666
758.661	4908
758.771	4888
758.880	5438
758.990	5077
759.100	5282
759.210	5064
759.320	5209
759.429	5391
759.539	5473
759.649	5671
759.758	6212
759.868	5965
759.978	5906
760.087	5485
760.197	5885
760.307	5545
760.416	6197
760.526	5509
760.635	7270
760.745	6406
760.854	6698
760.964	6549
761.073	6823
761.182	7361
761.292	7988
761.401	7760
761.511	7248
761.620	7541
761.729	8198
761.839	7422
761.948	9169
762.057	8991
762.166	8697
762.276	7719
762.385	10639
762.494	9356
762.603	9476
762.712	9902
762.822	10050
762.931	10243
763.040	10585
763.149	10534
763.258	11593
763.367	12928
763.476	13157
763.585	13286
763.694	14239
763.803	14962
763.912	16709
764.021	16806
764.130	18024
764.238	18281
764.347	19712
764.456	20146
764.565	23261
764.674	25159
764.783	27606
764.891	29934
765.000	35215
765.109	38668
765.217	45482
765.326	52564
765.435	63249
765.543	73907
765.652	93916
765.761	122934
765.869	165239
765.978	234716
766.086	349787
766.195	532416
766.303	751595
766.412	651126
766.520	658150
766.629	662669
766.737	456268
766.846	304269
766.954	211686
767.062	156092
767.171	118324
767.279	92686
767.387	74806
767.496	63383
767.604	54260
767.712	47136
767.820	43119
767.928	38194
768.037	35552
768.145	33774
768.253	32306
768.361	30917
768.469	32149
768.577	32434
768.685	33387
768.793	36208
768.901	39672
769.009	45911
769.117	55196
769.225	70724
769.333	99293
769.441	149323
769.549	245783
769.657	434069
769.765	671662
769.873	598704
769.981	578194
770.088	361377
770.196	213110
770.304	139305
770.412	100152
770.519	75258
770.627	59606
770.735	49256
770.842	41475
770.950	36965
771.058	30630
771.165	28104
771.273	25298
771.380	22501
771.488	21558
771.595	18891
771.703	17344
771.810	16838
771.918	15893
772.025	14981
772.133	14555
772.240	13528
772.348	13289
772.455	11814
772.562	11404
772.670	10018
772.777	10971
772.884	8621
772.991	10573
773.099	9319
773.206	9361
773.313	8906
773.420	9674
773.528	8386
773.635	8453
773.742	7508
773.849	8028
773.956	7418
774.063	7365
774.170	6985
774.277	7338
774.384	6140
774.491	6067
774.598	7108
774.705	6530
774.812	6100
774.919	7560
775.026	6600
775.133	6873
775.239	5994
775.346	6545
775.453	5507
775.560	5864
775.667	6338
775.773	5177
775.880	6182
775.987	6007
776.093	5065
776.200	5204
776.307	4622
776.413	5631
776.520	3978
776.627	5612
776.733	4614
776.840	4618
776.946	5051
777.053	5212
777.159	4700
777.266	4706
777.372	5385
777.478	4823
777.585	4617
777.691	5311
777.798	3783
777.904	4696
778.010	5070
778.117	5068
778.223	3743
778.329	4005
778.435	3683
778.542	5040
778.648	3676
778.754	4254
778.860	4193
778.966	4318
779.072	4150
779.178	3628
779.284	4480
779.391	4136
779.497	3747
779.603	8149
779.708	8480
779.815	24863
779.920	90596
780.026	140386
780.132	20653
780.238	6187
780.344	4832
780.450	5491
780.556	3446
780.661	3797
780.767	3072
780.873	4153
780.979	3286
781.085	3039
781.190	3430
781.296	3224
781.402	1983
781.507	2317
781.613	3259
781.719	2750
781.824	2664
781.930	3327
782.035	3405
782.141	3072
782.246	2746
782.352	2462
782.457	2815
782.563	2785
782.668	2219
782.773	3070
782.879	2244
782.984	3659
783.090	3760
783.195	2975
783.300	2648
783.405	3483
783.511	1890
783.616	3482
783.721	3061
783.826	2675
783.932	1746
784.037	2273
784.142	1944
784.247	3048
784.352	2714
784.457	2978
784.562	2344
784.667	2251
784.772	1704
784.877	2219
784.982	3056
785.087	2445
785.192	2716
785.297	2626
785.402	1995
785.507	2107
785.611	2722
785.716	1447
785.821	1704
785.926	2708
786.031	1569
786.135	2743
786.240	1707
786.345	1298
786.450	1564
786.554	2656
786.659	1162
786.763	926
786.868	2389
786.973	3095
787.077	777
787.182	2627
787.286	1594
787.391	2171
787.495	1428
787.600	2194
787.704	589
787.809	1567
787.913	2185
788.017	2558
788.122	1284
788.226	2342
788.330	835
788.435	2429
788.539	1314
788.643	2041
788.747	1532
788.852	1789
788.956	871
789.060	2648
789.164	1882
789.268	633
789.372	2384
789.476	1562
789.580	1338
789.684	1324
789.788	1454
789.892	1488
789.996	2261
790.100	1567
790.204	602
790.308	2001
790.412	2202
790.516	2277
790.620	608
790.724	2437
790.828	1557
790.931	1134
791.035	2714
791.139	1925
791.242	389
791.346	2340
791.450	2588
791.554	2236
791.657	815
791.761	2330
791.864	2490
791.968	2560
792.072	1229
792.175	1238
792.279	1542
792.382	1961
792.486	1859
792.589	1500
792.693	2232
792.796	1359
792.899	1874
793.003	2587
793.106	503
793.209	1052
793.313	1936
793.416	-8
793.519	3012
793.623	2440
793.726	1446
793.829	2539
793.932	1230
794.035	682
794.138	2449
794.242	3047
794.345	2910
794.448	5744
794.551	13095
794.654	49096
794.757	82536
794.860	13322
794.963	3106
795.066	1632
795.169	1965
795.272	739
795.375	2479
795.477	1042
795.580	1892
795.683	703
795.786	1309
795.889	782
795.991	1841
796.094	1799
796.197	-367
796.300	2854
796.402	485
796.505	919
796.608	249
796.710	2679
796.813	1355
796.915	1114
797.018	1717
797.120	1459
797.223	481
797.326	2948
797.428	538
797.530	1983
797.633	114
797.735	1963
797.838	794
797.940	1880
798.042	130
798.145	624
798.247	1903
798.349	128
798.452	1760
798.554	1391
798.656	301
798.758	2182
798.860	650
798.962	1302
799.065	1309
799.167	15
799.269	1433
799.371	1800
799.473	730
799.575	877
799.677	1000
799.779	2874
799.881	-219
799.983	2697
800.085	1462
800.187	1758
800.289	976
800.390	784
800.492	622
800.594	2222
800.696	633
800.798	1084
800.899	1030
801.001	1678
801.103	500
801.205	1135
801.306	790
801.408	213
801.509	360
801.611	1347
801.713	886
801.814	694
801.916	461
802.017	1614
802.119	391
802.220	1383
802.322	-997
802.423	2543
802.525	-108
802.626	1450
802.727	769
802.829	2020
802.930	-676
803.031	3062
803.133	529
803.234	657
803.335	741
803.436	405
803.538	233
803.639	-231
803.740	1900
803.841	211
803.942	1054
804.043	1470
804.144	-187
804.245	1398
804.346	-26
804.447	914
804.548	678
804.649	2092
804.750	260
804.851	581
804.952	-201
805.053	1010
805.154	83
805.255	1203
805.355	932
805.456	183
805.557	156
805.658	260
805.758	1617
805.859	944
805.960	498
806.061	-242
806.161	304
806.262	1442
806.362	1467
806.463	800
806.564	1049
806.664	815
806.765	743
806.865	1150
806.966	455
807.066	269
807.166	1134
807.267	1320
807.367	61
807.468	1428
807.568	-25
807.668	1906
807.769	826
807.869	1236
807.969	47
808.069	862
808.170	589
808.270	-153
808.370	845
808.470	726
808.570	-160
808.670	324
808.770	822
808.870	334
808.970	954
809.070	131
809.170	729
809.271	738
809.370	-21
809.470	1717
809.570	481
809.670	658
809.770	404
809.870	833
809.970	1015
810.070	1031
810.169	-194
810.269	-38
810.369	1742
810.469	826
810.568	134
810.668	-3
810.768	748
810.867	1137
810.967	331
811.066	804
811.166	-49
811.265	611
811.365	432
811.464	778
811.564	793
811.663	1128
811.763	-738
811.862	1165
811.962	1098
812.061	306
812.160	-2
812.260	1473
812.359	310
812.458	1111
812.557	2832
812.657	3972
812.756	1735
812.855	1355
812.954	587
813.053	2025
813.153	777
813.252	86
813.351	195
813.450	1302
813.549	-35
813.648	859
813.747	551
813.846	1160
813.945	331
814.044	1106
814.143	807
814.242	1458
814.341	700
814.439	2307
814.538	661
814.637	965
814.736	110
814.835	2208
814.933	879
815.032	2281
815.131	848
815.229	630
815.328	1339
815.427	1227
815.525	2017
815.624	1647
815.722	1240
815.821	2462
815.919	1670
816.018	1027
816.116	2413
816.215	2069
816.313	2334
816.412	2629
816.510	2355
816.609	4214
816.707	2900
816.805	3433
816.904	3140
817.002	3983
817.100	4849
817.198	5495
817.296	5189
817.395	7059
817.493	9111
817.591	9839
817.689	14636
817.787	19114
817.885	30516
817.983	52309
818.081	100446
818.179	209001
818.277	393254
818.375	326507
818.473	153590
818.571	74572
818.669	48053
818.767	39260
818.865	38716
818.963	45060
819.061	61191
819.158	97987
819.256	176649
819.354	329201
819.452	479149
819.549	355366
819.647	192187
819.745	102562
819.842	63084
819.940	42263
820.038	29932
820.135	23737
820.233	19547
820.330	14731
820.428	11546
820.525	10891
820.623	9184
820.720	7006
820.818	6465
820.915	6914
821.012	6045
821.110	4171
821.207	4480
821.304	3749
821.402	3368
821.499	3572
821.596	3499
821.693	3507
821.791	3633
821.888	3199
821.985	3429
822.082	2606
822.179	2999
822.276	1411
822.373	1723
822.470	1935
822.567	1176
822.664	1614
822.761	2286
822.858	302
822.955	1497
823.052	1228
823.149	1142
823.246	1112
823.343	1237
823.440	2246
823.536	948
823.633	1214
823.730	-629
823.827	773
823.923	-168
824.020	1610
824.117	631
824.213	151
824.310	999
824.407	1368
824.503	792
824.600	996
824.696	290
824.793	1583
824.889	-686
824.986	1908
825.082	350
825.179	1652
825.275	383
825.371	-55
825.468	476
825.564	-180
825.660	653
825.757	771
825.853	1528
825.949	-439
826.045	823
826.142	-229
826.238	-171
826.334	929
826.430	-852
826.526	1909
826.622	70
826.718	599
826.814	-19
826.910	1987
827.006	-1043
827.102	510
827.198	846
827.294	-502
827.390	64
827.486	1153
827.582	-1183
827.678	-471
827.774	349
827.869	237
827.965	879
828.061	476
828.157	307
828.252	937
828.348	-519
828.444	1610
828.539	-1024
828.635	804
828.731	382
828.826	-271
828.922	605
829.017	103
829.113	615
829.208	189
829.304	-400
829.399	1767
829.495	-541
829.590	389
829.685	-556
829.781	59
829.876	-729
829.971	48
830.066	-179
830.162	-319
830.257	-853
830.352	-664
830.447	956
830.543	223
830.638	-366
830.733	1211
830.828	717
830.923	669
831.018	-410
831.113	31
831.208	-647
831.303	914
831.398	630
831.493	-114
831.588	-1093
831.683	-253
831.778	256
831.873	868
831.967	3
832.062	-510
832.157	-1233
832.252	792
832.346	-850
832.441	467
832.536	34
832.631	2578
832.725	1095
832.820	237
832.914	-547
833.009	-389
833.104	206
833.198	1224
833.293	-877
833.387	120
833.482	-36
833.576	-305
833.670	686
833.765	273
833.859	-627
833.954	137
834.048	-801
834.142	574
834.237	-1132
834.331	213
834.425	-83
834.519	-500
834.613	507
834.708	616
834.802	-359
834.896	-923
834.990	-46
835.084	190
835.178	-454
835.272	469
835.366	35
835.460	330
835.554	-699
835.648	390
835.742	-1237
835.836	399
835.930	-1629
836.024	-213
836.117	-33
836.211	43
836.305	226
836.399	620
836.493	-546
836.586	980
836.680	-817
836.774	-537
836.867	-82
836.961	-304
837.055	-495
837.148	-329
837.242	118
837.335	301
837.429	108
837.522	-320
837.616	-225
837.709	831
837.803	866
837.896	638
837.989	-1100
838.083	478
838.176	613
838.269	406
838.363	-238
838.456	-459
838.549	-76
838.642	-104
838.735	870
838.829	739
838.922	-631
839.015	489
839.108	-1025
839.201	267
839.294	-589
839.387	-306
839.480	-1626
839.573	-14
839.666	155
839.759	-205
839.852	-983
839.945	425
840.038	-1066
840.131	-196
840.223	-876
840.316	1078
840.409	-271
840.502	-372
840.594	-83
840.687	-564
840.780	-390
840.873	-419
840.965	-666
841.058	-79
841.150	655
841.243	122
841.336	355
841.428	425
841.521	-1364
841.613	-1265
841.706	-708
841.798	-515
841.890	-1326
841.983	-218
842.075	466
842.167	-963
842.260	-634
842.352	202
842.444	-1492
842.537	562
842.629	1796
842.721	-75
842.813	-237
842.905	-1288
842.997	133
843.090	-475
843.182	-21
843.274	950
843.366	2863
843.458	5332
843.550	3107
843.642	284
843.734	-86
843.826	93
843.918	-336
844.009	344
844.101	-1580
844.193	-319
844.285	-465
844.377	-308
844.469	-20
844.560	-222
844.652	-197
844.744	17
844.835	-750
844.927	-340
845.019	-871
845.110	366
845.202	-224
845.293	55
845.385	-611
845.476	-335
845.568	690
845.659	287
845.751	-361
845.842	-516
845.934	-665
846.025	-658
846.116	-816
846.208	-423
846.299	-766
846.390	-550
846.482	682
846.573	737
846.664	-272
846.755	-785
846.846	307
846.937	-541
847.029	-351
847.120	-724
847.211	-1011
847.302	1242
847.393	-1242
847.484	-85
847.575	-750
847.666	-672
847.757	-1201
847.847	-784
847.938	105
848.029	-501
848.120	-1217
848.211	-426
848.302	-575
848.392	-466
848.483	-488
848.574	-627
848.664	-1073
848.755	-671
848.846	-555
848.936	-963
849.027	285
849.118	-463
849.208	-1275
849.299	-199
849.389	-449
849.480	630
849.570	-665
849.661	338
849.751	515
849.841	-20
849.932	-1014
850.022	-506
850.112	-454
850.203	-571
850.293	-803
850.383	-559
850.474	-1193
850.564	-56
850.654	-266
850.744	-525
850.834	-689
850.924	-546
851.014	-439
851.104	-198
851.194	-477
851.284	-50
851.374	-407
851.464	-607
851.554	-3
851.644	25
851.734	304
851.824	1217
851.914	645
852.004	2813
852.094	1961
852.183	-99
852.273	434
852.363	-481
852.452	-1223
852.542	-613
852.632	-264
852.721	-828
852.811	-806
852.901	-274
852.990	-1205
853.080	-235
853.169	-1236
853.259	-627
853.348	-1262
853.438	242
853.527	118
853.617	-894
853.706	4
853.795	298
853.885	1167
853.974	3195
854.063	5133
854.152	8444
854.242	1780
854.331	168
854.420	-729
854.509	703
854.598	-332
854.687	45
854.777	-800
854.866	-870
854.955	56
855.044	-483
855.133	-625
855.222	-1298
855.311	-1286
855.400	-6
855.488	-742
855.577	-864
855.666	-777
855.755	566
855.844	-360
855.933	-313
856.021	-764
856.110	59
856.199	-748
856.288	115
856.376	-1008
856.465	-1023
856.554	-945
856.642	-108
856.731	-154
856.819	-346
856.908	-726
856.996	-349
857.085	-1302
857.173	-102
857.262	-1158
857.350	967
857.438	-611
857.527	174
857.615	-1300
857.703	-178
857.792	-1047
857.880	-504
857.968	-371
858.056	141
858.145	-1056
858.233	-633
858.321	-1210
858.409	-69
858.497	-1217
858.585	-394
858.673	-1164
858.761	385
858.849	-1265
858.937	165
859.025	-1145
859.113	-96
859.201	-580
859.289	-525
859.377	-1742
859.465	-934
859.552	-780
859.640	-957
859.728	-244
859.816	-710
859.903	-442
859.991	-800
860.079	-371
860.166	-762
860.254	-742
860.342	-915
860.429	-1783
860.517	-1492
860.604	-898
860.692	-200
860.779	-812
860.867	-809
860.954	-881
861.042	-1211
861.129	-1596
861.216	-398
861.304	-495
861.391	-966
861.478	-434
861.565	-441
861.653	-531
861.740	-1464
861.827	-1644
861.914	784
862.001	-1448
862.089	-736
862.176	-921
862.263	-778
862.350	-716
862.437	-480
862.524	-1450
862.611	-735
862.698	-1705
862.785	-53
862.871	-864
862.958	-1321
863.045	-2062
863.132	-599
863.219	-861
863.306	-1188
863.392	-859
863.479	-398
863.566	-1240
863.652	-180
863.739	-1116
863.826	-93
863.912	-1853
863.999	-990
864.086	-1468
864.172	-358
864.259	-1441
864.345	-1087
864.432	-1233
864.518	-695
864.604	-1166
864.691	-1391
864.777	-462
864.863	360
864.950	-502
865.036	-1671
865.122	-807
865.209	-322
865.295	-801
865.381	-689
865.467	-877
865.553	63
865.639	-1335
865.726	-959
865.812	98
865.898	1554
865.984	652
866.070	3625
866.156	2556
866.242	-13
866.328	-1008
866.414	-1598
866.499	-120
866.585	-688
866.671	-1284
866.757	-654
866.843	-884
866.928	-1391
867.014	-922
867.100	-424
867.186	-1281
867.271	-336
867.357	-784
867.442	-740
867.528	-879
867.614	-1364
867.699	-872
867.785	-221
867.870	-738
867.956	-267
868.041	-217
868.127	-431
868.212	-590
868.297	-396
868.383	-766
868.468	-788
868.553	-141
868.639	734
868.724	-113
868.809	805
868.894	-1435
868.979	-278
869.065	-667
869.150	-1406
869.235	-683
869.320	-1333
869.405	-1116
869.490	-1084
869.575	-1267
869.660	-398
869.745	-793
869.830	-935
869.915	-935
870.000	-557
870.085	-1382
870.169	-347
870.254	-880
870.339	-1094
870.424	-1240
870.509	-866
870.593	-1070
870.678	-966
870.763	-778
870.847	-129
870.932	-1319
871.016	-127
871.101	-858
871.186	-726
871.270	-1263
871.355	-1075
871.439	-1123
871.523	-724
871.608	-1590
871.692	-490
871.777	-778
871.861	-826
871.945	-1638
872.030	-270
872.114	-1116
872.198	-1602
872.282	-688
872.367	-950
872.451	-1591
872.535	-914
872.619	-1049
872.703	-557
872.787	-1242
872.871	-421
872.955	-1638
873.039	-1423
873.123	-1363
873.207	-59
873.291	-1472
873.375	-1353
873.459	-1356
873.543	-1551
873.627	-1189
873.711	-942
873.794	-1555
873.878	-612
873.962	-1565
874.045	-1186
874.129	-1203
874.137	-1187
874.213	-1024
874.245	-1084
874.296	-1180
874.352	-1006
874.380	-922
874.460	-819
874.464	-816
874.547	-1608
874.568	-1284
874.631	-337
874.676	-587
874.714	-785
874.784	-962
874.798	-998
874.881	624
874.892	381
874.965	-1293
874.999	-1011
875.048	-648
875.107	-603
875.131	-572
875.215	-820
875.215	-820
875.298	-1018
875.323	-910
875.381	-640
875.430	-883
875.465	-1059
875.538	-740
875.548	-693
875.631	-1815
875.646	-1578
875.714	-526
875.753	-781
875.798	-1005
875.861	-637
875.881	-539
875.964	-452
875.968	-467
876.047	-673
876.076	-583
876.130	-425
876.183	-598
876.213	-694
876.291	-89
876.296	-55
876.379	-660
876.398	-654
876.462	-591
876.506	-519
876.545	-452
876.613	-858
876.628	-922
876.711	-773
876.721	-733
876.794	-592
876.828	-637
876.877	-538
876.935	-843
876.960	-1028
877.043	-320
877.043	-321
877.125	-346
877.150	-183
877.208	224
877.258	-532
877.291	-1059
877.365	-236
877.374	-134
877.456	-429
877.472	-450
877.539	-568
877.579	-514
877.622	-397
877.687	189
877.704	349
877.787	-660
877.794	-630
877.869	-449
877.901	-480
877.952	-471
878.008	-301
878.034	-285
878.115	-819
878.117	-822
878.199	-735
878.222	-678
878.282	-574
878.329	-378
878.364	-291
878.437	-218
878.447	-178
878.529	-362
878.544	-411
878.611	-826
878.651	-575
878.694	-216
878.758	257
878.776	335
878.858	-258
878.865	-312
878.941	-898
878.972	-823
879.023	-507
879.078	-575
879.105	-662
879.185	-403
879.187	-391
879.269	-239
879.292	-13
879.351	246
879.399	-484
879.433	-856
879.506	-341
879.516	-301
879.598	-1040
879.613	-1002
879.680	-681
879.720	-560
879.762	-402
879.827	-140
879.844	-126
879.926	-1406
879.933	-1304
880.007	-85
880.040	-280
880.089	-552
880.147	219
880.171	547
880.253	-316
880.254	-319
880.335	-326
880.360	-158
880.417	185
880.467	550
880.499	954
880.574	1484
880.580	1463
880.662	774
880.680	488
880.744	-347
880.787	-433
880.825	-489
880.893	-869
880.907	-916
880.989	-452
881.000	-494
881.070	-418
881.106	-70
881.152	145
881.213	-401
881.233	-623
881.315	-239
881.319	-266
881.396	-216
881.426	18
881.478	241
881.532	-301
881.559	-547
881.639	-161
881.641	-156
881.722	-694
881.745	-728
881.803	-212
881.852	-167
881.885	-557
881.958	-634
881.966	-550
882.047	194
882.064	206
882.129	-67
882.171	-75
882.210	-32
882.277	274
882.291	350
882.372	126
882.383	171
882.454	271
882.489	63
882.535	-64
882.596	92
882.616	95
882.697	-138
882.702	-141
882.778	-96
882.808	-215
882.859	-325
882.914	-160
882.940	-132
883.020	-211
883.021	-205
883.102	142
883.127	184
883.183	-212
883.233	-294
883.264	-229
883.339	-360
883.345	-359
883.426	-400
883.445	-457
883.507	-459
883.551	-61
883.587	-105
883.657	-730
883.668	-649
883.749	307
883.763	391
883.830	211
883.869	239
883.910	250
883.975	-7
883.991	-115
884.072	33
884.081	-47
884.152	-441
884.187	-493
884.233	-427
884.292	-187
884.314	-206
884.394	-474
884.398	-479
884.475	-342
884.504	-482
884.555	-321
884.610	139
884.636	225
884.716	403
884.716	408
884.797	-75
884.821	-69
884.877	111
884.927	41
884.958	116
885.033	163
885.038	136
885.118	-296
885.139	-327
885.199	-81
885.244	-127
885.279	9
885.350	613
885.359	642
885.439	167
885.456	217
885.520	207
885.561	-96
885.600	41
885.667	508
885.680	484
885.760	257
885.773	233
885.840	420
885.878	356
885.920	184
885.984	186
886.000	179
886.080	60
886.089	33
886.160	383
886.195	458
886.240	264
886.300	111
886.320	85
886.400	257
886.406	250
886.480	645
886.511	760
886.560	465
886.616	132
886.640	188
886.720	460
886.722	463
886.800	415
886.827	303
886.879	318
886.932	508
886.959	509
887.038	118
887.039	123
887.119	292
887.143	326
887.198	477
887.248	544
887.278	507
887.354	334
887.358	327
887.437	235
887.459	170
887.517	612
887.564	1012
887.596	959
887.669	639
887.676	633
887.755	666
887.774	636
887.835	569
887.880	632
887.914	777
887.985	749
887.994	735
888.073	765
888.090	749
888.153	270
888.195	-6
888.232	190
888.300	397
888.311	432
888.391	814
888.405	850
888.470	406
888.510	148
888.549	315
888.615	612
888.628	668
888.708	992
888.720	1030
888.787	1075
888.825	1085
888.866	686
888.930	69
888.945	231
889.024	1060
889.035	1164
889.103	1281
889.140	1348
889.182	1021
889.245	505
889.261	443
889.340	130
889.349	92
889.419	625
889.454	902
889.498	718
889.559	430
889.577	486
889.656	732
889.664	753
889.735	466
889.768	325
889.814	793
889.873	1410
889.978	541
890.083	1093
890.187	133
890.292	1127
890.397	-926
890.501	1282
890.606	959
890.710	1101
890.815	1326
890.919	984
891.024	-8
891.128	1313
891.233	770
891.337	1086
891.442	365
891.546	1052
891.650	909
891.755	1068
891.859	1879
891.963	997
892.068	1102
892.172	1237
892.276	522
892.380	904
892.484	916
892.589	1237
892.693	40
892.797	504
892.901	469
893.005	356
893.109	75
893.213	884
893.317	808
893.421	978
893.525	737
893.629	1049
893.733	529
893.837	847
893.941	-284
894.045	1442
894.148	1112
894.252	2605
894.356	1271
894.460	761
894.564	262
894.667	1291
894.771	324
894.875	436
894.978	351
895.082	773
895.186	1157
895.289	1171
895.393	410
895.496	1448
895.600	717
895.703	1170
895.807	228
895.910	916
896.014	624
896.117	855
896.221	454
896.324	1294
896.427	462
896.531	510
896.634	-340
896.737	1280
896.840	456
896.944	887
897.047	402
897.150	869
897.253	491
897.356	652
897.460	882
897.563	975
897.666	288
897.769	946
897.872	951
897.975	383
898.078	633
898.181	608
898.284	305
898.387	540
898.490	101
898.593	1279
898.695	396
898.798	1267
898.901	365
899.004	585
899.107	337
899.209	984
899.312	273
899.415	1008
899.518	1311
899.620	583
899.723	1130
899.826	1751
899.928	677
900.031	485
900.133	459
900.236	-12
900.338	934
900.441	1192
900.543	189
900.646	238
900.748	170
900.851	985
900.953	1007
901.055	441
901.158	-225
901.260	1064
901.362	427
901.465	522
901.567	-417
901.669	1146
901.771	382
901.873	319
901.976	961
902.078	1235
902.180	185
902.282	878
902.384	121
902.486	1154
902.588	800
902.690	1394
902.792	958
902.894	1469
902.996	1157
903.098	939
903.200	256
903.302	26
903.404	233
903.505	232
903.607	847
903.709	600
903.811	-148
903.913	590
904.014	919
904.116	839
904.218	358
904.319	892
904.421	1191
904.523	408
904.624	909
904.726	592
904.827	885
904.929	-442
905.030	823
905.132	1026
905.233	62
905.335	466
905.436	730
905.537	520
905.639	371
905.740	287
905.841	-44
905.943	910
906.044	1079
906.145	608
906.247	-518
906.348	1276
906.449	897
906.550	676
906.651	971
906.752	221
906.854	216
906.955	184
907.056	88
907.157	1390
907.258	-208
907.359	852
907.460	949
907.561	632
907.662	-39
907.762	913
907.863	74
907.964	746
908.065	511
908.166	1180
908.267	43
908.367	381
908.468	637
908.569	862
908.670	912
908.770	1163
908.871	1188
908.971	1049
909.072	607
909.173	398
909.273	-450
909.374	715
909.474	255
909.575	259
909.675	638
909.776	1149
909.876	-86
909.977	1219
910.077	245
910.177	-112
910.278	1215
910.378	593
910.478	544
910.579	813
910.679	372
910.779	890
910.879	58
910.980	555
911.080	-71
911.180	-56
911.280	-217
911.380	407
911.480	894
911.580	589
911.680	820
911.780	864
911.880	918
911.980	465
912.080	876
912.180	986
912.280	287
912.380	221
912.480	-137
912.580	237
912.679	-77
912.779	889
912.879	412
912.979	1209
913.078	-136
913.178	468
913.278	1166
913.377	879
913.477	529
913.577	751
913.676	739
913.776	665
913.875	348
913.975	1905
914.074	24
914.174	954
914.273	-749
914.373	1099
914.472	-259
914.572	352
914.671	238
914.770	187
914.870	-253
914.969	243
915.068	668
915.167	579
915.267	128
915.366	-215
915.465	-174
915.564	972
915.663	28
915.763	510
915.862	289
915.961	865
916.060	-334
916.159	473
916.258	30
916.357	667
916.456	503
916.555	578
916.654	404
916.752	434
916.851	68
916.950	167
917.049	456
917.148	850
917.247	912
917.345	417
917.444	216
917.543	-12
917.642	426
917.740	15
917.839	140
917.937	589
918.036	1082
918.135	46
918.233	561
918.332	741
918.430	-140
918.529	830
918.627	-25
918.726	717
918.824	98
918.923	592
919.021	59
919.119	-200
919.218	179
919.316	325
919.414	-110
919.512	1160
919.611	627
919.709	-93
919.807	-234
919.905	-286
920.003	135
920.102	454
920.200	-418
920.298	267
920.396	-29
920.494	698
920.592	307
920.690	754
920.788	1101
920.886	-188
920.984	545
921.082	172
921.180	335
921.277	-3
921.375	152
921.473	233
921.571	377
921.669	100
921.766	-161
921.864	1026
921.962	1025
922.060	164
922.157	-151
922.255	43
922.352	249
922.450	1043
922.548	322
922.645	521
922.743	-247
922.840	842
922.938	212
923.035	542
923.133	120
923.230	372
923.327	404
923.425	339
923.522	793
923.619	43
923.717	329
923.814	435
923.911	-425
924.008	856
924.106	-332
924.203	-208
924.300	-646
924.397	417
924.494	-34
924.591	477
924.688	550
924.786	669
924.883	21
924.979	631
925.077	114
925.173	430
925.270	465
925.367	-87
925.464	551
925.561	736
925.658	-658
925.755	1360
925.852	-69
925.948	-561
926.045	339
926.142	274
926.239	-156
926.335	18
926.432	23
926.529	388
926.625	171
926.722	158
926.818	530
926.915	-1046
927.011	-173
927.108	368
927.204	566
927.301	792
927.397	-253
927.494	152
927.590	562
927.687	-376
927.783	566
927.879	-342
927.976	-76
928.072	250
928.168	-106
928.264	390
928.361	4
928.457	436
928.553	-96
928.649	-177
928.745	-406
928.841	300
928.937	-145
929.033	30
929.129	-306
929.225	-309
929.321	345
929.417	160
929.513	-330
929.609	-313
929.705	457
929.801	662
929.897	285
929.993	759
930.089	-355
930.184	359
930.280	449
930.376	655
930.471	-611
930.567	145
930.663	775
930.758	-148
930.854	37
930.950	-67
931.045	-513
931.141	-127
931.236	-607
931.332	153
931.427	-116
931.523	511
931.618	388
931.714	193
931.809	-248
931.905	1403
932.000	91
932.095	255
932.191	112
932.286	-597
932.381	-73
932.476	-241
932.572	21
932.667	-3
932.762	-373
932.857	-364
932.952	-35
933.047	-79
933.142	-1236
933.237	195
933.332	191
933.427	1157
933.522	-236
933.617	17
933.712	250
933.807	342
933.902	-94
933.997	766
934.092	-87
934.187	240
934.282	-118
934.376	219
934.471	137
934.566	656
934.661	289
934.755	345
934.850	705
934.945	724
935.039	-119
935.134	655
935.228	-169
935.323	479
935.417	71
935.512	-136
935.606	-812
935.701	341
935.795	286
935.890	535
935.984	622
936.079	173
936.173	106
936.267	247
936.362	-245
936.456	-5
936.550	-94
936.644	205
936.738	-499
936.833	673
936.927	504
937.021	400
937.115	-565
937.209	-255
937.303	746
937.397	-349
937.491	-275
937.585	680
937.679	110
937.773	-273
937.867	95
937.961	132
938.055	100
938.149	130
938.243	460
938.337	-76
938.430	-47
938.524	98
938.618	-142
938.712	1187
938.805	-73
938.899	-4
938.993	118
939.086	-696
939.180	1145
939.274	892
939.367	211
939.461	461
939.554	277
939.648	111
939.741	-538
939.835	891
939.928	-16
940.022	629
940.115	398
940.208	770
940.302	-187
940.395	981
940.488	-628
940.582	889
940.675	191
940.768	1361
940.861	-150
940.954	591
941.048	144
941.141	694
941.234	-288
941.327	553
941.420	942
941.513	553
941.606	816
941.699	1971
941.792	266
941.885	491
941.978	-24
942.071	204
942.164	-438
942.257	347
942.349	107
942.442	396
942.535	709
942.628	-127
942.721	173
942.813	-1566
942.906	930
942.999	197
943.091	-184
943.184	-469
943.277	-644
943.369	556
943.462	-131
943.554	66
943.647	-796
943.739	302
943.832	96
943.924	-404
944.017	394
944.109	-195
944.201	210
944.294	936
944.386	982
944.478	269
944.571	-109
944.663	189
944.755	722
944.847	1554
944.940	532
945.032	-467
945.124	717
945.216	904
945.308	44
945.400	941
945.492	357
945.584	353
945.676	-307
945.768	128
945.860	717
945.952	389
946.044	617
946.136	716
946.228	457
946.320	-231
946.412	-214
946.503	64
946.595	1254
946.687	18
946.779	18
946.870	552
946.962	-646
947.054	404
947.145	-308
947.237	625
947.329	-178
947.420	345
947.512	1390
947.603	34
947.695	-173
947.786	302
947.878	-55
947.969	819
948.061	-564
948.152	368
948.243	-205
948.335	643
948.426	-41
948.517	-128
948.609	-338
948.700	33
948.791	-475
948.882	-793
948.973	-379
949.065	115
949.156	-281
949.247	-140
949.338	-507
949.429	-44
949.520	-814
949.611	-139
949.702	79
949.793	-115
949.884	-490
949.975	-53
950.066	-415
950.157	912
950.247	353
950.338	-120
950.429	-664
950.520	160
950.611	-366
950.701	293
950.792	186
950.883	548
950.973	-59
951.064	-401
951.155	-319
951.245	790
951.336	-105
951.427	-640
951.517	547
951.608	-193
951.698	462
951.788	498
951.879	54
951.969	293
952.060	179
952.150	-143
952.240	119
952.331	-1372
952.421	771
952.511	-562
952.602	-283
952.692	-110
952.782	25
952.872	-341
952.962	-531
953.052	44
953.143	-748
953.233	568
953.323	-221
953.413	184
953.503	-474
953.593	275
953.683	-189
953.773	-302
953.863	-794
953.953	-124
954.042	-244
954.132	-58
954.222	-85
954.312	278
954.402	-127
954.492	676
954.581	552
954.671	-800
954.761	-1092
954.850	1095
954.940	-628
955.030	-656
955.119	-288
955.209	-46
955.298	-686
955.388	141
955.477	5
955.567	-381
955.656	-874
955.746	-577
955.835	-350
955.925	-144
956.014	607
956.103	-855
956.193	-266
956.282	351
956.371	-50
956.461	-290
956.550	133
956.639	342
956.728	-1153
956.817	0
956.906	169
956.995	-203
957.085	-620
957.174	381
957.263	-659
957.352	200
957.441	-430
957.530	284
957.619	412
957.708	-209
957.796	-642
957.885	139
957.974	189
958.063	200
958.152	-1743
958.241	465
958.329	-372
958.418	521
958.507	-603
958.596	1407
958.684	-1402
958.773	682
958.861	-426
958.950	-195
959.039	221
959.127	379
959.216	-341
959.304	-265
959.393	-200
959.481	446
959.570	593
959.658	-136
959.746	-23
959.835	730
959.923	221
960.011	171
960.100	115
960.188	147
960.276	-447
960.365	131
960.453	-123
960.541	-1028
960.629	192
960.717	-672
960.805	-334
960.893	308
960.981	-1112
961.069	18
961.158	-635
961.245	-405
961.333	-488
961.421	-492
961.509	219
961.597	-473
961.685	396
961.773	-568
961.861	-892
961.949	75
962.036	-994
962.124	-85
962.212	-541
962.299	-35
962.387	-1217
962.475	-430
962.562	-700
962.650	136
962.738	77
962.825	-1629
962.913	-339
963.000	-1013
963.088	-728
963.175	-390
963.263	-607
963.350	-522
963.438	-367
963.525	-1152
963.612	441
963.700	1034
963.787	4990
963.874	1572
963.962	-231
964.049	564
964.136	-917
964.223	-702
964.310	-1411
964.398	-600
964.485	-602
964.572	-604
964.659	674
964.746	182
964.833	-1200
964.920	-301
965.007	-38
965.094	-30
965.181	-1419
965.268	-283
965.355	-562
965.441	-96
965.528	-1686
965.615	20
965.702	-507
965.789	-100
965.875	-824
965.962	-63
966.049	-1090
966.136	-860
966.222	-748
966.309	-668
966.395	-1275
966.482	-44
966.569	-1623
966.655	41
966.742	-745
966.828	-126
966.915	-2085
967.001	-475
967.087	-1573
967.174	-294
967.260	211
967.347	-120
967.433	936
967.519	2743
967.605	336
967.692	-1099
967.778	-415
967.864	-283
967.950	-697
968.036	-929
968.123	-432
968.209	-103
968.295	-1042
968.381	755
968.467	-206
968.553	-1749
968.639	-30
968.725	-934
968.811	-389
968.897	-215
968.983	-846
969.069	-1412
969.154	-813
969.240	76
969.326	-1671
969.412	-839
969.497	-1213
969.583	-1414
969.669	249
969.755	-816
969.840	-1295
969.926	-629
970.012	-1028
970.097	-57
970.183	-536
970.268	-700
970.354	-442
970.439	-904
970.525	2328
970.610	-999
970.696	727
970.781	-626
970.866	-787
970.952	26
971.037	-1289
971.122	-1421
971.208	-982
971.293	-751
971.378	-1716
971.463	-530
971.549	-475
971.634	-366
971.719	-940
971.804	-445
971.889	171
971.974	-765
972.059	-1014
972.144	-793
972.229	-1262
972.314	-1053
972.399	-321
972.484	-1190
972.569	-248
972.654	-1239
972.739	553
972.824	92
972.908	384
972.993	-1163
973.078	-1175
973.163	-651
973.247	-458
973.332	-2333
973.417	409
973.501	-1079
973.586	-981
973.671	-619
973.755	-910
973.840	-200
973.924	-1152
974.009	-531
974.093	-1368
974.178	558
974.262	-19
974.346	-727
974.431	-956
974.515	-1063
974.600	-14
974.684	-597
974.768	-860
974.852	-595
974.937	-1772
975.021	-256
975.105	-230
975.189	-491
975.273	-445
975.358	-806
975.442	-2587
975.526	-37
975.610	-1502
975.694	-1052
975.778	288
975.862	-530
975.946	-2563
976.030	345
976.114	-1191
976.198	-998
976.281	-1225
976.365	813
976.449	-1180
976.533	78
976.617	-410
976.700	-808
976.784	-388
976.868	-741
976.951	-18
977.035	-1044
977.119	-532
977.202	-135
977.286	-217
977.369	-533
977.453	-49
977.536	-1150
977.620	-1350
977.703	345
977.787	-1856
977.870	-146
977.953	98
978.037	-2534
978.120	161
978.203	-967
978.287	605
978.370	-596
978.453	-1090
978.536	-307
978.620	-65
978.703	152
978.786	-1157
978.869	-1105
978.952	-1038
979.035	446
979.118	-152
979.201	-1218
979.284	277
979.367	-986
979.450	-312
979.533	-1631
979.616	-969
979.699	-699
979.782	-486
979.865	-1043
979.948	-1234
980.030	-1182
980.113	-1206
980.196	-1354
980.279	-1084
980.361	-575
980.444	-1058
980.526	-981
980.609	-1565
980.692	-1581
980.774	-947
980.857	-1102
980.939	26
981.022	-1587
981.104	-1038
981.187	-823
981.269	209
981.352	439
981.434	-1510
981.516	-1678
981.599	242
981.681	-935
981.763	-434
981.846	-701
981.928	-540
982.010	-1149
982.092	-1059
982.174	570
982.256	-1407
982.339	-476
982.421	-985
982.503	-466
982.585	-1889
982.667	-248
982.749	-964
982.831	-489
982.913	-2315
982.995	14
983.077	-1773
983.158	128
983.240	-1672
983.322	-376
983.404	-1108
983.486	-1210
983.568	-373
983.649	-1164
983.731	-876
983.813	-680
983.894	-679
983.976	-1057
984.058	-557
984.139	-312
984.221	-2268
984.302	328
984.384	-1138
984.465	-1114
984.547	-1417
984.628	-1501
984.710	-870
984.791	-1601
984.872	-1097
984.954	-1334
985.035	-1361
985.116	-1532
985.198	-1319
985.279	-225
985.360	-1584
985.441	-685
985.522	-963
985.604	-1782
985.685	-2210
985.766	-140
985.847	152
985.928	-490
986.009	-294
986.090	-142
986.171	-261
986.252	-675
986.333	-1854
986.414	-1306
986.495	-903
986.576	-307
986.656	-931
986.737	481
986.818	-907
986.899	-732
986.980	-1020
987.060	-353
987.141	-1495
987.222	-1167
987.302	-1211
987.383	-71
987.464	-1620
987.544	-1028
987.625	-799
987.705	-907
987.786	-1145
987.866	-667
987.947	-1484
988.027	-1146
988.108	-1683
988.188	-536
988.268	-1669
988.349	-1042
988.429	-1012
988.509	-507
988.589	-245
988.670	-1998
988.750	-378
988.830	-933
988.910	-464
988.990	-1256
989.070	-1719
989.151	-691
989.231	-1684
989.311	-394
989.391	-1787
989.471	-896
989.551	-2360
989.631	-789
989.711	-66
989.791	-1990
989.870	-1359
989.950	-113
990.030	-1430
990.110	-1468
990.190	-1313
990.269	-569
990.349	-1876
990.429	-633
990.509	-872
990.588	-1405
990.668	-1595
990.747	-1595
990.827	-1659
990.907	-32
990.986	-1301
991.066	-968
991.145	-1177
991.225	-479
991.304	-947
991.383	-1259
991.463	-1219
991.542	163
991.622	-1463
991.701	-914
991.780	-1643
991.859	-292
991.939	-1259
992.018	-794
992.097	-1419
992.176	-991
992.256	-912
992.335	-2290
992.414	-755
992.493	-738
992.572	-1121
992.651	144
992.730	-807
992.809	-460
992.888	-1730
992.967	-1279
993.046	-708
993.125	-1989
993.203	-1203
993.282	-917
993.361	-1651
993.440	-386
993.519	-1669
993.597	-164
993.676	-870
993.755	-98
993.834	-1066
993.912	-1837
993.991	-665
994.069	-1162
994.148	-941
994.226	-1127
994.305	-542
994.384	-2044
994.462	-54
994.540	-768
994.619	-1375
994.697	-643
994.776	-1969
994.854	-560
994.932	-1857
995.011	-606
995.089	-1949
995.167	-892
995.245	-555
995.324	-1768
995.402	-539
995.480	-764
995.558	-1511
995.636	-1844
995.714	-1996
995.792	-625
995.870	-2423
995.948	-729
996.026	-1497
996.104	-2298
996.182	-768
996.260	-1571
996.338	-1292
996.416	-2098
996.494	-1598
996.572	-972
996.649	-1911
996.727	-1132
996.805	-1214
996.883	-1146
996.960	-1932
997.038	-948
997.116	-1328
997.193	-2126
997.271	-894
997.348	-1542
997.426	-1599
997.504	-1205
997.581	-508
997.658	-792
997.736	-2491
997.813	-1566
997.891	-1324
997.968	-1869
998.046	-859
998.123	-1805
998.200	-1156
998.277	-1971
998.355	-952
998.432	-2215
998.509	-961
998.586	-286
998.663	-403
998.741	-1037
998.818	-1399
998.895	-1259
998.972	-661
999.049	-445
999.126	-1776
999.203	-1274
999.280	-1383
999.357	-1234
999.434	-2177
999.511	-1451
999.587	-1345
999.664	-2201
999.741	-1224
999.818	-520
999.895	-1814
999.971	-1529
1000.048	-1114
1000.125	-138
1000.202	-2025
1000.278	-2201
1000.355	-1061
1000.431	-1789
1000.508	-1778
1000.584	-1145
1000.661	-1241
1000.738	-2067
1000.814	-1628
1000.890	-318
1000.967	-1653
1001.043	-1337
1001.120	-2464
1001.196	-933
1001.272	-2176
1001.349	-1195
1001.425	-1154
1001.501	-1198
1001.577	-1994
1001.654	-1526
1001.730	-2657
1001.806	-1023
1001.882	-2785
1001.958	-1560
1002.034	-2196
1002.110	-935
1002.186	-1556
1002.262	-1981
1002.338	-1989
1002.414	-580
1002.490	-1842
1002.566	-1454
1002.642	-2211
1002.718	-690
1002.794	-1307
1002.870	-1811
1002.945	-1956
1003.021	-1206
1003.097	-1908
1003.173	-855
1003.248	-1738
1003.324	-1641
1003.400	-1034
1003.475	-2102
1003.551	-1368
1003.626	-1198
1003.702	-1748
1003.777	-1809
1003.853	-1245
1003.928	-1664
1004.004	-1601
1004.079	-351
1004.155	-1514
1004.230	-2640
1004.305	-718
1004.381	-2005
1004.456	-946
1004.531	-1327
1004.607	-1721
1004.682	-1910
1004.757	-1856
1004.832	-2018
1004.907	-1685
1004.982	-932
1005.057	-1992
1005.133	-1711
1005.208	-1454
1005.283	-1921
1005.358	-941
1005.433	-1424
1005.508	-1410
1005.583	-1845
1005.657	-2247
1005.732	-403
1005.807	-1735
1005.882	-926
1005.957	-1818
1006.032	-952
1006.106	-1625
1006.181	-1492
1006.256	-879
1006.331	-2167
1006.405	-1810
1006.480	-1238
1006.554	-2098
1006.629	-1089
1006.704	-2399
1006.778	-2093
1006.853	-1541
1006.927	-2034
1007.002	-1593
1007.076	-1077
1007.150	-1708
1007.225	-867
1007.299	-1080
1007.373	-2078
1007.448	-1231
1007.522	-1298
1007.596	-1284
1007.671	-2158
1007.745	-1222
1007.819	-2251
1007.893	-2760
1007.967	-1877
1008.041	-3365
1008.115	-1226
1008.190	-2326
1008.264	-752
1008.338	-3030
1008.412	-1428
1008.486	-1599
1008.560	-830
1008.633	-2603
1008.707	-1909
1008.781	-661
1008.855	-1859
1008.929	-1642
1009.003	-2407
1009.076	-2211
1009.150	-1643
1009.224	-1987
1009.298	-1886
1009.371	-2815
1009.445	-1074
1009.519	-1639
1009.592	-2508
1009.666	-1583
1009.739	-181
1009.813	-2062
1009.886	-390
1009.960	-2863
1010.033	-1299
1010.107	-1152
1010.180	-2439
1010.253	-1536
1010.327	-2143
1010.400	-1710
1010.473	-2057
1010.547	-1068
1010.620	-2045
1010.693	-1253
1010.766	-1670
1010.840	-1017
1010.913	-1800
1010.986	-1729
1011.059	-1248
1011.132	-2454
1011.205	-1110
1011.278	-1972
1011.351	-927
1011.424	-2539
1011.497	-1184
1011.570	-1551
1011.643	-2062
1011.716	-1773
1011.789	-1057
1011.862	-1706
1011.934	-790
1012.007	-2954
1012.080	-2038
1012.153	-1442
1012.225	-556
1012.298	-1693
1012.371	-1097
1012.443	-1705
1012.516	-2130
1012.588	-2134
1012.661	-1536
1012.733	-2353
1012.806	-920
1012.879	-1579
1012.951	-1386
1013.023	-2222
1013.096	-1235
1013.168	-1699
1013.241	-750
1013.313	-1460
1013.385	-1517
1013.458	-1955
1013.530	-1350
1013.602	-1942
1013.674	-1103
1013.746	-2599
1013.819	-2191
1013.891	-1966
1013.963	-2032
1014.035	-1516
1014.107	-1552
1014.179	-1350
1014.251	-1964
1014.323	-1948
1014.395	-1695
1014.467	-1674
1014.539	-1734
1014.611	-2411
1014.683	-1233
1014.754	-1642
1014.826	-2273
1014.898	-2176
1014.970	-2253
1015.042	-1024
1015.113	-1175
1015.185	-2444
1015.257	-2123
1015.328	-1840
1015.400	-2174
1015.471	-1272
1015.543	-2312
1015.615	-1610
1015.686	-1685
1015.757	-2075
1015.829	-781
1015.901	-1435
1015.972	-1418
1016.043	-1379
1016.115	-1903
1016.186	-1877
1016.257	-2286
1016.328	-1353
1016.400	-1241
1016.471	-2022
1016.542	-1032
1016.613	-1630
1016.685	-1220
1016.756	-1546
1016.827	-1808
1016.898	-2344
1016.969	-747
1017.040	-2080
1017.111	-1621
1017.182	-2073
1017.253	-1714
1017.324	-1472
1017.395	-1560
1017.466	-1321
1017.537	-1266
1017.608	-1447
1017.678	-1983
1017.749	-2146
1017.820	-1420
1017.891	-1843
1017.961	-2109
1018.032	-1897
1018.103	-1346
1018.173	-2600
1018.244	-1809
1018.315	-2227
1018.385	-1211
1018.456	-2895
1018.526	-2060
1018.597	-1809
1018.667	-1196
1018.738	-1995
1018.808	-1643
1018.878	-2298
1018.949	-1544
1019.019	-1982
1019.089	-1133
1019.160	-1696
1019.230	-1633
1019.300	-1983
1019.371	-2116
1019.441	-1517
1019.511	-1416
1019.581	-1162
1019.651	-1584
1019.721	-2038
1019.791	-1919
1019.861	-2060
1019.931	-1606
1020.001	-1943
1020.071	-1892
1020.141	-2297
1020.211	-1440
1020.281	-1728
1020.351	-2151
1020.421	-1681
1020.491	-992
1020.560	-2018
1020.630	-2400
1020.700	-1639
1020.770	-1748
1020.839	-2337
1020.909	-1385
1020.979	-2457
1021.048	-1300
1021.118	-1959
1021.187	-2148
1021.257	-1731
1021.326	-1186
1021.396	-1963
1021.465	-1551
1021.535	-1265
1021.604	-1891
1021.674	-2106
1021.743	-1238
1021.812	-2183
1021.882	-2033
1021.951	-2524
1022.020	-1123
1022.089	-1680
1022.159	-1840
1022.228	-2290
1022.297	-1491
1022.366	-1452
1022.435	-1593
1022.504	-1894
1022.573	-1544
1022.642	-1781
1022.711	-1776
1022.781	-1660
1022.849	-1678
1022.918	-2356
1022.987	-1813
1023.056	-1154
1023.125	-1801
1023.194	-1928
1023.263	-2142
1023.331	-1297
1023.400	-1914
1023.469	-1023
1023.538	-971
1023.606	-2702
1023.675	-2019
1023.744	-1962
1023.812	-1950
1023.881	-1459
1023.949	-1688
1024.018	-2094
1024.086	-1477
1024.155	-2351
1024.223	-2069
1024.292	-2055
1024.360	-1274
1024.429	-2451
1024.497	-2496
1024.565	-1605
1024.634	-1890
1024.702	-1722
1024.770	-1485
1024.838	-2317
1024.907	-1395
1024.975	-1850
1025.043	-773
1025.111	-2959
1025.179	-1573
1025.247	-1532
1025.315	-1493
1025.383	-1871
1025.451	-1959
1025.519	-2559
1025.587	-1179
1025.655	-1902
1025.723	-1566
1025.791	-2423
1025.859	-1598
1025.927	-1933
1025.995	-1766
1026.062	-1566
1026.130	-1650
1026.198	-1985
1026.266	-1561
1026.333	-994
1026.401	-1330
1026.469	-1644
1026.536	-1581
1026.604	-1867
1026.671	-1908
1026.739	-2244
1026.806	-1997
1026.874	-2609
1026.941	-1870
1027.009	-1963
1027.076	-1849
1027.144	-1450
1027.211	-1132
1027.278	-2081
1027.345	-2571
1027.413	-934
1027.480	-1280
1027.547	-1857
1027.614	-2022
1027.682	-1948
1027.749	-1810
1027.816	-1769
1027.883	-696
1027.950	-1912
1028.017	-2304
1028.084	-1762
1028.151	-2451
1028.218	-2132
1028.285	-805
1028.352	-2090
1028.419	-2103
1028.486	-1499
1028.553	-969
1028.619	-2449
1028.686	-2082
1028.753	-2195
1028.820	-2132
1028.886	-1621
1028.953	-974
1029.020	-1917
1029.086	-1691
1029.153	-1965
1029.220	-2482
1029.286	-1832
1029.353	-1839
1029.419	-1567
1029.486	-2352
1029.552	-2683
1029.619	-1796
1029.685	-2265
1029.751	-1330
1029.818	-1506
1029.884	-1954
1029.951	-639
1030.017	-2502
1030.083	-2261
1030.149	-1658
1030.216	-2169
1030.282	-1192
1030.348	-1730
1030.414	-2496
1030.480	-1874
1030.546	-1201
1030.612	-2020
1030.678	-1338
1030.744	-2392
1030.810	-1371
1030.876	-1736
1030.942	-1381
1031.008	-1773
1031.074	-2492
1031.140	-2148
1031.206	-1522
1031.272	-1893
1031.337	-2202
1031.403	-1728
1031.469	-1825
1031.534	-2462
1031.600	-922
1031.666	-2180
1031.731	-1534
1031.797	-2493
1031.863	-2196
1031.928	-2517
1031.994	-2672
1032.059	-1719
1032.125	-1967
1032.190	-2414
1032.256	-2298
1032.321	-2619
1032.386	-1864
1032.452	-1027
1032.517	-1367
1032.582	-2868
1032.647	-2134
1032.713	-1592
1032.778	-1727
1032.843	-2001
1032.908	-2087
1032.974	-1767
1033.039	-1675
1033.104	-1852
1033.169	-1783
1033.234	-1874
1033.299	-1505
1033.364	-2140
1033.429	-1794
1033.494	-2266
1033.559	-2145
1033.624	-2609
1033.688	-1266
1033.753	-2125
1033.818	-2071
1033.883	-2904
1033.948	-1817
1034.013	-2295
1034.077	-2268
1034.142	-1562
1034.207	-2380
1034.271	-1964
1034.336	-1682
1034.400	-2409
1034.465	-1837
1034.530	-2090
1034.594	-2047
1034.658	-2058
1034.723	-1788
1034.787	-1578
1034.852	-1557
1034.916	-2380
1034.981	-2322
1035.045	-1846
1035.109	-1583
1035.173	-985
1035.238	-2219
1035.302	-1379
1035.366	-2311
1035.430	-1721
1035.495	-2209
1035.559	-1746
1035.623	-1618
1035.687	-2651
1035.751	-2097
1035.815	-2810
1035.879	-1722
1035.943	-1767
1036.007	-1719
1036.071	-2050
1036.135	-2347
1036.198	-2546
1036.262	-2522
1036.326	-1907
1036.390	-2533
1036.454	-2488
1036.517	-1862
1036.581	-1714
1036.645	-1724
1036.709	-1629
1036.772	-2145
1036.836	-2173
1036.900	-2705
1036.963	-2494
1037.026	-1890
1037.090	-2991
1037.154	-2176
1037.217	-2421
1037.280	-2170
1037.344	-1533
1037.407	-2366
1037.471	-2303
1037.534	-1911
1037.597	-2548
1037.661	-1731
1037.724	-1511
1037.787	-2598
1037.850	-2387
1037.913	-3042
1037.977	-1576
1038.040	-2089
1038.103	-2552
1038.166	-2174
1038.229	-2694
1038.292	-1951
1038.355	-2192
1038.418	-2518
1038.481	-1915
1038.544	-1877
1038.607	-2556
1038.670	-1320
1038.732	-1496
1038.795	-2502
1038.858	-2746
1038.921	-1779
1038.984	-1987
1039.046	-1889
1039.109	-2013
1039.172	-957
1039.234	-2583
1039.297	-2162
1039.360	-1699
1039.422	-2017
1039.485	-2427
1039.547	-2065
1039.610	-2178
1039.672	-2968
1039.734	-1573
1039.797	-1883
1039.859	-2085
1039.922	-1742
1039.984	-1557
1040.046	-2322
1040.109	-2296
1040.171	-1547
1040.233	-1313
1040.295	-2356
1040.358	-2230
1040.420	-2410
1040.482	-2135
1040.544	-2313
1040.606	-2487
1040.668	-1990
1040.730	-2163
1040.792	-2785
1040.854	-1688
1040.916	-2129
1040.978	-2290
1041.040	-1240
1041.102	-1479
1041.164	-2202
1041.225	-2248
1041.287	-2360
1041.349	-2085
1041.411	-2122
1041.472	-2019
1041.534	-2417
1041.596	-3476
1041.657	-2379
1041.719	-1374
1041.781	-2818
1041.842	-2098
1041.904	-1906
1041.965	-2168
1042.027	-1730
1042.088	-1853
1042.150	-1599
1042.211	-1889
1042.272	-835
1042.334	-2850
1042.395	-2153
1042.456	-2403
1042.518	-1775
1042.579	-1965
1042.640	-2466
1042.701	-2140
1042.763	-1829
1042.824	-2610
1042.885	-2041
1042.946	-2183
1043.007	-2085
1043.068	-2086
1043.129	-1881
1043.190	-2640
1043.251	-2001
1043.312	-2201
1043.373	-2129
1043.434	-2876
1043.495	-2682
1043.556	-1920
1043.616	-2217
1043.677	-2404
1043.738	-1479
1043.799	-2255
1043.859	-2006
1043.920	-2217
1043.981	-2058
1044.041	-2310
1044.102	-2217
1044.162	-1505
1044.223	-2412
1044.284	-1771
1044.344	-1888
1044.405	-2040
1044.465	-2221
1044.525	-1932
1044.586	-2230
1044.646	-2723
1044.707	-2400
1044.767	-1336
1044.827	-1524
1044.887	-2456
1044.948	-1124
1045.008	-1059
1045.068	-1480
1045.128	-1435
1045.188	-1857
1045.249	-2369
1045.309	-1602
1045.369	-1983
1045.429	-1523
1045.489	-1594
1045.549	-923
1045.609	-1733
1045.669	-2666
1045.729	-1755
1045.789	-2081
1045.848	-1701
1045.908	-1673
1045.968	-1085
1046.028	-1423
1046.088	-1687
1046.147	-1294
1046.207	-1127
1046.267	-1145
1046.326	-2090
1046.386	-1189
1046.446	-1242
1046.505	-761
1046.565	-142
1046.624	-508
1046.684	-1167
1046.743	-1345
1046.803	-1079
1046.862	-541
1046.922	0
