'Start Wavelength	183.907
'End Wavelength	1046.922
'Gate Delay	5.000
'Gate Width (ms)	1.050
'Laser Output Level	0.000
'X Position	0.000
'Y Position	0.000
'Z Position	0.000
'Grid Point Number	1.000
'Shot Number	100.000
183.907	606.000
183.977	210.000
184.047	858
184.116	389
184.186	47
184.256	-180
184.325	331
184.395	-336
184.465	1132
184.534	907
184.604	-511
184.674	1121
184.743	-233
184.813	53
184.883	64
184.952	-43
185.022	412
185.092	92
185.161	418
185.231	306
185.301	645
185.370	655
185.440	-612
185.509	-97
185.579	473
185.649	1378
185.718	910
185.788	557
185.857	179
185.927	538
185.996	1073
186.066	39
186.136	-516
186.205	26
186.275	791
186.344	559
186.414	130
186.483	-181
186.553	1530
186.622	1627
186.692	780
186.761	327
186.831	266
186.900	410
186.970	1029
187.039	1641
187.109	633
187.178	1263
187.248	176
187.317	1241
187.387	404
187.456	597
187.526	491
187.595	281
187.664	81
187.734	828
187.803	1281
187.873	1238
187.942	965
188.012	313
188.081	514
188.150	1102
188.220	958
188.289	1546
188.358	912
188.428	463
188.497	629
188.567	598
188.636	616
188.705	535
188.775	712
188.844	317
188.913	1806
188.983	760
189.052	1529
189.121	458
189.191	629
189.260	1106
189.329	691
189.399	1034
189.468	636
189.537	371
189.606	449
189.676	1276
189.745	1032
189.814	1001
189.883	1277
189.953	812
190.022	950
190.091	1169
190.161	1932
190.230	1029
190.299	295
190.368	436
190.437	374
190.507	957
190.576	711
190.645	421
190.714	1230
190.783	1030
190.853	792
190.922	1788
190.991	853
191.060	1511
191.129	322
191.198	1209
191.268	726
191.337	677
191.406	792
191.475	283
191.544	32
191.613	1091
191.682	901
191.752	524
191.821	379
191.890	511
191.959	1364
192.028	499
192.097	966
192.166	840
192.235	-82
192.304	696
192.373	298
192.442	45
192.511	448
192.580	238
192.650	909
192.719	873
192.788	1476
192.857	686
192.926	1010
192.995	964
193.064	1032
193.133	1958
193.202	2417
193.271	2405
193.340	1391
193.409	1839
193.478	1985
193.547	1819
193.615	2466
193.684	2925
193.753	1560
193.822	2369
193.891	485
193.960	1812
194.029	979
194.098	1611
194.167	71
194.236	2266
194.305	593
194.374	758
194.443	440
194.512	1087
194.580	879
194.649	1439
194.718	1794
194.787	1098
194.856	1012
194.925	995
194.994	311
195.062	1189
195.131	1378
195.200	1409
195.269	1222
195.338	1812
195.407	87
195.475	1743
195.544	1657
195.613	1055
195.682	1328
195.751	1048
195.819	923
195.888	556
195.957	1189
196.026	1737
196.094	1174
196.163	1224
196.232	1112
196.301	674
196.369	868
196.438	1546
196.507	538
196.576	874
196.644	1276
196.713	725
196.782	696
196.850	1121
196.919	1303
196.988	1032
197.056	554
197.125	1089
197.194	654
197.262	912
197.331	707
197.400	953
197.468	912
197.537	1335
197.606	1181
197.674	1748
197.743	2758
197.812	849
197.880	2301
197.949	1669
198.017	2587
198.086	1451
198.155	953
198.223	1414
198.292	1995
198.360	2404
198.429	833
198.497	1829
198.566	1474
198.635	3785
198.703	1369
198.772	2141
198.840	2475
198.909	3318
198.977	1923
199.046	1425
199.114	1741
199.183	1665
199.251	740
199.320	851
199.388	1270
199.457	1084
199.525	1615
199.594	1685
199.662	917
199.731	2296
199.799	1537
199.867	1826
199.936	1586
200.004	1673
200.073	1661
200.141	959
200.210	431
200.278	1842
200.346	1759
200.415	2836
200.483	1735
200.552	2393
200.620	1154
200.688	1265
200.757	1038
200.825	1351
200.893	1928
200.962	1139
201.030	885
201.098	1508
201.167	1464
201.235	1468
201.303	923
201.372	1462
201.440	1497
201.508	1377
201.577	1808
201.645	1218
201.713	615
201.781	804
201.850	2073
201.918	1182
201.986	2030
202.055	2623
202.123	1587
202.191	1113
202.259	1634
202.327	1804
202.396	1402
202.464	2098
202.532	1563
202.600	3145
202.669	2254
202.737	1640
202.805	1748
202.873	1829
202.941	1624
203.009	1965
203.078	1039
203.146	1682
203.214	1007
203.282	899
203.350	1866
203.418	540
203.487	1675
203.555	1703
203.623	1144
203.691	1642
203.759	1768
203.827	1498
203.895	1760
203.963	2383
204.031	1836
204.099	1714
204.168	1745
204.236	2192
204.304	2014
204.372	1602
204.440	1545
204.508	1586
204.576	1571
204.644	1991
204.712	1459
204.780	1909
204.848	2089
204.916	1692
204.984	859
205.052	1970
205.120	1609
205.188	1742
205.256	568
205.324	1729
205.392	2313
205.460	1694
205.528	787
205.596	1839
205.664	1537
205.732	1839
205.799	3611
205.867	5396
205.935	2128
206.003	2135
206.071	2046
206.139	1497
206.207	1814
206.275	1011
206.343	2047
206.411	1962
206.478	2229
206.546	2454
206.614	2222
206.682	1800
206.750	2697
206.818	2493
206.885	3168
206.953	1297
207.021	2051
207.089	1875
207.157	1862
207.225	2665
207.292	1707
207.360	2552
207.428	1750
207.496	1271
207.563	2079
207.631	1768
207.699	1728
207.767	2638
207.834	1707
207.902	2405
207.970	2381
208.038	1726
208.105	1945
208.173	2438
208.241	2428
208.309	2990
208.376	2283
208.444	2995
208.512	2329
208.579	1530
208.647	2638
208.715	3553
208.782	2495
208.850	2927
208.918	1654
208.985	2225
209.053	2400
209.120	2367
209.188	1794
209.256	1608
209.323	1740
209.391	2306
209.459	2950
209.526	2640
209.594	1655
209.661	2450
209.729	2293
209.796	2322
209.864	2242
209.932	1656
209.999	3606
210.067	2102
210.134	2974
210.202	2969
210.269	3900
210.337	3818
210.404	2480
210.472	2073
210.539	1870
210.607	2392
210.674	2714
210.742	2569
210.809	2172
210.877	3035
210.944	4403
211.012	2607
211.079	3846
211.146	2729
211.214	2622
211.281	4116
211.349	3275
211.416	3266
211.484	3955
211.551	2559
211.618	2861
211.686	3168
211.753	2727
211.821	3483
211.888	2850
211.955	3142
212.023	2995
212.090	3029
212.157	2338
212.225	3142
212.292	4461
212.359	6012
212.427	11471
212.494	7160
212.561	3618
212.629	2913
212.696	3172
212.763	2797
212.831	3375
212.898	3255
212.965	2604
213.032	2983
213.100	2832
213.167	2748
213.234	3607
213.301	3319
213.369	2737
213.436	2920
213.503	2301
213.570	2810
213.638	3245
213.705	2684
213.772	2461
213.839	2509
213.906	3294
213.973	2964
214.041	2317
214.108	2607
214.175	2391
214.242	3936
214.309	3289
214.376	3378
214.444	2946
214.511	3353
214.578	2788
214.645	3453
214.712	4235
214.779	3656
214.846	2850
214.913	4032
214.980	5001
215.048	5194
215.115	5284
215.182	4558
215.249	4536
215.316	3537
215.383	3739
215.450	3130
215.517	3323
215.584	3084
215.651	2196
215.718	2630
215.785	3431
215.852	2608
215.919	3625
215.986	4005
216.053	2479
216.120	2694
216.187	2857
216.254	3971
216.321	3062
216.388	2944
216.455	3714
216.522	2825
216.589	3079
216.656	4978
216.722	5455
216.789	4352
216.856	3840
216.923	3733
216.990	4193
217.057	4094
217.124	4069
217.191	4870
217.258	5760
217.324	6107
217.391	6210
217.458	5759
217.525	5022
217.592	3962
217.659	3263
217.725	4161
217.792	3359
217.859	4592
217.926	3048
217.993	2946
218.059	2952
218.126	2741
218.193	2837
218.260	2212
218.327	2651
218.393	2573
218.460	2760
218.527	2581
218.594	2499
218.660	3904
218.727	4055
218.794	2321
218.860	3223
218.927	3124
218.994	2268
219.061	2337
219.127	3235
219.194	4052
219.261	2694
219.327	1398
219.394	2614
219.461	1728
219.527	2791
219.594	3798
219.661	2748
219.727	1543
219.794	2923
219.860	2723
219.927	3045
219.994	5609
220.060	7195
220.127	7803
220.193	5357
220.260	4993
220.326	6548
220.393	8956
220.460	9782
220.526	7611
220.593	5916
220.659	6519
220.726	6248
220.792	9896
220.859	9953
220.925	12029
220.992	14408
221.058	13511
221.125	12163
221.191	9081
221.258	5498
221.324	4144
221.391	4543
221.457	3093
221.524	3375
221.590	5191
221.657	8693
221.723	7629
221.789	5934
221.856	6572
221.922	4680
221.989	4268
222.055	3483
222.121	3378
222.188	5598
222.254	3895
222.321	4087
222.387	3070
222.453	3801
222.520	3253
222.586	2329
222.652	2916
222.719	2388
222.785	3350
222.851	2547
222.918	2980
222.984	2986
223.050	3499
223.116	1769
223.183	3083
223.249	1770
223.315	1962
223.382	2838
223.448	2349
223.514	1266
223.580	2157
223.647	1655
223.713	2023
223.779	2602
223.845	2279
223.911	2017
223.978	1941
224.044	2494
224.110	1630
224.176	1574
224.242	1852
224.309	1342
224.375	2801
224.441	2179
224.507	1931
224.573	1354
224.639	2832
224.705	1360
224.772	2534
224.838	1404
224.904	2974
224.970	1895
225.036	2530
225.102	1331
225.168	2530
225.234	3370
225.300	2621
225.366	1563
225.432	2224
225.499	2846
225.565	2774
225.631	2840
225.697	3305
225.763	3583
225.829	3644
225.895	3948
225.961	5354
226.027	5594
226.093	4162
226.159	7076
226.225	9371
226.291	16399
226.357	23859
226.423	14532
226.489	9301
226.554	6732
226.620	6382
226.686	8227
226.752	10781
226.818	15600
226.884	26121
226.950	24680
227.016	14162
227.082	8233
227.148	6620
227.214	6748
227.279	6413
227.345	5166
227.411	5396
227.477	7491
227.543	11295
227.609	12879
227.674	10062
227.740	5580
227.806	5076
227.872	3658
227.938	4529
228.003	5474
228.069	3121
228.135	2605
228.201	3412
228.267	2841
228.332	3281
228.398	3278
228.464	2991
228.530	2265
228.595	2567
228.661	2155
228.727	3773
228.792	4077
228.858	1629
228.924	1617
228.990	4630
229.055	2122
229.121	3988
229.187	2196
229.252	2442
229.318	2269
229.384	3142
229.449	3291
229.515	1166
229.581	563
229.646	4003
229.712	2451
229.777	4105
229.843	4681
229.909	4433
229.974	5365
230.040	5612
230.105	3953
230.171	3375
230.236	5439
230.302	6991
230.368	5319
230.433	3918
230.499	3686
230.564	5732
230.630	3709
230.695	3463
230.761	3604
230.826	2339
230.892	5244
230.957	2698
231.023	2004
231.088	3367
231.154	2772
231.219	3317
231.284	3103
231.350	5413
231.415	3063
231.481	2570
231.546	2215
231.612	2787
231.677	2282
231.742	763
231.808	3599
231.873	1788
231.939	48
232.004	4808
232.069	3848
232.135	2770
232.200	1949
232.265	2793
232.331	2830
232.396	2079
232.461	1750
232.527	1872
232.592	1577
232.657	2828
232.723	3437
232.788	3336
232.853	2877
232.918	2750
232.984	1383
233.049	2839
233.114	3023
233.179	3907
233.245	4515
233.310	4837
233.375	1710
233.440	2552
233.506	2545
233.571	2309
233.636	2544
233.701	2786
233.766	2873
233.832	4139
233.897	2640
233.962	1327
234.027	4013
234.092	2943
234.157	2228
234.222	3768
234.288	3266
234.353	7528
234.418	6992
234.483	5449
234.548	4396
234.613	3713
234.678	4689
234.743	3735
234.808	8186
234.873	6112
234.938	5179
235.004	3930
235.069	3197
235.134	2652
235.199	4311
235.264	3234
235.329	1367
235.394	3645
235.459	3387
235.524	2542
235.589	3716
235.654	3222
235.719	2214
235.784	3757
235.849	2717
235.913	5186
235.978	5271
236.043	5586
236.108	3743
236.173	2824
236.238	4246
236.303	3556
236.368	3021
236.433	5069
236.498	7004
236.563	7114
236.627	13064
236.692	32968
236.757	31724
236.822	15547
236.887	9326
236.952	9360
237.017	6880
237.081	8588
237.146	9671
237.211	20232
237.276	33670
237.341	44457
237.405	29641
237.470	14018
237.535	9536
237.600	7162
237.664	6485
237.729	4720
237.794	7034
237.859	14116
237.923	8467
237.988	5516
238.053	5772
238.118	5413
238.182	10587
238.247	10898
238.312	3993
238.376	5273
238.441	3040
238.506	5267
238.570	1792
238.635	4237
238.700	3337
238.764	3195
238.829	6096
238.893	6055
238.958	4748
239.023	5412
239.087	3446
239.152	3813
239.216	3655
239.281	4174
239.346	3784
239.410	3565
239.475	3309
239.539	9999
239.604	7220
239.668	5715
239.733	6507
239.797	11999
239.862	21151
239.926	20395
239.991	9736
240.055	6114
240.120	4377
240.184	5268
240.249	3188
240.313	3403
240.378	3140
240.442	6127
240.507	9974
240.571	4696
240.635	4564
240.700	5615
240.764	3100
240.829	3499
240.893	2052
240.957	3522
241.022	5756
241.086	8845
241.151	4539
241.215	2108
241.279	4711
241.344	5167
241.408	4726
241.472	3702
241.537	4959
241.601	4761
241.665	4065
241.730	3995
241.794	5451
241.858	4796
241.922	4176
241.987	4773
242.051	3390
242.115	3964
242.179	4937
242.244	3644
242.308	4926
242.372	4191
242.436	5302
242.501	3926
242.565	2964
242.629	3569
242.693	4267
242.757	2883
242.822	3711
242.886	4124
242.950	4585
243.014	2524
243.078	4504
243.142	4365
243.206	3363
243.271	5296
243.335	4066
243.399	6955
243.463	17399
243.527	43945
243.591	16457
243.655	7693
243.719	5179
243.783	6289
243.847	8049
243.911	10847
243.975	9502
244.040	7086
244.104	6266
244.168	4506
244.232	4957
244.296	8130
244.360	9303
244.424	5062
244.488	4599
244.552	4873
244.615	3022
244.679	3523
244.743	4064
244.807	4285
244.871	3492
244.935	3666
244.999	2471
245.063	3875
245.127	4315
245.191	7339
245.255	6841
245.319	5525
245.383	3080
245.446	4414
245.510	2566
245.574	3611
245.638	3938
245.702	3557
245.766	8224
245.829	6626
245.893	3466
245.957	3441
246.021	5763
246.085	4483
246.149	5104
246.212	10450
246.276	14054
246.340	7765
246.404	5927
246.467	6526
246.531	6598
246.595	5901
246.659	5847
246.722	3759
246.786	6116
246.850	5872
246.913	7866
246.977	4248
247.041	4385
247.104	5124
247.168	4702
247.232	10115
247.295	17986
247.359	11178
247.423	6064
247.486	9322
247.550	6390
247.614	4464
247.677	6532
247.741	4976
247.804	4408
247.868	5785
247.932	7306
247.995	18379
248.059	8144
248.122	4450
248.186	6802
248.249	9412
248.313	25562
248.376	29775
248.440	19800
248.503	8211
248.567	8521
248.630	9653
248.694	13611
248.757	17155
248.821	29402
248.884	21765
248.948	16707
249.011	23407
249.075	33447
249.138	30541
249.202	14047
249.265	9328
249.328	9333
249.392	8392
249.455	7812
249.519	7469
249.582	8238
249.645	12263
249.709	10479
249.772	7550
249.835	5997
249.899	6930
249.962	7443
250.025	6550
250.089	12309
250.152	17419
250.215	10196
250.279	6945
250.342	8439
250.405	8692
250.468	7135
250.532	9919
250.595	14887
250.658	38616
250.721	63833
250.785	28046
250.848	16115
250.911	10505
250.974	10241
251.038	11784
251.101	19469
251.164	11641
251.227	12913
251.290	13282
251.354	17068
251.417	53238
251.480	60386
251.543	44021
251.606	89773
251.669	77241
251.732	36975
251.795	30747
251.859	31235
251.922	61305
251.985	42406
252.048	19814
252.111	14003
252.174	12568
252.237	20584
252.300	37731
252.363	41612
252.426	74870
252.489	37357
252.552	20183
252.615	14120
252.678	14772
252.741	28516
252.804	40446
252.867	80047
252.930	50884
252.993	28412
253.056	17228
253.119	14393
253.182	10471
253.245	16815
253.308	14703
253.371	10758
253.434	10484
253.497	11205
253.559	17577
253.622	12857
253.685	13813
253.748	14693
253.811	8367
253.874	9451
253.937	8584
254.000	7325
254.062	12340
254.125	18944
254.188	20083
254.251	17660
254.314	7709
254.376	12567
254.439	15440
254.502	12106
254.565	11706
254.628	20738
254.690	12603
254.753	7606
254.816	7244
254.878	6571
254.941	13006
255.004	13694
255.067	6859
255.129	6775
255.192	4843
255.255	4409
255.317	6228
255.380	4581
255.443	4002
255.505	4253
255.568	4069
255.631	4525
255.693	5708
255.756	4527
255.819	5537
255.881	4024
255.944	4258
256.006	3199
256.069	4302
256.132	4039
256.194	5045
256.257	8155
256.319	7433
256.382	7335
256.444	8333
256.507	6134
256.569	7274
256.632	6759
256.694	8548
256.757	22477
256.819	62410
256.882	30064
256.944	12893
257.007	9200
257.069	9260
257.132	7515
257.194	7781
257.257	7055
257.319	8736
257.381	8831
257.444	18403
257.506	63246
257.569	79779
257.631	41976
257.693	20831
257.756	10639
257.818	8353
257.880	7058
257.943	6788
258.005	5733
258.067	6427
258.130	6182
258.192	6334
258.254	8501
258.317	6405
258.379	6253
258.441	14199
258.503	13063
258.566	10566
258.628	14464
258.690	5280
258.753	6339
258.815	10635
258.877	6961
258.939	5541
259.001	6368
259.064	6082
259.126	5439
259.188	6128
259.250	7224
259.312	9184
259.375	18199
259.437	12972
259.499	6417
259.561	6674
259.623	7709
259.685	6426
259.747	5434
259.809	11187
259.872	18515
259.934	26408
259.996	33674
260.058	12878
260.120	5428
260.182	6174
260.244	4478
260.306	5007
260.368	6096
260.430	5116
260.492	11681
260.554	23277
260.616	15683
260.678	16676
260.740	20818
260.802	6985
260.864	6986
260.926	5650
260.988	6446
261.050	6752
261.112	15913
261.174	31023
261.236	18274
261.298	8181
261.359	9044
261.421	13164
261.483	6065
261.545	6795
261.607	4213
261.669	4376
261.731	6799
261.793	13403
261.854	8617
261.916	5798
261.978	6926
262.040	7724
262.102	5510
262.164	6211
262.225	6263
262.287	5697
262.349	9970
262.411	9777
262.472	6076
262.534	5690
262.596	10921
262.658	6631
262.719	4290
262.781	5811
262.843	9503
262.904	7764
262.966	6906
263.028	7502
263.090	23173
263.151	67065
263.213	27204
263.275	16432
263.336	7708
263.398	6404
263.459	3911
263.521	5238
263.583	10254
263.644	8082
263.706	4642
263.767	3677
263.829	3614
263.891	3963
263.952	3723
264.014	3394
264.075	8883
264.137	23677
264.198	10639
264.260	4755
264.321	5114
264.383	11118
264.444	32184
264.506	12484
264.567	7009
264.629	12226
264.690	29570
264.752	12051
264.813	6494
264.875	5421
264.936	6203
264.998	6242
265.059	5587
265.120	6752
265.182	8503
265.243	33520
265.305	41435
265.366	12091
265.427	6041
265.489	6155
265.550	4162
265.611	5467
265.673	6178
265.734	6372
265.795	4744
265.857	4541
265.918	5752
265.979	10779
266.040	51773
266.102	52961
266.163	16297
266.224	12444
266.286	7137
266.347	4367
266.408	4659
266.469	4740
266.530	3336
266.592	4634
266.653	6362
266.714	11737
266.775	5482
266.836	4257
266.898	4322
266.959	7765
267.020	7548
267.081	5547
267.142	4008
267.203	4352
267.264	3219
267.326	4916
267.387	3367
267.448	3836
267.509	4423
267.570	4216
267.631	3435
267.692	3217
267.753	3996
267.814	3216
267.875	7086
267.936	14774
267.997	12183
268.058	10172
268.119	6369
268.180	5558
268.241	4154
268.302	4140
268.363	3914
268.424	3448
268.485	4674
268.546	4145
268.607	3293
268.668	3495
268.729	3166
268.790	3698
268.851	4418
268.912	10816
268.972	12044
269.033	7083
269.094	4301
269.155	3744
269.216	3330
269.277	4205
269.338	3364
269.398	4409
269.459	5004
269.520	6358
269.581	6847
269.642	8044
269.702	5823
269.763	5543
269.824	4887
269.885	4836
269.945	7598
270.006	5246
270.067	3158
270.128	3974
270.188	4124
270.249	4003
270.310	3427
270.370	4578
270.431	3348
270.492	3537
270.553	3624
270.613	6739
270.674	13105
270.734	7090
270.795	5016
270.856	5867
270.916	5915
270.977	4583
271.038	5964
271.098	5053
271.159	7730
271.219	7712
271.280	4740
271.340	4858
271.401	3757
271.462	7005
271.522	6555
271.583	5178
271.643	4196
271.704	5339
271.764	4976
271.825	10495
271.885	28125
271.946	38964
272.006	15665
272.066	18157
272.127	31200
272.187	18461
272.248	10750
272.308	8052
272.369	20712
272.429	12713
272.489	11126
272.550	12211
272.610	10656
272.671	9939
272.731	8188
272.791	10692
272.852	7842
272.912	6900
272.972	4674
273.033	4699
273.093	6911
273.153	9034
273.214	6639
273.274	6653
273.334	19319
273.394	34083
273.455	14093
273.515	12879
273.575	29434
273.635	13317
273.696	13644
273.756	26020
273.816	12855
273.876	8132
273.936	11050
273.997	20524
274.057	8152
274.117	7949
274.177	8822
274.237	36163
274.297	31849
274.358	18012
274.418	21854
274.478	19877
274.538	8215
274.598	6811
274.658	13484
274.718	18383
274.778	9647
274.838	6447
274.898	8900
274.958	23129
275.018	26114
275.078	19073
275.138	9157
275.198	5665
275.258	5327
275.318	5468
275.378	8845
275.438	11292
275.498	8425
275.558	13126
275.618	25321
275.678	21129
275.738	15530
275.798	13931
275.858	10000
275.918	4886
275.978	6612
276.038	6881
276.098	5087
276.157	8528
276.217	22576
276.277	12163
276.337	8934
276.397	5786
276.457	6147
276.517	5996
276.576	4431
276.636	4224
276.696	6643
276.756	12760
276.815	11414
276.875	5942
276.935	6022
276.995	6775
277.055	5325
277.114	6389
277.174	6254
277.234	17665
277.293	9300
277.353	5966
277.413	5042
277.472	5917
277.532	5986
277.592	5575
277.651	13141
277.711	25363
277.771	10055
277.830	29435
277.890	25132
277.950	15484
278.009	46252
278.069	19532
278.128	17453
278.188	25492
278.248	11873
278.307	25614
278.367	17814
278.426	7276
278.486	5946
278.545	5535
278.605	4962
278.664	4755
278.724	5112
278.783	11658
278.843	28045
278.902	10818
278.962	6717
279.021	7426
279.081	7223
279.140	8515
279.199	8254
279.259	9414
279.318	8602
279.378	10447
279.437	17110
279.496	52973
279.556	106408
279.615	84466
279.675	24763
279.734	17072
279.793	25263
279.853	45786
279.912	22301
279.971	12322
280.031	12146
280.090	21331
280.149	36851
280.208	21531
280.268	72334
280.327	78680
280.386	20294
280.445	17009
280.505	17667
280.564	10782
280.623	8578
280.682	10970
280.742	17069
280.801	8144
280.860	6100
280.919	6575
280.978	6475
281.037	5507
281.097	5004
281.156	5596
281.215	4966
281.274	6282
281.333	19989
281.392	17479
281.451	6052
281.510	5386
281.569	3700
281.628	4936
281.688	4130
281.747	5760
281.806	6102
281.865	5245
281.924	4484
281.983	5248
282.042	3658
282.101	4021
282.160	4245
282.219	4663
282.278	4232
282.337	12890
282.396	10434
282.454	5944
282.513	6356
282.572	18221
282.631	11918
282.690	6206
282.749	4469
282.808	6862
282.867	5906
282.926	6045
282.985	4091
283.043	4215
283.102	4465
283.161	5178
283.220	10275
283.279	20575
283.338	9340
283.396	6462
283.455	5464
283.514	5716
283.573	7670
283.631	7246
283.690	5536
283.749	5375
283.808	8735
283.866	10690
283.925	4919
283.984	6359
284.043	6673
284.101	7371
284.160	5871
284.219	9341
284.277	7640
284.336	8586
284.395	22837
284.453	21526
284.512	9281
284.570	10263
284.629	9769
284.688	8872
284.746	8940
284.805	9579
284.863	13037
284.922	16305
284.981	18803
285.039	25560
285.098	40612
285.156	85841
285.215	136949
285.273	138359
285.332	100296
285.390	54907
285.449	33355
285.507	23163
285.566	17676
285.624	14818
285.683	12865
285.741	10309
285.799	8752
285.858	9799
285.916	8720
285.975	7638
286.033	6754
286.091	6631
286.150	6354
286.208	6428
286.267	7157
286.325	7028
286.383	8678
286.442	8777
286.500	5470
286.558	5626
286.616	5126
286.675	6953
286.733	6717
286.791	6326
286.850	6522
286.908	7512
286.966	11479
287.024	7402
287.083	6185
287.141	4773
287.199	5226
287.257	7847
287.315	6648
287.374	6704
287.432	12837
287.490	10781
287.548	6755
287.606	6637
287.664	5325
287.723	8081
287.781	10335
287.839	8021
287.897	8560
287.955	11336
288.013	15862
288.071	25785
288.129	81550
288.187	199958
288.245	111268
288.303	40689
288.361	22090
288.419	17519
288.477	12059
288.535	10507
288.593	8942
288.651	8123
288.709	7259
288.767	6436
288.825	6272
288.883	5927
288.941	6037
288.999	5179
289.057	5147
289.115	5655
289.173	5000
289.231	6448
289.289	5186
289.346	5322
289.404	6405
289.462	8189
289.520	8294
289.578	6198
289.636	4767
289.694	5480
289.751	5143
289.809	5398
289.867	5648
289.925	6481
289.983	6521
290.040	5611
290.098	4402
290.156	5559
290.214	6178
290.271	5084
290.329	5609
290.387	6019
290.444	4318
290.502	4434
290.560	4342
290.617	5823
290.675	4752
290.733	4996
290.790	5067
290.848	5738
290.906	5659
290.963	6121
291.021	6076
291.078	5474
291.136	6815
291.194	14439
291.251	31702
291.309	10932
291.366	6104
291.424	5409
291.481	6208
291.539	5855
291.596	5015
291.654	5192
291.711	4835
291.769	5812
291.826	8274
291.884	6642
291.941	5193
291.999	4735
292.056	5523
292.114	5915
292.171	4746
292.228	6243
292.286	7427
292.343	9340
292.401	10131
292.458	7866
292.515	6117
292.573	8750
292.630	7896
292.687	6476
292.745	6477
292.802	8298
292.859	20203
292.917	23497
292.974	14227
293.031	7728
293.089	5229
293.146	6016
293.203	5062
293.260	5856
293.318	7162
293.375	12617
293.432	7722
293.489	6479
293.546	6289
293.604	7195
293.661	13165
293.718	33916
293.775	22294
293.832	11062
293.889	9505
293.947	11096
294.004	9402
294.061	9017
294.118	13216
294.175	27605
294.232	43196
294.289	18502
294.346	11069
294.403	10200
294.460	8671
294.517	7270
294.574	7587
294.631	7970
294.688	8311
294.745	12160
294.802	39887
294.859	58304
294.916	24185
294.973	14752
295.030	10508
295.087	9242
295.144	7848
295.201	6949
295.258	7113
295.315	8385
295.372	14549
295.429	28344
295.486	14946
295.542	11475
295.599	27369
295.656	49453
295.713	29300
295.770	29278
295.827	14524
295.883	8626
295.940	7970
295.997	11652
296.054	11950
296.111	7894
296.167	7810
296.224	5900
296.281	5775
296.338	6596
296.394	6799
296.451	7104
296.508	15786
296.564	26798
296.621	20153
296.678	29810
296.734	46568
296.791	21465
296.848	11886
296.904	11782
296.961	20172
297.018	30318
297.074	26562
297.131	12577
297.187	9749
297.244	10625
297.301	25249
297.357	48995
297.414	20101
297.470	11021
297.527	8846
297.583	8181
297.640	7762
297.696	6710
297.753	6331
297.809	6798
297.866	5574
297.922	6091
297.979	4793
298.035	6737
298.092	8461
298.148	18937
298.204	18674
298.261	10581
298.317	15947
298.374	36642
298.430	24034
298.486	11332
298.543	9495
298.599	9409
298.656	10089
298.712	15239
298.768	35016
298.824	28167
298.881	11966
298.937	7975
298.993	7215
299.050	8481
299.106	8919
299.162	8289
299.218	8304
299.275	7688
299.331	8685
299.387	12099
299.443	33094
299.500	50275
299.556	30689
299.612	14931
299.668	13460
299.724	27260
299.780	33294
299.837	15648
299.893	14278
299.949	38009
300.005	50390
300.061	36323
300.117	58772
300.173	30070
300.229	13729
300.285	14926
300.341	16673
300.397	10841
300.453	8026
300.510	9218
300.566	11095
300.622	14188
300.678	40385
300.734	61911
300.790	38513
300.845	36894
300.901	32702
300.957	50750
301.013	31292
301.069	13799
301.125	10489
301.181	11078
301.237	8803
301.293	6706
301.349	6840
301.405	7359
301.461	6951
301.516	9077
301.572	7306
301.628	12271
301.684	10415
301.740	14476
301.796	21999
301.851	15661
301.907	24122
301.963	23029
302.019	28160
302.074	75636
302.130	78240
302.186	39326
302.242	18345
302.297	13412
302.353	12278
302.409	20891
302.464	18581
302.520	15040
302.576	31155
302.631	35991
302.687	22666
302.743	12372
302.798	8536
302.854	7389
302.910	7779
302.965	10157
303.021	14947
303.076	12823
303.132	14939
303.187	18933
303.243	11440
303.299	8327
303.354	8134
303.410	7259
303.465	7030
303.521	7613
303.576	7653
303.632	7067
303.687	10250
303.743	27621
303.798	25189
303.853	12861
303.909	8929
303.964	8268
304.020	11046
304.075	14640
304.130	12318
304.186	20606
304.241	21509
304.297	18487
304.352	12695
304.358	12466
304.407	10612
304.449	10064
304.463	9878
304.518	10315
304.539	10024
304.573	9569
304.629	8733
304.630	8764
304.684	10633
304.720	18269
304.739	21962
304.794	31821
304.811	27847
304.850	18369
304.902	10837
304.905	10370
304.960	8979
304.992	9140
305.015	9165
305.071	9556
305.083	9207
305.126	7990
305.173	6912
305.181	6747
305.236	6377
305.264	6996
305.292	7666
305.347	8072
305.354	8264
305.402	9561
305.445	10321
305.457	10493
305.512	12176
305.535	11695
305.567	11044
305.622	11121
305.626	11305
305.678	17474
305.716	30533
305.733	34394
305.788	37092
305.807	31962
305.843	24398
305.897	29761
305.898	29788
305.953	29829
305.988	21203
306.008	16872
306.063	12898
306.078	11888
306.118	9441
306.168	8396
306.173	8338
306.228	6890
306.259	7171
306.283	7365
306.338	6618
306.349	6665
306.393	7263
306.440	9280
306.448	9609
306.503	9946
306.530	10187
306.558	12950
306.613	25174
306.620	26803
306.668	33342
306.711	36362
306.723	35894
306.778	27470
306.801	21337
306.833	15248
306.888	9599
306.892	9407
306.943	8548
306.982	7924
306.997	7782
307.052	8823
307.072	8890
307.107	10034
307.162	13388
307.163	13434
307.217	19650
307.253	23175
307.272	23311
307.327	23238
307.343	21264
307.381	17645
307.434	14592
307.436	14955
307.491	28863
307.524	41099
307.546	42258
307.600	35539
307.614	31010
307.655	20280
307.704	13341
307.710	13439
307.765	17512
307.795	21764
307.819	25391
307.874	40543
307.885	40802
307.929	33233
307.975	25407
307.984	26240
308.038	36348
308.065	43317
308.093	70457
308.148	137645
308.156	150772
308.202	202183
308.246	235017
308.257	227889
308.312	137738
308.336	98991
308.366	75603
308.421	46693
308.426	44117
308.475	30493
308.517	22840
308.530	21512
308.585	18360
308.607	17534
308.639	18389
308.694	20169
308.697	20410
308.748	37361
308.787	54145
308.803	52837
308.857	38758
308.877	32049
308.912	28760
308.967	28583
308.967	28587
309.021	38002
309.058	45407
309.076	57349
309.130	97905
309.148	113185
309.185	180484
309.238	292638
309.239	293398
309.293	293543
309.328	273502
309.348	241789
309.402	134559
309.418	105882
309.457	77478
309.508	48205
309.511	47421
309.566	38986
309.598	34810
309.620	36015
309.674	41706
309.688	43351
309.729	40929
309.778	35624
309.783	35140
309.837	28737
309.868	25451
309.892	30509
309.946	43795
309.959	47912
310.001	57798
310.049	66522
310.055	64291
310.109	38287
310.139	23634
310.163	20053
310.218	14985
310.229	14075
310.272	12547
310.319	11682
310.326	11628
310.381	11303
310.409	11073
310.435	11058
310.489	11013
310.499	11087
310.543	12128
310.589	12697
310.598	12617
310.652	12636
310.679	12296
310.706	11294
310.760	9477
310.769	9143
310.814	8280
310.859	7642
310.868	7740
310.923	8363
310.948	8578
310.977	9055
311.031	10135
311.038	10287
311.085	10123
311.128	9634
311.139	9606
311.193	9616
311.218	9567
311.247	9275
311.301	8591
311.308	8520
311.356	8880
311.398	9166
311.410	9093
311.464	8556
311.488	8369
311.518	8314
311.572	8027
311.578	8002
311.626	10028
311.668	11845
311.680	12360
311.734	14503
311.758	15430
311.788	14640
311.842	13090
311.847	12910
311.896	19169
311.937	24645
311.950	23919
312.004	20404
312.027	18776
312.058	15457
312.112	9542
312.117	8944
312.165	9888
312.207	10688
312.297	18499
312.386	13647
312.476	11696
312.566	17789
312.656	10190
312.745	8840
312.835	10953
312.925	12460
313.015	12120
313.104	13101
313.194	9897
313.284	10128
313.374	11301
313.463	11330
313.553	9940
313.643	9949
313.732	10167
313.822	10608
313.912	11378
314.001	12683
314.091	16286
314.180	21582
314.270	15206
314.360	17466
314.449	13208
314.539	10971
314.628	11235
314.718	14681
314.808	16266
314.897	11699
314.987	11644
315.076	13517
315.166	16473
315.255	16441
315.345	15766
315.434	15598
315.524	15534
315.613	15883
315.703	18459
315.792	37399
315.881	116335
315.971	36637
316.060	27342
316.150	41715
316.239	41275
316.328	16635
316.418	11336
316.507	12562
316.597	14779
316.686	14432
316.775	24983
316.865	43349
316.954	12917
317.043	11134
317.133	10488
317.222	9448
317.311	9111
317.400	8220
317.490	13901
317.579	13362
317.668	13389
317.757	20514
317.847	62484
317.936	185919
318.025	54263
318.114	43705
318.203	22928
318.293	23988
318.382	43051
318.471	33812
318.560	52156
318.649	98097
318.738	21899
318.828	16111
318.917	14451
319.006	20432
319.095	49691
319.184	117070
319.273	48221
319.362	23681
319.451	12827
319.540	12488
319.629	21803
319.718	29818
319.807	18562
319.896	41623
319.985	135865
320.074	40298
320.163	18077
320.252	28808
320.341	26124
320.430	21743
320.519	22098
320.608	15879
320.697	16067
320.786	15556
320.875	17486
320.964	20792
321.053	26522
321.142	35874
321.230	36221
321.319	37045
321.408	67033
321.497	33418
321.586	32248
321.675	46526
321.764	39012
321.852	29709
321.941	40267
322.030	28163
322.119	37526
322.207	66546
322.296	65000
322.385	41555
322.474	40422
322.562	78628
322.651	44850
322.740	37053
322.829	51745
322.917	58396
323.006	29602
323.095	27327
323.183	25139
323.272	30662
323.361	52605
323.449	140326
323.538	46385
323.626	112532
323.715	57942
323.804	32068
323.892	100287
323.981	44346
324.069	20745
324.158	63714
324.246	45895
324.335	20606
324.424	23794
324.512	13051
324.601	15193
324.689	26070
324.778	41527
324.866	41321
324.954	14309
325.043	15115
325.131	26995
325.220	47127
325.308	50074
325.397	38186
325.485	20697
325.574	12882
325.662	10432
325.750	10252
325.839	11057
325.927	10227
326.015	13013
326.104	22716
326.192	26697
326.280	10704
326.369	10472
326.457	14011
326.545	19495
326.634	10333
326.722	8826
326.810	10291
326.898	10613
326.987	12063
327.075	21446
327.163	23301
327.251	14441
327.340	20062
327.428	23346
327.516	12353
327.604	11828
327.692	11870
327.781	14937
327.869	23478
327.957	13547
328.045	11912
328.133	8460
328.221	12656
328.309	9360
328.397	10529
328.485	11491
328.574	16260
328.662	40181
328.750	26919
328.838	14880
328.926	11020
329.014	10359
329.102	14389
329.190	36786
329.278	18817
329.366	9047
329.454	9989
329.542	9770
329.630	9473
329.718	11304
329.806	12251
329.893	15723
329.981	17992
330.069	28102
330.157	94452
330.245	205960
330.333	105852
330.421	25775
330.509	20685
330.597	44482
330.684	31755
330.772	19042
330.860	29768
330.948	37276
331.036	15250
331.123	8826
331.211	11183
331.299	14176
331.387	34098
331.475	48201
331.562	17123
331.650	10155
331.738	12316
331.825	17418
331.913	9349
332.001	8973
332.089	14722
332.176	27260
332.264	60071
332.352	39269
332.439	15244
332.527	11854
332.614	12447
332.702	14481
332.790	12827
332.877	28943
332.965	49385
333.052	13766
333.140	14466
333.228	25364
333.315	11765
333.403	13004
333.490	37012
333.578	25277
333.665	23408
333.753	16565
333.840	11811
333.928	16945
334.015	40191
334.103	56077
334.190	145517
334.278	43657
334.365	34251
334.452	27649
334.540	21023
334.627	26879
334.715	34252
334.802	57616
334.889	209919
334.977	169381
335.064	45746
335.151	26249
335.239	24500
335.326	27220
335.413	84401
335.501	89126
335.588	23727
335.675	22033
335.762	32407
335.850	46889
335.937	45155
336.024	88424
336.111	231193
336.199	105988
336.286	38759
336.373	24322
336.460	18243
336.547	15668
336.635	18000
336.722	14655
336.809	15073
336.896	18189
336.983	52411
337.070	112820
337.157	138294
337.245	118976
337.332	71917
337.419	17122
337.506	14142
337.593	16478
337.680	49356
337.767	115218
337.854	34111
337.941	40535
338.028	46727
338.115	18399
338.202	24928
338.289	41363
338.376	112916
338.463	35613
338.550	78253
338.637	65654
338.724	30266
338.811	39495
338.898	11739
338.984	10461
339.071	14320
339.158	14337
339.245	26468
339.332	16884
339.419	31021
339.506	25131
339.593	8217
339.679	8546
339.766	8964
339.853	12001
339.940	17742
340.027	9240
340.113	9538
340.200	12110
340.287	10800
340.374	10929
340.460	15847
340.547	8506
340.634	13606
340.720	39732
340.807	21308
340.894	8203
340.980	9212
341.067	9414
341.154	11226
341.240	12868
341.327	20589
341.414	9025
341.500	9916
341.587	9449
341.674	8740
341.760	16462
341.847	18071
341.933	8214
342.020	6518
342.106	7482
342.193	9483
342.279	11807
342.366	11220
342.452	15690
342.539	9954
342.625	20177
342.712	39441
342.798	17445
342.885	10067
342.971	6998
343.058	8156
343.144	7278
343.230	7574
343.317	7947
343.403	6799
343.490	6540
343.576	6918
343.662	8072
343.749	8865
343.835	11538
343.921	17149
344.008	73055
344.094	135548
344.180	31245
344.267	17125
344.353	50985
344.439	53116
344.525	22215
344.612	14728
344.698	13535
344.784	9483
344.870	7149
344.957	8112
345.043	10923
345.129	9317
345.215	14817
345.301	10092
345.387	7392
345.474	7738
345.560	7901
345.646	11568
345.732	9002
345.818	9274
345.904	8956
345.990	9631
346.076	11970
346.162	20941
346.249	10065
346.335	8060
346.421	9690
346.507	24540
346.593	59713
346.679	17073
346.765	11845
346.851	12576
346.937	10870
347.023	9457
347.108	9119
347.194	8476
347.280	7863
347.366	11994
347.452	30973
347.538	81563
347.624	59294
347.710	48278
347.796	12638
347.882	10308
347.967	10230
348.053	15694
348.139	10304
348.225	7675
348.311	7381
348.397	7776
348.482	10003
348.568	12326
348.654	10601
348.740	24074
348.825	25481
348.911	17227
348.997	41753
349.083	67199
349.168	14616
349.254	9562
349.340	9155
349.425	8209
349.511	10702
349.597	12484
349.682	18355
349.768	47389
349.854	21538
349.939	10419
350.025	8468
350.110	9390
350.196	7959
350.282	6997
350.367	8542
350.453	15742
350.538	14283
350.624	12156
350.709	11231
350.795	8383
350.880	7541
350.966	9901
351.051	14157
351.137	11176
351.222	8622
351.308	18302
351.393	39290
351.479	12182
351.564	6882
351.649	8328
351.735	8002
351.820	6959
351.906	7777
351.991	11321
352.076	30652
352.162	37002
352.247	10716
352.332	8586
352.418	13328
352.503	17875
352.588	57199
352.673	39973
352.759	12777
352.844	8371
352.929	9426
353.014	11190
353.100	11333
353.185	22634
353.270	20626
353.355	17107
353.441	9128
353.526	11017
353.611	16872
353.696	16898
353.781	11373
353.866	7246
353.952	9407
354.037	16182
354.122	28735
354.207	26947
354.292	13204
354.377	8286
354.462	7695
354.547	9530
354.632	11628
354.717	21215
354.802	25945
354.887	11644
354.972	8570
355.057	6691
355.142	6674
355.227	10099
355.312	12492
355.397	22224
355.482	43635
355.567	22151
355.652	21164
355.737	19981
355.822	55291
355.907	39626
355.991	10781
356.076	7399
356.161	8552
356.246	8098
356.331	9482
356.416	17513
356.501	85330
356.585	75781
356.670	16043
356.755	13879
356.840	20037
356.924	77449
357.009	185638
357.094	63240
357.179	21103
357.263	15225
357.348	16048
357.433	17058
357.517	13394
357.602	11801
357.687	10732
357.771	21743
357.856	42292
357.941	26181
358.025	51592
358.110	173772
358.195	74923
358.279	17724
358.364	15382
358.448	40840
358.533	94208
358.617	68984
358.702	68976
358.787	26875
358.871	17961
358.956	15280
359.040	8160
359.125	8480
359.209	10148
359.294	24310
359.378	35367
359.462	18738
359.547	12710
359.631	10794
359.716	7935
359.800	11538
359.885	15811
359.969	10345
360.053	11496
360.138	10895
360.222	12606
360.306	17408
360.391	14704
360.475	27331
360.559	44434
360.644	42184
360.728	30113
360.812	55999
360.896	116995
360.981	59780
361.065	36516
361.149	13931
361.233	13101
361.318	11949
361.402	13138
361.486	12182
361.570	10565
361.654	12587
361.739	24225
361.823	84785
361.907	111046
361.991	27285
362.075	24675
362.159	40185
362.243	43591
362.327	73400
362.411	87348
362.495	42597
362.580	24426
362.664	22266
362.748	24777
362.832	37962
362.916	73281
363.000	176953
363.084	256947
363.168	180006
363.252	53403
363.336	30196
363.420	35456
363.503	107910
363.587	106309
363.671	26683
363.755	21569
363.839	27585
363.923	20928
364.007	32978
364.091	42982
364.175	78114
364.258	212557
364.342	256999
364.426	323354
364.510	166925
364.594	69022
364.677	51561
364.761	114497
364.845	74207
364.929	32625
365.013	26492
365.096	24008
365.180	26604
365.264	52386
365.347	147548
365.431	66415
365.515	22086
365.598	11537
365.682	14307
365.766	26215
365.849	29258
365.933	14937
366.017	21841
366.100	17703
366.184	11424
366.267	11352
366.351	10491
366.435	9913
366.518	8876
366.602	8340
366.685	9522
366.769	10590
366.852	21868
366.936	28531
367.019	15332
367.103	19808
367.186	33509
367.270	12453
367.353	8733
367.436	10641
367.520	10533
367.603	12145
367.687	14272
367.770	20532
367.853	15659
367.937	38481
368.020	52990
368.104	16103
368.187	17797
368.270	21193
368.353	21027
368.437	36573
368.520	81956
368.603	40740
368.687	45737
368.770	68807
368.853	21217
368.936	26710
369.020	28603
369.103	11885
369.186	10020
369.269	10284
369.352	17303
369.436	21244
369.519	15258
369.602	8409
369.685	11931
369.768	10659
369.851	10339
369.934	9062
370.018	10241
370.101	16993
370.184	17673
370.267	15124
370.350	21056
370.433	30473
370.516	68557
370.599	95111
370.682	37466
370.765	43611
370.848	52623
370.931	86668
371.014	40883
371.097	12873
371.180	10065
371.263	8874
371.346	7033
371.429	7724
371.511	9038
371.594	14443
371.677	23485
371.760	31513
371.843	20479
371.926	74726
372.009	138528
372.091	47727
372.174	40320
372.257	79236
372.340	34698
372.423	41285
372.505	49772
372.588	19678
372.671	32587
372.754	82754
372.836	43333
372.919	56078
373.002	93206
373.085	26781
373.167	20319
373.250	40123
373.332	77897
373.415	108840
373.498	187148
373.580	79891
373.663	143453
373.746	152021
373.828	36876
373.911	22164
373.993	29299
374.076	97072
374.159	83406
374.241	34671
374.324	75437
374.406	48812
374.489	68141
374.571	156790
374.654	65736
374.736	41171
374.819	105285
374.901	144916
374.983	133872
375.066	31359
375.148	22535
375.231	82045
375.313	135542
375.395	53478
375.478	16502
375.560	13555
375.643	17652
375.725	43481
375.807	131619
375.890	120734
375.972	68471
376.054	41514
376.136	66286
376.219	29558
376.301	47889
376.383	107513
376.465	43161
376.548	29222
376.630	40008
376.712	94070
376.794	43016
376.877	11012
376.959	8412
377.041	11807
377.123	28316
377.205	29791
377.287	9432
377.369	9923
377.452	11191
377.534	8817
377.616	8963
377.698	8734
377.780	8259
377.862	9197
377.944	9935
378.026	7793
378.108	8842
378.190	8239
378.272	8398
378.354	7277
378.436	8230
378.518	18211
378.600	46803
378.682	33440
378.764	52687
378.846	40683
378.928	18887
379.010	20533
379.091	13072
379.173	9327
379.255	8211
379.337	10773
379.419	30459
379.501	70731
379.583	30219
379.664	12548
379.746	23186
379.828	52188
379.910	67632
379.991	55130
380.073	14452
380.155	12169
380.237	9338
380.318	8663
380.400	9289
380.482	16080
380.564	21397
380.645	26320
380.727	23804
380.809	14356
380.890	10488
380.972	10040
381.053	10017
381.135	11641
381.217	23127
381.298	52630
381.380	28137
381.461	28847
381.543	98850
381.624	108831
381.706	25337
381.787	18362
381.869	18737
381.951	49163
382.032	144837
382.113	87687
382.195	26023
382.276	22808
382.358	44431
382.439	84721
382.521	97053
382.602	133019
382.684	71269
382.765	125466
382.846	126806
382.928	136189
383.009	77818
383.090	71683
383.172	220717
383.253	280258
383.334	120271
383.416	135440
383.497	69665
383.578	37008
383.659	70227
383.741	217802
383.822	436996
383.903	215154
383.984	101585
384.066	160823
384.147	98403
384.228	28018
384.309	23850
384.390	20860
384.471	17657
384.553	18577
384.634	22608
384.715	21644
384.796	14299
384.877	18089
384.958	51053
385.039	54926
385.120	23281
385.201	16569
385.282	23056
385.363	25145
385.444	20326
385.525	30097
385.606	72561
385.687	59635
385.768	26712
385.849	31957
385.930	82888
386.011	120381
386.092	40182
386.173	18933
386.254	17624
386.335	18105
386.416	19793
386.496	41239
386.577	58141
386.658	31299
386.739	23734
386.820	27029
386.901	23417
386.981	21030
387.062	17969
387.143	25378
387.224	58324
387.304	54417
387.385	31969
387.466	27915
387.547	32526
387.627	23988
387.708	35604
387.789	96169
387.869	103840
387.950	36049
388.031	19506
388.111	22167
388.192	45649
388.273	58381
388.353	33737
388.434	17834
388.514	28524
388.595	81626
388.676	98269
388.756	51530
388.837	49587
388.917	32819
388.998	12955
389.078	14820
389.159	12916
389.239	11519
389.320	17302
389.400	14565
389.480	31628
389.561	57043
389.641	29887
389.722	17131
389.802	21676
389.883	32085
389.963	65765
390.043	49691
390.124	25439
390.204	29151
390.284	60282
390.365	45593
390.445	82376
390.525	166170
390.605	123670
390.686	35938
390.766	18708
390.846	15059
390.927	12170
391.007	12514
391.087	16827
391.167	16077
391.247	15302
391.328	22669
391.408	33723
391.488	25129
391.568	13058
391.648	16358
391.728	19607
391.808	19661
391.888	21217
391.969	40686
392.049	54972
392.129	36044
392.209	39812
392.289	68370
392.369	51206
392.449	59536
392.529	43925
392.609	36351
392.689	44291
392.769	80494
392.849	78987
392.929	87009
393.009	151149
393.089	151472
393.169	227989
393.248	550657
393.328	1041904
393.408	999467
393.488	499323
393.568	202045
393.648	106610
393.728	69259
393.807	50878
393.887	42789
393.967	36561
394.047	35120
394.127	39735
394.206	56058
394.286	160118
394.366	485431
394.446	481952
394.525	150383
394.605	52317
394.685	44246
394.764	80166
394.844	124939
394.924	91549
395.003	32498
395.083	22763
395.163	20160
395.242	20003
395.322	20471
395.402	18088
395.481	25578
395.561	60204
395.640	137131
395.720	140975
395.799	151040
395.879	109571
395.958	80931
396.038	229557
396.117	609720
396.197	626597
396.276	261975
396.356	114167
396.435	90904
396.515	75848
396.594	94414
396.673	185670
396.753	496768
396.832	935499
396.912	720025
396.991	256010
397.070	99392
397.150	58279
397.229	47781
397.308	77554
397.388	124849
397.467	65182
397.546	27438
397.625	19493
397.705	22046
397.784	20630
397.863	16461
397.942	15353
398.022	17528
398.101	49864
398.180	110671
398.259	61824
398.338	21783
398.417	14801
398.497	13830
398.576	14070
398.655	11119
398.734	12131
398.813	15321
398.892	44819
398.971	111625
399.050	54033
399.129	12370
399.208	10404
399.287	10904
399.366	9037
399.445	9090
399.524	10347
399.603	8828
399.682	14808
399.761	40216
399.840	114466
399.919	83374
399.998	16035
400.077	8669
400.156	7875
400.235	12478
400.313	9694
400.392	12120
400.471	31690
400.550	42421
400.629	15241
400.708	11530
400.786	14791
400.865	34261
400.944	33456
401.023	15721
401.102	6916
401.180	7790
401.259	8582
401.338	10393
401.416	11957
401.495	10623
401.574	10205
401.652	9814
401.731	12922
401.810	13575
401.888	8902
401.967	6745
402.046	8238
402.124	11329
402.203	12783
402.281	9653
402.360	16560
402.438	39682
402.517	28539
402.596	13804
402.674	12715
402.753	9058
402.831	8744
402.910	11152
402.988	37442
403.066	95387
403.145	53914
403.223	39613
403.302	83977
403.380	68245
403.459	69328
403.537	30976
403.615	15039
403.694	6689
403.772	7756
403.850	7229
403.929	6685
404.007	8965
404.085	18322
404.164	20411
404.242	11411
404.320	18894
404.398	51258
404.477	59913
404.555	123297
404.633	101649
404.711	41603
404.789	25039
404.868	12311
404.946	8381
405.024	6925
405.102	5311
405.180	5224
405.258	5425
405.336	7479
405.415	8033
405.493	16943
405.571	16326
405.649	6843
405.727	7781
405.805	12104
405.883	12058
405.961	12563
406.039	14900
406.117	8672
406.195	10426
406.273	35004
406.351	103625
406.429	63337
406.507	17666
406.585	8773
406.663	8658
406.740	9215
406.818	8262
406.896	6862
406.974	8762
407.052	14383
407.130	66189
407.208	80969
407.285	18803
407.363	6755
407.441	7146
407.519	6971
407.596	10909
407.674	42865
407.752	138850
407.830	112873
407.907	33865
407.985	11961
408.063	8191
408.141	7094
408.218	14846
408.296	14913
408.373	11407
408.451	9362
408.529	7621
408.606	7777
408.684	7297
408.762	7396
408.839	6593
408.917	7546
408.994	8508
409.072	8693
409.149	10521
409.227	16471
409.304	21126
409.382	22296
409.459	26049
409.537	31183
409.614	30132
409.692	25014
409.769	24616
409.846	32842
409.924	39887
410.001	31601
410.079	24239
410.156	19627
410.233	18502
410.311	15527
410.388	11779
410.465	12100
410.543	11370
410.620	11110
410.697	10186
410.775	10843
410.852	7873
410.929	11014
411.006	12695
411.083	10620
411.161	16036
411.238	18214
411.315	13928
411.392	9158
411.469	10581
411.547	11467
411.624	7321
411.701	7648
411.778	8411
411.855	12357
411.932	8181
412.009	7285
412.086	6820
412.163	8427
412.240	9851
412.317	12502
412.394	11074
412.471	7080
412.548	5531
412.625	6429
412.702	9486
412.779	15042
412.856	10926
412.933	5992
413.010	5970
413.087	10473
413.164	27655
413.241	34394
413.318	11095
413.395	8972
413.471	10480
413.548	7271
413.625	6975
413.702	7971
413.779	7705
413.855	4989
413.932	3238
414.009	4735
414.086	4445
414.162	5582
414.239	10151
414.316	30864
414.393	51730
414.469	19382
414.546	5049
414.623	4989
414.699	5536
414.776	5390
414.853	5425
414.929	5973
415.006	6544
415.082	8624
415.159	6688
415.236	5355
415.312	5861
415.389	8158
415.465	9686
415.542	6261
415.618	5027
415.695	7423
415.771	5902
415.848	6703
415.924	6826
416.000	6306
416.077	5600
416.153	3638
416.230	3351
416.306	4066
416.383	5340
416.459	6088
416.535	4016
416.612	4316
416.688	4686
416.764	4996
416.841	4377
416.917	5120
416.993	5087
417.069	6697
417.146	8811
417.222	10995
417.298	6969
417.374	5472
417.451	6643
417.527	6385
417.603	6389
417.679	6013
417.755	5259
417.831	3711
417.908	3831
417.984	4025
418.060	4420
418.136	9308
418.212	10346
418.288	5791
418.364	5438
418.440	5429
418.516	7819
418.592	13811
418.668	17541
418.744	17861
418.820	13813
418.896	7143
418.972	4452
419.048	5380
419.124	10020
419.200	8351
419.276	5429
419.352	3575
419.428	5038
419.504	5717
419.579	7318
419.655	5895
419.731	6223
419.807	13410
419.883	20693
419.959	15600
420.034	8486
420.110	13814
420.186	35724
420.262	26938
420.337	10626
420.413	9807
420.489	7910
420.565	9095
420.640	7695
420.716	9228
420.792	7543
420.867	9644
420.943	9595
421.019	12850
421.094	11893
421.170	11925
421.245	11211
421.321	13358
421.397	15332
421.472	39633
421.548	87774
421.623	54860
421.699	23300
421.774	23256
421.850	23922
421.925	30801
422.001	33384
422.076	39494
422.152	47954
422.227	64722
422.302	90498
422.378	134909
422.453	228178
422.529	395528
422.604	511925
422.679	444406
422.755	508611
422.830	403365
422.905	231731
422.981	141536
423.056	97513
423.131	71851
423.207	52732
423.282	45221
423.357	41239
423.432	34207
423.508	31912
423.583	35626
423.658	28988
423.733	21487
423.808	21567
423.883	21043
423.959	20974
424.034	20792
424.109	19630
424.184	15327
424.259	11812
424.334	11439
424.409	10607
424.484	9105
424.559	10429
424.634	9624
424.709	10170
424.784	11367
424.859	8944
424.934	11627
425.009	27934
425.084	37696
425.159	17737
425.234	8520
425.309	7075
425.384	13984
425.459	18849
425.534	10122
425.609	9145
425.683	6550
425.758	7237
425.833	7440
425.908	8600
425.983	17662
426.058	39162
426.132	20110
426.207	9686
426.282	15774
426.357	12985
426.431	6935
426.506	6946
426.581	7658
426.655	7761
426.730	5411
426.805	5126
426.879	6339
426.954	6619
427.029	11210
427.103	41317
427.178	85570
427.253	38021
427.327	10056
427.402	15021
427.476	27916
427.551	14102
427.625	9578
427.700	8940
427.774	6643
427.849	9148
427.923	7311
427.998	7187
428.072	9944
428.147	22184
428.221	83396
428.296	199196
428.370	104290
428.444	21278
428.519	21771
428.593	34192
428.667	29707
428.742	36516
428.816	46998
428.890	148501
428.965	196880
429.039	65239
429.113	39756
429.188	15378
429.262	7696
429.336	11216
429.410	21060
429.485	17848
429.559	28686
429.633	23118
429.707	13487
429.781	37805
429.855	160936
429.930	201244
430.004	105519
430.078	141254
430.152	151636
430.226	260506
430.300	233676
430.374	53787
430.448	22381
430.522	53564
430.596	117309
430.670	86649
430.744	186082
430.818	202772
430.892	41998
430.966	10366
431.040	7473
431.114	5116
431.188	6333
431.262	5658
431.336	6232
431.410	16797
431.484	35979
431.557	20679
431.631	7593
431.705	14366
431.779	58825
431.853	183037
431.927	119041
432.000	19119
432.074	8122
432.148	8720
432.222	7083
432.295	5380
432.369	4713
432.443	9063
432.516	42198
432.590	84912
432.664	32404
432.737	5856
432.811	2534
432.885	2657
432.958	3241
433.032	2250
433.106	2766
433.179	2725
433.253	3409
433.326	3403
433.400	3133
433.473	2780
433.547	3326
433.620	3526
433.694	5502
433.767	6311
433.841	4499
433.914	3458
433.988	3256
434.061	3290
434.134	3499
434.208	2583
434.281	2844
434.355	2422
434.428	3435
434.501	2677
434.575	3924
434.648	3098
434.721	3534
434.795	2064
434.868	2622
434.941	2231
435.014	2471
435.088	4159
435.161	4898
435.234	6821
435.307	9043
435.381	7147
435.454	9744
435.527	14128
435.600	15814
435.673	13859
435.746	10888
435.819	9017
435.892	7767
435.966	6503
436.039	5661
436.112	5693
436.185	3647
436.258	3001
436.331	3084
436.404	3164
436.477	2469
436.550	2599
436.623	3260
436.696	3295
436.769	3796
436.842	3712
436.915	5187
436.987	5203
437.060	3936
437.133	2609
437.206	2956
437.279	3509
437.352	2511
437.425	3479
437.498	4183
437.570	6401
437.643	5867
437.716	3318
437.789	2581
437.861	6532
437.934	13796
438.007	6367
438.080	3325
438.152	3647
438.225	8491
438.298	50400
438.370	110558
438.443	43660
438.516	13381
438.588	4307
438.661	3659
438.734	3554
438.806	4780
438.879	4955
438.951	6125
439.024	7753
439.096	3941
439.169	2508
439.241	2109
439.314	3645
439.386	7225
439.459	9831
439.531	11823
439.604	5542
439.676	3144
439.749	2899
439.821	2617
439.893	3051
439.966	3312
440.038	4393
440.110	5214
440.183	3263
440.255	3950
440.327	5617
440.400	26362
440.472	78028
440.544	44960
440.617	8401
440.689	7409
440.761	8905
440.833	11663
440.905	8132
440.978	3674
441.050	3060
441.122	3261
441.194	3241
441.266	4226
441.338	3060
441.411	7166
441.483	26467
441.555	31962
441.627	10562
441.699	10352
441.771	9589
441.843	5376
441.915	4413
441.987	4750
442.059	4272
442.131	7042
442.203	11377
442.275	13240
442.347	17533
442.419	36695
442.491	151847
442.563	281374
442.635	118775
442.706	49922
442.778	29059
442.850	10499
442.922	8677
442.994	10672
443.066	13129
443.137	13111
443.209	15558
443.281	24404
443.353	55435
443.425	181527
443.496	451727
443.568	439598
443.640	176712
443.711	44136
443.783	19623
443.855	12921
443.926	9227
443.998	9523
444.070	10647
444.141	8574
444.213	9762
444.285	9414
444.356	9637
444.428	10221
444.499	6589
444.571	5574
444.642	5632
444.714	7009
444.785	9014
444.857	15962
444.928	30836
445.000	20508
445.071	26443
445.143	31012
445.214	26305
445.285	49300
445.357	126795
445.428	328554
445.500	532375
445.571	422407
445.642	253830
445.714	102090
445.785	58239
445.856	22104
445.928	14329
445.999	11674
446.070	9831
446.141	10684
446.213	11001
446.284	7993
446.355	9768
446.426	5615
446.497	7007
446.569	11169
446.640	11421
446.711	6867
446.782	3973
446.853	7160
446.924	6665
446.995	4428
447.066	6647
447.138	11367
447.209	5724
447.280	3472
447.351	3088
447.422	2377
447.493	5735
447.564	5216
447.635	5209
447.706	3322
447.777	2661
447.847	2797
447.918	2524
447.989	6267
448.060	8020
448.131	18872
448.202	13742
448.273	7411
448.344	4436
448.414	3332
448.485	2830
448.556	2540
448.627	2377
448.698	2329
448.768	2544
448.839	4014
448.910	9569
448.981	7560
449.051	3553
449.122	2637
449.193	2336
449.263	3524
449.334	2451
449.405	4643
449.475	8394
449.546	6661
449.616	11917
449.687	8723
449.758	4701
449.828	3528
449.899	2944
449.969	1903
450.040	3121
450.110	5485
450.181	4641
450.251	3942
450.322	2968
450.392	4396
450.463	3822
450.533	3031
450.604	3027
450.674	3641
450.744	3718
450.815	3972
450.885	4072
450.955	3830
451.026	3738
451.096	4691
451.166	5858
451.237	15058
451.307	28678
451.377	11188
451.447	3381
451.518	3823
451.588	3999
451.658	4276
451.728	8708
451.799	31310
451.869	29067
451.939	6992
452.009	3844
452.079	3612
452.149	4093
452.219	11118
452.289	34005
452.360	22152
452.430	6167
452.500	6309
452.570	9090
452.640	17586
452.710	43862
452.780	54119
452.850	28997
452.920	17701
452.990	9405
453.060	6924
453.129	7507
453.199	10146
453.269	40767
453.339	66508
453.409	92297
453.479	111081
453.549	154998
453.619	156600
453.688	51877
453.758	10429
453.828	4859
453.898	4856
453.968	5281
454.037	3779
454.087	3539
454.107	3429
454.168	3181
454.177	3131
454.247	2770
454.249	2815
454.316	3563
454.330	4021
454.386	5473
454.411	10127
454.456	17752
454.492	19848
454.525	21847
454.574	11797
454.595	7418
454.655	3984
454.665	3462
454.734	6228
454.736	6407
454.804	10643
454.817	14553
454.873	30083
454.898	29961
454.943	29801
454.979	19891
455.013	11142
455.060	7526
455.082	6052
455.141	7185
455.152	7361
455.221	24395
455.222	24695
455.291	40143
455.303	39225
455.360	33810
455.384	43133
455.430	57403
455.465	44043
455.499	32289
455.546	29706
455.569	28318
455.627	16447
455.638	14397
455.707	4741
455.708	4754
455.777	4410
455.789	4395
455.846	4349
455.869	4121
455.916	3568
455.950	4179
455.985	4715
456.031	4576
456.054	4491
456.112	3730
456.124	3606
456.193	3295
456.193	3270
456.262	4834
456.274	5041
456.332	5957
456.355	6199
456.401	6192
456.436	5419
456.470	4820
456.516	3864
456.540	3417
456.597	2869
456.609	2707
456.678	3387
456.678	3371
456.747	3161
456.759	3134
456.817	3029
456.840	2984
456.886	2987
456.920	3449
456.955	3911
457.001	4199
457.024	4386
457.082	5120
457.093	5228
457.162	6875
457.163	6902
457.232	8457
457.243	7922
457.301	5190
457.324	4830
457.370	4874
457.405	5022
457.439	4896
457.485	5261
457.508	5560
457.566	6805
457.577	7306
457.646	10251
457.647	10321
457.715	20116
457.727	22490
457.784	34292
457.808	44532
457.853	57047
457.889	64504
457.922	66602
457.969	48221
457.991	47057
458.050	55204
458.060	56556
458.129	93506
458.130	94556
458.198	96381
458.211	86116
458.267	49984
458.292	36750
458.336	25092
458.372	24180
458.405	31442
458.453	47519
458.474	56597
458.533	93658
458.543	95921
458.611	146526
458.614	146816
458.680	97342
458.694	78705
458.749	37060
458.775	27111
458.818	15608
458.855	12766
458.887	11092
458.936	9386
458.955	8635
459.016	7214
459.024	7134
459.093	7364
459.097	7357
459.162	6720
459.177	6785
459.230	6875
459.257	7036
459.299	7423
459.338	7484
459.368	7330
459.418	7506
459.437	7355
459.499	5955
459.505	5901
459.574	5744
459.579	5739
459.643	5177
459.659	5032
459.711	5465
459.740	5820
459.780	5827
459.820	6344
459.849	6796
459.900	6948
459.917	6759
459.981	6351
459.986	6377
460.054	6211
460.061	6274
460.123	6471
460.141	6563
460.191	7201
460.222	7576
460.260	7951
460.302	8401
460.328	8381
460.382	8128
460.397	8461
460.462	9657
460.465	10190
460.534	23193
460.543	24998
460.602	57607
460.623	71056
460.671	103919
460.703	138670
460.739	125907
460.783	88135
460.808	75991
460.864	21540
460.876	15464
460.944	8602
460.945	8522
461.013	7301
461.024	7145
461.081	6413
461.104	6531
461.150	6668
461.184	6455
461.218	6530
461.264	6542
461.286	6535
461.345	6734
461.355	6668
461.423	6012
461.425	6006
461.491	7557
461.505	7926
461.559	13472
461.585	16025
461.628	21385
461.665	28015
461.696	30076
461.745	36458
461.764	33976
461.825	11826
461.832	10987
461.901	7554
461.905	7567
461.969	7097
461.985	6930
462.037	7595
462.065	7848
462.105	8409
462.145	9390
462.173	11904
462.225	16641
462.241	17766
462.305	25523
462.310	25086
462.378	15363
462.385	13693
462.446	8608
462.465	8017
462.514	7368
462.545	7261
462.582	7063
462.625	6959
462.650	6961
462.705	6733
462.718	7012
462.785	8712
462.786	8757
462.854	11189
462.865	11681
462.922	13098
462.945	13879
462.990	11723
463.025	8299
463.058	6901
463.104	6199
463.126	6392
463.184	7095
463.194	7122
463.262	6988
463.264	7000
463.330	7253
463.344	7285
463.398	8528
463.424	9016
463.466	8769
463.504	8800
463.533	8929
463.583	8539
463.601	8737
463.663	9731
463.669	9880
463.737	11692
463.743	11877
463.805	19287
463.823	21415
463.873	29430
463.903	35028
463.940	34927
463.982	35526
464.008	30137
464.062	13673
464.076	12683
464.142	8424
464.144	8355
464.211	8059
464.221	8016
464.279	8179
464.301	8225
464.347	8826
464.381	9406
464.414	10322
464.461	11547
464.482	11780
464.540	12762
464.550	12456
464.617	9218
464.620	9098
464.685	9815
464.699	10075
464.753	11531
464.779	12274
464.820	13582
464.859	14837
464.888	14516
464.938	13567
464.956	13717
465.018	14560
465.023	14387
465.091	11715
465.098	11410
465.158	11951
465.177	12146
465.226	12004
465.257	11910
465.293	11893
465.336	11818
465.361	12678
465.416	14654
465.428	15967
465.495	23098
465.496	23205
465.563	34841
465.575	37000
465.631	41206
465.654	43135
465.698	28214
465.734	14016
465.765	12959
465.813	12091
465.833	12047
465.893	12580
465.900	12530
465.968	12074
465.972	12016
466.035	12179
466.052	12248
466.102	12856
466.131	13105
466.170	13023
466.210	12938
466.237	13325
466.290	14044
466.304	14215
466.369	14889
466.372	14939
466.439	15757
466.449	15846
466.506	17160
466.528	17634
466.573	25648
466.607	31618
466.641	39293
466.687	49941
466.708	53505
466.766	63665
466.775	59094
466.842	23300
466.845	21573
466.909	18707
466.925	18136
466.977	17829
467.004	17702
467.044	18574
467.083	19384
467.111	20032
467.163	21176
467.178	21661
467.242	23540
467.245	23475
467.312	21373
467.321	21063
467.379	21024
467.400	20956
467.446	22545
467.480	23630
467.559	20617
467.638	17588
467.717	17877
467.796	18516
467.875	19935
467.955	21055
468.034	35051
468.113	61051
468.192	81219
468.271	27475
468.350	27996
468.429	32837
468.508	31946
468.588	23983
468.667	20465
468.746	20981
468.825	17752
468.904	15163
468.983	18661
469.062	26434
469.141	27463
469.220	15950
469.299	14468
469.378	16190
469.456	18959
469.535	18054
469.614	16285
469.693	17757
469.772	21521
469.851	27113
469.930	17620
470.009	15059
470.088	14373
470.166	17055
470.245	17119
470.324	17156
470.403	16360
470.482	13916
470.560	14329
470.639	13893
470.718	16462
470.797	14381
470.875	18498
470.954	22962
471.033	24052
471.111	12644
471.190	12241
471.269	12985
471.347	12399
471.426	14299
471.505	15973
471.583	16063
471.662	15111
471.740	14545
471.819	13888
471.898	13418
471.976	13990
472.055	14052
472.133	17983
472.212	23686
472.290	20061
472.369	13066
472.447	14358
472.526	12493
472.604	14991
472.683	13391
472.761	14457
472.839	13377
472.918	13971
472.996	14240
473.075	15755
473.153	15943
473.231	13674
473.310	16029
473.388	15504
473.466	13343
473.545	15001
473.623	17116
473.701	17035
473.780	15187
473.858	13529
473.936	16435
474.014	14877
474.093	18740
474.171	25498
474.249	29927
474.327	17561
474.405	13228
474.484	12786
474.562	13205
474.640	12862
474.718	14660
474.796	14476
474.874	14787
474.952	12278
475.030	12505
475.108	14395
475.187	17240
475.265	19440
475.343	25257
475.421	25768
475.499	14075
475.577	15487
475.655	20915
475.733	35546
475.811	58416
475.889	48653
475.966	31459
476.044	16149
476.122	20697
476.200	23435
476.278	17015
476.356	12690
476.434	14829
476.512	17745
476.590	22174
476.667	17636
476.745	11322
476.823	12724
476.901	13215
476.979	13995
477.056	13619
477.134	13548
477.212	13996
477.290	13432
477.367	12230
477.445	12147
477.523	11736
477.601	12126
477.678	13932
477.756	15743
477.834	15815
477.911	12600
477.989	13327
478.066	13369
478.144	15685
478.222	19966
478.299	30573
478.377	26051
478.454	14516
478.532	12086
478.609	12252
478.687	12629
478.764	11832
478.842	12337
478.919	12540
478.997	12073
479.074	12401
479.152	14619
479.229	17435
479.307	12012
479.384	11082
479.461	10881
479.539	12482
479.616	13616
479.694	12805
479.771	13174
479.848	15232
479.926	17961
480.003	19559
480.080	11662
480.157	10929
480.235	10845
480.312	12072
480.389	14985
480.467	21405
480.544	25245
480.621	14924
480.698	14467
480.775	15479
480.853	14865
480.930	13467
481.007	15729
481.084	22070
481.161	30172
481.238	18839
481.315	12052
481.392	12825
481.470	13678
481.547	14327
481.624	12272
481.701	13328
481.778	13158
481.855	16075
481.932	23992
482.009	34019
482.086	23278
482.163	17267
482.240	26699
482.317	38726
482.393	27506
482.470	16249
482.547	15145
482.624	14193
482.701	13982
482.778	13450
482.855	12459
482.932	12517
483.009	13322
483.085	17748
483.162	24417
483.239	22526
483.316	15823
483.393	16507
483.469	14269
483.546	16240
483.623	17650
483.699	14450
483.776	14215
483.853	15178
483.930	24752
484.006	55223
484.083	82631
484.160	41089
484.236	55621
484.313	41378
484.389	33769
484.466	33012
484.543	33246
484.619	35516
484.696	37974
484.772	36186
484.849	35404
484.925	29227
485.002	28095
485.078	30255
485.155	28605
485.231	28072
485.308	26027
485.384	27552
485.461	35761
485.537	54015
485.614	59078
485.690	26673
485.766	23813
485.843	26666
485.919	29084
485.995	28900
486.072	23948
486.148	22734
486.224	23354
486.301	25984
486.377	28494
486.453	27103
486.530	28318
486.606	36204
486.682	39247
486.758	47426
486.835	54720
486.911	46650
486.987	65822
487.063	55988
487.139	58347
487.215	51445
487.292	38120
487.368	35533
487.444	40220
487.520	51605
487.596	66677
487.672	138360
487.748	351906
487.824	476759
487.900	160732
487.976	58523
488.052	42408
488.128	40282
488.204	31576
488.280	28999
488.356	37716
488.432	66037
488.508	87506
488.584	30518
488.660	23406
488.736	23651
488.812	23609
488.888	27886
488.964	32974
489.039	51843
489.115	67909
489.191	43800
489.267	25708
489.343	25007
489.418	20311
489.494	22085
489.570	20256
489.646	22886
489.722	21225
489.797	23153
489.873	38563
489.949	70264
490.024	54922
490.100	20602
490.176	21689
490.251	22057
490.327	25571
490.403	19578
490.478	19309
490.554	17917
490.629	18319
490.705	18241
490.781	20005
490.856	19315
490.932	21925
491.007	19909
491.083	19485
491.158	19818
491.234	29311
491.309	54106
491.385	50656
491.460	19852
491.536	21865
491.611	17570
491.686	18509
491.762	23002
491.837	34091
491.913	55290
491.988	71497
492.063	76536
492.139	36800
492.214	26697
492.289	16695
492.365	14889
492.440	18206
492.515	18811
492.590	19716
492.666	15751
492.741	24158
492.816	32052
492.891	18786
492.967	16374
493.042	14864
493.117	15972
493.192	18543
493.267	39787
493.342	109377
493.418	124338
493.493	20977
493.568	14242
493.643	14903
493.718	18926
493.793	25456
493.868	23405
493.943	14903
494.018	15444
494.093	15041
494.168	14513
494.243	11701
494.318	13388
494.393	12899
494.468	12745
494.543	12647
494.618	14153
494.693	12690
494.768	13823
494.842	14693
494.917	12282
494.992	14349
495.067	13172
495.142	12580
495.217	14534
495.292	13301
495.366	15468
495.441	17518
495.516	21215
495.591	26881
495.665	68887
495.740	123916
495.815	50199
495.890	19049
495.964	15644
496.039	20204
496.114	23485
496.188	32747
496.263	27547
496.338	18437
496.412	18915
496.487	24192
496.561	20831
496.636	22218
496.710	21200
496.785	24952
496.860	24492
496.934	20769
497.009	20781
497.083	21516
497.158	23063
497.232	26009
497.307	29526
497.381	27693
497.455	34931
497.530	41018
497.604	32759
497.679	35077
497.753	52061
497.827	62273
497.902	55644
497.976	65764
498.050	162019
498.125	455025
498.199	384487
498.273	75229
498.348	63243
498.422	54623
498.496	50111
498.570	44613
498.645	38936
498.719	35456
498.793	41179
498.867	51842
498.941	75015
499.016	217174
499.090	450759
499.164	130126
499.238	26927
499.312	24092
499.386	26554
499.460	25824
499.534	23626
499.609	28195
499.683	38503
499.757	39669
499.831	106156
499.905	324686
499.979	254425
500.053	46180
500.127	41783
500.201	26748
500.275	22522
500.349	22259
500.422	24531
500.496	30292
500.570	62954
500.644	189557
500.718	307354
500.792	58759
500.866	25874
500.940	29223
501.013	24659
501.087	21785
501.161	31335
501.235	46563
501.309	125736
501.382	300397
501.456	221444
501.530	59803
501.603	95413
501.677	36094
501.751	17828
501.825	23931
501.898	49599
501.972	119396
502.046	65352
502.119	23404
502.193	60318
502.266	125658
502.340	59003
502.413	65169
502.487	111852
502.561	58587
502.634	21091
502.708	16467
502.781	14503
502.855	13736
502.928	13488
503.002	13902
503.075	14060
503.149	15287
503.222	16475
503.295	17404
503.369	20524
503.442	32312
503.516	106160
503.589	227312
503.662	134728
503.736	54923
503.809	111711
503.882	98270
503.956	144184
504.029	152567
504.102	201609
504.175	252654
504.249	100979
504.322	47907
504.395	31141
504.468	22115
504.542	18902
504.615	15129
504.688	14151
504.761	12507
504.834	15746
504.907	15732
504.980	19176
505.053	14145
505.127	13815
505.200	20714
505.273	21805
505.346	14241
505.419	12794
505.492	12410
505.565	9964
505.638	10582
505.711	10064
505.784	10174
505.857	10351
505.930	12626
506.003	10944
506.076	13244
506.149	16824
506.221	17438
506.294	19637
506.367	58653
506.440	158776
506.513	71097
506.586	20156
506.659	13785
506.731	10736
506.804	12652
506.877	15177
506.950	13640
507.022	11761
507.095	14797
507.168	16560
507.241	11046
507.313	8165
507.386	10394
507.459	12770
507.531	10154
507.604	9925
507.677	10063
507.749	7863
507.822	13170
507.894	21172
507.967	24875
508.040	15889
508.112	15942
508.185	14756
508.257	13177
508.330	17734
508.402	14064
508.475	15333
508.547	14944
508.620	16158
508.692	23758
508.765	16155
508.837	11783
508.909	12335
508.982	11108
509.054	13493
509.127	11875
509.199	12228
509.271	10543
509.344	10262
509.416	10313
509.488	10836
509.560	11890
509.633	11812
509.705	13282
509.777	13232
509.849	15602
509.922	12149
509.994	11696
510.066	12915
510.138	13508
510.210	25557
510.283	22063
510.355	19068
510.427	16335
510.499	15240
510.571	14877
510.643	15193
510.715	18988
510.787	16231
510.859	16294
510.931	16968
511.003	19201
511.076	17372
511.148	13418
511.219	14896
511.291	24730
511.363	27541
511.435	14476
511.507	12806
511.579	13374
511.651	13694
511.723	13137
511.795	13156
511.867	12644
511.939	18547
512.010	33714
512.082	23644
512.154	12769
512.226	14149
512.298	21162
512.369	26455
512.441	20991
512.513	18775
512.585	15326
512.656	18231
512.728	16684
512.800	14788
512.871	15690
512.943	15322
513.015	12262
513.086	15027
513.158	15687
513.230	15101
513.301	18787
513.373	18225
513.444	14220
513.516	14169
513.588	13582
513.659	14887
513.731	15714
513.802	15022
513.874	24802
513.945	31579
514.016	15648
514.088	13348
514.159	13235
514.231	19227
514.302	22815
514.374	19275
514.445	20961
514.516	39399
514.588	27398
514.659	21224
514.730	35259
514.802	27414
514.873	22042
514.944	25127
515.016	20677
515.087	19633
515.158	27277
515.229	36256
515.301	26721
515.372	35467
515.443	23569
515.514	18258
515.585	15918
515.656	16387
515.728	15370
515.799	14304
515.870	15673
515.941	15183
516.012	14788
516.083	20117
516.154	20047
516.225	21738
516.296	21048
516.367	17369
516.438	18812
516.509	21235
516.580	28631
516.651	81136
516.722	203370
516.793	84464
516.864	29558
516.935	29393
517.006	30231
517.077	38786
517.148	83289
517.219	257181
517.289	328378
517.360	177473
517.431	60462
517.502	21560
517.573	21660
517.643	21209
517.714	24790
517.785	25111
517.856	23253
517.926	27403
517.997	28630
518.068	30134
518.138	35474
518.209	55379
518.280	204955
518.350	542808
518.421	179648
518.492	45000
518.562	44557
518.633	52789
518.703	73264
518.774	165457
518.845	370262
518.915	298087
518.986	96875
519.056	54187
519.127	53889
519.197	78486
519.268	181428
519.338	102096
519.408	32660
519.479	29292
519.549	22145
519.620	20180
519.690	17679
519.760	17676
519.831	16819
519.901	17295
519.971	16867
520.042	17056
520.112	19933
520.182	19738
520.253	19902
520.323	17803
520.393	21405
520.463	27662
520.534	22946
520.604	37404
520.674	22432
520.744	24004
520.814	39693
520.885	36284
520.955	77256
521.025	211281
521.095	68661
521.165	19889
521.235	18747
521.305	16168
521.375	15591
521.445	15929
521.515	16267
521.585	20248
521.655	16234
521.725	18454
521.795	17984
521.865	14841
521.935	24519
522.005	19617
522.075	15175
522.145	17798
522.215	19718
522.285	25251
522.355	35075
522.424	60289
522.494	46096
522.564	24123
522.634	36169
522.704	69190
522.774	26892
522.843	17316
522.913	17556
522.983	17661
523.053	14737
523.122	15300
523.192	18501
523.262	42336
523.331	33806
523.401	15926
523.471	13693
523.540	14614
523.610	11858
523.680	14032
523.749	15811
523.819	21147
523.888	19801
523.958	14252
524.027	14753
524.097	16385
524.166	14340
524.236	13959
524.305	17013
524.375	13428
524.444	13718
524.514	16714
524.583	16495
524.653	19969
524.722	19614
524.791	14998
524.861	16882
524.930	14264
524.999	15757
525.069	18455
525.138	19068
525.207	22384
525.277	18083
525.346	18330
525.415	19091
525.484	20800
525.554	26454
525.623	28821
525.692	33552
525.761	33845
525.830	35594
525.900	44579
525.969	71161
526.038	127796
526.107	312627
526.176	760784
526.245	518860
526.314	174828
526.383	405047
526.452	502237
526.522	820443
526.591	610454
526.660	120318
526.729	70108
526.797	75050
526.867	148317
526.935	530825
527.004	1276358
527.073	605706
527.142	85357
527.211	40538
527.280	31866
527.349	26121
527.418	19356
527.487	18630
527.555	16285
527.624	15130
527.693	14028
527.762	15872
527.831	12756
527.899	14699
527.968	13646
528.037	12709
528.106	15376
528.174	19671
528.243	20794
528.312	27526
528.380	26246
528.449	14455
528.518	14631
528.586	10113
528.655	12675
528.723	12348
528.792	13189
528.861	12510
528.929	12641
528.998	14322
529.066	16595
529.135	21856
529.203	20863
529.272	26255
529.340	31207
529.409	29615
529.477	26765
529.545	30331
529.614	34054
529.682	38043
529.751	41606
529.819	42500
529.887	43014
529.956	38599
530.024	37346
530.092	32807
530.161	34593
530.229	37389
530.297	37549
530.365	37735
530.434	38968
530.502	39103
530.570	35972
530.638	30819
530.707	31126
530.775	31138
530.843	31284
530.911	34144
530.979	33223
531.047	38750
531.115	37178
531.183	33078
531.252	32262
531.320	31760
531.388	30878
531.456	35591
531.524	35213
531.592	38197
531.660	43381
531.728	37433
531.796	36327
531.864	36688
531.932	35990
532.000	36776
532.067	40102
532.135	41177
532.203	45012
532.271	46088
532.339	51620
532.407	63788
532.475	49844
532.542	43590
532.610	43493
532.678	50779
532.746	105087
532.814	160542
532.881	64039
532.949	45347
533.017	42210
533.084	40455
533.152	38501
533.220	37858
533.287	38447
533.355	40559
533.423	40666
533.490	42627
533.558	39655
533.625	39757
533.693	39731
533.761	37568
533.828	36824
533.896	37542
533.963	47299
534.031	48752
534.098	58814
534.166	45075
534.233	40478
534.300	42303
534.368	41169
534.435	40852
534.503	40399
534.570	44996
534.637	44415
534.705	48852
534.772	55197
534.840	105578
534.907	401377
534.974	369718
535.041	63291
535.109	43873
535.176	35783
535.243	35069
535.310	35090
535.378	33049
535.445	32124
535.512	31750
535.579	30883
535.646	28958
535.714	31029
535.781	33971
535.848	34503
535.915	34518
535.982	34629
536.049	33095
536.116	32618
536.183	29777
536.250	28956
536.317	29133
536.384	31178
536.451	32373
536.518	33694
536.585	29862
536.652	35944
536.719	36316
536.786	31124
536.853	29894
536.920	36378
536.987	39202
537.053	39955
537.120	94444
537.187	67292
537.254	29836
537.321	29034
537.388	29315
537.454	26657
537.521	26560
537.588	26069
537.654	28666
537.721	30642
537.788	29699
537.855	27714
537.921	28009
537.988	27168
538.055	26882
538.121	24774
538.188	25478
538.254	27917
538.321	34102
538.388	28663
538.454	26806
538.521	28048
538.587	26568
538.654	26679
538.720	26117
538.787	25781
538.853	26621
538.920	28632
538.986	27022
539.053	25553
539.119	25459
539.185	24891
539.252	28092
539.318	31375
539.385	31601
539.451	30272
539.517	29318
539.583	29458
539.650	45348
539.716	66244
539.782	29570
539.849	23732
539.915	26649
539.981	24907
540.047	25947
540.114	25516
540.180	27239
540.246	25434
540.312	29128
540.378	36786
540.444	34893
540.510	44575
540.576	72095
540.643	33254
540.709	24303
540.775	25111
540.841	25460
540.907	30447
540.973	36813
541.039	30798
541.105	30248
541.171	26859
541.237	26142
541.303	26497
541.369	28619
541.435	30160
541.500	32495
541.566	24898
541.632	23806
541.698	23186
541.764	24736
541.830	23352
541.896	23535
541.961	24022
542.027	24945
542.093	25966
542.159	26688
542.224	25449
542.290	30342
542.356	34295
542.421	33118
542.487	26297
542.553	25111
542.618	26117
542.684	24076
542.750	23712
542.815	26974
542.881	35329
542.947	71568
543.012	46358
543.078	23558
543.143	22998
543.209	24626
543.274	24429
543.340	26459
543.405	39563
543.471	44099
543.536	26144
543.602	26260
543.667	23487
543.732	24810
543.798	24098
543.863	26187
543.928	24792
543.994	23692
544.059	24894
544.124	25903
544.190	25548
544.255	25317
544.320	25276
544.386	25102
544.451	28687
544.516	29719
544.581	32279
544.646	56660
544.712	62496
544.777	31117
544.842	31076
544.907	31000
544.972	28828
545.037	30161
545.102	32427
545.168	30840
545.233	32387
545.298	32652
545.363	34043
545.428	36734
545.493	46860
545.558	62373
545.623	39441
545.688	33381
545.753	34074
545.818	34336
545.883	36373
545.947	35967
546.012	39218
546.077	38765
546.142	39478
546.207	40068
546.272	42867
546.337	43920
546.401	43286
546.466	44303
546.531	45296
546.596	49398
546.661	49735
546.725	51331
546.790	52790
546.855	57347
546.919	60057
546.984	66342
547.049	73878
547.113	83977
547.178	88122
547.243	98777
547.307	113965
547.372	126611
547.436	128699
547.501	129444
547.565	139042
547.630	127790
547.695	125313
547.759	128588
547.823	128159
547.888	125504
547.952	129693
548.017	139180
548.081	150537
548.146	148321
548.210	147059
548.274	149924
548.339	144035
548.403	132662
548.468	124500
548.532	125174
548.596	128971
548.660	129031
548.725	140329
548.789	156173
548.853	150867
548.917	142443
548.982	145662
549.046	132167
549.110	112960
549.174	118904
549.238	137100
549.303	146535
549.367	149908
549.431	140277
549.495	131568
549.559	135816
549.623	157570
549.687	169711
549.751	172017
549.815	199709
549.879	198645
549.943	192063
550.007	203396
550.071	198899
550.135	182958
550.199	170676
550.263	169029
550.327	163780
550.391	178086
550.455	185858
550.519	190372
550.582	204070
550.646	233340
550.710	229997
550.774	224893
550.838	227389
550.901	237782
550.965	250046
551.029	260662
551.093	283303
551.156	316306
551.220	376547
551.284	374665
551.347	287624
551.411	305920
551.475	282798
551.538	247910
551.602	225994
551.666	215789
551.729	200324
551.793	197591
551.856	193569
551.920	192271
551.983	190796
552.047	187799
552.110	189705
552.174	197328
552.237	194755
552.301	180352
552.364	173023
552.428	168336
552.491	175007
552.554	177157
552.618	175859
552.681	180573
552.745	174106
552.808	187116
552.871	194901
552.934	187417
552.998	178878
553.061	177350
553.124	170230
553.187	170116
553.251	176048
553.314	176242
553.377	179427
553.440	208077
553.503	305358
553.567	317211
553.630	196800
553.693	186940
553.756	186995
553.819	178984
553.882	173995
553.945	175255
554.008	175459
554.071	177777
554.134	175685
554.197	165798
554.260	162508
554.323	167904
554.386	170448
554.449	178212
554.512	175149
554.575	168749
554.638	168448
554.701	166337
554.764	162877
554.827	157236
554.889	150636
554.952	142903
555.015	141143
555.078	144773
555.141	145182
555.203	142149
555.266	142621
555.329	141095
555.391	136529
555.454	134617
555.517	129666
555.580	126992
555.642	122281
555.705	119788
555.768	120020
555.830	116325
555.893	109223
555.955	109014
556.018	106790
556.080	108437
556.143	110990
556.206	108311
556.268	107399
556.330	104461
556.393	101871
556.455	100408
556.518	109597
556.580	101859
556.643	91372
556.705	89860
556.767	88444
556.830	88449
556.892	86991
556.955	90412
557.017	83704
557.079	83979
557.142	80546
557.204	81759
557.266	88997
557.328	79717
557.391	72113
557.453	70413
557.515	71638
557.577	75074
557.639	74276
557.701	74182
557.764	72252
557.826	75588
557.888	77380
557.950	78195
558.012	87056
558.074	122446
558.136	300665
558.198	544582
558.260	167565
558.322	89011
558.384	87389
558.446	90933
558.508	98370
558.570	108756
558.632	131094
558.694	170616
558.756	301710
558.818	931009
558.880	1495913
558.942	565870
559.003	596025
559.065	237501
559.127	112120
559.189	107975
559.251	121030
559.312	188606
559.374	518468
559.436	1215985
559.498	460104
559.559	125313
559.621	105811
559.683	128705
559.744	240473
559.806	755801
559.868	789217
559.929	166576
559.991	123705
560.052	233231
560.114	563136
560.176	293694
560.237	370503
560.299	443659
560.360	95506
560.422	54147
560.483	47970
560.545	44975
560.606	44649
560.667	41559
560.729	40653
560.790	38658
560.852	39162
560.913	37504
560.974	36992
561.036	36772
561.097	36626
561.158	36903
561.220	36422
561.281	34114
561.342	34176
561.403	36091
561.465	39136
561.526	53786
561.587	52978
561.648	35952
561.709	33036
561.771	33911
561.832	33211
561.893	32840
561.954	32332
562.015	31648
562.076	31686
562.137	30850
562.198	32073
562.259	31148
562.320	31370
562.381	32383
562.442	34756
562.503	32436
562.564	31204
562.625	30039
562.686	30869
562.747	31298
562.808	31644
562.869	30765
562.930	35437
562.991	32627
563.051	31960
563.112	30998
563.173	29813
563.234	29735
563.294	29987
563.355	28740
563.416	28810
563.477	28799
563.537	29959
563.598	29877
563.659	29362
563.720	28355
563.780	29674
563.841	29911
563.901	29559
563.962	28678
564.023	29507
564.083	28845
564.144	29223
564.204	28489
564.265	29629
564.325	34600
564.386	52351
564.446	41198
564.507	28312
564.567	28330
564.628	27923
564.688	27342
564.749	28577
564.809	31227
564.869	34037
564.930	29406
564.990	28033
565.050	27401
565.111	27459
565.171	27182
565.231	28844
565.292	29061
565.352	26288
565.412	27771
565.472	29245
565.532	28971
565.593	28074
565.653	27576
565.713	28578
565.773	30070
565.833	32376
565.893	33902
565.953	29055
566.013	28999
566.074	31243
566.134	35725
566.194	48099
566.254	44730
566.314	36238
566.374	31615
566.434	32079
566.494	32138
566.554	32611
566.614	33929
566.673	34080
566.733	36856
566.793	37862
566.853	38774
566.913	39363
566.973	40514
567.033	39243
567.092	38509
567.152	38408
567.212	40207
567.272	41585
567.331	43764
567.391	44087
567.451	47147
567.511	53482
567.570	51292
567.630	42801
567.690	41293
567.749	42971
567.809	44241
567.868	47462
567.928	51025
567.988	57558
568.047	64912
568.107	79647
568.166	103645
568.226	155721
568.285	195077
568.345	169175
568.404	138275
568.464	122990
568.523	113719
568.582	113832
568.642	127227
568.701	157380
568.761	228207
568.820	326970
568.879	306634
568.939	239242
568.998	182486
569.057	143597
569.116	115805
569.176	96541
569.235	83519
569.294	73019
569.353	65899
569.413	59162
569.472	55098
569.531	49803
569.590	46133
569.649	44470
569.708	40897
569.767	41547
569.827	41897
569.886	36297
569.945	35900
570.004	35743
570.063	34708
570.122	34287
570.181	35471
570.240	36659
570.299	35913
570.358	34515
570.417	30516
570.475	30773
570.534	30599
570.593	30940
570.652	32091
570.711	30917
570.770	30306
570.829	31726
570.887	30006
570.946	29676
571.005	29883
571.064	29024
571.122	30538
571.181	31018
571.240	28818
571.299	27898
571.357	28844
571.416	29727
571.475	31669
571.533	31485
571.592	29677
571.650	30042
571.709	28624
571.768	29390
571.826	30763
571.885	27846
571.943	28635
572.002	27666
572.060	27679
572.119	25567
572.177	25176
572.236	26224
572.294	26592
572.352	26144
572.411	25853
572.469	25479
572.528	26161
572.586	25850
572.644	26831
572.703	27413
572.761	25946
572.819	24645
572.877	24437
572.936	23823
572.994	23088
573.052	24225
573.110	23636
573.169	24754
573.227	22990
573.285	24193
573.343	24498
573.401	24278
573.459	23919
573.517	24843
573.576	25450
573.634	25294
573.692	24986
573.750	25147
573.808	24946
573.866	25119
573.924	28521
573.982	27794
574.040	24219
574.098	24172
574.155	23429
574.213	23289
574.271	23022
574.329	24464
574.387	22300
574.445	21942
574.503	22684
574.560	21313
574.618	22531
574.676	21982
574.734	21699
574.792	21549
574.849	21781
574.907	19829
574.965	20486
575.022	20563
575.080	20473
575.138	21207
575.195	20459
575.253	20516
575.311	20733
575.368	20133
575.426	19286
575.483	21240
575.541	20859
575.598	20441
575.656	21350
575.713	22528
575.771	21713
575.828	20697
575.886	20960
575.943	22222
576.001	21261
576.058	20728
576.115	22232
576.173	23872
576.230	25146
576.287	24622
576.345	22443
576.402	22381
576.459	22179
576.517	22901
576.574	23151
576.631	23300
576.688	21665
576.746	21229
576.803	19793
576.860	19671
576.917	22295
576.974	21075
577.031	21387
577.089	20453
577.146	20861
577.203	21377
577.260	22927
577.317	23104
577.374	23785
577.431	22407
577.488	21549
577.545	19984
577.602	21210
577.659	21351
577.716	23294
577.773	23756
577.830	21107
577.886	20479
577.943	19875
578.000	20174
578.057	21674
578.114	21742
578.171	23639
578.227	24796
578.284	22955
578.341	23390
578.398	21565
578.454	22624
578.511	24637
578.568	25845
578.625	23065
578.681	20990
578.738	21268
578.794	21281
578.851	21762
578.908	21838
578.964	23283
579.021	21888
579.077	22513
579.134	21981
579.190	21970
579.247	20685
579.303	21204
579.360	20445
579.416	21350
579.473	20976
579.529	21344
579.586	21345
579.642	22334
579.698	21713
579.755	22610
579.811	22600
579.867	22736
579.924	21979
579.980	22934
580.036	24982
580.093	27009
580.149	31846
580.205	30601
580.261	27650
580.317	26868
580.374	27440
580.430	27117
580.486	27376
580.542	25488
580.598	25047
580.619	25112
580.654	25246
580.692	24826
580.710	24644
580.765	25343
580.767	25381
580.823	25254
580.838	25366
580.879	25706
580.911	25584
580.935	25537
580.984	26491
580.991	26637
581.047	26572
581.057	26648
581.103	27125
581.130	27230
581.159	27334
581.203	27792
581.215	27939
581.270	28693
581.276	28483
581.326	26615
581.349	27122
581.382	27885
581.422	27159
581.438	26869
581.494	27696
581.494	27679
581.550	26745
581.567	27436
581.606	28924
581.640	28447
581.661	28198
581.713	29045
581.717	29113
581.773	27694
581.786	27866
581.829	28560
581.859	28777
581.885	28960
581.932	29507
581.940	29614
581.996	29622
582.004	29770
582.052	30432
582.077	30344
582.107	30408
582.150	29968
582.163	29806
582.219	30462
582.223	30502
582.274	31086
582.296	31162
582.330	31277
582.368	31602
582.386	31794
582.441	31936
582.441	31935
582.497	33020
582.514	32907
582.552	33104
582.587	34288
582.608	34848
582.659	34152
582.663	34087
582.719	34553
582.732	34441
582.774	34376
582.805	34894
582.830	35348
582.877	37141
582.885	37457
582.941	38256
582.950	38906
582.996	42466
583.023	43768
583.052	45085
583.095	44976
583.107	44847
583.162	45308
583.168	45286
583.218	44427
583.240	42898
583.273	40717
583.313	40022
583.328	39848
583.384	38863
583.385	38832
583.439	38116
583.458	38343
583.494	38590
583.531	37900
583.549	37653
583.603	37547
583.605	37544
583.660	37015
583.676	37331
583.715	38302
583.748	38088
583.770	38045
583.820	39211
583.825	39249
583.881	39137
583.893	39062
583.936	39241
583.965	39294
583.991	39455
584.038	40511
584.046	40674
584.101	41758
584.110	41707
584.156	41760
584.183	42161
584.211	42408
584.255	42331
584.266	42367
584.321	43668
584.328	43708
584.376	44062
584.400	44115
584.431	44313
584.472	45089
584.486	45295
584.541	47522
584.545	47513
584.596	47848
584.617	48167
584.651	49064
584.689	50185
584.706	50532
584.761	52146
584.762	52126
584.816	51922
584.834	52683
584.871	54247
584.906	54545
584.926	54861
584.978	56834
584.980	56962
585.035	59313
585.051	59891
585.090	61117
585.123	62486
585.145	63683
585.195	67420
585.200	67897
585.254	72452
585.267	73963
585.309	79522
585.340	84272
585.364	87940
585.412	92278
585.419	93165
585.473	105685
585.484	109887
585.528	133758
585.556	159244
585.583	203499
585.628	312739
585.637	349486
585.692	678257
585.700	718309
585.747	860004
585.772	752062
585.801	491952
585.845	232372
585.856	198930
585.910	123027
585.917	115186
585.965	99252
585.989	92752
586.019	89313
586.061	86777
586.074	86308
586.128	84062
586.133	83846
586.183	83433
586.205	83243
586.237	83053
586.277	82626
586.292	82878
586.346	82967
586.349	82963
586.401	83901
586.421	84221
586.455	86312
586.493	88992
586.509	91788
586.564	102748
586.565	103030
586.618	125514
586.637	127296
586.672	115818
586.709	106423
586.727	105133
586.781	105250
586.781	105368
586.835	101396
586.853	100456
586.889	99223
586.925	98503
586.944	99265
586.996	101821
586.998	102057
587.052	106187
587.068	107015
587.106	109432
587.140	111498
587.161	112932
587.212	117204
587.215	117666
587.269	123717
587.284	124988
587.323	128338
587.356	131091
587.377	133644
587.427	139198
587.431	139823
587.485	146468
587.499	147915
587.539	154069
587.571	159324
587.593	164257
587.643	174414
587.648	175613
587.702	185491
587.715	187923
587.755	197397
587.786	204284
587.810	211306
587.858	225318
587.864	227462
587.917	246042
587.930	250027
587.971	268985
588.001	282801
588.025	294152
588.073	315871
588.079	319878
588.133	353001
588.145	360208
588.187	393294
588.217	415983
588.241	438719
588.288	483652
588.295	492108
588.348	559185
588.360	573424
588.402	642144
588.431	689785
588.456	742759
588.503	847225
588.510	868107
588.564	1033073
588.575	1067960
588.617	1255666
588.646	1388418
588.671	1539594
588.718	1828608
588.725	1878841
588.778	2247329
588.789	2313057
588.832	2419883
588.861	2442957
588.886	2243663
588.932	1765656
588.939	1733645
588.993	1580159
589.004	1579870
589.047	2178648
589.075	2521696
589.100	2556139
589.147	2516738
589.154	2480488
589.207	2148591
589.218	2080214
589.261	1948293
589.290	1868217
589.314	1900648
589.361	1973196
589.368	2006520
589.421	2264607
589.433	2313013
589.475	2352645
589.504	2320363
589.528	2128274
589.576	1734162
589.582	1772544
589.635	2233500
589.647	2307948
589.689	2272979
589.718	2200042
589.742	1984027
589.790	1544946
589.795	1513143
589.849	1197586
589.861	1124525
589.902	981108
589.932	871491
589.955	810342
590.004	680993
590.009	674150
590.062	586107
590.075	563637
590.115	516407
590.146	477721
590.168	460285
590.218	419712
590.222	418049
590.275	383551
590.289	373777
590.328	354239
590.360	336782
590.381	327952
590.431	304743
590.435	304474
590.488	286910
590.503	281470
590.541	271517
590.574	261621
590.594	257015
590.645	242864
590.647	243092
590.700	232361
590.716	228752
590.753	223729
590.787	217731
590.806	215760
590.859	208484
590.859	208925
590.912	201580
590.930	198705
590.965	195688
591.001	191520
591.018	190139
591.071	184621
591.072	184053
591.124	179031
591.143	176619
591.177	174636
591.214	171574
591.230	170961
591.283	167344
591.285	166728
591.336	163902
591.356	162234
591.389	160249
591.427	156871
591.442	156327
591.495	152636
591.498	151934
591.547	149542
591.569	148008
591.600	147896
591.640	146578
591.653	146959
591.706	146853
591.711	146430
591.759	147972
591.782	148281
591.811	149652
591.853	150306
591.864	149436
591.917	142735
591.924	141392
591.969	141278
591.995	140583
592.022	141176
592.066	141065
592.075	142071
592.127	145819
592.137	146130
592.180	149338
592.208	150478
592.233	146881
592.279	138905
592.285	139106
592.338	137509
592.350	136747
592.390	135806
592.421	134410
592.443	135222
592.491	135766
592.495	136128
592.548	135682
592.562	135162
592.600	134705
592.633	133587
592.653	133575
592.704	131779
592.705	132543
592.775	132735
592.846	133466
592.916	135334
592.987	133689
593.058	132895
593.128	132238
593.199	131156
593.270	128537
593.341	129742
593.411	131021
593.482	134270
593.553	134709
593.623	134938
593.694	136302
593.764	141494
593.835	135670
593.906	134787
593.976	135742
594.047	141345
594.117	149231
594.188	153944
594.258	143107
594.329	142669
594.399	143531
594.470	145990
594.540	149042
594.611	150454
594.681	150532
594.751	150016
594.822	155266
594.892	159759
594.963	162445
595.033	164966
595.103	167651
595.174	173050
595.244	192582
595.314	207102
595.384	179076
595.455	180084
595.525	186166
595.595	188630
595.665	189566
595.736	184801
595.806	188598
595.876	191289
595.946	188687
596.016	194598
596.087	203223
596.157	202890
596.227	202626
596.297	212513
596.367	226388
596.437	237742
596.507	250091
596.577	260745
596.647	242098
596.717	249570
596.787	252614
596.857	252708
596.927	253456
596.997	255049
597.067	260840
597.137	268203
597.207	269082
597.277	267866
597.347	257768
597.417	251714
597.487	252784
597.557	258445
597.626	266436
597.696	271932
597.766	279194
597.836	282607
597.906	251046
597.975	243753
598.045	246110
598.115	256098
598.185	270822
598.254	297974
598.324	320711
598.394	327117
598.464	316980
598.533	312808
598.603	296736
598.672	289496
598.742	295777
598.812	298417
598.881	305953
598.951	305455
599.020	309914
599.090	321996
599.159	326744
599.229	316567
599.299	312769
599.368	321768
599.437	319076
599.507	302554
599.576	297713
599.646	299135
599.715	297151
599.785	295331
599.854	292379
599.924	296464
599.993	293438
600.062	298654
600.132	306553
600.201	322505
600.270	360843
600.340	375048
600.409	374149
600.478	373239
600.547	383543
600.617	363034
600.686	312971
600.755	300152
600.824	291489
600.894	290983
600.963	294149
601.032	296936
601.101	294091
601.170	294232
601.239	293605
601.308	298797
601.378	302860
601.447	305222
601.516	311599
601.585	319652
601.654	330573
601.723	331546
601.792	342211
601.861	354346
601.930	371608
601.999	381283
602.068	375669
602.137	382700
602.206	388754
602.275	388622
602.343	394123
602.412	394167
602.481	399627
602.550	398510
602.619	409642
602.688	407942
602.756	417781
602.825	410951
602.894	427016
602.963	421826
603.032	431216
603.100	433687
603.169	424149
603.238	443320
603.307	421885
603.375	427530
603.444	445934
603.513	419673
603.581	434675
603.650	453511
603.719	389205
603.787	381600
603.856	389717
603.924	395632
603.993	408531
604.061	422068
604.130	435789
604.198	445552
604.267	452757
604.335	466082
604.404	466496
604.472	479426
604.541	477339
604.609	492610
604.678	501735
604.746	506829
604.815	532568
604.883	515860
604.951	503150
605.020	519383
605.088	497293
605.156	482384
605.225	485424
605.293	482934
605.361	489110
605.429	485996
605.498	498451
605.566	497204
605.634	524017
605.702	526486
605.771	540151
605.839	552952
605.907	518318
605.975	529092
606.043	506715
606.111	496425
606.180	533663
606.248	495587
606.316	492540
606.384	520046
606.452	449801
606.520	407968
606.588	416397
606.656	418847
606.724	410997
606.792	388786
606.860	351796
606.928	319645
606.996	307631
607.064	305469
607.132	314145
607.200	332434
607.267	342051
607.335	352074
607.403	356530
607.471	344440
607.539	334991
607.607	336738
607.674	298075
607.742	297509
607.810	295117
607.878	292176
607.946	301986
608.013	314315
608.081	317137
608.149	321979
608.216	330159
608.284	340616
608.352	339587
608.419	339159
608.487	339315
608.555	324008
608.622	330790
608.690	346708
608.757	378436
608.825	387462
608.893	377804
608.960	358826
609.028	349823
609.095	361033
609.163	344261
609.230	308729
609.298	279925
609.365	296108
609.432	316255
609.500	345695
609.567	396529
609.635	454992
609.702	477972
609.769	455260
609.837	357006
609.904	306163
609.971	313625
610.039	343456
610.106	427489
610.173	725130
610.241	1450174
610.308	993063
610.375	443660
610.442	344113
610.509	318955
610.577	315158
610.644	320301
610.711	329417
610.778	337560
610.845	351706
610.912	372724
610.980	388063
611.047	398039
611.114	384206
611.181	367167
611.248	364992
611.315	384402
611.382	395892
611.449	410847
611.516	418125
611.583	411738
611.650	414394
611.717	422604
611.784	428595
611.851	446342
611.918	468862
611.984	534320
612.051	698007
612.118	1178968
612.185	2280687
612.252	1739016
612.319	714174
612.386	566791
612.452	511026
612.519	484547
612.586	484229
612.653	482298
612.719	492580
612.786	471542
612.853	436970
612.919	428561
612.986	435860
613.053	409666
613.120	383852
613.186	370947
613.253	374598
613.319	372344
613.386	376769
613.453	383195
613.519	386576
613.586	380002
613.652	390870
613.719	382623
613.785	389583
613.852	387896
613.918	384071
613.985	392185
614.051	419623
614.118	448278
614.184	430158
614.250	387229
614.317	394311
614.383	385245
614.449	394637
614.516	392654
614.582	397196
614.648	387573
614.715	385243
614.781	379530
614.847	379723
614.914	376939
614.980	368461
615.046	366991
615.112	379622
615.179	381503
615.245	393274
615.311	404218
615.377	442905
615.443	462784
615.509	428204
615.575	420505
615.642	411964
615.708	420076
615.774	440504
615.840	467093
615.906	503397
615.972	607449
616.038	884444
616.104	1469548
616.170	2525893
616.236	2304973
616.302	982491
616.368	707590
616.434	553010
616.500	497402
616.565	522116
616.631	612762
616.697	555788
616.763	551730
616.829	725807
616.895	1148532
616.961	1167037
617.026	654108
617.092	465873
617.158	425848
617.224	410442
617.289	378801
617.355	361510
617.421	356883
617.487	354436
617.552	334865
617.618	332744
617.684	332712
617.749	335044
617.815	319224
617.880	310375
617.946	314369
618.012	320133
618.077	326620
618.143	314253
618.208	318122
618.274	339916
618.339	343456
618.405	285950
618.470	285325
618.536	287756
618.601	284829
618.667	264441
618.732	250428
618.798	249553
618.863	245775
618.928	245168
618.994	249043
619.059	249452
619.124	256808
619.190	248436
619.255	245822
619.320	248282
619.386	247763
619.451	244962
619.516	238519
619.581	241175
619.647	248793
619.712	247763
619.777	237715
619.842	239047
619.907	244479
619.972	251067
620.038	245663
620.103	241997
620.168	241120
620.233	243917
620.298	245976
620.363	246401
620.428	254292
620.493	260472
620.558	261988
620.623	267252
620.688	264178
620.753	264509
620.818	269521
620.883	272287
620.948	268903
621.013	267175
621.078	265239
621.143	268213
621.207	272408
621.272	269125
621.337	261142
621.402	264103
621.467	266870
621.532	270797
621.596	261233
621.661	253697
621.726	247421
621.791	253664
621.855	253811
621.920	253347
621.985	260335
622.049	268499
622.114	265214
622.179	267644
622.243	271791
622.308	281328
622.373	288208
622.437	282011
622.502	270070
622.566	266579
622.631	265373
622.695	272369
622.760	268915
622.824	267852
622.889	268169
622.953	272480
623.018	293832
623.082	293940
623.147	282788
623.211	279804
623.276	277448
623.340	266273
623.404	258395
623.469	260953
623.533	262497
623.597	259510
623.662	253944
623.726	238425
623.790	225656
623.854	222423
623.919	227996
623.983	228248
624.047	229300
624.111	231768
624.176	237594
624.240	238474
624.304	248222
624.368	235546
624.432	233548
624.496	240546
624.560	253948
624.625	256725
624.689	252208
624.753	261956
624.817	250725
624.881	242386
624.945	221264
625.009	217894
625.073	220225
625.137	227083
625.201	240616
625.265	238752
625.329	226521
625.393	230637
625.456	230391
625.520	236645
625.584	243546
625.648	258493
625.712	290728
625.776	376587
625.839	376898
625.903	239857
625.967	202282
626.031	240130
626.095	301998
626.158	229111
626.222	176694
626.286	167129
626.349	161392
626.413	154626
626.477	153307
626.540	152518
626.604	151844
626.668	150192
626.731	147822
626.795	151646
626.858	148641
626.922	145349
626.986	142463
627.049	145379
627.113	149295
627.176	143898
627.240	139279
627.303	139690
627.366	137821
627.430	141067
627.493	141179
627.557	139780
627.620	141248
627.684	142376
627.747	143265
627.810	133457
627.874	123040
627.937	118031
628.000	124528
628.064	120862
628.127	106736
628.190	107063
628.253	105413
628.317	101446
628.380	97227
628.443	95407
628.506	97008
628.569	92462
628.632	86972
628.696	87804
628.759	87777
628.822	83143
628.885	81719
628.948	82166
629.011	81609
629.074	79908
629.137	77257
629.200	75600
629.263	77670
629.326	74529
629.389	74843
629.452	75699
629.515	73793
629.578	73978
629.641	75951
629.704	75727
629.767	74652
629.830	70803
629.892	70966
629.955	69768
630.018	73361
630.081	71659
630.144	74167
630.207	69990
630.269	73791
630.332	72618
630.395	70208
630.458	67362
630.520	63821
630.583	67388
630.646	65940
630.708	66761
630.771	66423
630.834	70250
630.896	67854
630.959	68554
631.021	66084
631.084	68527
631.146	70194
631.209	74057
631.272	67825
631.334	68191
631.397	68336
631.459	68756
631.522	71663
631.584	72568
631.646	74332
631.709	77216
631.771	80382
631.834	75852
631.896	72241
631.958	68731
632.021	69810
632.083	65653
632.145	66247
632.208	63811
632.270	64613
632.332	64174
632.395	62830
632.457	64896
632.519	64608
632.581	63284
632.643	61644
632.706	63370
632.768	60907
632.830	63574
632.892	61928
632.954	63505
633.016	64040
633.078	63706
633.141	62758
633.203	61797
633.265	63377
633.327	62786
633.389	62690
633.451	65531
633.513	65646
633.575	68864
633.637	66682
633.698	66796
633.760	67517
633.822	68186
633.884	69442
633.946	71907
634.008	72118
634.070	75103
634.132	79411
634.193	81597
634.255	84036
634.317	83201
634.379	84850
634.441	78173
634.502	73947
634.564	69174
634.626	66067
634.687	63939
634.749	60807
634.811	62463
634.873	59462
634.934	61113
634.996	61765
635.057	58819
635.119	61277
635.181	62027
635.242	63834
635.304	60293
635.365	64760
635.427	63332
635.488	62578
635.550	61142
635.611	62359
635.673	61237
635.734	66709
635.796	68550
635.857	73900
635.918	75609
635.980	80252
636.041	83203
636.102	87309
636.164	86473
636.225	84425
636.286	76347
636.348	71186
636.409	66968
636.470	62646
636.531	62697
636.593	63375
636.654	61087
636.715	56505
636.776	55957
636.838	53573
636.899	56325
636.960	53423
637.021	54014
637.082	52275
637.143	53694
637.204	49649
637.265	51815
637.326	51342
637.387	51250
637.448	50158
637.509	52054
637.570	51356
637.631	52187
637.692	50351
637.753	48432
637.814	50173
637.875	47708
637.936	49019
637.997	47082
638.058	48240
638.119	49845
638.179	48572
638.240	48013
638.301	48852
638.362	47330
638.423	46414
638.483	48136
638.544	44107
638.605	46701
638.666	47232
638.726	46286
638.787	46819
638.848	46047
638.908	45212
638.969	44644
639.030	45357
639.090	42459
639.151	44068
639.211	45670
639.272	46577
639.332	52022
639.393	47956
639.453	47545
639.514	47554
639.574	44120
639.635	41113
639.695	43235
639.756	40143
639.816	41437
639.877	42851
639.937	47272
639.997	49850
640.058	42670
640.118	40478
640.178	42024
640.239	40492
640.299	41014
640.359	41536
640.420	43236
640.480	46912
640.540	50448
640.600	51738
640.661	49723
640.721	49452
640.781	56363
640.841	55852
640.901	44731
640.961	42898
641.021	44410
641.082	45261
641.142	46105
641.202	43216
641.262	38812
641.322	40829
641.382	37858
641.442	40672
641.502	39903
641.562	39912
641.622	40323
641.682	42418
641.742	46051
641.802	43886
641.861	42659
641.921	39616
641.981	40240
642.041	38034
642.101	40506
642.161	36157
642.221	36340
642.280	37519
642.340	35739
642.400	36224
642.460	39106
642.519	37990
642.579	38324
642.639	39134
642.698	36023
642.758	39876
642.818	38933
642.877	38056
642.937	39944
642.997	41051
643.056	42986
643.116	39011
643.175	40998
643.235	40719
643.294	42133
643.354	43095
643.414	45599
643.473	53025
643.532	58777
643.592	74217
643.651	107891
643.711	175574
643.770	329566
643.830	749449
643.889	1310925
643.948	414110
644.008	108304
644.067	69246
644.126	53680
644.186	47959
644.245	44949
644.304	40088
644.363	41693
644.423	37639
644.482	38812
644.541	41403
644.600	41725
644.659	50761
644.719	59871
644.778	83782
644.837	133219
644.896	263186
644.955	557101
645.014	196927
645.073	62812
645.132	48320
645.191	45186
645.250	42058
645.309	43796
645.368	47099
645.427	57517
645.486	89475
645.545	141242
645.604	54350
645.663	40613
645.722	39498
645.781	41899
645.840	45542
645.898	54151
645.957	71573
646.016	100131
646.075	169531
646.134	317563
646.192	776993
646.251	1024652
646.310	219772
646.369	79433
646.427	63643
646.486	50266
646.545	42556
646.603	40067
646.662	37749
646.721	36374
646.779	35107
646.838	37970
646.896	44535
646.955	56719
647.014	84042
647.072	153340
647.131	384713
647.189	184504
647.248	43724
647.306	35188
647.365	33756
647.423	29647
647.481	30684
647.540	28876
647.598	29199
647.657	28597
647.715	29171
647.773	27329
647.832	27967
647.890	26889
647.948	26059
648.007	26803
648.065	26054
648.123	25916
648.181	28049
648.240	28861
648.298	26750
648.356	25786
648.414	26860
648.472	25873
648.531	24584
648.589	23808
648.647	24070
648.705	25352
648.763	24852
648.821	26225
648.879	26142
648.937	28808
648.995	33217
649.053	40371
649.111	53890
649.169	85437
649.227	144920
649.285	295573
649.343	754391
649.401	367040
649.459	77626
649.516	50996
649.574	41720
649.632	58718
649.690	64001
649.748	52030
649.806	71294
649.863	120807
649.921	279167
649.979	179881
650.037	36580
650.094	25792
650.152	25008
650.210	22813
650.268	23672
650.325	25462
650.383	30020
650.440	21727
650.498	20677
650.556	20054
650.613	18928
650.671	19983
650.728	20279
650.786	22448
650.843	25180
650.901	20517
650.958	19415
651.016	17901
651.073	17884
651.131	17505
651.188	17537
651.246	17806
651.303	16955
651.360	18114
651.418	16531
651.475	17938
651.532	15052
651.590	17443
651.647	15563
651.704	17044
651.762	16237
651.819	16705
651.876	16223
651.933	16113
651.990	16799
652.048	15289
652.105	15449
652.162	15847
652.219	14413
652.276	15688
652.333	15197
652.390	14485
652.448	15756
652.505	16693
652.562	15362
652.619	16706
652.676	21411
652.733	21200
652.790	15346
652.847	13581
652.904	15403
652.961	14001
653.017	13668
653.074	15617
653.131	14383
653.188	13539
653.245	13666
653.302	14355
653.359	14370
653.415	15435
653.472	14350
653.529	13958
653.586	13096
653.642	14171
653.699	14526
653.756	13727
653.813	13389
653.869	14315
653.926	13374
653.983	13997
654.039	13776
654.096	14711
654.152	15005
654.209	13510
654.266	14877
654.322	14643
654.379	14490
654.435	15126
654.492	16433
654.548	17965
654.605	22775
654.661	17958
654.717	14093
654.774	15467
654.830	15384
654.887	15348
654.943	16140
655.000	17850
655.056	15488
655.112	14900
655.168	13477
655.225	13685
655.281	16269
655.337	18266
655.394	23320
655.450	18785
655.506	17646
655.562	25129
655.618	20882
655.675	13072
655.731	12930
655.787	13504
655.843	14261
655.899	12996
655.955	13590
656.011	13643
656.067	12593
656.123	14426
656.179	13607
656.235	15356
656.291	13244
656.347	15579
656.403	14187
656.459	14592
656.515	14847
656.571	14886
656.627	14327
656.683	13865
656.739	13510
656.795	13968
656.850	13287
656.906	14459
656.962	15059
657.018	13689
657.074	15501
657.129	18933
657.185	25204
657.241	46687
657.297	28151
657.352	15787
657.408	12040
657.464	15518
657.519	12900
657.575	11859
657.630	12917
657.686	11745
657.742	12062
657.797	13088
657.853	12635
657.908	13965
657.964	11678
658.019	12814
658.075	12444
658.130	13090
658.186	11861
658.241	12803
658.297	11378
658.352	12775
658.407	12713
658.463	11897
658.518	12670
658.573	12844
658.629	11015
658.684	11666
658.739	12707
658.795	11870
658.850	11535
658.905	11694
658.960	11983
659.016	11298
659.071	12134
659.126	12850
659.181	12496
659.236	14904
659.291	15531
659.346	13873
659.401	13255
659.457	15648
659.512	15788
659.567	14941
659.622	12022
659.677	12442
659.732	11251
659.787	13124
659.842	13346
659.897	15371
659.952	12751
660.007	11326
660.061	12543
660.116	12768
660.171	11877
660.226	11612
660.281	12850
660.336	11350
660.391	12214
660.445	11927
660.500	11923
660.555	11392
660.610	11265
660.664	12944
660.719	10651
660.774	11765
660.828	12760
660.883	12137
660.938	11472
660.992	11473
661.047	11584
661.101	11319
661.156	10643
661.211	10357
661.265	11328
661.320	10840
661.374	10767
661.429	11344
661.483	12222
661.538	11282
661.592	11690
661.647	13410
661.701	15891
661.755	12991
661.810	11788
661.864	11390
661.919	10495
661.973	11899
662.027	10332
662.081	10319
662.136	11021
662.190	12282
662.244	12339
662.299	10982
662.353	11388
662.407	10310
662.461	10573
662.515	11676
662.569	11584
662.624	11641
662.678	10582
662.732	11668
662.786	10906
662.840	11131
662.894	11383
662.948	10348
663.002	11392
663.056	11638
663.110	10410
663.164	11318
663.218	10876
663.272	11551
663.326	10344
663.380	11383
663.434	11768
663.488	10606
663.542	10860
663.595	12160
663.649	10867
663.703	11437
663.757	10614
663.811	10943
663.864	11134
663.918	11665
663.972	9933
664.026	10772
664.079	10599
664.133	11075
664.187	11571
664.240	10304
664.294	11190
664.348	12177
664.401	10776
664.455	10438
664.508	9972
664.562	11056
664.615	9779
664.669	10475
664.722	10401
664.776	10543
664.829	10783
664.883	11180
664.936	10676
664.990	11101
665.043	11321
665.097	11414
665.150	12354
665.203	11705
665.257	11914
665.310	11517
665.363	11615
665.417	12114
665.470	11009
665.523	12221
665.576	11070
665.630	11037
665.683	11613
665.736	12015
665.789	12759
665.842	10600
665.895	11169
665.949	11387
666.002	11144
666.055	11228
666.108	12745
666.161	12207
666.214	12025
666.267	11977
666.320	12419
666.373	12209
666.426	12910
666.479	12658
666.532	12402
666.585	14325
666.638	13730
666.691	13517
666.744	13742
666.796	13907
666.849	13354
666.902	13280
666.955	12210
667.008	11708
667.060	11406
667.113	11799
667.166	11564
667.219	11966
667.271	12448
667.324	11494
667.377	12211
667.430	12347
667.482	13262
667.535	12781
667.587	12171
667.640	12634
667.693	12853
667.745	14116
667.798	13714
667.850	11944
667.903	11603
667.955	12018
668.008	11489
668.060	12205
668.113	12157
668.165	12143
668.218	11954
668.270	11474
668.322	12150
668.375	11509
668.427	12115
668.479	11823
668.532	12035
668.584	12510
668.636	11162
668.689	11585
668.741	11120
668.793	11347
668.845	11352
668.898	12132
668.950	11114
669.002	11660
669.054	11749
669.106	11639
669.158	11491
669.211	12041
669.263	12073
669.315	13475
669.367	13469
669.419	11866
669.471	13277
669.523	12746
669.575	14471
669.627	13936
669.679	11450
669.731	12762
669.783	12835
669.835	12707
669.886	12816
669.938	12136
669.990	11091
670.042	11195
670.094	12203
670.146	12269
670.197	13203
670.249	15302
670.301	15047
670.353	18985
670.404	23944
670.456	31275
670.508	45350
670.560	72530
670.611	120504
670.663	209528
670.715	481199
670.766	689938
670.818	204882
670.869	44854
670.921	27759
670.972	22920
671.024	17572
671.075	16732
671.127	14464
671.178	14208
671.230	15059
671.281	13635
671.333	14682
671.384	17176
671.436	18424
671.487	22399
671.538	27714
671.590	39327
671.641	60717
671.692	96485
671.744	162213
671.795	133141
671.846	60927
671.897	33399
671.949	23624
672.000	20320
672.051	15183
672.102	14947
672.153	13458
672.204	13034
672.256	12748
672.307	12351
672.358	12205
672.409	10582
672.460	10590
672.511	10434
672.562	9387
672.613	10236
672.664	9940
672.715	10238
672.766	10072
672.817	9848
672.868	9972
672.919	9901
672.970	9534
673.021	9989
673.071	10009
673.122	9682
673.173	9448
673.224	9060
673.275	9202
673.326	9160
673.376	9359
673.427	9060
673.478	8747
673.528	9917
673.579	9163
673.630	8758
673.680	10317
673.731	8839
673.782	7920
673.832	8758
673.883	8960
673.934	9123
673.984	9628
674.035	9408
674.085	8940
674.136	10242
674.186	9694
674.237	12391
674.287	14905
674.338	10866
674.388	9424
674.438	10183
674.489	9451
674.539	10577
674.589	10211
674.640	9977
674.690	9791
674.740	9756
674.791	10520
674.841	10133
674.891	9172
674.942	8918
674.992	8059
675.042	8340
675.092	7698
675.142	6897
675.193	6781
675.243	8217
675.293	9154
675.343	8680
675.393	7975
675.443	8463
675.493	8373
675.543	8175
675.593	9405
675.643	8458
675.693	8562
675.743	8725
675.793	7740
675.843	8308
675.893	8001
675.943	8401
675.993	7770
676.043	7929
676.093	7992
676.142	8321
676.192	8224
676.242	7959
676.292	7643
676.341	8174
676.391	7635
676.441	7582
676.491	7306
676.540	6896
676.590	6981
676.640	7815
676.689	7506
676.739	7388
676.789	6813
676.838	6639
676.888	6714
676.937	7995
676.987	7166
677.037	7126
677.086	6558
677.136	7301
677.185	6817
677.235	7122
677.284	6879
677.333	6158
677.383	6128
677.432	6835
677.482	6476
677.531	7518
677.580	6456
677.630	7016
677.679	6575
677.728	7104
677.778	7246
677.827	6424
677.876	7034
677.925	7202
677.975	6594
678.024	6707
678.073	6917
678.122	7939
678.171	6987
678.220	7730
678.269	8977
678.319	9371
678.368	8240
678.417	8350
678.466	7916
678.515	7769
678.564	6986
678.613	7451
678.662	6949
678.711	7097
678.760	7063
678.809	6701
678.857	7038
678.906	7764
678.955	7582
679.004	7659
679.053	8126
679.102	8186
679.151	7013
679.199	6004
679.248	6392
679.297	8048
679.346	6930
679.394	6091
679.443	5916
679.492	7264
679.540	7323
679.589	7274
679.638	5730
679.686	7164
679.735	7296
679.784	7328
679.832	7380
679.881	6719
679.929	6629
679.978	6290
680.026	6561
680.075	6624
680.123	6092
680.172	5795
680.220	5872
680.268	5817
680.317	6130
680.365	6132
680.414	5436
680.462	5906
680.510	7034
680.559	5247
680.607	6688
680.655	5873
680.703	6116
680.752	6220
680.800	5326
680.848	5773
680.896	4984
680.945	6796
680.993	6463
681.041	6297
681.089	6298
681.137	5092
681.185	5666
681.233	5757
681.258	5715
681.281	5622
681.329	5355
681.377	5623
681.380	5714
681.425	6408
681.473	6843
681.502	6523
681.521	6204
681.569	7248
681.617	7031
681.624	7039
681.665	6676
681.713	6936
681.745	6767
681.761	6614
681.809	7272
681.857	6970
681.867	7066
681.904	7161
681.952	7113
681.989	7533
682.000	7608
682.048	6802
682.096	7088
682.111	7192
682.143	7202
682.191	7520
682.233	8199
682.239	8257
682.286	8285
682.334	8214
682.354	8105
682.382	7806
682.430	8194
682.476	8748
682.477	8714
682.525	7951
682.572	8180
682.598	8023
682.620	7846
682.667	9250
682.715	8872
682.720	8940
682.763	9103
682.810	8330
682.841	8732
682.857	8849
682.905	8175
682.952	8876
682.963	8935
683.000	9026
683.047	8984
683.085	9810
683.095	9970
683.142	9112
683.190	9950
683.206	9811
683.237	9454
683.284	9294
683.328	9619
683.332	9600
683.379	8951
683.426	9483
683.449	9447
683.473	9428
683.521	10385
683.568	10890
683.571	10873
683.615	9951
683.662	10451
683.693	10448
683.709	10422
683.757	10756
683.804	10406
683.814	10321
683.851	9867
683.898	10421
683.936	10524
683.945	10529
683.992	11256
684.039	10562
684.057	10927
684.086	11334
684.133	12049
684.179	11071
684.180	11009
684.227	11352
684.274	11441
684.300	11471
684.321	11443
684.368	11111
684.415	11918
684.422	11860
684.462	11373
684.509	11389
684.543	12024
684.556	12224
684.603	11769
684.649	12192
684.665	12332
684.696	12543
684.743	12545
684.786	12585
684.790	12566
684.837	13420
684.883	14114
684.908	14007
684.930	13877
684.977	14442
685.023	14273
685.029	14240
685.070	13371
685.117	13514
685.150	13792
685.164	14035
685.210	14499
685.257	15102
685.272	15205
685.303	15145
685.350	14280
685.393	14914
685.396	14943
685.443	14552
685.490	15340
685.514	15135
685.536	14927
685.583	15110
685.629	14494
685.636	14511
685.675	14454
685.722	14319
685.757	14543
685.768	14639
685.815	15156
685.861	15672
685.878	15510
685.908	15197
685.954	15508
686.000	16079
686.000	16083
686.047	17193
686.093	18767
686.121	18670
686.139	18236
686.185	17502
686.232	16636
686.242	16596
686.278	16459
686.324	16149
686.363	16341
686.370	16421
686.416	16248
686.463	16727
686.484	16688
686.509	16498
686.555	16345
686.601	16464
686.606	16493
686.647	16746
686.693	16704
686.727	16631
686.739	16619
686.785	16546
686.831	16438
686.848	16322
686.877	16188
686.923	16020
686.969	16381
686.969	16381
687.015	17081
687.061	17978
687.090	18033
687.107	17896
687.153	18296
687.199	17399
687.211	17378
687.245	17556
687.291	17672
687.332	18019
687.336	18053
687.382	18193
687.428	17927
687.453	18127
687.474	18161
687.520	18253
687.565	18408
687.574	18377
687.611	18904
687.657	19793
687.695	20653
687.702	21035
687.748	23477
687.794	27063
687.816	27451
687.839	25788
687.885	23290
687.931	20766
687.937	20474
687.976	20000
688.022	18822
688.058	18772
688.067	18918
688.113	19409
688.158	18890
688.179	18879
688.204	18851
688.249	19601
688.295	19555
688.300	19627
688.340	20418
688.386	19929
688.421	19903
688.431	19837
688.477	19298
688.522	20037
688.542	20059
688.567	20223
688.613	19669
688.658	20226
688.663	20221
688.703	20290
688.749	20037
688.784	20030
688.794	20033
688.839	20218
688.884	20315
688.905	20126
688.930	19870
688.975	20264
689.020	19984
689.026	19986
689.065	20542
689.110	20901
689.146	21257
689.155	21349
689.201	21327
689.246	22001
689.267	21909
689.291	21491
689.336	21509
689.381	21060
689.388	20993
689.426	21069
689.471	20621
689.509	20927
689.516	20983
689.561	20590
689.606	20518
689.630	20409
689.651	20521
689.696	20497
689.741	20737
689.750	20791
689.785	21123
689.830	21223
689.871	21685
689.875	21690
689.920	21064
689.965	20696
689.992	19857
690.010	19758
690.054	20731
690.099	21570
690.112	21807
690.144	22014
690.189	21600
690.233	21162
690.233	21185
690.278	20854
690.323	20883
690.354	20535
690.367	20634
690.412	21264
690.457	21605
690.474	21952
690.501	22356
690.546	22393
690.590	22537
690.595	22476
690.635	22419
690.680	22611
690.716	22978
690.724	23264
690.769	24831
690.813	26509
690.836	27096
690.857	28640
690.902	32014
690.946	35869
690.957	36669
690.991	43854
691.035	54846
691.077	64379
691.080	64439
691.124	60985
691.168	57762
691.198	56402
691.213	53810
691.257	45967
691.301	37858
691.318	34591
691.346	32627
691.390	29714
691.434	26521
691.439	26186
691.478	26061
691.522	25827
691.559	25454
691.567	25484
691.611	25313
691.655	25183
691.680	25100
691.699	24996
691.743	24655
691.787	24152
691.800	24009
691.831	24314
691.875	24496
691.919	25341
691.921	25308
691.964	25498
692.008	25701
692.041	25949
692.052	25920
692.096	25256
692.139	24913
692.162	24669
692.183	24722
692.227	25026
692.271	24669
692.282	24610
692.315	24666
692.359	25080
692.402	24986
692.403	25028
692.447	24811
692.490	24952
692.523	25214
692.534	25406
692.578	25156
692.622	25197
692.643	25192
692.666	25155
692.709	25225
692.753	24601
692.763	24607
692.797	24956
692.840	24961
692.884	25142
692.884	25191
692.928	25367
692.971	25653
693.004	25506
693.015	25534
693.059	26021
693.102	25936
693.124	25975
693.146	26200
693.189	26808
693.233	27280
693.245	27379
693.276	28081
693.320	28522
693.363	29347
693.365	29319
693.407	30278
693.450	31299
693.485	31997
693.493	32523
693.537	34935
693.580	37519
693.605	38929
693.624	42358
693.667	50212
693.710	58644
693.725	61650
693.753	76607
693.797	100419
693.840	123762
693.845	125993
693.883	118421
693.926	110131
693.966	103248
693.970	101619
694.013	82749
694.056	64171
694.086	51230
694.099	49716
694.142	44663
694.185	39202
694.206	36575
694.229	35733
694.272	34481
694.315	32725
694.326	32226
694.358	31362
694.401	30273
694.444	29271
694.446	29143
694.487	28611
694.530	28407
694.566	27902
694.573	27864
694.616	27159
694.659	26860
694.686	26506
694.702	26589
694.745	26582
694.787	26579
694.806	26546
694.830	26670
694.873	26730
694.916	26768
694.926	26721
694.959	26530
695.002	26348
695.044	26300
695.046	26227
695.087	26678
695.130	27279
695.166	27637
695.172	27665
695.215	27475
695.258	27182
695.286	27011
695.301	27245
695.343	27708
695.386	28320
695.406	28424
695.428	28569
695.471	28946
695.514	29296
695.526	29368
695.556	30265
695.599	31210
695.641	32224
695.646	32249
695.684	31319
695.726	30208
695.766	29288
695.769	29362
695.811	29386
695.854	29399
695.886	29359
695.896	29377
695.938	29223
695.981	28925
696.005	28755
696.023	29256
696.065	30302
696.108	31287
696.125	31641
696.150	31855
696.192	32156
696.235	32379
696.245	32342
696.277	32311
696.319	32248
696.361	32155
696.365	32075
696.404	32058
696.446	32002
696.485	31860
696.488	31986
696.530	32499
696.572	33273
696.604	33645
696.614	33593
696.656	33176
696.698	32576
696.724	32254
696.740	32284
696.783	32014
696.825	31935
696.844	31679
696.867	31555
696.909	31505
696.951	31180
696.964	31082
696.992	31476
697.034	31704
697.076	32179
697.083	32138
697.118	32551
697.160	33185
697.202	33737
697.203	33671
697.244	33204
697.286	32646
697.323	32038
697.327	32119
697.369	32124
697.411	32332
697.442	32263
697.453	32446
697.494	32901
697.536	33433
697.562	33653
697.578	33637
697.620	33298
697.661	33157
697.682	32906
697.703	33264
697.744	33960
697.786	34648
697.801	34793
697.828	34844
697.869	34704
697.911	34668
697.921	34583
697.952	34581
697.994	34396
698.035	34205
698.040	34102
698.077	34303
698.118	34402
698.160	34584
698.160	34500
698.201	34751
698.243	34936
698.279	35028
698.284	35159
698.325	35594
698.367	36012
698.399	36203
698.408	36216
698.449	35913
698.491	35640
698.518	35330
698.532	35588
698.573	36150
698.614	36690
698.638	36922
698.656	37212
698.697	37624
698.738	38080
698.757	38198
698.779	38230
698.820	38092
698.862	37969
698.877	37827
698.903	38047
698.944	38240
698.985	38444
698.996	38403
699.026	38526
699.067	38570
699.116	38524
699.235	36957
699.354	35887
699.474	35683
699.593	36889
699.713	37541
699.832	36216
699.951	36355
700.070	35594
700.190	35078
700.309	34052
700.428	35775
700.547	33193
700.667	32931
700.786	35193
700.905	32968
701.024	34365
701.143	32800
701.262	32280
701.381	33588
701.500	32624
701.619	33270
701.738	31978
701.857	32859
701.976	30795
702.095	31223
702.214	33234
702.333	31826
702.452	32895
702.571	31602
702.690	31695
702.809	31760
702.928	30283
703.047	30265
703.165	29901
703.284	29613
703.403	30378
703.522	31449
703.640	30722
703.759	31357
703.878	36344
703.997	29845
704.115	29130
704.234	29018
704.353	29086
704.471	28225
704.590	26579
704.708	27205
704.827	27691
704.946	27669
705.064	29044
705.183	28096
705.301	32395
705.420	39801
705.538	35857
705.656	32670
705.775	34837
705.893	54998
706.012	62499
706.130	32672
706.249	32887
706.367	33209
706.485	32965
706.604	31403
706.722	32515
706.840	38726
706.958	54467
707.077	40577
707.195	30131
707.313	29075
707.431	28388
707.549	29080
707.668	28905
707.786	29459
707.904	28486
708.022	29347
708.140	28055
708.258	28751
708.376	29348
708.494	28827
708.612	30823
708.730	38681
708.848	37505
708.966	34514
709.084	32387
709.202	33466
709.320	33208
709.438	33511
709.556	33678
709.674	31448
709.791	31793
709.909	31180
710.027	30881
710.145	30857
710.263	30308
710.380	30573
710.498	30072
710.616	31086
710.733	29812
710.851	30757
710.969	31035
711.086	29700
711.204	29296
711.322	29241
711.439	29230
711.557	29201
711.674	29508
711.792	28537
711.909	30962
712.027	32046
712.144	27102
712.262	28836
712.379	31118
712.497	39148
712.614	39815
712.732	34758
712.849	32802
712.966	34912
713.084	35793
713.201	33308
713.318	34779
713.436	34263
713.553	34857
713.670	35760
713.787	37107
713.905	36468
714.022	34286
714.139	35683
714.256	39845
714.373	49293
714.490	78597
714.608	185066
714.725	710655
714.842	657270
714.959	78648
715.076	44136
715.193	36685
715.310	34294
715.427	30056
715.544	30291
715.661	31397
715.778	30176
715.895	31671
716.011	31364
716.128	29837
716.245	29531
716.362	29584
716.479	28493
716.596	27318
716.713	29654
716.829	27347
716.946	27935
717.063	26532
717.180	26713
717.296	26200
717.413	25551
717.530	24544
717.646	25287
717.763	24535
717.880	24276
717.996	24144
718.113	24482
718.229	23489
718.346	23786
718.462	24460
718.579	26113
718.695	26999
718.812	28682
718.928	28900
719.045	25442
719.161	22601
719.277	23812
719.394	23966
719.510	25145
719.626	25900
719.743	32342
719.859	39123
719.975	70183
720.092	250445
720.208	508185
720.324	71714
720.440	30482
720.557	27439
720.673	29465
720.789	37305
720.905	66666
721.021	31338
721.137	22582
721.253	22937
721.369	23046
721.486	24651
721.602	28993
721.718	21875
721.834	20536
721.950	20058
722.066	20640
722.181	19278
722.297	20990
722.413	19968
722.529	19485
722.645	18759
722.761	19448
722.877	20257
722.993	20393
723.108	22104
723.224	21335
723.340	20103
723.456	19707
723.571	18063
723.687	18719
723.803	18611
723.918	18382
724.034	18253
724.150	19816
724.265	19981
724.381	31137
724.497	33995
724.612	18527
724.728	17176
724.843	17520
724.959	18684
725.074	29945
725.190	31939
725.305	18582
725.421	17660
725.536	17674
725.651	16674
725.767	17418
725.882	16644
725.997	16829
726.113	16742
726.228	16450
726.343	15970
726.459	15959
726.574	16700
726.689	16155
726.804	15151
726.920	16084
727.035	16381
727.150	16676
727.265	15329
727.380	15791
727.495	15955
727.610	15383
727.725	16467
727.841	18916
727.956	30195
728.071	24389
728.186	15306
728.301	13962
728.416	15688
728.531	14601
728.645	14272
728.760	15218
728.875	14321
728.990	14619
729.105	15184
729.220	14867
729.335	14512
729.449	15360
729.564	13514
729.679	13267
729.794	14501
729.908	15002
730.023	13741
730.138	13090
730.253	13290
730.367	13363
730.482	12818
730.596	13760
730.711	15096
730.826	18685
730.940	20603
731.055	15345
731.169	14824
731.284	14594
731.398	15850
731.513	17687
731.627	17054
731.742	19548
731.856	21863
731.970	20616
732.085	24531
732.199	33843
732.313	56101
732.428	137508
732.542	350482
732.656	186735
732.771	45250
732.885	27976
732.999	24560
733.113	25404
733.227	23893
733.342	22259
733.456	21551
733.570	21095
733.684	20487
733.798	19529
733.912	19365
734.026	20163
734.140	18890
734.254	19734
734.368	24638
734.482	27726
734.596	18591
734.710	18972
734.824	17947
734.938	16871
735.052	18427
735.166	19102
735.280	17974
735.393	17052
735.507	18581
735.621	19354
735.735	26625
735.849	18839
735.962	16451
736.076	17532
736.190	17674
736.303	20138
736.417	22338
736.531	16760
736.644	17067
736.758	15875
736.872	15129
736.985	16216
737.099	15719
737.212	14528
737.326	15065
737.439	15854
737.553	14751
737.666	15461
737.780	13515
737.893	14773
738.007	15159
738.120	15382
738.233	14209
738.347	15322
738.460	15071
738.573	14901
738.687	14449
738.800	15103
738.913	15314
739.026	16138
739.140	15763
739.253	15913
739.366	14389
739.479	13819
739.592	13844
739.705	14675
739.818	14413
739.932	13863
740.045	14349
740.158	13428
740.271	14671
740.384	14472
740.497	13328
740.610	14705
740.723	13236
740.836	13771
740.949	13275
741.062	14554
741.174	14131
741.287	14058
741.400	13313
741.513	12957
741.626	13500
741.739	13017
741.851	13001
741.964	12596
742.077	11843
742.189	11676
742.302	13506
742.415	12831
742.527	12650
742.640	12087
742.753	11978
742.865	12749
742.978	12316
743.090	12202
743.203	12434
743.316	12235
743.428	12108
743.541	11564
743.653	10882
743.766	12409
743.878	12815
743.990	12812
744.103	14466
744.215	12462
744.327	11968
744.440	12830
744.552	12460
744.664	12043
744.777	12240
744.889	11490
745.001	12314
745.113	11951
745.226	10895
745.338	10925
745.450	12897
745.562	11260
745.674	10761
745.786	11975
745.898	12020
746.010	11086
746.122	12071
746.234	11251
746.347	11075
746.459	11510
746.570	9695
746.682	11401
746.794	13114
746.906	11584
747.018	10558
747.130	12033
747.242	10864
747.354	10560
747.466	11055
747.577	10403
747.689	10877
747.801	10743
747.913	9602
748.024	10349
748.136	9162
748.248	9690
748.359	9746
748.471	10391
748.583	9748
748.694	10859
748.806	13873
748.918	11755
749.029	10722
749.141	10260
749.252	10486
749.364	10055
749.475	11839
749.587	10995
749.698	9750
749.809	10350
749.921	10258
750.032	9757
750.144	9777
750.255	9186
750.366	10389
750.478	9922
750.589	9625
750.700	9578
750.811	10313
750.923	10377
751.034	11316
751.145	11943
751.256	9106
751.367	9379
751.479	9679
751.590	9287
751.701	9009
751.812	8577
751.923	9875
752.034	10697
752.145	9645
752.256	9161
752.367	9101
752.478	9491
752.589	10263
752.700	10458
752.811	9058
752.922	8927
753.032	9821
753.143	10345
753.254	9131
753.365	10988
753.476	9900
753.586	8506
753.697	8363
753.808	9311
753.919	8180
754.029	8771
754.140	8618
754.251	9012
754.361	9388
754.472	9546
754.582	8752
754.693	9602
754.804	9848
754.914	8326
755.025	8246
755.135	9105
755.246	9019
755.356	8604
755.466	9119
755.577	8689
755.687	9866
755.798	9089
755.908	8877
756.018	9281
756.129	9027
756.239	8839
756.349	9962
756.460	9988
756.570	10185
756.680	9568
756.790	8823
756.900	10204
757.011	9026
757.121	9906
757.231	9064
757.341	9472
757.451	9156
757.561	9483
757.671	9089
757.781	9664
757.891	9982
758.001	9826
758.111	9866
758.221	10468
758.331	10432
758.441	10065
758.551	10594
758.661	10936
758.771	10715
758.880	10883
758.990	9840
759.100	10782
759.210	10575
759.320	11063
759.429	10020
759.539	11801
759.649	11658
759.758	13402
759.868	12442
759.978	12579
760.087	13319
760.197	13814
760.307	13027
760.416	12895
760.526	11872
760.635	12802
760.745	13650
760.854	13383
760.964	15208
761.073	14698
761.182	15304
761.292	14181
761.401	14530
761.511	12877
761.620	12380
761.729	13327
761.839	12130
761.948	13732
762.057	13475
762.166	14146
762.276	12815
762.385	14763
762.494	13507
762.603	14598
762.712	14484
762.822	14810
762.931	15256
763.040	15059
763.149	14749
763.258	16465
763.367	17526
763.476	16750
763.585	17013
763.694	19283
763.803	19124
763.912	20049
764.021	21053
764.130	22173
764.238	22953
764.347	24958
764.456	26302
764.565	27698
764.674	28931
764.783	31296
764.891	34101
765.000	38129
765.109	42201
765.217	48247
765.326	56742
765.435	67547
765.543	81623
765.652	100247
765.761	131123
765.869	181309
765.978	263964
766.086	408935
766.195	686720
766.303	1124068
766.412	1152356
766.520	1072937
766.629	930174
766.737	560331
766.846	350805
766.954	239377
767.062	174257
767.171	134088
767.279	102799
767.387	82790
767.496	68565
767.604	61058
767.712	53317
767.820	49570
767.928	44130
768.037	41303
768.145	39262
768.253	38148
768.361	36187
768.469	36416
768.577	37453
768.685	38296
768.793	41579
768.901	46135
769.009	51616
769.117	62811
769.225	79440
769.333	109803
769.441	169340
769.549	287261
769.657	559440
769.765	1024713
769.873	1003863
769.981	833585
770.088	441011
770.196	241159
770.304	155008
770.412	112052
770.519	83002
770.627	67170
770.735	54746
770.842	47306
770.950	41021
771.058	38183
771.165	35095
771.273	32412
771.380	29478
771.488	30598
771.595	28913
771.703	26383
771.810	24601
771.918	23851
772.025	24251
772.133	24129
772.240	22624
772.348	24385
772.455	23198
772.562	21474
772.670	20741
772.777	21323
772.884	19861
772.991	19192
773.099	18446
773.206	17776
773.313	17879
773.420	17729
773.528	16387
773.635	17123
773.742	16919
773.849	17571
773.956	16587
774.063	16151
774.170	16103
774.277	16712
774.384	15402
774.491	14818
774.598	16389
774.705	16064
774.812	14417
774.919	15878
775.026	14416
775.133	14925
775.239	14861
775.346	14899
775.453	13059
775.560	14769
775.667	14991
775.773	13133
775.880	13817
775.987	13726
776.093	13436
776.200	13676
776.307	12054
776.413	12578
776.520	13898
776.627	12753
776.733	12669
776.840	12229
776.946	14309
777.053	13168
777.159	14651
777.266	11763
777.372	14286
777.478	14002
777.585	12931
777.691	10585
777.798	12138
777.904	12884
778.010	13144
778.117	12766
778.223	11172
778.329	11573
778.435	10355
778.542	12487
778.648	10566
778.754	10258
778.860	11104
778.966	11565
779.072	10765
779.178	11783
779.284	9606
779.391	11679
779.497	11888
779.603	16090
779.708	18204
779.815	35459
779.920	119638
780.026	188389
780.132	32216
780.238	13253
780.344	11339
780.450	13106
780.556	9454
780.661	9665
780.767	10453
780.873	8211
780.979	9597
781.085	9527
781.190	9391
781.296	8577
781.402	10047
781.507	8715
781.613	7777
781.719	9014
781.824	9921
781.930	8756
782.035	9093
782.141	9203
782.246	8768
782.352	7765
782.457	8493
782.563	8185
782.668	8250
782.773	8086
782.879	7125
782.984	8588
783.090	9581
783.195	9201
783.300	8890
783.405	7862
783.511	7498
783.616	7358
783.721	8062
783.826	7552
783.932	7766
784.037	7769
784.142	8278
784.247	8295
784.352	7621
784.457	7642
784.562	7932
784.667	7978
784.772	7520
784.877	5467
784.982	8745
785.087	7461
785.192	7420
785.297	7060
785.402	7379
785.507	7954
785.611	7190
785.716	6861
785.821	7245
785.926	7324
786.031	7464
786.135	7498
786.240	8040
786.345	6027
786.450	7030
786.554	6705
786.659	6184
786.763	5778
786.868	6451
786.973	8033
787.077	6874
787.182	6465
787.286	7175
787.391	6313
787.495	5675
787.600	6343
787.704	7038
787.809	7484
787.913	6052
788.017	6990
788.122	6775
788.226	6264
788.330	4841
788.435	6257
788.539	6518
788.643	5207
788.747	4956
788.852	6705
788.956	5411
789.060	6664
789.164	6164
789.268	4815
789.372	6536
789.476	6018
789.580	5094
789.684	5525
789.788	6222
789.892	6362
789.996	6421
790.100	4907
790.204	5439
790.308	6804
790.412	5575
790.516	5844
790.620	6317
790.724	6256
790.828	5630
790.931	4464
791.035	7235
791.139	5959
791.242	5236
791.346	6194
791.450	6211
791.554	5040
791.657	3846
791.761	6208
791.864	6739
791.968	6927
792.072	5566
792.175	5378
792.279	5878
792.382	6489
792.486	5279
792.589	4903
792.693	5958
792.796	3777
792.899	6045
793.003	5459
793.106	4508
793.209	6009
793.313	7233
793.416	3513
793.519	5720
793.623	5257
793.726	6242
793.829	5078
793.932	4990
794.035	3587
794.138	6985
794.242	6363
794.345	6864
794.448	10079
794.551	17909
794.654	61073
794.757	105365
794.860	19323
794.963	6927
795.066	4976
795.169	6174
795.272	4653
795.375	5577
795.477	4830
795.580	4048
795.683	2745
795.786	5369
795.889	4064
795.991	5067
796.094	5034
796.197	3991
796.300	5739
796.402	4053
796.505	4007
796.608	3949
796.710	4830
796.813	4706
796.915	4625
797.018	4962
797.120	4976
797.223	3348
797.326	6121
797.428	4259
797.530	3578
797.633	4413
797.735	6084
797.838	6545
797.940	6932
798.042	3953
798.145	3782
798.247	4516
798.349	2879
798.452	4331
798.554	3588
798.656	2949
798.758	5450
798.860	3970
798.962	3961
799.065	3371
799.167	3508
799.269	4818
799.371	5502
799.473	6139
799.575	5211
799.677	5409
799.779	5526
799.881	3196
799.983	5573
800.085	3519
800.187	3651
800.289	2479
800.390	3753
800.492	4228
800.594	4206
800.696	2701
800.798	4744
800.899	2862
801.001	4097
801.103	3216
801.205	4154
801.306	4121
801.408	3560
801.509	3787
801.611	4269
801.713	4453
801.814	3443
801.916	3389
802.017	3773
802.119	2773
802.220	3656
802.322	3165
802.423	6007
802.525	3650
802.626	3154
802.727	3641
802.829	4889
802.930	1576
803.031	4190
803.133	3434
803.234	2926
803.335	3726
803.436	2170
803.538	3468
803.639	2688
803.740	3621
803.841	2468
803.942	4143
804.043	4220
804.144	3126
804.245	3194
804.346	2856
804.447	2803
804.548	3642
804.649	4298
804.750	2852
804.851	2843
804.952	2462
805.053	3953
805.154	2210
805.255	3565
805.355	3503
805.456	2720
805.557	1710
805.658	1626
805.758	4114
805.859	2634
805.960	3235
806.061	2456
806.161	2969
806.262	3009
806.362	3006
806.463	2763
806.564	3304
806.664	3261
806.765	4504
806.865	3360
806.966	2863
807.066	2219
807.166	2978
807.267	3953
807.367	2401
807.468	3523
807.568	2330
807.668	3112
807.769	3581
807.869	2891
807.969	3214
808.069	3420
808.170	3811
808.270	2030
808.370	3433
808.470	3728
808.570	2522
808.670	2838
808.770	3079
808.870	2305
808.970	2957
809.070	2652
809.170	2170
809.271	3439
809.370	2034
809.470	3872
809.570	2480
809.670	2527
809.770	2665
809.870	3849
809.970	2800
810.070	3381
810.169	2408
810.269	1821
810.369	3726
810.469	3258
810.568	3233
810.668	2849
810.768	2640
810.867	3207
810.967	3335
811.066	2317
811.166	3081
811.265	3355
811.365	2599
811.464	2888
811.564	3338
811.663	2680
811.763	2245
811.862	3769
811.962	3153
812.061	2511
812.160	2467
812.260	3108
812.359	3985
812.458	3491
812.557	5957
812.657	6624
812.756	4438
812.855	2751
812.954	2262
813.053	3520
813.153	2822
813.252	2735
813.351	3954
813.450	3794
813.549	2324
813.648	3507
813.747	2653
813.846	3489
813.945	3351
814.044	3225
814.143	3681
814.242	4208
814.341	3378
814.439	3887
814.538	4560
814.637	3746
814.736	3665
814.835	4167
814.933	4275
815.032	4654
815.131	4942
815.229	7530
815.328	9159
815.427	7645
815.525	7476
815.624	8110
815.722	7331
815.821	7045
815.919	7939
816.018	7297
816.116	8248
816.215	8890
816.313	9956
816.412	10515
816.510	10039
816.609	11038
816.707	12212
816.805	11098
816.904	11512
817.002	12305
817.100	13909
817.198	14571
817.296	14125
817.395	16319
817.493	19223
817.591	19277
817.689	25318
817.787	31471
817.885	45390
817.983	73277
818.081	137167
818.179	282138
818.277	537611
818.375	448101
818.473	209575
818.571	106641
818.669	69945
818.767	60960
818.865	56683
818.963	65239
819.061	87284
819.158	133423
819.256	240133
819.354	451463
819.452	665358
819.549	480062
819.647	260082
819.745	140828
819.842	89531
819.940	62970
820.038	46317
820.135	35611
820.233	30604
820.330	24364
820.428	20546
820.525	20180
820.623	17245
820.720	14554
820.818	15240
820.915	13431
821.012	13250
821.110	10894
821.207	12280
821.304	9708
821.402	10998
821.499	11101
821.596	9531
821.693	9205
821.791	10437
821.888	8460
821.985	10031
822.082	7952
822.179	8063
822.276	7540
822.373	7322
822.470	7965
822.567	7561
822.664	5836
822.761	7675
822.858	6300
822.955	7128
823.052	6360
823.149	6984
823.246	6932
823.343	5201
823.440	6150
823.536	5710
823.633	6789
823.730	5477
823.827	6119
823.923	5800
824.020	6923
824.117	5794
824.213	5549
824.310	5469
824.407	5195
824.503	6258
824.600	4962
824.696	4365
824.793	6140
824.889	4772
824.986	5795
825.082	4404
825.179	4877
825.275	5170
825.371	5456
825.468	4447
825.564	3692
825.660	5832
825.757	5764
825.853	5639
825.949	4311
826.045	4287
826.142	4294
826.238	4973
826.334	5127
826.430	3778
826.526	3157
826.622	3449
826.718	5671
826.814	4710
826.910	4796
827.006	3268
827.102	3178
827.198	5608
827.294	3683
827.390	4695
827.486	5574
827.582	2550
827.678	3270
827.774	5260
827.869	3291
827.965	4973
828.061	2185
828.157	4085
828.252	4043
828.348	3396
828.444	3554
828.539	2940
828.635	3762
828.731	4180
828.826	3089
828.922	4719
829.017	4097
829.113	4261
829.208	3028
829.304	4140
829.399	5433
829.495	3915
829.590	3904
829.685	4145
829.781	4385
829.876	4128
829.971	2433
830.066	2627
830.162	3691
830.257	4280
830.352	3188
830.447	3969
830.543	3989
830.638	3271
830.733	5366
830.828	3004
830.923	4297
831.018	3961
831.113	4531
831.208	3046
831.303	2745
831.398	3077
831.493	3896
831.588	4189
831.683	3172
831.778	2400
831.873	2242
831.967	4464
832.062	3346
832.157	2474
832.252	3169
832.346	3525
832.441	3363
832.536	4190
832.631	5235
832.725	3925
832.820	3159
832.914	3291
833.009	2190
833.104	2641
833.198	3579
833.293	2991
833.387	3914
833.482	3702
833.576	2766
833.670	3438
833.765	2757
833.859	4136
833.954	3533
834.048	2664
834.142	3122
834.237	1492
834.331	3629
834.425	3273
834.519	2455
834.613	3241
834.708	2550
834.802	2672
834.896	3061
834.990	3052
835.084	3177
835.178	2474
835.272	2890
835.366	3553
835.460	4163
835.554	2887
835.648	2637
835.742	1408
835.836	2997
835.930	1342
836.024	3523
836.117	4139
836.211	3194
836.305	3419
836.399	3765
836.493	2903
836.586	2557
836.680	2026
836.774	2415
836.867	3099
836.961	1816
837.055	1934
837.148	2515
837.242	2677
837.335	2732
837.429	2636
837.522	2045
837.616	3459
837.709	4796
837.803	3327
837.896	3062
837.989	2903
838.083	3001
838.176	5294
838.269	4034
838.363	3420
838.456	2404
838.549	3591
838.642	3188
838.735	4205
838.829	2856
838.922	1746
839.015	2562
839.108	1485
839.201	3074
839.294	2655
839.387	2682
839.480	927
839.573	3460
839.666	3521
839.759	2692
839.852	1774
839.945	3319
840.038	2195
840.131	1752
840.223	2062
840.316	2257
840.409	2003
840.502	2266
840.594	2545
840.687	1078
840.780	1601
840.873	1751
840.965	2260
841.058	3143
841.150	5787
841.243	3274
841.336	2263
841.428	2105
841.521	1029
841.613	1839
841.706	2033
841.798	1669
841.890	2240
841.983	552
842.075	2707
842.167	1924
842.260	2269
842.352	3250
842.444	4017
842.537	5140
842.629	7768
842.721	2279
842.813	1887
842.905	1982
842.997	2734
843.090	2140
843.182	3546
843.274	5120
843.366	11640
843.458	19802
843.550	12383
843.642	3288
843.734	3084
843.826	2030
843.918	2495
844.009	2059
844.101	1112
844.193	1676
844.285	2439
844.377	2615
844.469	2133
844.560	1301
844.652	2606
844.744	1064
844.835	1651
844.927	1970
845.019	2037
845.110	2671
845.202	2656
845.293	1900
845.385	946
845.476	1740
845.568	1677
845.659	1484
845.751	1950
845.842	1649
845.934	1361
846.025	1553
846.116	1896
846.208	1763
846.299	508
846.390	1589
846.482	1865
846.573	2660
846.664	2395
846.755	2759
846.846	3658
846.937	986
847.029	753
847.120	1764
847.211	1468
847.302	2011
847.393	765
847.484	2608
847.575	839
847.666	984
847.757	1418
847.847	1474
847.938	1559
848.029	1405
848.120	2533
848.211	1428
848.302	447
848.392	905
848.483	2006
848.574	1418
848.664	1234
848.755	2108
848.846	1802
848.936	1287
849.027	1512
849.118	2098
849.208	2526
849.299	3320
849.389	4809
849.480	8628
849.570	15604
849.661	28703
849.751	44430
849.841	15841
849.932	3961
850.022	2201
850.112	2167
850.203	2009
850.293	1470
850.383	1218
850.474	1432
850.564	1395
850.654	1821
850.744	1704
850.834	2518
850.924	2403
851.014	2160
851.104	1926
851.194	679
851.284	838
851.374	1857
851.464	1756
851.554	2298
851.644	2418
851.734	3500
851.824	3419
851.914	3644
852.004	6287
852.094	5838
852.183	1394
852.273	1179
852.363	1931
852.452	1959
852.542	1261
852.632	1093
852.721	1550
852.811	683
852.901	1988
852.990	1926
853.080	2316
853.169	1960
853.259	2070
853.348	2229
853.438	3333
853.527	4966
853.617	6455
853.706	10834
853.795	19039
853.885	39972
853.974	73759
854.063	134221
854.152	186308
854.242	73098
854.331	16943
854.420	7309
854.509	6166
854.598	4938
854.687	3577
854.777	3392
854.866	2223
854.955	2878
855.044	1229
855.133	1720
855.222	2020
855.311	1959
855.400	2017
855.488	1284
855.577	1336
855.666	2363
855.755	2455
855.844	3353
855.933	3045
856.021	3138
856.110	1564
856.199	1099
856.288	730
856.376	877
856.465	-2
856.554	887
856.642	1790
856.731	2022
856.819	1585
856.908	1761
856.996	973
857.085	1043
857.173	782
857.262	440
857.350	1853
857.438	838
857.527	1363
857.615	1282
857.703	1689
857.792	855
857.880	608
857.968	1491
858.056	657
858.145	1624
858.233	1006
858.321	877
858.409	1405
858.497	739
858.585	907
858.673	1530
858.761	856
858.849	663
858.937	381
859.025	1652
859.113	2379
859.201	637
859.289	1368
859.377	812
859.465	1489
859.552	1039
859.640	1315
859.728	1396
859.816	1240
859.903	1568
859.991	720
860.079	112
860.166	1163
860.254	1862
860.342	1673
860.429	-43
860.517	662
860.604	1925
860.692	279
860.779	268
860.867	809
860.954	440
861.042	976
861.129	1392
861.216	1662
861.304	997
861.391	1124
861.478	713
861.565	1573
861.653	1849
861.740	361
861.827	1377
861.914	1030
862.001	1174
862.089	857
862.176	1372
862.263	753
862.350	672
862.437	860
862.524	1008
862.611	1402
862.698	1682
862.785	1346
862.871	1473
862.958	2198
863.045	1573
863.132	1812
863.219	1103
863.306	978
863.392	917
863.479	1030
863.566	975
863.652	1710
863.739	1008
863.826	1431
863.912	1381
863.999	944
864.086	1502
864.172	1565
864.259	1761
864.345	1702
864.432	2579
864.518	1956
864.604	1410
864.691	2338
864.777	3505
864.863	3052
864.950	4481
865.036	4247
865.122	7579
865.209	7501
865.295	6341
865.381	6325
865.467	7359
865.553	7879
865.639	8652
865.726	13778
865.812	24595
865.898	42472
865.984	60093
866.070	107778
866.156	106943
866.242	33006
866.328	10966
866.414	7839
866.499	6414
866.585	6189
866.671	5665
866.757	6020
866.843	5395
866.928	5502
867.014	4655
867.100	5954
867.186	4820
867.271	4356
867.357	6290
867.442	6580
867.528	5775
867.614	3931
867.699	4776
867.785	6004
867.870	4957
867.956	5503
868.041	5483
868.127	5583
868.212	5424
868.297	5292
868.383	5006
868.468	5209
868.553	6496
868.639	5406
868.724	7324
868.809	7367
868.894	4647
868.979	4481
869.065	4400
869.150	3073
869.235	4552
869.320	4172
869.405	4627
869.490	4869
869.575	4334
869.660	3799
869.745	4214
869.830	4613
869.915	4869
870.000	3864
870.085	3111
870.169	4131
870.254	4505
870.339	2611
870.424	2950
870.509	4722
870.593	4431
870.678	4973
870.763	3315
870.847	3119
870.932	3729
871.016	3384
871.101	2499
871.186	3666
871.270	5026
871.355	3425
871.439	4046
871.523	3700
871.608	3367
871.692	3783
871.777	4074
871.861	4598
871.945	3010
872.030	3758
872.114	2767
872.198	3064
872.282	3083
872.367	3295
872.451	2942
872.535	3221
872.619	3541
872.703	3558
872.787	3532
872.871	3605
872.955	2386
873.039	2223
873.123	3180
873.207	4602
873.291	2210
873.375	2832
873.459	4028
873.543	2941
873.627	3006
873.711	2113
873.794	2795
873.878	3172
873.962	1701
874.045	2410
874.129	3079
874.137	3125
874.213	3581
874.245	3320
874.296	2914
874.352	1984
874.380	1516
874.460	2486
874.464	2527
874.547	3029
874.568	3138
874.631	3455
874.676	3295
874.714	3163
874.784	3479
874.798	3537
874.881	3134
874.892	2955
874.965	1767
874.999	1896
875.048	2081
875.107	2311
875.131	2370
875.215	2748
875.215	2747
875.298	1418
875.323	1842
875.381	2883
875.430	3021
875.465	3073
875.538	2725
875.548	2679
875.631	1801
875.646	1819
875.714	1895
875.753	1769
875.798	1698
875.861	2803
875.881	3091
875.964	2483
875.968	2461
876.047	2331
876.076	2645
876.130	3173
876.183	2538
876.213	2189
876.291	2825
876.296	2858
876.379	2286
876.398	2199
876.462	1988
876.506	2224
876.545	2421
876.613	2416
876.628	2434
876.711	2471
876.721	2524
876.794	2939
876.828	2760
876.877	2412
876.935	2231
876.960	2191
877.043	2379
877.043	2379
877.125	2579
877.150	2787
877.208	3054
877.258	2596
877.291	2436
877.365	2322
877.374	2272
877.456	1839
877.472	1939
877.539	2537
877.579	2800
877.622	3066
877.687	2573
877.704	2454
877.787	3314
877.794	3293
877.869	2790
877.901	2788
877.952	2936
878.008	2347
878.034	1999
878.115	2202
878.117	2213
878.199	2510
878.222	2475
878.282	2315
878.329	2672
878.364	2935
878.437	3208
878.447	3225
878.529	2002
878.544	1916
878.611	1496
878.651	1887
878.694	2576
878.758	2716
878.776	2658
878.858	2405
878.865	2396
878.941	2321
878.972	2240
879.023	2146
879.078	2437
879.105	2692
879.185	3271
879.187	3278
879.269	2751
879.292	2774
879.351	2688
879.399	2145
879.433	1832
879.506	2634
879.516	2725
879.598	1981
879.613	1971
879.680	2271
879.720	2531
879.762	2614
879.827	2016
879.844	1813
879.926	1985
879.933	1885
880.007	1467
880.040	1665
880.089	1910
880.147	2489
880.171	2719
880.253	2855
880.254	2855
880.335	2964
880.360	3146
880.417	4102
880.467	4802
880.499	5133
880.574	5384
880.580	5330
880.662	3494
880.680	3234
880.744	2363
880.787	2110
880.825	2166
880.893	2209
880.907	2177
880.989	1894
881.000	1869
881.070	2173
881.106	2333
881.152	2431
881.213	2400
881.233	2307
881.315	1928
881.319	1925
881.396	2380
881.426	2455
881.478	2448
881.532	2908
881.559	3084
881.639	1898
881.641	1870
881.722	2088
881.745	2007
881.803	2388
881.852	2576
881.885	2288
881.958	1876
881.966	1893
882.047	2245
882.064	2299
882.129	2253
882.171	2256
882.210	2464
882.277	2382
882.291	2373
882.372	2627
882.383	2664
882.454	2975
882.489	3186
882.535	3150
882.596	2849
882.616	2828
882.697	3155
882.702	3111
882.778	2027
882.808	1802
882.859	1798
882.914	2050
882.940	2015
883.020	1526
883.021	1534
883.102	2511
883.127	2706
883.183	2590
883.233	2355
883.264	2189
883.339	2072
883.345	2050
883.426	1136
883.445	1141
883.507	1860
883.551	2131
883.587	2140
883.657	2504
883.668	2608
883.749	2845
883.763	2792
883.830	2053
883.869	1998
883.910	2072
883.975	2065
883.991	2122
884.072	2411
884.081	2417
884.152	2646
884.187	3010
884.233	3465
884.292	3249
884.314	2929
884.394	2065
884.398	2023
884.475	1488
884.504	1348
884.555	1820
884.610	2238
884.636	2177
884.716	2066
884.716	2074
884.797	2981
884.821	3128
884.877	2965
884.927	2718
884.958	2461
885.033	1907
885.038	1895
885.118	2022
885.139	1984
885.199	2407
885.244	2735
885.279	2786
885.350	2982
885.359	3011
885.439	2908
885.456	2855
885.520	2448
885.561	2383
885.600	2398
885.667	2355
885.680	2434
885.760	2931
885.773	3008
885.840	2367
885.878	1856
885.920	1821
885.984	1885
886.000	2053
886.080	2791
886.089	2893
886.160	2553
886.195	2260
886.240	2307
886.300	2467
886.320	2528
886.400	2765
886.406	2766
886.480	2160
886.511	1970
886.560	2011
886.616	1928
886.640	1966
886.720	2227
886.722	2228
886.800	1640
886.827	1440
886.879	2145
886.932	2902
886.959	2983
887.038	3072
887.039	3077
887.119	2966
887.143	2931
887.198	2894
887.248	2803
887.278	2867
887.354	3002
887.358	3008
887.437	3117
887.459	3101
887.517	2784
887.564	2540
887.596	2552
887.669	2527
887.676	2469
887.755	1740
887.774	1561
887.835	1744
887.880	1888
887.914	2100
887.985	2523
887.994	2541
888.073	2668
888.090	2676
888.153	3447
888.195	3939
888.232	3293
888.300	2161
888.311	2242
888.391	2655
888.405	2775
888.470	2536
888.510	2237
888.549	2388
888.615	2747
888.628	2705
888.708	2439
888.720	2373
888.787	2685
888.825	2893
888.866	2674
888.930	2274
888.945	2289
889.024	2467
889.035	2474
889.103	3034
889.140	3313
889.182	3192
889.245	3057
889.261	2934
889.340	2303
889.349	2226
889.419	2456
889.454	2573
889.498	2199
889.559	1692
889.577	1930
889.656	2973
889.664	3074
889.735	3066
889.768	3056
889.814	3251
889.873	3490
889.978	2333
890.083	2902
890.187	3020
890.292	2379
890.397	2160
890.501	2498
890.606	2090
890.710	3682
890.815	3208
890.919	3688
891.024	2164
891.128	2556
891.233	2936
891.337	3939
891.442	3193
891.546	3082
891.650	2426
891.755	2140
891.859	4245
891.963	3732
892.068	3299
892.172	3379
892.276	1573
892.380	2330
892.484	3019
892.589	3797
892.693	3023
892.797	1953
892.901	2140
893.005	2575
893.109	3923
893.213	3351
893.317	3305
893.421	2735
893.525	1997
893.629	3088
893.733	2720
893.837	2647
893.941	3292
894.045	3504
894.148	3184
894.252	4181
894.356	3686
894.460	3377
894.564	3040
894.667	2516
894.771	963
894.875	2347
894.978	2528
895.082	2895
895.186	2898
895.289	3717
895.393	1937
895.496	2826
895.600	2331
895.703	1407
895.807	1985
895.910	3250
896.014	2334
896.117	1935
896.221	3059
896.324	2311
896.427	2110
896.531	2244
896.634	1669
896.737	2624
896.840	2860
896.944	3449
897.047	3173
897.150	2320
897.253	2087
897.356	1947
897.460	1470
897.563	2642
897.666	2657
897.769	2571
897.872	2185
897.975	2181
898.078	2574
898.181	1982
898.284	1776
898.387	3453
898.490	3030
898.593	3150
898.695	1390
898.798	2216
898.901	2053
899.004	2409
899.107	2081
899.209	2489
899.312	2948
899.415	2117
899.518	1973
899.620	1655
899.723	1463
899.826	1976
899.928	2469
900.031	2754
900.133	2786
900.236	1951
900.338	2018
900.441	1996
900.543	2976
900.646	2348
900.748	2783
900.851	2911
900.953	1926
901.055	1449
901.158	2586
901.260	2514
901.362	2262
901.465	1779
901.567	2586
901.669	2797
901.771	1469
901.873	1858
901.976	2359
902.078	2044
902.180	1963
902.282	1442
902.384	1739
902.486	2947
902.588	2207
902.690	2789
902.792	1842
902.894	2297
902.996	2694
903.098	3426
903.200	1089
903.302	1833
903.404	2120
903.505	1889
903.607	2292
903.709	3962
903.811	2587
903.913	2144
904.014	2279
904.116	955
904.218	1501
904.319	3156
904.421	2892
904.523	3780
904.624	1712
904.726	1885
904.827	596
904.929	2455
905.030	1422
905.132	2545
905.233	1888
905.335	2457
905.436	2063
905.537	2210
905.639	2109
905.740	1959
905.841	2990
905.943	2425
906.044	2123
906.145	2147
906.247	1720
906.348	1381
906.449	2856
906.550	2616
906.651	2288
906.752	2432
906.854	1399
906.955	2250
907.056	2361
907.157	3198
907.258	1556
907.359	1324
907.460	1598
907.561	2240
907.662	2119
907.762	2653
907.863	3147
907.964	3143
908.065	2093
908.166	1627
908.267	957
908.367	1692
908.468	1810
908.569	2987
908.670	2572
908.770	2735
908.871	2428
908.971	2865
909.072	2152
909.173	1295
909.273	2152
909.374	2052
909.474	1971
909.575	2322
909.675	2421
909.776	2775
909.876	2184
909.977	1908
910.077	2388
910.177	2129
910.278	2469
910.378	2597
910.478	1673
910.579	2348
910.679	2084
910.779	2487
910.879	3415
910.980	2412
911.080	2160
911.180	1270
911.280	1636
911.380	2362
911.480	1180
911.580	2375
911.680	1845
911.780	2327
911.880	2144
911.980	1923
912.080	2261
912.180	2430
912.280	1732
912.380	1664
912.480	1434
912.580	1746
912.679	1179
912.779	2440
912.879	2302
912.979	2217
913.078	1738
913.178	1613
913.278	1540
913.377	1700
913.477	1583
913.577	2369
913.676	2189
913.776	1900
913.875	1322
913.975	2150
914.074	2024
914.174	2587
914.273	1179
914.373	2539
914.472	2578
914.572	1318
914.671	1599
914.770	1919
914.870	2346
914.969	1815
915.068	1809
915.167	2245
915.267	2289
915.366	1830
915.465	2410
915.564	1529
915.663	1811
915.763	2352
915.862	2608
915.961	2266
916.060	1388
916.159	1548
916.258	1101
916.357	1782
916.456	1958
916.555	2442
916.654	2112
916.752	2312
916.851	2643
916.950	1782
917.049	1927
917.148	1495
917.247	1623
917.345	2126
917.444	787
917.543	1420
917.642	1630
917.740	1679
917.839	3218
917.937	3777
918.036	2506
918.135	1860
918.233	1829
918.332	2029
918.430	1866
918.529	2251
918.627	1543
918.726	2684
918.824	1449
918.923	2271
919.021	2308
919.119	2137
919.218	1944
919.316	1749
919.414	2716
919.512	2698
919.611	2453
919.709	2254
919.807	1847
919.905	3153
920.003	2081
920.102	2856
920.200	2524
920.298	3013
920.396	1799
920.494	2528
920.592	2145
920.690	2929
920.788	2067
920.886	3261
920.984	3283
921.082	2541
921.180	2825
921.277	2555
921.375	3512
921.473	4540
921.571	2956
921.669	4265
921.766	4037
921.864	3829
921.962	3966
922.060	4043
922.157	3806
922.255	4468
922.352	3608
922.450	4579
922.548	3760
922.645	5189
922.743	5613
922.840	9189
922.938	9170
923.035	9005
923.133	8009
923.230	10571
923.327	10605
923.425	10485
923.522	10272
923.619	9402
923.717	8836
923.814	8728
923.911	8252
924.008	9138
924.106	8042
924.203	8031
924.300	8250
924.397	7831
924.494	8142
924.591	8964
924.688	8377
924.786	8062
924.883	8739
924.979	7366
925.077	7680
925.173	8165
925.270	7667
925.367	8536
925.464	8435
925.561	8561
925.658	8460
925.755	8056
925.852	9068
925.948	8185
926.045	7837
926.142	7913
926.239	8527
926.335	7538
926.432	8113
926.529	8280
926.625	9464
926.722	7231
926.818	7225
926.915	7725
927.011	7660
927.108	7828
927.204	7765
927.301	6895
927.397	8090
927.494	8265
927.590	5177
927.687	7277
927.783	8543
927.879	8602
927.976	6412
928.072	6526
928.168	7466
928.264	7232
928.361	6851
928.457	7704
928.553	5901
928.649	6862
928.745	7507
928.841	6413
928.937	6442
929.033	7414
929.129	6926
929.225	7912
929.321	6211
929.417	6102
929.513	6771
929.609	6079
929.705	5817
929.801	7630
929.897	5377
929.993	6226
930.089	6688
930.184	5830
930.280	5791
930.376	8381
930.471	5456
930.567	5499
930.663	6048
930.758	6434
930.854	5604
930.950	6057
931.045	5199
931.141	6214
931.236	7282
931.332	6367
931.427	4868
931.523	7311
931.618	6214
931.714	4293
931.809	5504
931.905	6488
932.000	5267
932.095	4832
932.191	6943
932.286	7496
932.381	5704
932.476	5146
932.572	5425
932.667	5175
932.762	5688
932.857	5727
932.952	6640
933.047	5452
933.142	5618
933.237	6365
933.332	6098
933.427	6063
933.522	5119
933.617	5400
933.712	4594
933.807	7156
933.902	5922
933.997	6365
934.092	4477
934.187	5173
934.282	4928
934.376	5924
934.471	5901
934.566	4866
934.661	4632
934.755	6606
934.850	5789
934.945	5879
935.039	4178
935.134	4795
935.228	5904
935.323	6714
935.417	4785
935.512	4540
935.606	3819
935.701	5091
935.795	5104
935.890	5796
935.984	4285
936.079	4170
936.173	4742
936.267	4240
936.362	4014
936.456	5240
936.550	5901
936.644	6479
936.738	3079
936.833	3882
936.927	4926
937.021	5100
937.115	4399
937.209	4971
937.303	4778
937.397	3543
937.491	4215
937.585	5487
937.679	4868
937.773	4393
937.867	3725
937.961	4678
938.055	5971
938.149	6171
938.243	3559
938.337	4204
938.430	4035
938.524	5631
938.618	4830
938.712	4752
938.805	4010
938.899	5182
938.993	5010
939.086	4380
939.180	3888
939.274	4400
939.367	5347
939.461	5195
939.554	3861
939.648	4694
939.741	3824
939.835	5285
939.928	5439
940.022	5653
940.115	3379
940.208	5509
940.302	4966
940.395	5474
940.488	4053
940.582	3971
940.675	3913
940.768	3634
940.861	4430
940.954	4833
941.048	2853
941.141	3271
941.234	3513
941.327	5787
941.420	4998
941.513	4820
941.606	3138
941.699	5030
941.792	5124
941.885	4899
941.978	4160
942.071	4234
942.164	3091
942.257	4335
942.349	3428
942.442	4982
942.535	2723
942.628	3442
942.721	3868
942.813	4248
942.906	4890
942.999	3619
943.091	3474
943.184	3492
943.277	2841
943.369	3535
943.462	3014
943.554	3600
943.647	4158
943.739	4945
943.832	4529
943.924	2256
944.017	2517
944.109	2803
944.201	3837
944.294	3272
944.386	3887
944.478	3366
944.571	2503
944.663	3445
944.755	3725
944.847	4988
944.940	3947
945.032	2524
945.124	2337
945.216	4357
945.308	2839
945.400	4368
945.492	3021
945.584	4306
945.676	4322
945.768	3854
945.860	4620
945.952	4111
946.044	3619
946.136	2829
946.228	2954
946.320	3064
946.412	3277
946.503	3722
946.595	4086
946.687	3483
946.779	2314
946.870	3394
946.962	2277
947.054	4120
947.145	3772
947.237	3791
947.329	3486
947.420	4094
947.512	2947
947.603	2320
947.695	2807
947.786	3180
947.878	1825
947.969	3694
948.061	3232
948.152	3136
948.243	3156
948.335	2910
948.426	2285
948.517	3417
948.609	3641
948.700	3753
948.791	2589
948.882	2051
948.973	2043
949.065	2147
949.156	3829
949.247	1237
949.338	2563
949.429	2587
949.520	2465
949.611	3319
949.702	3846
949.793	2412
949.884	2212
949.975	2882
950.066	2273
950.157	2862
950.247	2425
950.338	2809
950.429	1884
950.520	2602
950.611	2054
950.701	3583
950.792	2535
950.883	3887
950.973	2147
951.064	3379
951.155	2647
951.245	3371
951.336	2567
951.427	3299
951.517	3909
951.608	3373
951.698	2044
951.788	2568
951.879	1788
951.969	2797
952.060	1948
952.150	2573
952.240	3538
952.331	2715
952.421	3819
952.511	2086
952.602	1828
952.692	1662
952.782	3122
952.872	2360
952.962	3183
953.052	2043
953.143	1937
953.233	2757
953.323	2329
953.413	2471
953.503	2965
953.593	3373
953.683	2702
953.773	1682
953.863	2104
953.953	2110
954.042	2189
954.132	2672
954.222	2672
954.312	2988
954.402	1829
954.492	3009
954.581	3554
954.671	1552
954.761	2321
954.850	3149
954.940	1426
955.030	2614
955.119	2096
955.209	1831
955.298	1717
955.388	2717
955.477	2973
955.567	1437
955.656	2342
955.746	1974
955.835	2334
955.925	861
956.014	2228
956.103	1801
956.193	2827
956.282	2964
956.371	2766
956.461	1856
956.550	2049
956.639	2268
956.728	1165
956.817	1728
956.906	1107
956.995	2462
957.085	2360
957.174	2686
957.263	1966
957.352	2202
957.441	1755
957.530	1993
957.619	1862
957.708	2212
957.796	1730
957.885	2384
957.974	1635
958.063	1812
958.152	785
958.241	2073
958.329	908
958.418	1884
958.507	1246
958.596	2967
958.684	1588
958.773	2546
958.861	2112
958.950	2138
959.039	2589
959.127	1562
959.216	2915
959.304	1751
959.393	2748
959.481	2108
959.570	1897
959.658	1534
959.746	1658
959.835	2961
959.923	3360
960.011	1819
960.100	2652
960.188	1669
960.276	2557
960.365	910
960.453	688
960.541	952
960.629	1793
960.717	1389
960.805	974
960.893	1973
960.981	1364
961.069	3015
961.158	2062
961.245	3451
961.333	2447
961.421	1566
961.509	1809
961.597	2523
961.685	1397
961.773	1427
961.861	1117
961.949	2612
962.036	1320
962.124	2358
962.212	1587
962.299	649
962.387	1216
962.475	1688
962.562	1924
962.650	1824
962.738	1529
962.825	1387
962.913	1134
963.000	1484
963.088	2412
963.175	1302
963.263	1793
963.350	1451
963.438	1653
963.525	1485
963.612	3208
963.700	6019
963.787	10625
963.874	4624
963.962	1516
964.049	1508
964.136	1438
964.223	1578
964.310	1079
964.398	984
964.485	1584
964.572	2599
964.659	2696
964.746	3342
964.833	989
964.920	2036
965.007	1898
965.094	2115
965.181	1080
965.268	2336
965.355	1480
965.441	1935
965.528	854
965.615	1721
965.702	623
965.789	1227
965.875	1914
965.962	966
966.049	1667
966.136	2199
966.222	1732
966.309	2871
966.395	2069
966.482	1841
966.569	1577
966.655	1415
966.742	1295
966.828	1323
966.915	777
967.001	1531
967.087	373
967.174	1915
967.260	2362
967.347	3374
967.433	5117
967.519	7402
967.605	2375
967.692	2582
967.778	1280
967.864	1720
967.950	1765
968.036	1506
968.123	1773
968.209	1999
968.295	459
968.381	2510
968.467	1261
968.553	601
968.639	1775
968.725	1495
968.811	3081
968.897	3087
968.983	763
969.069	1473
969.154	2016
969.240	2260
969.326	485
969.412	1205
969.497	1078
969.583	1070
969.669	2277
969.755	1784
969.840	736
969.926	3077
970.012	2986
970.097	3949
970.183	3774
970.268	2888
970.354	2829
970.439	2983
970.525	5318
970.610	2281
970.696	1987
970.781	1107
970.866	731
970.952	2249
971.037	358
971.122	1304
971.208	1429
971.293	1648
971.378	467
971.463	1772
971.549	1293
971.634	1255
971.719	1591
971.804	1623
971.889	2163
971.974	1368
972.059	1530
972.144	1249
972.229	413
972.314	1060
972.399	2041
972.484	1549
972.569	1817
972.654	640
972.739	3737
972.824	3287
972.908	1046
972.993	1258
973.078	847
973.163	1693
973.247	870
973.332	182
973.417	2228
973.501	301
973.586	1210
973.671	1961
973.755	887
973.840	960
973.924	2044
974.009	2595
974.093	2148
974.178	3129
974.262	3555
974.346	2291
974.431	2246
974.515	598
974.600	1779
974.684	1225
974.768	1377
974.852	1592
974.937	-395
975.021	1828
975.105	887
975.189	1804
975.273	1654
975.358	516
975.442	1035
975.526	2296
975.610	721
975.694	749
975.778	2180
975.862	1389
975.946	-439
976.030	2346
976.114	919
976.198	1334
976.281	520
976.365	1738
976.449	717
976.533	1136
976.617	152
976.700	1958
976.784	1613
976.868	602
976.951	1686
977.035	714
977.119	1333
977.202	1202
977.286	1768
977.369	2085
977.453	2822
977.536	1907
977.620	1859
977.703	1611
977.787	703
977.870	1941
977.953	1949
978.037	1140
978.120	2165
978.203	3018
978.287	4034
978.370	1935
978.453	625
978.536	1240
978.620	2888
978.703	2555
978.786	1967
978.869	1136
978.952	760
979.035	2345
979.118	1875
979.201	751
979.284	1781
979.367	702
979.450	1667
979.533	1116
979.616	1239
979.699	1535
979.782	1471
979.865	932
979.948	1135
980.030	1528
980.113	1609
980.196	1131
980.279	1662
980.361	1243
980.444	830
980.526	2171
980.609	2382
980.692	2999
980.774	1606
980.857	1101
980.939	2838
981.022	1274
981.104	1099
981.187	1744
981.269	1899
981.352	2220
981.434	1044
981.516	1605
981.599	1890
981.681	1926
981.763	1439
981.846	1318
981.928	1580
982.010	895
982.092	507
982.174	2953
982.256	1160
982.339	1660
982.421	850
982.503	1096
982.585	442
982.667	1936
982.749	1220
982.831	1373
982.913	-153
982.995	2609
983.077	1314
983.158	2738
983.240	807
983.322	2509
983.404	2787
983.486	2493
983.568	2115
983.649	2201
983.731	2257
983.813	2167
983.894	1230
983.976	1400
984.058	1502
984.139	2662
984.221	292
984.302	2285
984.384	1959
984.465	621
984.547	1863
984.628	492
984.710	1678
984.791	1344
984.872	1522
984.954	1394
985.035	1687
985.116	978
985.198	588
985.279	3315
985.360	1015
985.441	1401
985.522	2053
985.604	1747
985.685	346
985.766	3058
985.847	1926
985.928	1547
986.009	1437
986.090	2558
986.171	1818
986.252	1414
986.333	1253
986.414	1754
986.495	2208
986.576	2342
986.656	1869
986.737	2141
986.818	1812
986.899	1851
986.980	1827
987.060	3045
987.141	1466
987.222	3046
987.302	2271
987.383	3255
987.464	1466
987.544	2330
987.625	2304
987.705	2490
987.786	2490
987.866	2169
987.947	2266
988.027	2060
988.108	922
988.188	2557
988.268	1795
988.349	1700
988.429	2056
988.509	2362
988.589	1441
988.670	389
988.750	2845
988.830	2036
988.910	1880
988.990	1440
989.070	1623
989.151	2174
989.231	613
989.311	2486
989.391	842
989.471	1361
989.551	1377
989.631	1090
989.711	2281
989.791	889
989.870	1144
989.950	2592
990.030	810
990.110	2141
990.190	1290
990.269	1156
990.349	1382
990.429	2072
990.509	1672
990.588	722
990.668	1908
990.747	1506
990.827	1994
990.907	1919
990.986	1272
991.066	1718
991.145	581
991.225	1563
991.304	1342
991.383	1985
991.463	583
991.542	1341
991.622	641
991.701	628
991.780	154
991.859	980
991.939	1369
992.018	2081
992.097	1838
992.176	1001
992.256	1007
992.335	661
992.414	1989
992.493	561
992.572	1133
992.651	2034
992.730	1321
992.809	1075
992.888	511
992.967	1032
993.046	813
993.125	353
993.203	385
993.282	1348
993.361	1243
993.440	1018
993.519	146
993.597	1590
993.676	390
993.755	1226
993.834	529
993.912	107
993.991	1101
994.069	508
994.148	539
994.226	949
994.305	123
994.384	396
994.462	2137
994.540	11
994.619	174
994.697	1534
994.776	413
994.854	1121
994.932	478
995.011	832
995.089	683
995.167	698
995.245	647
995.324	-444
995.402	61
995.480	107
995.558	446
995.636	-580
995.714	438
995.792	1096
995.870	409
995.948	311
996.026	594
996.104	-218
996.182	1593
996.260	787
996.338	525
996.416	-222
996.494	-287
996.572	1840
996.649	-65
996.727	-250
996.805	303
996.883	345
996.960	-16
997.038	2156
997.116	376
997.193	227
997.271	-13
997.348	904
997.426	100
997.504	329
997.581	580
997.658	1334
997.736	-841
997.813	-318
997.891	773
997.968	-418
998.046	144
998.123	202
998.200	1515
998.277	314
998.355	844
998.432	-668
998.509	56
998.586	457
998.663	-375
998.741	1104
998.818	-404
998.895	334
998.972	88
999.049	-67
999.126	-590
999.203	499
999.280	315
999.357	-521
999.434	417
999.511	-533
999.587	946
999.664	-482
999.741	471
999.818	572
999.895	-560
999.971	463
1000.048	145
1000.125	712
1000.202	39
1000.278	-264
1000.355	604
1000.431	335
1000.508	-946
1000.584	432
1000.661	809
1000.738	-334
1000.814	261
1000.890	442
1000.967	275
1001.043	-28
1001.120	-889
1001.196	27
1001.272	-1174
1001.349	-140
1001.425	993
1001.501	143
1001.577	-1145
1001.654	579
1001.730	-612
1001.806	-533
1001.882	-1429
1001.958	1112
1002.034	-95
1002.110	587
1002.186	-583
1002.262	-533
1002.338	-1027
1002.414	1099
1002.490	-430
1002.566	518
1002.642	-752
1002.718	214
1002.794	526
1002.870	77
1002.945	-247
1003.021	-284
1003.097	-647
1003.173	994
1003.248	-334
1003.324	233
1003.400	-282
1003.475	129
1003.551	-761
1003.626	-737
1003.702	-657
1003.777	-265
1003.853	-202
1003.928	-85
1004.004	-467
1004.079	923
1004.155	-310
1004.230	-1058
1004.305	348
1004.381	-599
1004.456	-313
1004.531	-798
1004.607	-790
1004.682	139
1004.757	-273
1004.832	-400
1004.907	-1307
1004.982	443
1005.057	105
1005.133	-764
1005.208	-987
1005.283	180
1005.358	121
1005.433	-1709
1005.508	12
1005.583	-1019
1005.657	-427
1005.732	-38
1005.807	-828
1005.882	-1282
1005.957	-248
1006.032	242
1006.106	-266
1006.181	73
1006.256	72
1006.331	-553
1006.405	-1332
1006.480	195
1006.554	-1149
1006.629	263
1006.704	-1572
1006.778	-214
1006.853	271
1006.927	62
1007.002	-754
1007.076	431
1007.150	-1029
1007.225	-91
1007.299	-35
1007.373	-673
1007.448	-648
1007.522	456
1007.596	-401
1007.671	-965
1007.745	-13
1007.819	-944
1007.893	-1087
1007.967	-218
1008.041	-708
1008.115	394
1008.190	-679
1008.264	-576
1008.338	-1222
1008.412	-810
1008.486	-397
1008.560	-869
1008.633	-1115
1008.707	-199
1008.781	-596
1008.855	-994
1008.929	-327
1009.003	-571
1009.076	-1080
1009.150	-286
1009.224	-795
1009.298	164
1009.371	-1684
1009.445	180
1009.519	-973
1009.592	-1076
1009.666	-887
1009.739	206
1009.813	-1188
1009.886	513
1009.960	-2203
1010.033	-556
1010.107	-656
1010.180	-1286
1010.253	-1076
1010.327	-779
1010.400	-704
1010.473	-926
1010.547	631
1010.620	-1098
1010.693	-1559
1010.766	-882
1010.840	223
1010.913	-415
1010.986	-1421
1011.059	-1424
1011.132	-566
1011.205	-239
1011.278	-1204
1011.351	-1184
1011.424	-847
1011.497	-1235
1011.570	-288
1011.643	-853
1011.716	-1234
1011.789	-786
1011.862	89
1011.934	-824
1012.007	-2163
1012.080	-429
1012.153	-1075
1012.225	293
1012.298	-1404
1012.371	-1654
1012.443	-506
1012.516	-583
1012.588	-464
1012.661	-820
1012.733	-1892
1012.806	-17
1012.879	-873
1012.951	-1129
1013.023	-663
1013.096	-574
1013.168	-1381
1013.241	-517
1013.313	-1272
1013.385	-1209
1013.458	-855
1013.530	121
1013.602	-1918
1013.674	-489
1013.746	-1500
1013.819	-1509
1013.891	-744
1013.963	-600
1014.035	-374
1014.107	-324
1014.179	-147
1014.251	-1257
1014.323	-1072
1014.395	-910
1014.467	-420
1014.539	-722
1014.611	-1699
1014.683	-1388
1014.754	-985
1014.826	-1617
1014.898	-933
1014.970	-1975
1015.042	-415
1015.113	424
1015.185	-1104
1015.257	-1303
1015.328	-1278
1015.400	-1546
1015.471	-626
1015.543	-2107
1015.615	-474
1015.686	-897
1015.757	-1138
1015.829	-750
1015.901	-429
1015.972	-756
1016.043	-948
1016.115	-947
1016.186	-1300
1016.257	-751
1016.328	-896
1016.400	-37
1016.471	-1624
1016.542	-1837
1016.613	-1055
1016.685	-434
1016.756	-160
1016.827	-743
1016.898	-1219
1016.969	-725
1017.040	-1052
1017.111	-538
1017.182	-1371
1017.253	-420
1017.324	-1384
1017.395	-2393
1017.466	-1161
1017.537	-1411
1017.608	-1365
1017.678	-1421
1017.749	-1227
1017.820	-502
1017.891	-856
1017.961	-1440
1018.032	-1378
1018.103	-1140
1018.173	-1331
1018.244	-607
1018.315	-262
1018.385	-1173
1018.456	-1478
1018.526	-1148
1018.597	-1922
1018.667	-706
1018.738	-1057
1018.808	-703
1018.878	-1375
1018.949	-1099
1019.019	-540
1019.089	-1408
1019.160	-553
1019.230	-1223
1019.300	-1143
1019.371	-1672
1019.441	-422
1019.511	-1742
1019.581	-1315
1019.651	-1343
1019.721	-1786
1019.791	-1546
1019.861	-1229
1019.931	-703
1020.001	-1440
1020.071	-1117
1020.141	-1468
1020.211	-1621
1020.281	-1668
1020.351	-1146
1020.421	-746
1020.491	-491
1020.560	-1282
1020.630	-1238
1020.700	-1259
1020.770	-1030
1020.839	-2194
1020.909	-788
1020.979	-1284
1021.048	-1750
1021.118	-1256
1021.187	-1458
1021.257	-1763
1021.326	-590
1021.396	-2245
1021.465	-966
1021.535	-1901
1021.604	-1629
1021.674	-1626
1021.743	-1392
1021.812	-1132
1021.882	-1021
1021.951	-1490
1022.020	-1272
1022.089	-879
1022.159	-1427
1022.228	-1027
1022.297	-1157
1022.366	-1751
1022.435	-976
1022.504	-1167
1022.573	-1463
1022.642	-1287
1022.711	-1291
1022.781	-1294
1022.849	-671
1022.918	-1088
1022.987	-966
1023.056	-1148
1023.125	-745
1023.194	-1133
1023.263	-1756
1023.331	-1146
1023.400	-1158
1023.469	-1519
1023.538	-1247
1023.606	-2145
1023.675	-1016
1023.744	-1630
1023.812	-1605
1023.881	-1477
1023.949	-2052
1024.018	-2315
1024.086	-1455
1024.155	-2260
1024.223	-1125
1024.292	-1400
1024.360	-2161
1024.429	-1710
1024.497	-1773
1024.565	-918
1024.634	-1246
1024.702	-1214
1024.770	-1069
1024.838	-1784
1024.907	-1240
1024.975	-1946
1025.043	-1376
1025.111	-1862
1025.179	-1260
1025.247	-2000
1025.315	-2015
1025.383	-2046
1025.451	-1333
1025.519	-1795
1025.587	-1719
1025.655	-887
1025.723	-1497
1025.791	-990
1025.859	-1092
1025.927	-1782
1025.995	-1278
1026.062	-1338
1026.130	-1653
1026.198	-1966
1026.266	-1920
1026.333	-751
1026.401	-1127
1026.469	-1926
1026.536	-1145
1026.604	-1501
1026.671	-1805
1026.739	-1609
1026.806	-1120
1026.874	-2509
1026.941	-1358
1027.009	-1755
1027.076	-1606
1027.144	-1391
1027.211	-1653
1027.278	-1088
1027.345	-1320
1027.413	-1534
1027.480	-845
1027.547	-2251
1027.614	-1262
1027.682	-1015
1027.749	-803
1027.816	-2031
1027.883	-1242
1027.950	-1387
1028.017	-1101
1028.084	-925
1028.151	-1850
1028.218	-2625
1028.285	-1604
1028.352	-1849
1028.419	-896
1028.486	-1394
1028.553	-1742
1028.619	-1548
1028.686	-981
1028.753	-1331
1028.820	-1778
1028.886	-1240
1028.953	-1368
1029.020	-1496
1029.086	-1431
1029.153	-2041
1029.220	-2289
1029.286	-2092
1029.353	-1018
1029.419	-1227
1029.486	-1547
1029.552	-2032
1029.619	-1918
1029.685	-1405
1029.751	-1790
1029.818	-138
1029.884	-1564
1029.951	-981
1030.017	-1692
1030.083	-1047
1030.149	-1842
1030.216	-2066
1030.282	-1321
1030.348	-1596
1030.414	-2140
1030.480	-1583
1030.546	-1462
1030.612	-1834
1030.678	-1624
1030.744	-1572
1030.810	-1700
1030.876	-1491
1030.942	-1830
1031.008	-1647
1031.074	-2034
1031.140	-2373
1031.206	-1531
1031.272	-2397
1031.337	-1234
1031.403	-1208
1031.469	-2091
1031.534	-1796
1031.600	-1072
1031.666	-2329
1031.731	-1997
1031.797	-1443
1031.863	-2273
1031.928	-2447
1031.994	-1749
1032.059	-1243
1032.125	-1614
1032.190	-2349
1032.256	-1855
1032.321	-2654
1032.386	-1791
1032.452	-1774
1032.517	-728
1032.582	-1274
1032.647	-1443
1032.713	-1378
1032.778	-1986
1032.843	-1916
1032.908	-1743
1032.974	-1861
1033.039	-1337
1033.104	-1689
1033.169	-1708
1033.234	-1726
1033.299	-1395
1033.364	-1161
1033.429	-635
1033.494	-1543
1033.559	-2320
1033.624	-1567
1033.688	-409
1033.753	-2663
1033.818	-2075
1033.883	-1936
1033.948	-1623
1034.013	-1712
1034.077	-354
1034.142	11
1034.207	-269
1034.271	2826
1034.336	1766
1034.400	1134
1034.465	-612
1034.530	-1419
1034.594	-948
1034.658	-1584
1034.723	-1409
1034.787	-1698
1034.852	-1448
1034.916	-1703
1034.981	-1216
1035.045	-2055
1035.109	-1339
1035.173	-1708
1035.238	-1703
1035.302	-142
1035.366	-1279
1035.430	-1562
1035.495	-1543
1035.559	-1511
1035.623	-1324
1035.687	-1613
1035.751	-1580
1035.815	-2404
1035.879	-1457
1035.943	-1900
1036.007	-1493
1036.071	-1807
1036.135	-1807
1036.198	-1917
1036.262	-1635
1036.326	-873
1036.390	-1599
1036.454	-1614
1036.517	-1507
1036.581	-1079
1036.645	-2007
1036.709	-1250
1036.772	-1748
1036.836	-2008
1036.900	-1176
1036.963	-1971
1037.026	-1875
1037.090	-2007
1037.154	-1488
1037.217	-2353
1037.280	-2001
1037.344	-1263
1037.407	-2356
1037.471	-1005
1037.534	-1444
1037.597	-1789
1037.661	-907
1037.724	-2001
1037.787	-1177
1037.850	-1626
1037.913	-1699
1037.977	-1315
1038.040	-1960
1038.103	-2030
1038.166	-1222
1038.229	-2010
1038.292	-1179
1038.355	-1956
1038.418	-1594
1038.481	-1510
1038.544	-2078
1038.607	-1591
1038.670	-1975
1038.732	-2048
1038.795	-2106
1038.858	-2003
1038.921	-1316
1038.984	-2318
1039.046	-2045
1039.109	-1986
1039.172	-1541
1039.234	-1816
1039.297	-2271
1039.360	-1645
1039.422	-927
1039.485	-1744
1039.547	-1970
1039.610	-1767
1039.672	-1634
1039.734	-2259
1039.797	-1239
1039.859	-1688
1039.922	-867
1039.984	-1480
1040.046	-1076
1040.109	-2409
1040.171	-2300
1040.233	-1817
1040.295	-1605
1040.358	-1753
1040.420	-1837
1040.482	-1963
1040.544	-1542
1040.606	-2546
1040.668	-1802
1040.730	-1371
1040.792	-1464
1040.854	-2044
1040.916	-1570
1040.978	-2331
1041.040	-995
1041.102	-2290
1041.164	-1237
1041.225	-1913
1041.287	-1379
1041.349	-2236
1041.411	-2151
1041.472	-2177
1041.534	-2445
1041.596	-1958
1041.657	-1281
1041.719	-2168
1041.781	-2181
1041.842	-2613
1041.904	-1610
1041.965	-1710
1042.027	-1748
1042.088	-1860
1042.150	-1641
1042.211	-1595
1042.272	-1056
1042.334	-1448
1042.395	-1636
1042.456	-1873
1042.518	-2049
1042.579	-709
1042.640	-1282
1042.701	-1884
1042.763	-1647
1042.824	-1325
1042.885	-1814
1042.946	-1338
1043.007	-1327
1043.068	-1156
1043.129	-2434
1043.190	-1221
1043.251	-1453
1043.312	-1812
1043.373	-1526
1043.434	-1339
1043.495	-1396
1043.556	-1420
1043.616	-1129
1043.677	-1516
1043.738	-1192
1043.799	-2006
1043.859	-1152
1043.920	-1488
1043.981	-1236
1044.041	-1856
1044.102	-1439
1044.162	-2044
1044.223	-1361
1044.284	-1912
1044.344	-1589
1044.405	-2015
1044.465	-1507
1044.525	-2093
1044.586	-1134
1044.646	-1339
1044.707	-1410
1044.767	-1565
1044.827	-1773
1044.887	-883
1044.948	-1473
1045.008	-1903
1045.068	-1643
1045.128	-1594
1045.188	-1775
1045.249	-833
1045.309	-679
1045.369	-1067
1045.429	-838
1045.489	-2081
1045.549	-1266
1045.609	-1922
1045.669	-1554
1045.729	-1899
1045.789	-1698
1045.848	-1471
1045.908	-906
1045.968	-1701
1046.028	-1958
1046.088	-1190
1046.147	-1105
1046.207	-1668
1046.267	-1099
1046.326	-1491
1046.386	-899
1046.446	-352
1046.505	-583
1046.565	-799
1046.624	-166
1046.684	-363
1046.743	-412
1046.803	-95
1046.862	-164
1046.922	0
