'Start Wavelength	183.907
'End Wavelength	1046.922
'Gate Delay	5.000
'Gate Width (ms)	1.050
'Laser Output Level	0.000
'X Position	0.000
'Y Position	0.000
'Z Position	0.000
'Grid Point Number	1.000
'Shot Number	100.000
183.907	360.000
183.977	190.000
184.047	399
184.116	239
184.186	459
184.256	151
184.325	-54
184.395	-629
184.465	656
184.534	154
184.604	3
184.674	-188
184.743	-445
184.813	391
184.883	774
184.952	292
185.022	224
185.092	194
185.161	-214
185.231	-339
185.301	-77
185.370	36
185.440	-561
185.509	70
185.579	-353
185.649	303
185.718	102
185.788	-26
185.857	162
185.927	374
185.996	254
186.066	772
186.136	149
186.205	706
186.275	186
186.344	120
186.414	203
186.483	33
186.553	404
186.622	560
186.692	563
186.761	583
186.831	388
186.900	-742
186.970	627
187.039	177
187.109	-210
187.178	426
187.248	-181
187.317	-49
187.387	58
187.456	1046
187.526	223
187.595	-46
187.664	766
187.734	366
187.803	143
187.873	513
187.942	656
188.012	369
188.081	227
188.150	305
188.220	281
188.289	91
188.358	141
188.428	27
188.497	-583
188.567	711
188.636	-325
188.705	-483
188.775	-93
188.844	-385
188.913	199
188.983	-39
189.052	-639
189.121	328
189.191	-275
189.260	43
189.329	-154
189.399	-291
189.468	-193
189.537	608
189.606	-109
189.676	393
189.745	527
189.814	-172
189.883	73
189.953	-230
190.022	15
190.091	180
190.161	855
190.230	354
190.299	-17
190.368	-206
190.437	-75
190.507	66
190.576	465
190.645	143
190.714	-181
190.783	-442
190.853	61
190.922	84
190.991	-73
191.060	750
191.129	-93
191.198	418
191.268	-608
191.337	-461
191.406	347
191.475	-83
191.544	510
191.613	707
191.682	14
191.752	-411
191.821	724
191.890	117
191.959	318
192.028	479
192.097	-170
192.166	620
192.235	-704
192.304	343
192.373	-185
192.442	287
192.511	330
192.580	499
192.650	710
192.719	7
192.788	533
192.857	560
192.926	-66
192.995	-115
193.064	446
193.133	426
193.202	276
193.271	567
193.340	472
193.409	623
193.478	738
193.547	59
193.615	-186
193.684	916
193.753	-422
193.822	743
193.891	54
193.960	607
194.029	-198
194.098	308
194.167	-664
194.236	657
194.305	-397
194.374	122
194.443	-130
194.512	182
194.580	295
194.649	14
194.718	306
194.787	789
194.856	-183
194.925	423
194.994	-478
195.062	-157
195.131	160
195.200	790
195.269	162
195.338	313
195.407	773
195.475	471
195.544	580
195.613	156
195.682	1100
195.751	13
195.819	-814
195.888	556
195.957	878
196.026	543
196.094	18
196.163	396
196.232	847
196.301	332
196.369	918
196.438	39
196.507	-74
196.576	470
196.644	40
196.713	612
196.782	-84
196.850	411
196.919	-436
196.988	-45
197.056	-152
197.125	425
197.194	-148
197.262	151
197.331	599
197.400	624
197.468	-98
197.537	-497
197.606	-165
197.674	932
197.743	73
197.812	28
197.880	411
197.949	354
198.017	171
198.086	652
198.155	690
198.223	464
198.292	855
198.360	423
198.429	-657
198.497	781
198.566	14
198.635	839
198.703	622
198.772	809
198.840	1121
198.909	424
198.977	306
199.046	406
199.114	-490
199.183	98
199.251	559
199.320	377
199.388	-502
199.457	-337
199.525	408
199.594	-165
199.662	89
199.731	215
199.799	-80
199.867	-57
199.936	-256
200.004	778
200.073	510
200.141	-136
200.210	-4
200.278	201
200.346	495
200.415	298
200.483	774
200.552	467
200.620	403
200.688	-286
200.757	892
200.825	707
200.893	7
200.962	-286
201.030	642
201.098	-39
201.167	1067
201.235	-85
201.303	-18
201.372	76
201.440	-322
201.508	318
201.577	262
201.645	572
201.713	275
201.781	-9
201.850	598
201.918	-162
201.986	556
202.055	358
202.123	-114
202.191	-170
202.259	-488
202.327	404
202.396	156
202.464	102
202.532	-334
202.600	720
202.669	100
202.737	-407
202.805	548
202.873	137
202.941	616
203.009	200
203.078	179
203.146	272
203.214	-276
203.282	9
203.350	391
203.418	-43
203.487	696
203.555	-142
203.623	69
203.691	430
203.759	-403
203.827	-616
203.895	-185
203.963	566
204.031	345
204.099	696
204.168	-595
204.236	907
204.304	-319
204.372	13
204.440	408
204.508	370
204.576	-1005
204.644	124
204.712	-717
204.780	-122
204.848	260
204.916	-331
204.984	578
205.052	-21
205.120	-301
205.188	458
205.256	-364
205.324	-161
205.392	-170
205.460	817
205.528	-224
205.596	1037
205.664	136
205.732	162
205.799	172
205.867	76
205.935	50
206.003	753
206.071	441
206.139	388
206.207	-534
206.275	-511
206.343	-3
206.411	248
206.478	477
206.546	145
206.614	945
206.682	-274
206.750	-180
206.818	34
206.885	351
206.953	-473
207.021	486
207.089	495
207.157	24
207.225	178
207.292	262
207.360	-400
207.428	-401
207.496	-287
207.563	260
207.631	226
207.699	78
207.767	-326
207.834	-74
207.902	362
207.970	-251
208.038	122
208.105	-88
208.173	865
208.241	-230
208.309	635
208.376	234
208.444	325
208.512	93
208.579	-94
208.647	228
208.715	922
208.782	496
208.850	238
208.918	978
208.985	-145
209.053	579
209.120	201
209.188	-220
209.256	-408
209.323	-549
209.391	120
209.459	1272
209.526	884
209.594	-39
209.661	588
209.729	117
209.796	-47
209.864	362
209.932	-747
209.999	1255
210.067	298
210.134	230
210.202	19
210.269	697
210.337	988
210.404	-287
210.472	437
210.539	-118
210.607	619
210.674	34
210.742	343
210.809	-299
210.877	594
210.944	969
211.012	177
211.079	876
211.146	570
211.214	336
211.281	564
211.349	449
211.416	286
211.484	1193
211.551	-252
211.618	450
211.686	892
211.753	100
211.821	1078
211.888	153
211.955	-10
212.023	65
212.090	1152
212.157	304
212.225	303
212.292	1193
212.359	1082
212.427	2429
212.494	1060
212.561	717
212.629	437
212.696	376
212.763	300
212.831	-12
212.898	1254
212.965	8
213.032	625
213.100	795
213.167	39
213.234	455
213.301	34
213.369	446
213.436	360
213.503	148
213.570	709
213.638	199
213.705	-252
213.772	186
213.839	-108
213.906	735
213.973	447
214.041	-22
214.108	-158
214.175	781
214.242	359
214.309	732
214.376	308
214.444	-237
214.511	571
214.578	312
214.645	581
214.712	995
214.779	847
214.846	-128
214.913	639
214.980	-273
215.048	481
215.115	1486
215.182	482
215.249	246
215.316	5
215.383	972
215.450	1135
215.517	481
215.584	873
215.651	229
215.718	29
215.785	1399
215.852	-251
215.919	833
215.986	413
216.053	643
216.120	-932
216.187	1037
216.254	951
216.321	-4
216.388	-606
216.455	-141
216.522	517
216.589	904
216.656	929
216.722	1370
216.789	343
216.856	737
216.923	307
216.990	919
217.057	991
217.124	659
217.191	272
217.258	867
217.324	1178
217.391	1761
217.458	750
217.525	103
217.592	939
217.659	-235
217.725	1198
217.792	-191
217.859	1077
217.926	417
217.993	347
218.059	649
218.126	1008
218.193	-10
218.260	17
218.327	23
218.393	461
218.460	-721
218.527	-10
218.594	31
218.660	465
218.727	1703
218.794	-619
218.860	1104
218.927	-603
218.994	-340
219.061	92
219.127	1258
219.194	-133
219.261	971
219.327	-210
219.394	1106
219.461	-606
219.527	329
219.594	715
219.661	592
219.727	-450
219.794	360
219.860	149
219.927	497
219.994	1205
220.060	1009
220.127	1986
220.193	614
220.260	334
220.326	1254
220.393	1650
220.460	1784
220.526	1824
220.593	1350
220.659	2507
220.726	1162
220.792	2338
220.859	1850
220.925	3521
220.992	3992
221.058	3191
221.125	2273
221.191	1557
221.258	-192
221.324	1403
221.391	-296
221.457	775
221.524	505
221.590	763
221.657	2352
221.723	1591
221.789	747
221.856	1708
221.922	789
221.989	1438
222.055	379
222.121	-609
222.188	2001
222.254	596
222.321	614
222.387	615
222.453	215
222.520	-35
222.586	-543
222.652	785
222.719	-1014
222.785	552
222.851	68
222.918	99
222.984	411
223.050	871
223.116	-1404
223.183	1294
223.249	-57
223.315	454
223.382	929
223.448	597
223.514	350
223.580	290
223.647	-342
223.713	-201
223.779	154
223.845	-118
223.911	728
223.978	-433
224.044	637
224.110	-220
224.176	1416
224.242	325
224.309	-498
224.375	529
224.441	564
224.507	-155
224.573	-778
224.639	-1
224.705	99
224.772	778
224.838	-580
224.904	404
224.970	-647
225.036	171
225.102	-262
225.168	871
225.234	855
225.300	616
225.366	366
225.432	79
225.499	346
225.565	606
225.631	10
225.697	192
225.763	831
225.829	1115
225.895	328
225.961	891
226.027	1076
226.093	189
226.159	2413
226.225	1898
226.291	3976
226.357	6149
226.423	3594
226.489	1685
226.554	1175
226.620	728
226.686	1181
226.752	2142
226.818	3380
226.884	6312
226.950	6907
227.016	2834
227.082	2460
227.148	56
227.214	390
227.279	1203
227.345	887
227.411	780
227.477	1130
227.543	2205
227.609	1839
227.674	2250
227.740	-366
227.806	294
227.872	157
227.938	177
228.003	821
228.069	-164
228.135	-245
228.201	737
228.267	47
228.332	225
228.398	-1026
228.464	780
228.530	-321
228.595	-51
228.661	37
228.727	-869
228.792	1254
228.858	148
228.924	-1056
228.990	1554
229.055	-150
229.121	628
229.187	-24
229.252	-625
229.318	-586
229.384	443
229.449	532
229.515	-1143
229.581	-997
229.646	1836
229.712	546
229.777	500
229.843	550
229.909	-63
229.974	1085
230.040	949
230.105	1002
230.171	218
230.236	1032
230.302	1427
230.368	542
230.433	36
230.499	139
230.564	1088
230.630	-249
230.695	641
230.761	417
230.826	-1247
230.892	792
230.957	-301
231.023	-1079
231.088	-100
231.154	152
231.219	543
231.284	-319
231.350	923
231.415	-206
231.481	1429
231.546	252
231.612	983
231.677	-208
231.742	-907
231.808	555
231.873	174
231.939	-2249
232.004	1754
232.069	1168
232.135	-540
232.200	-446
232.265	724
232.331	-964
232.396	-548
232.461	-95
232.527	-586
232.592	-1394
232.657	176
232.723	160
232.788	191
232.853	384
232.918	1254
232.984	-814
233.049	307
233.114	-434
233.179	841
233.245	745
233.310	922
233.375	-1375
233.440	727
233.506	41
233.571	751
233.636	-447
233.701	-250
233.766	-151
233.832	662
233.897	-830
233.962	-532
234.027	1617
234.092	727
234.157	-13
234.222	-37
234.288	967
234.353	1114
234.418	1096
234.483	1569
234.548	1173
234.613	271
234.678	905
234.743	-234
234.808	1735
234.873	530
234.938	1240
235.004	784
235.069	61
235.134	-331
235.199	659
235.264	677
235.329	-921
235.394	1037
235.459	1418
235.524	-145
235.589	1388
235.654	200
235.719	-295
235.784	999
235.849	622
235.913	1092
235.978	12
236.043	1163
236.108	-107
236.173	329
236.238	795
236.303	-423
236.368	745
236.433	1239
236.498	658
236.563	1477
236.627	2434
236.692	9158
236.757	7769
236.822	3248
236.887	612
236.952	2234
237.017	70
237.081	1860
237.146	613
237.211	4611
237.276	9663
237.341	12709
237.405	6932
237.470	2707
237.535	1942
237.600	1439
237.664	1337
237.729	284
237.794	237
237.859	3760
237.923	986
237.988	932
238.053	1084
238.118	836
238.182	1845
238.247	3552
238.312	-717
238.376	1249
238.441	135
238.506	1948
238.570	-618
238.635	1481
238.700	-252
238.764	-128
238.829	342
238.893	-60
238.958	2350
239.023	109
239.087	731
239.152	300
239.216	-531
239.281	709
239.346	137
239.410	287
239.475	-131
239.539	2644
239.604	374
239.668	1366
239.733	640
239.797	2500
239.862	5438
239.926	3647
239.991	1986
240.055	902
240.120	339
240.184	912
240.249	-186
240.313	-26
240.378	-415
240.442	1291
240.507	1270
240.571	1330
240.635	369
240.700	1394
240.764	928
240.829	-312
240.893	-201
240.957	1011
241.022	886
241.086	1777
241.151	-561
241.215	-970
241.279	481
241.344	-317
241.408	877
241.472	78
241.537	1617
241.601	1188
241.665	-719
241.730	363
241.794	1690
241.858	169
241.922	149
241.987	1319
242.051	-409
242.115	-418
242.179	1341
242.244	-183
242.308	1238
242.372	353
242.436	-303
242.501	720
242.565	-325
242.629	120
242.693	805
242.757	190
242.822	44
242.886	1455
242.950	473
243.014	-465
243.078	658
243.142	264
243.206	-311
243.271	1370
243.335	335
243.399	1515
243.463	3817
243.527	9597
243.591	2625
243.655	784
243.719	-185
243.783	1354
243.847	1907
243.911	2170
243.975	2079
244.040	-333
244.104	1896
244.168	833
244.232	651
244.296	1584
244.360	2108
244.424	-3
244.488	-278
244.552	1109
244.615	-127
244.679	378
244.743	916
244.807	-114
244.871	-300
244.935	968
244.999	-1
245.063	31
245.127	441
245.191	635
245.255	560
245.319	539
245.383	-612
245.446	1612
245.510	-171
245.574	370
245.638	603
245.702	-504
245.766	1356
245.829	1970
245.893	-859
245.957	691
246.021	1559
246.085	358
246.149	432
246.212	2789
246.276	2009
246.340	278
246.404	1466
246.467	1893
246.531	-828
246.595	1106
246.659	1684
246.722	-318
246.786	612
246.850	1474
246.913	861
246.977	136
247.041	836
247.104	761
247.168	115
247.232	2249
247.295	3978
247.359	2207
247.423	120
247.486	1909
247.550	1518
247.614	706
247.677	1176
247.741	628
247.804	-600
247.868	706
247.932	937
247.995	4988
248.059	926
248.122	94
248.186	2715
248.249	2356
248.313	5938
248.376	7990
248.440	4465
248.503	332
248.567	2736
248.630	1069
248.694	3532
248.757	4120
248.821	7080
248.884	6421
248.948	3692
249.011	6442
249.075	8298
249.138	8274
249.202	3995
249.265	1906
249.328	2306
249.392	1542
249.455	2583
249.519	1313
249.582	1064
249.645	3020
249.709	1679
249.772	1647
249.835	2230
249.899	1536
249.962	1415
250.025	1178
250.089	2721
250.152	4036
250.215	2254
250.279	1523
250.342	1797
250.405	2004
250.468	732
250.532	1714
250.595	2878
250.658	8188
250.721	15891
250.785	6291
250.848	4372
250.911	1771
250.974	2005
251.038	1773
251.101	5283
251.164	2053
251.227	3127
251.290	2527
251.354	3549
251.417	13256
251.480	13418
251.543	9483
251.606	22823
251.669	19382
251.732	8030
251.795	6364
251.859	7290
251.922	15297
251.985	9929
252.048	5186
252.111	2670
252.174	1931
252.237	4407
252.300	9294
252.363	9491
252.426	20729
252.489	8305
252.552	4784
252.615	2037
252.678	3184
252.741	6725
252.804	8541
252.867	19248
252.930	11834
252.993	6084
253.056	3816
253.119	2302
253.182	1201
253.245	3273
253.308	2509
253.371	1402
253.434	1200
253.497	1600
253.559	5482
253.622	2862
253.685	3256
253.748	2741
253.811	1750
253.874	774
253.937	1455
254.000	1593
254.062	2193
254.125	3832
254.188	4724
254.251	3587
254.314	1973
254.376	1766
254.439	2660
254.502	2137
254.565	2295
254.628	4940
254.690	1657
254.753	942
254.816	679
254.878	1266
254.941	2914
255.004	3805
255.067	634
255.129	1108
255.192	848
255.255	-169
255.317	590
255.380	36
255.443	215
255.505	70
255.568	-11
255.631	691
255.693	815
255.756	-571
255.819	1965
255.881	85
255.944	325
256.006	-347
256.069	30
256.132	-232
256.194	157
256.257	1612
256.319	1484
256.382	759
256.444	1850
256.507	931
256.569	843
256.632	562
256.694	952
256.757	5243
256.819	17320
256.882	6073
256.944	3371
257.007	2487
257.069	1507
257.132	1063
257.194	2936
257.257	1543
257.319	1672
257.381	479
257.444	5505
257.506	17712
257.569	21214
257.631	7699
257.693	4874
257.756	1903
257.818	1212
257.880	896
257.943	514
258.005	-551
258.067	35
258.130	451
258.192	1550
258.254	1410
258.317	1340
258.379	1270
258.441	2134
258.503	3647
258.566	1445
258.628	2985
258.690	231
258.753	1184
258.815	1886
258.877	1273
258.939	1069
259.001	1275
259.064	960
259.126	230
259.188	319
259.250	103
259.312	1153
259.375	2082
259.437	1917
259.499	900
259.561	1085
259.623	1738
259.685	543
259.747	719
259.809	2030
259.872	3830
259.934	5529
259.996	7592
260.058	3180
260.120	-108
260.182	333
260.244	-173
260.306	61
260.368	988
260.430	-143
260.492	2604
260.554	4968
260.616	950
260.678	2615
260.740	3580
260.802	716
260.864	1268
260.926	-393
260.988	1398
261.050	707
261.112	2765
261.174	6698
261.236	3014
261.298	770
261.359	1933
261.421	2364
261.483	722
261.545	753
261.607	-174
261.669	805
261.731	1008
261.793	3060
261.854	1724
261.916	744
261.978	1006
262.040	1969
262.102	811
262.164	-28
262.225	408
262.287	253
262.349	1371
262.411	1825
262.472	1111
262.534	-158
262.596	1200
262.658	433
262.719	-188
262.781	1116
262.843	279
262.904	708
262.966	995
263.028	1407
263.090	4374
263.151	13602
263.213	4970
263.275	3340
263.336	463
263.398	1217
263.459	320
263.521	762
263.583	1984
263.644	1648
263.706	336
263.767	-509
263.829	519
263.891	393
263.952	-134
264.014	-410
264.075	1469
264.137	5240
264.198	2591
264.260	790
264.321	566
264.383	1620
264.444	7657
264.506	2387
264.567	2162
264.629	2744
264.690	5852
264.752	2295
264.813	1397
264.875	77
264.936	1234
264.998	752
265.059	1181
265.120	957
265.182	1040
265.243	8683
265.305	9878
265.366	1917
265.427	705
265.489	2120
265.550	-362
265.611	453
265.673	501
265.734	497
265.795	1356
265.857	217
265.918	-479
265.979	2907
266.040	14166
266.102	13337
266.163	3970
266.224	2703
266.286	1198
266.347	19
266.408	263
266.469	1039
266.530	223
266.592	1432
266.653	512
266.714	2907
266.775	-261
266.836	-12
266.898	282
266.959	1086
267.020	342
267.081	1677
267.142	178
267.203	-586
267.264	-1089
267.326	787
267.387	434
267.448	-316
267.509	102
267.570	361
267.631	48
267.692	-843
267.753	157
267.814	373
267.875	1097
267.936	3271
267.997	1584
268.058	1730
268.119	750
268.180	-182
268.241	86
268.302	965
268.363	-7
268.424	133
268.485	681
268.546	-784
268.607	335
268.668	-169
268.729	-317
268.790	551
268.851	348
268.912	2045
268.972	2547
269.033	1301
269.094	287
269.155	65
269.216	-287
269.277	94
269.338	520
269.398	637
269.459	98
269.520	894
269.581	853
269.642	1367
269.702	134
269.763	1269
269.824	409
269.885	933
269.945	1485
270.006	902
270.067	224
270.128	236
270.188	-58
270.249	56
270.310	-495
270.370	1119
270.431	97
270.492	-50
270.553	161
270.613	511
270.674	2914
270.734	1138
270.795	553
270.856	588
270.916	-401
270.977	841
271.038	685
271.098	522
271.159	371
271.219	1181
271.280	57
271.340	619
271.401	-106
271.462	919
271.522	659
271.583	-126
271.643	580
271.704	395
271.764	596
271.825	1613
271.885	7185
271.946	10010
272.006	3341
272.066	4417
272.127	8241
272.187	3762
272.248	1438
272.308	640
272.369	4390
272.429	2621
272.489	1613
272.550	1636
272.610	2222
272.671	1382
272.731	998
272.791	1550
272.852	687
272.912	1118
272.972	120
273.033	268
273.093	463
273.153	2305
273.214	1067
273.274	562
273.334	4401
273.394	8138
273.455	2932
273.515	2847
273.575	6580
273.635	2877
273.696	2561
273.756	6163
273.816	2400
273.876	658
273.936	2282
273.997	3913
274.057	1245
274.117	372
274.177	1934
274.237	9694
274.297	8163
274.358	3285
274.418	5402
274.478	4927
274.538	1278
274.598	15
274.658	2565
274.718	3771
274.778	1293
274.838	874
274.898	1111
274.958	3973
275.018	6469
275.078	4771
275.138	1092
275.198	5
275.258	1050
275.318	267
275.378	1866
275.438	1960
275.498	1900
275.558	2565
275.618	5626
275.678	4941
275.738	2985
275.798	2630
275.858	700
275.918	317
275.978	581
276.038	1153
276.098	531
276.157	1463
276.217	5597
276.277	2518
276.337	1294
276.397	992
276.457	720
276.517	668
276.576	-312
276.636	89
276.696	1186
276.756	3372
276.815	2278
276.875	693
276.935	853
276.995	843
277.055	621
277.114	602
277.174	610
277.234	4186
277.293	1792
277.353	197
277.413	683
277.472	916
277.532	625
277.592	249
277.651	2702
277.711	5885
277.771	1849
277.830	7418
277.890	6711
277.950	3167
278.009	12399
278.069	4836
278.128	4096
278.188	6951
278.248	2834
278.307	6283
278.367	4763
278.426	1501
278.486	402
278.545	567
278.605	783
278.664	719
278.724	848
278.783	2786
278.843	8569
278.902	2010
278.962	1069
279.021	1454
279.081	1135
279.140	1116
279.199	1355
279.259	2308
279.318	1344
279.378	2245
279.437	4016
279.496	12388
279.556	28685
279.615	22121
279.675	5989
279.734	4029
279.793	5876
279.853	11552
279.912	4711
279.971	2633
280.031	1700
280.090	4507
280.149	9089
280.208	4820
280.268	18108
280.327	21971
280.386	4036
280.445	3645
280.505	3988
280.564	1453
280.623	1801
280.682	2984
280.742	4217
280.801	1170
280.860	583
280.919	1241
280.978	566
281.037	504
281.097	-264
281.156	331
281.215	1143
281.274	189
281.333	5001
281.392	4090
281.451	611
281.510	894
281.569	-246
281.628	396
281.688	119
281.747	707
281.806	552
281.865	1155
281.924	-49
281.983	628
282.042	155
282.101	-367
282.160	-80
282.219	-644
282.278	-35
282.337	2607
282.396	1880
282.454	-125
282.513	608
282.572	3943
282.631	2761
282.690	623
282.749	-179
282.808	521
282.867	377
282.926	551
282.985	272
283.043	1181
283.102	-349
283.161	1210
283.220	1597
283.279	4746
283.338	2107
283.396	398
283.455	773
283.514	649
283.573	843
283.631	1679
283.690	1147
283.749	390
283.808	1226
283.866	2439
283.925	-21
283.984	387
284.043	847
284.101	1048
284.160	429
284.219	1310
284.277	1090
284.336	1084
284.395	6309
284.453	5460
284.512	1533
284.570	3105
284.629	1926
284.688	1233
284.746	2124
284.805	2200
284.863	3182
284.922	3508
284.981	3821
285.039	6781
285.098	11310
285.156	25286
285.215	44142
285.273	45761
285.332	30715
285.390	15705
285.449	8689
285.507	6209
285.566	4875
285.624	3105
285.683	2244
285.741	1410
285.799	1956
285.858	1800
285.916	651
285.975	390
286.033	956
286.091	434
286.150	500
286.208	420
286.267	522
286.325	1301
286.383	1699
286.442	1601
286.500	370
286.558	317
286.616	412
286.675	635
286.733	295
286.791	424
286.850	633
286.908	1036
286.966	2354
287.024	1469
287.083	308
287.141	790
287.199	1482
287.257	1208
287.315	1151
287.374	83
287.432	2515
287.490	2430
287.548	481
287.606	165
287.664	554
287.723	1349
287.781	1380
287.839	496
287.897	404
287.955	2199
288.013	2261
288.071	4858
288.129	18259
288.187	58661
288.245	27277
288.303	8600
288.361	4863
288.419	3464
288.477	1946
288.535	416
288.593	1274
288.651	917
288.709	272
288.767	1807
288.825	815
288.883	432
288.941	-581
288.999	726
289.057	-96
289.115	362
289.173	162
289.231	317
289.289	336
289.346	270
289.404	891
289.462	1676
289.520	1090
289.578	379
289.636	623
289.694	523
289.751	117
289.809	271
289.867	51
289.925	1115
289.983	551
290.040	729
290.098	-235
290.156	744
290.214	23
290.271	905
290.329	535
290.387	557
290.444	-359
290.502	179
290.560	281
290.617	104
290.675	321
290.733	98
290.790	49
290.848	-106
290.906	-160
290.963	883
291.021	475
291.078	450
291.136	279
291.194	2510
291.251	8149
291.309	2678
291.366	547
291.424	273
291.481	855
291.539	102
291.596	334
291.654	692
291.711	229
291.769	772
291.826	975
291.884	-21
291.941	539
291.999	109
292.056	738
292.114	621
292.171	-43
292.228	794
292.286	306
292.343	1996
292.401	2127
292.458	827
292.515	488
292.573	1791
292.630	474
292.687	848
292.745	96
292.802	901
292.859	4508
292.917	6435
292.974	3164
293.031	742
293.089	432
293.146	126
293.203	-94
293.260	540
293.318	1026
293.375	2262
293.432	3
293.489	788
293.546	-128
293.604	41
293.661	2796
293.718	9607
293.775	5333
293.832	2064
293.889	1196
293.947	1844
294.004	1534
294.061	347
294.118	2743
294.175	7541
294.232	12230
294.289	4852
294.346	1730
294.403	1906
294.460	1147
294.517	1154
294.574	1283
294.631	880
294.688	1090
294.745	3260
294.802	11547
294.859	16628
294.916	5591
294.973	2819
295.030	1921
295.087	2174
295.144	936
295.201	1369
295.258	643
295.315	1163
295.372	3362
295.429	7645
295.486	4030
295.542	2019
295.599	6340
295.656	14392
295.713	7662
295.770	8350
295.827	3952
295.883	1957
295.940	1031
295.997	2143
296.054	2296
296.111	496
296.167	1448
296.224	890
296.281	-36
296.338	1347
296.394	1042
296.451	320
296.508	3392
296.564	6923
296.621	5040
296.678	7580
296.734	13548
296.791	6219
296.848	2766
296.904	2208
296.961	5438
297.018	8906
297.074	7291
297.131	3615
297.187	2858
297.244	2479
297.301	8366
297.357	14903
297.414	5674
297.470	2182
297.527	797
297.583	1937
297.640	1013
297.696	530
297.753	846
297.809	1139
297.866	835
297.922	864
297.979	136
298.035	1197
298.092	1525
298.148	5434
298.204	6278
298.261	1766
298.317	4152
298.374	11557
298.430	6591
298.486	2762
298.543	1008
298.599	2059
298.656	2266
298.712	3214
298.768	8459
298.824	6219
298.881	2074
298.937	1549
298.993	1680
299.050	928
299.106	1744
299.162	1248
299.218	1600
299.275	1306
299.331	706
299.387	2604
299.443	9112
299.500	14397
299.556	7911
299.612	3123
299.668	1924
299.724	5710
299.780	7210
299.837	3192
299.893	2575
299.949	10166
300.005	13373
300.061	9271
300.117	17679
300.173	8948
300.229	2620
300.285	2948
300.341	4566
300.397	2084
300.453	1639
300.510	1218
300.566	1451
300.622	2320
300.678	10289
300.734	16799
300.790	11390
300.845	11169
300.901	8672
300.957	13227
301.013	8632
301.069	3736
301.125	1962
301.181	1536
301.237	1556
301.293	1096
301.349	826
301.405	739
301.461	926
301.516	2057
301.572	2003
301.628	2594
301.684	2002
301.740	3080
301.796	6220
301.851	4265
301.907	6372
301.963	6504
302.019	7745
302.074	24554
302.130	25780
302.186	13371
302.242	5140
302.297	3202
302.353	2426
302.409	5406
302.464	5795
302.520	4092
302.576	9083
302.631	11941
302.687	6565
302.743	3281
302.798	1631
302.854	1056
302.910	1878
302.965	2007
303.021	3025
303.076	3367
303.132	4363
303.187	5298
303.243	2529
303.299	1768
303.354	1107
303.410	1132
303.465	515
303.521	920
303.576	1630
303.632	1088
303.687	2624
303.743	8394
303.798	8240
303.853	3512
303.909	1534
303.964	1336
304.020	2153
304.075	3627
304.130	2836
304.186	5762
304.241	7022
304.297	5531
304.352	3117
304.358	3002
304.407	2066
304.449	1856
304.463	1789
304.518	1988
304.539	1765
304.573	1385
304.629	846
304.630	881
304.684	2500
304.720	4415
304.739	5343
304.794	9975
304.811	8698
304.850	5693
304.902	2668
304.905	2472
304.960	1907
304.992	1388
305.015	1000
305.071	1225
305.083	1230
305.126	1211
305.173	908
305.181	881
305.236	819
305.264	1367
305.292	1857
305.347	1565
305.354	1581
305.402	1732
305.445	2094
305.457	2172
305.512	2563
305.535	2566
305.567	2656
305.622	2708
305.626	2718
305.678	3377
305.716	7647
305.733	9208
305.788	10928
305.807	9546
305.843	7230
305.897	8540
305.898	8547
305.953	8735
305.988	6124
306.008	4800
306.063	3360
306.078	2935
306.118	1708
306.168	1297
306.173	1277
306.228	894
306.259	867
306.283	859
306.338	889
306.349	1068
306.393	1642
306.440	1706
306.448	1770
306.503	2362
306.530	2263
306.558	2421
306.613	4676
306.620	5055
306.668	7297
306.711	9185
306.723	9366
306.778	7276
306.801	5951
306.833	4595
306.888	2208
306.892	2166
306.943	1802
306.982	1442
306.997	1372
307.052	1597
307.072	1545
307.107	1532
307.162	2033
307.163	2038
307.217	2703
307.253	3195
307.272	3309
307.327	4180
307.343	3876
307.381	3281
307.434	2577
307.436	2617
307.491	5424
307.524	8058
307.546	8742
307.600	8681
307.614	7573
307.655	4516
307.704	3039
307.710	3000
307.765	2567
307.795	3425
307.819	4261
307.874	7435
307.885	7511
307.929	6731
307.975	5727
307.984	5809
308.038	7217
308.065	9068
308.093	15441
308.148	30913
308.156	34802
308.202	51593
308.246	61692
308.257	60940
308.312	34862
308.336	24962
308.366	18269
308.421	10565
308.426	10003
308.475	6586
308.517	4989
308.530	4690
308.585	3961
308.607	3905
308.639	3886
308.694	3884
308.697	3940
308.748	6533
308.787	9211
308.803	9258
308.857	7050
308.877	6170
308.912	5706
308.967	5493
308.967	5505
309.021	7465
309.058	9103
309.076	11475
309.130	20724
309.148	24151
309.185	41077
309.238	72378
309.239	72520
309.293	76373
309.328	68283
309.348	60032
309.402	30470
309.418	23394
309.457	16594
309.508	10884
309.511	10639
309.566	8726
309.598	7741
309.620	7855
309.674	9156
309.688	9734
309.729	9389
309.778	7709
309.783	7596
309.837	6227
309.868	5562
309.892	6706
309.946	10185
309.959	11419
310.001	14331
310.049	16193
310.055	15663
310.109	9369
310.139	5727
310.163	4449
310.218	2599
310.229	2307
310.272	2351
310.319	2452
310.326	2370
310.381	2151
310.409	1918
310.435	2037
310.489	2273
310.499	2335
310.543	2268
310.589	2172
310.598	2127
310.652	1980
310.679	1770
310.706	1785
310.760	1853
310.769	1847
310.814	1725
310.859	1781
310.868	1784
310.923	1687
310.948	1604
310.977	1958
311.031	2811
311.038	2918
311.085	2256
311.128	1441
311.139	1462
311.193	1874
311.218	1936
311.247	1875
311.301	1836
311.308	1838
311.356	2181
311.398	2425
311.410	2345
311.464	1857
311.488	1689
311.518	1751
311.572	1809
311.578	1815
311.626	2620
311.668	3370
311.680	3419
311.734	3474
311.758	3530
311.788	3217
311.842	2557
311.847	2491
311.896	3656
311.937	4646
311.950	4478
312.004	3714
312.027	3362
312.058	2981
312.112	2322
312.117	2258
312.165	2610
312.207	2915
312.297	3001
312.386	3021
312.476	2492
312.566	3570
312.656	2353
312.745	1929
312.835	3386
312.925	3133
313.015	2000
313.104	2286
313.194	2728
313.284	2461
313.374	2857
313.463	3313
313.553	3063
313.643	2354
313.732	2271
313.822	2316
313.912	3119
314.001	2822
314.091	3434
314.180	4042
314.270	3748
314.360	3787
314.449	3290
314.539	2870
314.628	2603
314.718	3234
314.808	2361
314.897	2519
314.987	2754
315.076	3325
315.166	3860
315.255	3844
315.345	3384
315.434	2794
315.524	3253
315.613	2960
315.703	3901
315.792	6084
315.881	14300
315.971	5258
316.060	5411
316.150	5806
316.239	5883
316.328	3616
316.418	2131
316.507	3019
316.597	3973
316.686	2963
316.775	3864
316.865	6175
316.954	2379
317.043	2677
317.133	2414
317.222	2495
317.311	2638
317.400	1731
317.490	3280
317.579	2977
317.668	2904
317.757	4696
317.847	8945
317.936	22746
318.025	8930
318.114	6131
318.203	5006
318.293	6614
318.382	9470
318.471	8521
318.560	12014
318.649	21015
318.738	5032
318.828	3031
318.917	3047
319.006	3486
319.095	8640
319.184	25705
319.273	11234
319.362	5516
319.451	2584
319.540	2800
319.629	5258
319.718	6777
319.807	4241
319.896	9641
319.985	30449
320.074	8423
320.163	3773
320.252	4421
320.341	4902
320.430	3704
320.519	4419
320.608	3494
320.697	3818
320.786	3228
320.875	3665
320.964	4929
321.053	5112
321.142	7277
321.230	7723
321.319	7129
321.408	13030
321.497	6487
321.586	5911
321.675	7072
321.764	6240
321.852	5358
321.941	8539
322.030	5441
322.119	6477
322.207	12271
322.296	9506
322.385	6996
322.474	7383
322.562	15155
322.651	8035
322.740	6908
322.829	9036
322.917	7484
323.006	6189
323.095	5401
323.183	4239
323.272	4952
323.361	9586
323.449	21737
323.538	7117
323.626	16615
323.715	8614
323.804	4554
323.892	13806
323.981	7022
324.069	3728
324.158	8623
324.246	6944
324.335	3946
324.424	5269
324.512	3486
324.601	4080
324.689	5202
324.778	6882
324.866	6020
324.954	3056
325.043	3018
325.131	4360
325.220	6908
325.308	6208
325.397	5113
325.485	3776
325.574	2560
325.662	3002
325.750	2434
325.839	3030
325.927	2417
326.015	3279
326.104	3730
326.192	3999
326.280	2511
326.369	2965
326.457	3023
326.545	4829
326.634	2636
326.722	1981
326.810	2971
326.898	3125
326.987	3317
327.075	3149
327.163	4683
327.251	2597
327.340	4742
327.428	4455
327.516	2997
327.604	2876
327.692	3249
327.781	2951
327.869	3272
327.957	3198
328.045	2671
328.133	2523
328.221	2693
328.309	2838
328.397	3151
328.485	2853
328.574	4342
328.662	9019
328.750	4293
328.838	2880
328.926	3061
329.014	2571
329.102	3375
329.190	7221
329.278	4148
329.366	2787
329.454	2285
329.542	2247
329.630	2637
329.718	2539
329.806	3559
329.893	3814
329.981	4013
330.069	6916
330.157	21978
330.245	51140
330.333	25491
330.421	6417
330.509	4675
330.597	8639
330.684	6061
330.772	4067
330.860	5181
330.948	6727
331.036	3320
331.123	2881
331.211	2394
331.299	2677
331.387	6313
331.475	7808
331.562	2899
331.650	2089
331.738	2185
331.825	3594
331.913	2241
332.001	1870
332.089	2731
332.176	4240
332.264	7352
332.352	5834
332.439	3444
332.527	1923
332.614	2021
332.702	2655
332.790	2051
332.877	4731
332.965	6680
333.052	3419
333.140	3286
333.228	4542
333.315	2129
333.403	2911
333.490	5135
333.578	3273
333.665	4472
333.753	3448
333.840	2257
333.928	2990
334.015	6728
334.103	11008
334.190	29685
334.278	7938
334.365	6427
334.452	5270
334.540	3786
334.627	3860
334.715	5697
334.802	8853
334.889	31242
334.977	28131
335.064	8950
335.151	4913
335.239	5249
335.326	5810
335.413	19046
335.501	20245
335.588	4360
335.675	4564
335.762	5957
335.850	8211
335.937	7927
336.024	15794
336.111	39914
336.199	20363
336.286	7640
336.373	4590
336.460	3541
336.547	3186
336.635	2826
336.722	3238
336.809	2815
336.896	4395
336.983	11118
337.070	25022
337.157	31241
337.245	18031
337.332	10446
337.419	2941
337.506	3021
337.593	3513
337.680	11495
337.767	23328
337.854	6858
337.941	7294
338.028	6418
338.115	2929
338.202	4791
338.289	7051
338.376	15663
338.463	6421
338.550	15797
338.637	13234
338.724	5038
338.811	5892
338.898	2929
338.984	2264
339.071	3005
339.158	3032
339.245	5441
339.332	4069
339.419	5027
339.506	5070
339.593	1611
339.679	2462
339.766	1736
339.853	3374
339.940	4305
340.027	2628
340.113	2450
340.200	3480
340.287	1879
340.374	2175
340.460	4147
340.547	1646
340.634	3946
340.720	9172
340.807	4116
340.894	2303
340.980	2566
341.067	2356
341.154	2828
341.240	2911
341.327	4898
341.414	2666
341.500	1933
341.587	2848
341.674	3127
341.760	4326
341.847	3846
341.933	2199
342.020	1393
342.106	2272
342.193	2546
342.279	2846
342.366	3262
342.452	3168
342.539	2476
342.625	4538
342.712	8809
342.798	4274
342.885	2569
342.971	1671
343.058	2522
343.144	2178
343.230	1747
343.317	2327
343.403	1491
343.490	2667
343.576	1688
343.662	2284
343.749	1963
343.835	2109
343.921	4504
344.008	20441
344.094	35954
344.180	8306
344.267	4407
344.353	12523
344.439	10111
344.525	5453
344.612	5878
344.698	4125
344.784	3272
344.870	2891
344.957	1907
345.043	4152
345.129	2107
345.215	4054
345.301	2040
345.387	2455
345.474	1640
345.560	2486
345.646	2265
345.732	2548
345.818	2537
345.904	2327
345.990	2252
346.076	2561
346.162	2961
346.249	2500
346.335	1402
346.421	2567
346.507	5708
346.593	14641
346.679	3000
346.765	3466
346.851	2943
346.937	1515
347.023	2585
347.108	2248
347.194	2137
347.280	1977
347.366	2859
347.452	8651
347.538	19437
347.624	15237
347.710	10616
347.796	2873
347.882	2641
347.967	2333
348.053	2847
348.139	3399
348.225	1898
348.311	1295
348.397	1559
348.482	2922
348.568	3146
348.654	2379
348.740	5427
348.825	4000
348.911	4898
348.997	10714
349.083	16279
349.168	2779
349.254	1810
349.340	2093
349.425	1709
349.511	3159
349.597	2840
349.682	4389
349.768	12473
349.854	5626
349.939	3117
350.025	2001
350.110	1984
350.196	1815
350.282	1769
350.367	2525
350.453	3446
350.538	2629
350.624	1854
350.709	2517
350.795	2100
350.880	1604
350.966	2740
351.051	2226
351.137	1963
351.222	2159
351.308	4793
351.393	9816
351.479	3368
351.564	2403
351.649	1971
351.735	1919
351.820	1649
351.906	1367
351.991	2103
352.076	7357
352.162	9599
352.247	2504
352.332	3430
352.418	3605
352.503	4860
352.588	15124
352.673	9194
352.759	3495
352.844	2164
352.929	2429
353.014	1980
353.100	2480
353.185	3956
353.270	3442
353.355	4440
353.441	2449
353.526	2458
353.611	3772
353.696	2683
353.781	3343
353.866	1793
353.952	2443
354.037	3211
354.122	6562
354.207	5264
354.292	3289
354.377	2103
354.462	1899
354.547	1206
354.632	2724
354.717	3681
354.802	4336
354.887	2142
354.972	2763
355.057	2236
355.142	2123
355.227	2301
355.312	2306
355.397	4737
355.482	9451
355.567	4293
355.652	5148
355.737	5392
355.822	13745
355.907	9333
355.991	3372
356.076	1250
356.161	3139
356.246	2462
356.331	2560
356.416	3694
356.501	22342
356.585	18059
356.670	2937
356.755	4483
356.840	4307
356.924	17985
357.009	43360
357.094	15751
357.179	4399
357.263	3485
357.348	4579
357.433	4310
357.517	3384
357.602	2066
357.687	2689
357.771	5156
357.856	11131
357.941	6660
358.025	15029
358.110	45025
358.195	18183
358.279	3780
358.364	4245
358.448	10370
358.533	23448
358.617	15964
358.702	16465
358.787	6343
358.871	4398
358.956	3291
359.040	2285
359.125	2122
359.209	2327
359.294	7230
359.378	9388
359.462	4440
359.547	2858
359.631	2037
359.716	1578
359.800	2008
359.885	3922
359.969	1615
360.053	2650
360.138	2336
360.222	2669
360.306	4192
360.391	3867
360.475	7324
360.559	11072
360.644	9210
360.728	6019
360.812	14235
360.896	28767
360.981	12277
361.065	6461
361.149	3750
361.233	2297
361.318	1436
361.402	2745
361.486	3864
361.570	2193
361.654	3363
361.739	4814
361.823	21534
361.907	28365
361.991	6131
362.075	4911
362.159	6409
362.243	8472
362.327	13124
362.411	19063
362.495	7292
362.580	4652
362.664	4616
362.748	4012
362.832	6153
362.916	11167
363.000	35178
363.084	57805
363.168	40994
363.252	11220
363.336	6364
363.420	7978
363.503	25367
363.587	24251
363.671	5122
363.755	3329
363.839	6056
363.923	3370
364.007	5779
364.091	7150
364.175	13298
364.258	47359
364.342	47819
364.426	70469
364.510	33826
364.594	13441
364.677	11456
364.761	27440
364.845	17829
364.929	7447
365.013	5426
365.096	5417
365.180	5148
365.264	12891
365.347	37320
365.431	14830
365.515	3937
365.598	2443
365.682	3820
365.766	4497
365.849	6371
365.933	2849
366.017	5895
366.100	2771
366.184	2054
366.267	3032
366.351	2574
366.435	2343
366.518	1956
366.602	2157
366.685	2269
366.769	2644
366.852	4953
366.936	5959
367.019	3552
367.103	3230
367.186	7524
367.270	2617
367.353	1845
367.436	2766
367.520	3039
367.603	2827
367.687	2183
367.770	4548
367.853	4467
367.937	10753
368.020	13418
368.104	3268
368.187	4048
368.270	5348
368.353	4771
368.437	5792
368.520	10901
368.603	6747
368.687	10045
368.770	16307
368.853	4735
368.936	5796
369.020	6670
369.103	2838
369.186	1576
369.269	2227
369.352	4169
369.436	3671
369.519	3562
369.602	706
369.685	4129
369.768	749
369.851	2299
369.934	2248
370.018	1756
370.101	3297
370.184	4544
370.267	3269
370.350	4302
370.433	6407
370.516	16622
370.599	18397
370.682	5541
370.765	10992
370.848	13354
370.931	20194
371.014	9513
371.097	1536
371.180	3602
371.263	2848
371.346	1058
371.429	2646
371.511	1867
371.594	2902
371.677	6112
371.760	7554
371.843	5060
371.926	22011
372.009	38413
372.091	14582
372.174	10854
372.257	20892
372.340	7954
372.423	8038
372.505	10537
372.588	4333
372.671	8730
372.754	19616
372.836	11304
372.919	13979
373.002	21145
373.085	5718
373.167	5299
373.250	9937
373.332	20606
373.415	29719
373.498	47729
373.580	19004
373.663	32517
373.746	33976
373.828	8120
373.911	5461
373.993	6410
374.076	22776
374.159	18061
374.241	8915
374.324	18048
374.406	12048
374.489	19273
374.571	42326
374.654	17422
374.736	11060
374.819	27288
374.901	39913
374.983	34661
375.066	8205
375.148	6067
375.231	19347
375.313	31749
375.395	11445
375.478	3195
375.560	3416
375.643	4343
375.725	11551
375.807	33653
375.890	24051
375.972	8659
376.054	6680
376.136	9169
376.219	4326
376.301	12631
376.383	27501
376.465	10649
376.548	6004
376.630	9641
376.712	24466
376.794	10466
376.877	2706
376.959	991
377.041	3191
377.123	5737
377.205	5919
377.287	1823
377.369	2550
377.452	3153
377.534	2231
377.616	2444
377.698	2265
377.780	1465
377.862	3024
377.944	3355
378.026	882
378.108	3050
378.190	1955
378.272	2646
378.354	1660
378.436	1461
378.518	2714
378.600	8663
378.682	7580
378.764	13074
378.846	10776
378.928	4002
379.010	4431
379.091	3911
379.173	2694
379.255	1779
379.337	2401
379.419	7183
379.501	19469
379.583	7161
379.664	3395
379.746	4769
379.828	14128
379.910	17049
379.991	14781
380.073	3017
380.155	2795
380.237	2013
380.318	2123
380.400	2736
380.482	4164
380.564	3989
380.645	4676
380.727	3555
380.809	3330
380.890	2452
380.972	1067
381.053	2229
381.135	3399
381.217	6018
381.298	13651
381.380	7355
381.461	7089
381.543	24605
381.624	26242
381.706	5199
381.787	3377
381.869	4478
381.951	13707
382.032	37859
382.113	24539
382.195	4362
382.276	6426
382.358	10445
382.439	21955
382.521	26856
382.602	35270
382.684	16879
382.765	29459
382.846	25778
382.928	29186
383.009	14814
383.090	12909
383.172	44905
383.253	58266
383.334	25481
383.416	32236
383.497	15799
383.578	6001
383.659	12119
383.741	41767
383.822	92955
383.903	42688
383.984	23090
384.066	40592
384.147	22547
384.228	5780
384.309	4745
384.390	2720
384.471	3817
384.553	4108
384.634	4173
384.715	5362
384.796	2468
384.877	3958
384.958	13026
385.039	12867
385.120	5187
385.201	3870
385.282	4088
385.363	4795
385.444	3284
385.525	7853
385.606	20587
385.687	15192
385.768	5046
385.849	7138
385.930	23218
386.011	33719
386.092	9186
386.173	3372
386.254	3944
386.335	4350
386.416	2900
386.496	9940
386.577	13803
386.658	6136
386.739	3975
386.820	5492
386.901	4570
386.981	3961
387.062	2924
387.143	4769
387.224	14221
387.304	13710
387.385	6931
387.466	4937
387.547	7128
387.627	5084
387.708	9001
387.789	24438
387.869	26531
387.950	9765
388.031	4000
388.111	2609
388.192	8027
388.273	10095
388.353	5686
388.434	3867
388.514	6806
388.595	22738
388.676	26469
388.756	13417
388.837	12277
388.917	7820
388.998	1467
389.078	3957
389.159	2695
389.239	1695
389.320	4963
389.400	1532
389.480	7005
389.561	14451
389.641	8332
389.722	4027
389.802	4155
389.883	7867
389.963	17827
390.043	10550
390.124	3670
390.204	7251
390.284	14110
390.365	8075
390.445	14253
390.525	24304
390.605	19184
390.686	7440
390.766	3901
390.846	4511
390.927	1622
391.007	1995
391.087	3915
391.167	2498
391.247	2031
391.328	3737
391.408	6251
391.488	4869
391.568	1023
391.648	2636
391.728	4169
391.808	4692
391.888	4488
391.969	9081
392.049	13097
392.129	7574
392.209	8619
392.289	18591
392.369	10734
392.449	11522
392.529	6444
392.609	6376
392.689	8313
392.769	17257
392.849	15841
392.929	16913
393.009	29323
393.089	23719
393.169	33696
393.248	97037
393.328	250953
393.408	238160
393.488	81759
393.568	28598
393.648	15257
393.728	9309
393.807	6322
393.887	7415
393.967	5371
394.047	5795
394.127	6677
394.206	9696
394.286	34390
394.366	117115
394.446	109768
394.525	27576
394.605	8548
394.685	7795
394.764	16297
394.844	25135
394.924	18620
395.003	5093
395.083	4027
395.163	4033
395.242	3707
395.322	3776
395.402	1644
395.481	5215
395.561	11471
395.640	29407
395.720	29209
395.799	32152
395.879	22565
395.958	13730
396.038	49634
396.117	149757
396.197	146307
396.276	48971
396.356	17956
396.435	13628
396.515	11480
396.594	12704
396.673	28432
396.753	95659
396.832	222683
396.912	154328
396.991	42145
397.070	14894
397.150	8252
397.229	8241
397.308	15402
397.388	24054
397.467	11313
397.546	5774
397.625	1823
397.705	5532
397.784	3979
397.863	2947
397.942	2454
398.022	3340
398.101	10054
398.180	25200
398.259	13272
398.338	4903
398.417	2785
398.497	2488
398.576	3706
398.655	1677
398.734	3301
398.813	3750
398.892	10751
398.971	26401
399.050	12319
399.129	2125
399.208	3303
399.287	3091
399.366	1670
399.445	1482
399.524	1954
399.603	937
399.682	3949
399.761	8498
399.840	27980
399.919	20283
399.998	3599
400.077	1398
400.156	482
400.235	4065
400.313	1796
400.392	1673
400.471	7906
400.550	10671
400.629	2251
400.708	2879
400.786	2096
400.865	6775
400.944	5455
401.023	3551
401.102	1806
401.180	1948
401.259	2126
401.338	1408
401.416	1556
401.495	1369
401.574	3084
401.652	2055
401.731	3336
401.810	1203
401.888	1700
401.967	451
402.046	1813
402.124	2280
402.203	1100
402.281	2450
402.360	2913
402.438	7964
402.517	4598
402.596	3351
402.674	2073
402.753	1554
402.831	2638
402.910	3202
402.988	8716
403.066	23273
403.145	13343
403.223	10278
403.302	19749
403.380	17170
403.459	16930
403.537	6754
403.615	2410
403.694	852
403.772	2673
403.850	1533
403.929	990
404.007	976
404.085	4168
404.164	3025
404.242	2801
404.320	8219
404.398	21466
404.477	20771
404.555	33524
404.633	28114
404.711	15985
404.789	10434
404.868	2710
404.946	1771
405.024	1991
405.102	1502
405.180	519
405.258	282
405.336	2191
405.415	1467
405.493	3518
405.571	3392
405.649	1205
405.727	604
405.805	2554
405.883	1748
405.961	2294
406.039	1472
406.117	696
406.195	2099
406.273	8222
406.351	26783
406.429	14959
406.507	2489
406.585	1045
406.663	1659
406.740	1938
406.818	1423
406.896	1031
406.974	2808
407.052	2572
407.130	16181
407.208	19153
407.285	4582
407.363	1303
407.441	905
407.519	1433
407.596	2838
407.674	7993
407.752	26851
407.830	21457
407.907	6688
407.985	1493
408.063	1666
408.141	1127
408.218	2196
408.296	1521
408.373	2239
408.451	1922
408.529	1455
408.606	781
408.684	1463
408.762	1372
408.839	1039
408.917	1596
408.994	1843
409.072	1235
409.149	1689
409.227	3354
409.304	4740
409.382	3815
409.459	4411
409.537	6980
409.614	5426
409.692	4495
409.769	4082
409.846	6640
409.924	8736
410.001	4576
410.079	4419
410.156	3819
410.233	2783
410.311	2291
410.388	2112
410.465	2510
410.543	2295
410.620	2028
410.697	2546
410.775	1809
410.852	1024
410.929	2422
411.006	2780
411.083	1851
411.161	3520
411.238	4987
411.315	1918
411.392	1541
411.469	3069
411.547	2565
411.624	700
411.701	1563
411.778	1904
411.855	2660
411.932	1242
412.009	957
412.086	1730
412.163	1650
412.240	1379
412.317	2711
412.394	2011
412.471	1321
412.548	1143
412.625	1265
412.702	2102
412.779	2654
412.856	2089
412.933	596
413.010	834
413.087	2098
413.164	6911
413.241	8234
413.318	2038
413.395	1871
413.471	2730
413.548	1311
413.625	1530
413.702	202
413.779	1855
413.855	1129
413.932	503
414.009	-140
414.086	778
414.162	927
414.239	2521
414.316	6843
414.393	13612
414.469	4112
414.546	1075
414.623	1051
414.699	975
414.776	636
414.853	1050
414.929	1311
415.006	1581
415.082	1607
415.159	871
415.236	1542
415.312	1454
415.389	1833
415.465	1489
415.542	1496
415.618	726
415.695	2234
415.771	732
415.848	1395
415.924	1500
416.000	418
416.077	1812
416.153	-422
416.230	333
416.306	516
416.383	1090
416.459	732
416.535	1138
416.612	215
416.688	644
416.764	764
416.841	-209
416.917	982
416.993	684
417.069	1411
417.146	1570
417.222	2295
417.298	1056
417.374	906
417.451	905
417.527	1562
417.603	1199
417.679	969
417.755	824
417.831	935
417.908	730
417.984	899
418.060	-75
418.136	2142
418.212	1655
418.288	924
418.364	1165
418.440	849
418.516	1635
418.592	2337
418.668	3639
418.744	3069
418.820	2549
418.896	622
418.972	226
419.048	489
419.124	2981
419.200	1103
419.276	1522
419.352	-119
419.428	961
419.504	999
419.579	1226
419.655	858
419.731	527
419.807	3231
419.883	4185
419.959	2918
420.034	1696
420.110	2779
420.186	8158
420.262	6471
420.337	1733
420.413	1473
420.489	1171
420.565	2256
420.640	1736
420.716	2563
420.792	1100
420.867	2882
420.943	1294
421.019	2143
421.094	1539
421.170	1988
421.245	1954
421.321	2300
421.397	2647
421.472	8076
421.548	17512
421.623	11392
421.699	5054
421.774	5153
421.850	4533
421.925	6636
422.001	7411
422.076	8602
422.152	9895
422.227	14602
422.302	20628
422.378	29931
422.453	55355
422.529	107079
422.604	175694
422.679	183818
422.755	170888
422.830	107201
422.905	55760
422.981	33348
423.056	21798
423.131	16605
423.207	12095
423.282	9692
423.357	9375
423.432	7200
423.508	7210
423.583	7657
423.658	6513
423.733	4266
423.808	4340
423.883	4702
423.959	4231
424.034	4445
424.109	3940
424.184	2776
424.259	2586
424.334	1954
424.409	2238
424.484	1616
424.559	2399
424.634	1913
424.709	824
424.784	2308
424.859	1846
424.934	2069
425.009	6451
425.084	10544
425.159	3373
425.234	2191
425.309	838
425.384	4761
425.459	4832
425.534	2120
425.609	1176
425.683	1678
425.758	1339
425.833	1084
425.908	1656
425.983	3643
426.058	9243
426.132	5189
426.207	1612
426.282	3180
426.357	1919
426.431	436
426.506	1394
426.581	1556
426.655	1140
426.730	525
426.805	689
426.879	1865
426.954	1167
427.029	2495
427.103	11160
427.178	23271
427.253	10296
427.327	1897
427.402	2522
427.476	6071
427.551	2613
427.625	1415
427.700	1920
427.774	398
427.849	1516
427.923	218
427.998	1255
428.072	1611
428.147	4393
428.221	19206
428.296	50213
428.370	25400
428.444	3738
428.519	3660
428.593	4473
428.667	5041
428.742	6918
428.816	9555
428.890	37288
428.965	48804
429.039	14264
429.113	7264
429.188	2547
429.262	890
429.336	3136
429.410	5642
429.485	4442
429.559	5317
429.633	3976
429.707	1968
429.781	8092
429.855	36932
429.930	47377
430.004	21406
430.078	27511
430.152	32414
430.226	67224
430.300	61028
430.374	10919
430.448	3903
430.522	10626
430.596	24713
430.670	19776
430.744	48803
430.818	54410
430.892	10559
430.966	981
431.040	1834
431.114	135
431.188	50
431.262	-9
431.336	411
431.410	3514
431.484	6021
431.557	3832
431.631	1207
431.705	2928
431.779	13440
431.853	46529
431.927	29690
432.000	4310
432.074	1762
432.148	965
432.222	655
432.295	1190
432.369	198
432.443	1812
432.516	10508
432.590	22443
432.664	7977
432.737	1025
432.811	112
432.885	-154
432.958	63
433.032	967
433.106	53
433.179	252
433.253	356
433.326	84
433.400	231
433.473	573
433.547	379
433.620	-359
433.694	356
433.767	920
433.841	62
433.914	-93
433.988	446
434.061	796
434.134	245
434.208	68
434.281	-176
434.355	88
434.428	210
434.501	-324
434.575	511
434.648	300
434.721	-20
434.795	-594
434.868	-924
434.941	-532
435.014	-406
435.088	-2
435.161	430
435.234	795
435.307	1202
435.381	772
435.454	792
435.527	3444
435.600	2829
435.673	2867
435.746	1541
435.819	371
435.892	89
435.966	612
436.039	765
436.112	749
436.185	218
436.258	531
436.331	89
436.404	402
436.477	91
436.550	79
436.623	517
436.696	-173
436.769	239
436.842	-76
436.915	677
436.987	223
437.060	-146
437.133	215
437.206	-472
437.279	784
437.352	-106
437.425	59
437.498	83
437.570	1212
437.643	1305
437.716	259
437.789	205
437.861	1411
437.934	3229
438.007	2039
438.080	-277
438.152	-23
438.225	2318
438.298	13777
438.370	33133
438.443	14480
438.516	3789
438.588	-153
438.661	381
438.734	-289
438.806	802
438.879	1067
438.951	1524
439.024	1972
439.096	528
439.169	1
439.241	393
439.314	-93
439.386	266
439.459	1167
439.531	1831
439.604	523
439.676	221
439.749	273
439.821	-698
439.893	-99
439.966	-169
440.038	205
440.110	1199
440.183	417
440.255	20
440.327	1509
440.400	6908
440.472	21201
440.544	13158
440.617	2047
440.689	1862
440.761	1732
440.833	2986
440.905	2518
440.978	200
441.050	359
441.122	583
441.194	460
441.266	-25
441.338	601
441.411	1274
441.483	6391
441.555	8707
441.627	1700
441.699	2469
441.771	1035
441.843	70
441.915	421
441.987	98
442.059	-50
442.131	608
442.203	1570
442.275	1662
442.347	2787
442.419	6638
442.491	34467
442.563	71377
442.635	29344
442.706	10544
442.778	6601
442.850	2033
442.922	559
442.994	1977
443.066	2233
443.137	1779
443.209	2821
443.281	4167
443.353	9965
443.425	42355
443.496	121561
443.568	120262
443.640	45711
443.711	9376
443.783	3661
443.855	1969
443.926	1650
443.998	1115
444.070	1586
444.141	1153
444.213	1131
444.285	2106
444.356	1273
444.428	616
444.499	1024
444.571	485
444.642	429
444.714	1193
444.785	971
444.857	2169
444.928	4729
445.000	3289
445.071	4331
445.143	4830
445.214	4979
445.285	8236
445.357	24288
445.428	83379
445.500	157561
445.571	113651
445.642	65516
445.714	22414
445.785	11523
445.856	3259
445.928	2271
445.999	1900
446.070	2603
446.141	1733
446.213	1596
446.284	786
446.355	1047
446.426	-59
446.497	1151
446.569	813
446.640	1519
446.711	1130
446.782	279
446.853	762
446.924	723
446.995	499
447.066	1332
447.138	1340
447.209	684
447.280	38
447.351	-3
447.422	-1076
447.493	644
447.564	552
447.635	-269
447.706	317
447.777	-715
447.847	-198
447.918	-649
447.989	564
448.060	238
448.131	3133
448.202	2353
448.273	296
448.344	1307
448.414	412
448.485	146
448.556	-357
448.627	-483
448.698	1294
448.768	-996
448.839	137
448.910	576
448.981	1653
449.051	169
449.122	-58
449.193	200
449.263	34
449.334	296
449.405	696
449.475	1761
449.546	1270
449.616	1899
449.687	1467
449.758	692
449.828	127
449.899	-349
449.969	-702
450.040	847
450.110	27
450.181	1240
450.251	347
450.322	376
450.392	307
450.463	-35
450.533	-26
450.604	279
450.674	-279
450.744	312
450.815	438
450.885	811
450.955	181
451.026	-536
451.096	-69
451.166	808
451.237	1229
451.307	5341
451.377	2129
451.447	-103
451.518	41
451.588	657
451.658	927
451.728	1271
451.799	5531
451.869	6442
451.939	812
452.009	-173
452.079	39
452.149	1121
452.219	1095
452.289	6481
452.360	4684
452.430	583
452.500	6
452.570	1829
452.640	3605
452.710	9666
452.780	13936
452.850	6405
452.920	3674
452.990	1385
453.060	571
453.129	885
453.199	1241
453.269	8909
453.339	16968
453.409	25066
453.479	26284
453.549	38845
453.619	37764
453.688	14652
453.758	1749
453.828	223
453.898	54
453.968	-253
454.037	-372
454.087	-207
454.107	-148
454.168	228
454.177	269
454.247	293
454.249	276
454.316	-400
454.330	-169
454.386	559
454.411	1526
454.456	2954
454.492	3619
454.525	4251
454.574	2179
454.595	1296
454.655	656
454.665	574
454.734	1158
454.736	1217
454.804	1739
454.817	2755
454.873	6321
454.898	6525
454.943	6894
454.979	4160
455.013	1842
455.060	925
455.082	597
455.141	1654
455.152	1806
455.221	6070
455.222	6190
455.291	9995
455.303	10059
455.360	9973
455.384	12600
455.430	15976
455.465	12417
455.499	9462
455.546	7481
455.569	6362
455.627	4206
455.638	3901
455.707	616
455.708	626
455.777	223
455.789	259
455.846	366
455.869	474
455.916	747
455.950	941
455.985	968
456.031	532
456.054	374
456.112	94
456.124	51
456.193	453
456.193	442
456.262	944
456.274	979
456.332	985
456.355	1192
456.401	1387
456.436	855
456.470	277
456.516	-131
456.540	-196
456.597	338
456.609	398
456.678	286
456.678	276
456.747	444
456.759	331
456.817	-73
456.840	76
456.886	301
456.920	310
456.955	317
457.001	664
457.024	881
457.082	798
457.093	792
457.162	1310
457.163	1329
457.232	1438
457.243	1319
457.301	535
457.324	472
457.370	872
457.405	1053
457.439	979
457.485	675
457.508	698
457.566	1200
457.577	1294
457.646	2390
457.647	2412
457.715	5327
457.727	6096
457.784	10137
457.808	12898
457.853	15458
457.889	17822
457.922	18736
457.969	13499
457.991	13486
458.050	16467
458.060	16982
458.129	27901
458.130	28239
458.198	26075
458.211	22969
458.267	13430
458.292	9321
458.336	5960
458.372	6194
458.405	8990
458.453	13922
458.474	16869
458.533	29521
458.543	30162
458.611	43545
458.614	43643
458.680	26803
458.694	20897
458.749	9409
458.775	6727
458.818	3457
458.855	2875
458.887	2493
458.936	1804
458.955	1628
459.016	1462
459.024	1426
459.093	1736
459.097	1738
459.162	1816
459.177	1874
459.230	1911
459.257	1810
459.299	1839
459.338	2095
459.368	2042
459.418	1983
459.437	2004
459.499	1431
459.505	1391
459.574	1954
459.579	1945
459.643	1258
459.659	1172
459.711	1057
459.740	978
459.780	1204
459.820	1439
459.849	1430
459.900	1610
459.917	1645
459.981	2452
459.986	2513
460.054	1744
460.061	1779
460.123	2342
460.141	2406
460.191	2344
460.222	2585
460.260	3207
460.302	3559
460.328	3361
460.382	3102
460.397	3285
460.462	4200
460.465	4431
460.534	9231
460.543	9908
460.602	23247
460.623	28992
460.671	45012
460.703	60243
460.739	52119
460.783	35141
460.808	30960
460.864	8574
460.876	5986
460.944	2549
460.945	2510
461.013	2587
461.024	2514
461.081	2061
461.104	2049
461.150	1962
461.184	1823
461.218	1868
461.264	1934
461.286	1975
461.345	2277
461.355	2275
461.423	2052
461.425	2045
461.491	1883
461.505	1958
461.559	5380
461.585	6804
461.628	9359
461.665	12221
461.696	12789
461.745	14128
461.764	12149
461.825	3489
461.832	3481
461.901	3018
461.905	3087
461.969	1918
461.985	1672
462.037	2715
462.065	2983
462.105	2954
462.145	3139
462.173	4349
462.225	6689
462.241	7181
462.305	9801
462.310	9520
462.378	4813
462.385	4155
462.446	2572
462.465	2239
462.514	2566
462.545	2651
462.582	2239
462.625	2021
462.650	1996
462.705	2146
462.718	2353
462.785	3257
462.786	3280
462.854	4497
462.865	4709
462.922	5015
462.945	5263
462.990	4475
463.025	3309
463.058	2531
463.104	1719
463.126	1883
463.184	2635
463.194	2641
463.262	2253
463.264	2251
463.330	3116
463.344	3243
463.398	3367
463.424	3357
463.466	3014
463.504	2976
463.533	3119
463.583	3173
463.601	3316
463.663	3786
463.669	3854
463.737	4871
463.743	4924
463.805	7765
463.823	8626
463.873	12590
463.903	15227
463.940	14799
463.982	14333
464.008	11516
464.062	4747
464.076	4570
464.142	3293
464.144	3268
464.211	2932
464.221	2863
464.279	2730
464.301	2811
464.347	3458
464.381	3790
464.414	4206
464.461	4879
464.482	4783
464.540	4460
464.550	4384
464.617	3807
464.620	3773
464.685	4145
464.699	4261
464.753	5285
464.779	5813
464.820	5923
464.859	6128
464.888	6019
464.938	5554
464.956	5795
465.018	6625
465.023	6520
465.091	5092
465.098	4933
465.158	4656
465.177	4633
465.226	4811
465.257	4720
465.293	4605
465.336	4547
465.361	5110
465.416	6526
465.428	7156
465.495	10323
465.496	10376
465.563	16030
465.575	17031
465.631	18288
465.654	18919
465.698	11751
465.734	5313
465.765	4919
465.813	4303
465.833	4477
465.893	5336
465.900	5190
465.968	3784
465.972	3684
466.035	4320
466.052	4483
466.102	4308
466.131	4182
466.170	4331
466.210	4494
466.237	4794
466.290	5415
466.304	5537
466.369	5896
466.372	5906
466.439	5960
466.449	5951
466.506	6882
466.528	7242
466.573	11163
466.607	14033
466.641	18319
466.687	24285
466.708	25694
466.766	29570
466.775	27261
466.842	9420
466.845	8557
466.909	7072
466.925	6741
466.977	6910
467.004	7032
467.044	7352
467.083	7639
467.111	8379
467.163	9746
467.178	9694
467.242	9382
467.245	9347
467.312	8332
467.321	8185
467.379	7804
467.400	7645
467.446	8677
467.480	9402
467.559	7708
467.638	7719
467.717	8244
467.796	7638
467.875	7873
467.955	8618
468.034	14901
468.113	28795
468.192	37252
468.271	10370
468.350	10017
468.429	12488
468.508	11841
468.588	8504
468.667	7638
468.746	8276
468.825	6890
468.904	5858
468.983	7943
469.062	11119
469.141	12782
469.220	4678
469.299	6247
469.378	6534
469.456	8249
469.535	7056
469.614	5571
469.693	7054
469.772	9050
469.851	12562
469.930	7173
470.009	6295
470.088	6941
470.166	7138
470.245	7916
470.324	9541
470.403	7181
470.482	6031
470.560	5657
470.639	6612
470.718	7394
470.797	6015
470.875	7689
470.954	10293
471.033	9535
471.111	5404
471.190	4874
471.269	5515
471.347	4702
471.426	5587
471.505	5917
471.583	6127
471.662	5860
471.740	5999
471.819	5922
471.898	5971
471.976	5276
472.055	5908
472.133	7610
472.212	9823
472.290	8093
472.369	5065
472.447	5404
472.526	5288
472.604	5510
472.683	5719
472.761	6161
472.839	5745
472.918	4932
472.996	5826
473.075	6929
473.153	6371
473.231	5713
473.310	6419
473.388	5792
473.466	6850
473.545	5996
473.623	8049
473.701	6998
473.780	6796
473.858	4704
473.936	7601
474.014	5204
474.093	7289
474.171	10592
474.249	12803
474.327	6890
474.405	3921
474.484	4418
474.562	5685
474.640	4512
474.718	5649
474.796	5269
474.874	5877
474.952	3586
475.030	5468
475.108	5430
475.187	6091
475.265	6926
475.343	9429
475.421	9957
475.499	5238
475.577	4906
475.655	8943
475.733	15289
475.811	24243
475.889	21244
475.966	12183
476.044	5756
476.122	7493
476.200	8572
476.278	6881
476.356	5506
476.434	6301
476.512	6655
476.590	8015
476.667	6864
476.745	5193
476.823	5688
476.901	4733
476.979	5509
477.056	6031
477.134	5833
477.212	5460
477.290	5034
477.367	4680
477.445	3870
477.523	4267
477.601	4788
477.678	4776
477.756	5992
477.834	7219
477.911	4780
477.989	5351
478.066	5078
478.144	5791
478.222	7029
478.299	11049
478.377	8158
478.454	5216
478.532	5062
478.609	6073
478.687	4851
478.764	5073
478.842	5295
478.919	4985
478.997	4768
479.074	4945
479.152	5919
479.229	7115
479.307	4537
479.384	4332
479.461	4412
479.539	4869
479.616	5667
479.694	5165
479.771	5486
479.848	6701
479.926	6479
480.003	8213
480.080	4526
480.157	4229
480.235	4026
480.312	5049
480.389	5950
480.467	8965
480.544	9511
480.621	5292
480.698	5448
480.775	6488
480.853	6265
480.930	5503
481.007	6025
481.084	8049
481.161	10136
481.238	6312
481.315	4132
481.392	4143
481.470	4516
481.547	4052
481.624	4687
481.701	4715
481.778	5338
481.855	6516
481.932	9952
482.009	14211
482.086	7826
482.163	7315
482.240	10001
482.317	14502
482.393	8850
482.470	5749
482.547	5978
482.624	5441
482.701	5406
482.778	5314
482.855	4096
482.932	5257
483.009	4530
483.085	6721
483.162	7579
483.239	7796
483.316	4757
483.393	5717
483.469	5375
483.546	6795
483.623	5532
483.699	4729
483.776	4953
483.853	5815
483.930	10221
484.006	23398
484.083	35806
484.160	17114
484.236	23331
484.313	17867
484.389	13482
484.466	13818
484.543	12412
484.619	13489
484.696	15437
484.772	14755
484.849	14563
484.925	11064
485.002	11439
485.078	12532
485.155	13044
485.231	10696
485.308	10502
485.384	11402
485.461	15577
485.537	22641
485.614	23541
485.690	10359
485.766	10116
485.843	9891
485.919	13878
485.995	13233
486.072	9301
486.148	10779
486.224	8874
486.301	10071
486.377	11590
486.453	10783
486.530	12511
486.606	14829
486.682	17053
486.758	20063
486.835	21563
486.911	18385
486.987	29395
487.063	24500
487.139	26806
487.215	20815
487.292	13766
487.368	13438
487.444	14882
487.520	19172
487.596	21124
487.672	46003
487.748	113021
487.824	142193
487.900	38368
487.976	17050
488.052	14594
488.128	14887
488.204	11295
488.280	10857
488.356	14375
488.432	27744
488.508	35045
488.584	12014
488.660	9845
488.736	9659
488.812	10426
488.888	12016
488.964	15095
489.039	26402
489.115	33898
489.191	18150
489.267	9599
489.343	10149
489.418	8160
489.494	9037
489.570	6608
489.646	9947
489.722	9586
489.797	9541
489.873	16406
489.949	30771
490.024	18971
490.100	8305
490.176	8635
490.251	9723
490.327	10880
490.403	7516
490.478	7317
490.554	7063
490.629	7137
490.705	6498
490.781	7203
490.856	8073
490.932	8172
491.007	7999
491.083	7553
491.158	8056
491.234	12416
491.309	23061
491.385	17966
491.460	8367
491.536	8548
491.611	7951
491.686	7983
491.762	9643
491.837	16681
491.913	26038
491.988	36132
492.063	35027
492.139	14293
492.214	9605
492.289	5456
492.365	6767
492.440	6853
492.515	6964
492.590	6975
492.666	6298
492.741	9687
492.816	12462
492.891	6410
492.967	6474
493.042	6233
493.117	6149
493.192	7328
493.267	16111
493.342	42731
493.418	45583
493.493	7043
493.568	5637
493.643	6428
493.718	7542
493.793	10252
493.868	8059
493.943	6034
494.018	5982
494.093	5119
494.168	5446
494.243	4993
494.318	4685
494.393	5176
494.468	4881
494.543	4921
494.618	5769
494.693	4004
494.768	5429
494.842	5069
494.917	5216
494.992	4487
495.067	5181
495.142	4177
495.217	5252
495.292	5556
495.366	6555
495.441	6088
495.516	9281
495.591	12435
495.665	35798
495.740	64593
495.815	19286
495.890	6880
495.964	5496
496.039	8637
496.114	7262
496.188	11019
496.263	8137
496.338	6056
496.412	8488
496.487	8199
496.561	8336
496.636	8275
496.710	8204
496.785	8628
496.860	8939
496.934	6510
497.009	7816
497.083	7013
497.158	8637
497.232	9057
497.307	11694
497.381	10703
497.455	12205
497.530	13547
497.604	10697
497.679	12454
497.753	19144
497.827	20968
497.902	19838
497.976	24753
498.050	73101
498.125	215753
498.199	150828
498.273	25800
498.348	21779
498.422	18061
498.496	16696
498.570	14119
498.645	13852
498.719	11715
498.793	15075
498.867	20828
498.941	30439
499.016	102101
499.090	206286
499.164	42932
499.238	9132
499.312	8660
499.386	10749
499.460	9924
499.534	9300
499.609	11364
499.683	15085
499.757	16022
499.831	48103
499.905	151352
499.979	94968
500.053	17788
500.127	15942
500.201	10643
500.275	8681
500.349	7944
500.422	8798
500.496	13527
500.570	29944
500.644	88723
500.718	128908
500.792	18736
500.866	10197
500.940	11703
501.013	9659
501.087	8611
501.161	14766
501.235	19276
501.309	55843
501.382	133553
501.456	81155
501.530	23222
501.603	37632
501.677	11366
501.751	5964
501.825	10304
501.898	21729
501.972	50239
502.046	21883
502.119	9393
502.193	25426
502.266	49826
502.340	20137
502.413	26413
502.487	42408
502.561	20526
502.634	8261
502.708	6535
502.781	5715
502.855	5550
502.928	4878
503.002	5512
503.075	5015
503.149	6502
503.222	5919
503.295	6580
503.369	8052
503.442	12181
503.516	45509
503.589	88124
503.662	44923
503.736	20113
503.809	45207
503.882	32254
503.956	58798
504.029	49200
504.102	62770
504.175	71234
504.249	23566
504.322	12610
504.395	9339
504.468	6868
504.542	6281
504.615	3658
504.688	5493
504.761	3023
504.834	6245
504.907	6306
504.980	7622
505.053	4747
505.127	4865
505.200	9373
505.273	7602
505.346	4405
505.419	4111
505.492	4934
505.565	3755
505.638	3970
505.711	3332
505.784	3781
505.857	3922
505.930	4513
506.003	3195
506.076	6035
506.149	6333
506.221	5460
506.294	9065
506.367	24701
506.440	67529
506.513	22828
506.586	7277
506.659	4667
506.731	3719
506.804	5018
506.877	5497
506.950	5087
507.022	4890
507.095	4901
507.168	5838
507.241	4106
507.313	3914
507.386	2461
507.459	5774
507.531	3616
507.604	2760
507.677	3984
507.749	2008
507.822	5480
507.894	8586
507.967	10991
508.040	6091
508.112	6236
508.185	6030
508.257	4661
508.330	8241
508.402	5030
508.475	4344
508.547	6143
508.620	6312
508.692	8757
508.765	5037
508.837	2667
508.909	5093
508.982	4784
509.054	5220
509.127	4375
509.199	4655
509.271	3003
509.344	3524
509.416	3887
509.488	3780
509.560	4668
509.633	4301
509.705	4833
509.777	4877
509.849	5661
509.922	3939
509.994	3745
510.066	4967
510.138	4329
510.210	11950
510.283	8536
510.355	7298
510.427	6194
510.499	6158
510.571	5606
510.643	5713
510.715	8945
510.787	4871
510.859	7138
510.931	6731
511.003	8067
511.076	7533
511.148	4075
511.219	5628
511.291	10918
511.363	9343
511.435	5901
511.507	4044
511.579	5365
511.651	5666
511.723	4621
511.795	4953
511.867	4772
511.939	7641
512.010	12241
512.082	8044
512.154	4403
512.226	5325
512.298	8066
512.369	9419
512.441	8536
512.513	7806
512.585	5209
512.656	7595
512.728	5887
512.800	5429
512.871	6116
512.943	6340
513.015	3866
513.086	5662
513.158	5663
513.230	6611
513.301	7366
513.373	8112
513.444	4325
513.516	5042
513.588	4397
513.659	6080
513.731	5683
513.802	4818
513.874	11437
513.945	13562
514.016	5054
514.088	5636
514.159	4639
514.231	8279
514.302	7878
514.374	7368
514.445	7378
514.516	16125
514.588	8780
514.659	8012
514.730	12148
514.802	10815
514.873	5577
514.944	9619
515.016	7407
515.087	7004
515.158	10360
515.229	12949
515.301	8008
515.372	11329
515.443	6630
515.514	5887
515.585	3725
515.656	5895
515.728	5248
515.799	5117
515.870	6573
515.941	5057
516.012	4728
516.083	7919
516.154	6079
516.225	9854
516.296	8638
516.367	6359
516.438	6804
516.509	8875
516.580	13705
516.651	43743
516.722	102124
516.793	31562
516.864	12267
516.935	12265
517.006	13322
517.077	18645
517.148	41841
517.219	139655
517.289	144344
517.360	68422
517.431	19175
517.502	7505
517.573	8768
517.643	8070
517.714	8711
517.785	8832
517.856	8560
517.926	11828
517.997	11967
518.068	11679
518.138	16309
518.209	27287
518.280	111102
518.350	271365
518.421	58685
518.492	15385
518.562	13683
518.633	16064
518.703	19589
518.774	47369
518.845	107072
518.915	76309
518.986	22631
519.056	15287
519.127	19515
519.197	30853
519.268	73235
519.338	33834
519.408	10587
519.479	10787
519.549	7736
519.620	8983
519.690	6544
519.760	5986
519.831	6540
519.901	6080
519.971	5707
520.042	6353
520.112	6571
520.182	7617
520.253	8349
520.323	7222
520.393	7993
520.463	12136
520.534	6967
520.604	16209
520.674	8425
520.744	8998
520.814	15801
520.885	15127
520.955	32009
521.025	85226
521.095	19137
521.165	7314
521.235	6188
521.305	5324
521.375	5782
521.445	6712
521.515	6366
521.585	9375
521.655	4602
521.725	7908
521.795	6481
521.865	4015
521.935	10417
522.005	5863
522.075	3782
522.145	7896
522.215	6046
522.285	9043
522.355	12649
522.424	22500
522.494	14862
522.564	8019
522.634	16323
522.704	32455
522.774	8031
522.843	5671
522.913	4977
522.983	6220
523.053	4475
523.122	7161
523.192	7071
523.262	18626
523.331	11491
523.401	6149
523.471	5374
523.540	5692
523.610	3368
523.680	4879
523.749	5258
523.819	7567
523.888	5388
523.958	4184
524.027	4792
524.097	5754
524.166	4464
524.236	4355
524.305	6047
524.375	4268
524.444	3003
524.514	6587
524.583	4917
524.653	5996
524.722	6890
524.791	4057
524.861	5521
524.930	3190
524.999	4047
525.069	7345
525.138	5262
525.207	7211
525.277	5557
525.346	5675
525.415	5652
525.484	7050
525.554	7092
525.623	8650
525.692	9447
525.761	9685
525.830	11358
525.900	12792
525.969	20977
526.038	35552
526.107	90260
526.176	212823
526.245	125268
526.314	46572
526.383	118684
526.452	130664
526.522	257757
526.591	160128
526.660	32229
526.729	19268
526.797	25641
526.867	55129
526.935	204792
527.004	441797
527.073	159578
527.142	19596
527.211	11204
527.280	10049
527.349	7523
527.418	4785
527.487	6621
527.555	4354
527.624	4525
527.693	3598
527.762	6295
527.831	3880
527.899	4686
527.968	4624
528.037	2936
528.106	5064
528.174	7440
528.243	7103
528.312	9902
528.380	9080
528.449	3565
528.518	5516
528.586	2366
528.655	4872
528.723	4014
528.792	3891
528.861	3394
528.929	3163
528.998	4727
529.066	5641
529.135	6959
529.203	6203
529.272	7042
529.340	10573
529.409	9727
529.477	8157
529.545	9509
529.614	12450
529.682	11539
529.751	13253
529.819	16179
529.887	13258
529.956	12027
530.024	12548
530.092	10309
530.161	13143
530.229	12325
530.297	12903
530.365	11909
530.434	13315
530.502	11725
530.570	12581
530.638	9517
530.707	10152
530.775	11220
530.843	9890
530.911	10889
530.979	10549
531.047	12823
531.115	12349
531.183	10463
531.252	10688
531.320	9934
531.388	10083
531.456	12359
531.524	11075
531.592	13122
531.660	14838
531.728	10770
531.796	11438
531.864	11711
531.932	11378
532.000	11355
532.067	12668
532.135	14371
532.203	16087
532.271	13888
532.339	19163
532.407	23410
532.475	16175
532.542	14110
532.610	15612
532.678	17555
532.746	49171
532.814	67500
532.881	21482
532.949	13974
533.017	14113
533.084	13406
533.152	13245
533.220	11176
533.287	11976
533.355	12750
533.423	13862
533.490	13218
533.558	12671
533.625	12288
533.693	11912
533.761	12125
533.828	12904
533.896	11316
533.963	17171
534.031	16492
534.098	19094
534.166	13263
534.233	12433
534.300	13095
534.368	13125
534.435	10620
534.503	13113
534.570	13629
534.637	13017
534.705	14904
534.772	16344
534.840	30186
534.907	117742
534.974	88593
535.041	15755
535.109	11673
535.176	9796
535.243	10619
535.310	10506
535.378	9109
535.445	9588
535.512	8621
535.579	9710
535.646	8099
535.714	9443
535.781	10382
535.848	10626
535.915	11084
535.982	11322
536.049	8813
536.116	10025
536.183	8970
536.250	9553
536.317	7600
536.384	10876
536.451	10226
536.518	11661
536.585	7966
536.652	12015
536.719	12505
536.786	8887
536.853	8184
536.920	12275
536.987	12624
537.053	14273
537.120	41986
537.187	24834
537.254	8627
537.321	8621
537.388	8380
537.454	8712
537.521	7316
537.588	7881
537.654	9353
537.721	8710
537.788	9484
537.855	7630
537.921	8766
537.988	7789
538.055	9127
538.121	6887
538.188	8091
538.254	10535
538.321	11986
538.388	9918
538.454	8678
538.521	7875
538.587	7292
538.654	7830
538.720	7361
538.787	8011
538.853	8205
538.920	8289
538.986	8004
539.053	8437
539.119	6548
539.185	8044
539.252	9394
539.318	9877
539.385	10517
539.451	8791
539.517	8990
539.583	10649
539.650	17607
539.716	26078
539.782	9646
539.849	7821
539.915	7840
539.981	7521
540.047	8553
540.114	7440
540.180	8495
540.246	6957
540.312	9532
540.378	12780
540.444	12304
540.510	17298
540.576	28236
540.643	10000
540.709	5800
540.775	7375
540.841	7528
540.907	10521
540.973	12756
541.039	9776
541.105	8913
541.171	7638
541.237	6588
541.303	8866
541.369	9929
541.435	9691
541.500	10819
541.566	7328
541.632	6609
541.698	7136
541.764	7441
541.830	7351
541.896	6578
541.961	8672
542.027	6579
542.093	7090
542.159	7663
542.224	7281
542.290	10473
542.356	11973
542.421	10768
542.487	8412
542.553	7025
542.618	7888
542.684	7169
542.750	7387
542.815	9052
542.881	12077
542.947	28790
543.012	16189
543.078	6331
543.143	5515
543.209	7228
543.274	7426
543.340	8271
543.405	15433
543.471	14891
543.536	7784
543.602	7718
543.667	6804
543.732	8012
543.798	7070
543.863	7734
543.928	6389
543.994	5481
544.059	7816
544.124	7580
544.190	6966
544.255	8037
544.320	7746
544.386	6384
544.451	11055
544.516	8041
544.581	9881
544.646	22290
544.712	22479
544.777	9965
544.842	9669
544.907	9100
544.972	8805
545.037	9330
545.102	9939
545.168	8833
545.233	9832
545.298	10403
545.363	10205
545.428	11172
545.493	17582
545.558	22114
545.623	11681
545.688	7966
545.753	9952
545.818	9601
545.883	10300
545.947	9690
546.012	11857
546.077	10384
546.142	12638
546.207	11923
546.272	13199
546.337	12264
546.401	13366
546.466	12480
546.531	12411
546.596	13971
546.661	13788
546.725	15263
546.790	14254
546.855	15517
546.919	15693
546.984	18422
547.049	21297
547.113	23557
547.178	22990
547.243	27631
547.307	30856
547.372	33429
547.436	35342
547.501	33703
547.565	36170
547.630	34459
547.695	34345
547.759	34203
547.823	33175
547.888	34140
547.952	34781
548.017	37126
548.081	40344
548.146	39345
548.210	38695
548.274	39614
548.339	37584
548.403	34803
548.468	33228
548.532	33263
548.596	35378
548.660	34489
548.725	39207
548.789	40904
548.853	41465
548.917	38452
548.982	39795
549.046	34502
549.110	30366
549.174	32458
549.238	36640
549.303	39794
549.367	41276
549.431	37632
549.495	35672
549.559	36131
549.623	42697
549.687	45569
549.751	47815
549.815	53463
549.879	52936
549.943	50532
550.007	54675
550.071	52290
550.135	49056
550.199	46593
550.263	46388
550.327	45528
550.391	48277
550.455	50190
550.519	52294
550.582	55128
550.646	64284
550.710	62365
550.774	61234
550.838	61683
550.901	63506
550.965	67242
551.029	70683
551.093	75812
551.156	85658
551.220	103821
551.284	101019
551.347	77500
551.411	86900
551.475	76153
551.538	66772
551.602	62243
551.666	58766
551.729	55911
551.793	54892
551.856	53607
551.920	53526
551.983	53104
552.047	52554
552.110	53964
552.174	54616
552.237	53836
552.301	51009
552.364	49855
552.428	47364
552.491	49421
552.554	48688
552.618	49377
552.681	51109
552.745	49279
552.808	53951
552.871	55483
552.934	53064
552.998	50090
553.061	51293
553.124	48316
553.187	49319
553.251	50328
553.314	50035
553.377	51397
553.440	61467
553.503	90881
553.567	91514
553.630	56705
553.693	54373
553.756	54192
553.819	53626
553.882	52323
553.945	52463
554.008	51648
554.071	52262
554.134	52428
554.197	49696
554.260	49735
554.323	51725
554.386	51148
554.449	53110
554.512	51497
554.575	49599
554.638	50060
554.701	49713
554.764	48979
554.827	48353
554.889	45861
554.952	43577
555.015	41569
555.078	42938
555.141	43149
555.203	42907
555.266	41861
555.329	43509
555.391	39665
555.454	40467
555.517	38884
555.580	38556
555.642	35790
555.705	36099
555.768	35205
555.830	35259
555.893	32947
555.955	32361
556.018	31763
556.080	32268
556.143	32339
556.206	32083
556.268	31257
556.330	32048
556.393	29849
556.455	31177
556.518	31911
556.580	29688
556.643	26866
556.705	25596
556.767	25681
556.830	27366
556.892	26150
556.955	27193
557.017	25780
557.079	24779
557.142	25196
557.204	26033
557.266	28053
557.328	23756
557.391	21405
557.453	20341
557.515	21467
557.577	22330
557.639	22086
557.701	21121
557.764	21713
557.826	22072
557.888	21824
557.950	23257
558.012	24990
558.074	35509
558.136	85450
558.198	138276
558.260	39081
558.322	24936
558.384	26161
558.446	27443
558.508	29164
558.570	32467
558.632	40537
558.694	52204
558.756	97727
558.818	322032
558.880	483918
558.942	141687
559.003	150632
559.065	54762
559.127	30392
559.189	31832
559.251	35014
559.312	57348
559.374	167313
559.436	378995
559.498	112578
559.559	31874
559.621	28903
559.683	37388
559.744	72546
559.806	235482
559.868	207831
559.929	38790
559.991	35505
560.052	66206
560.114	146869
560.176	68955
560.237	102225
560.299	104636
560.360	21807
560.422	15560
560.483	14532
560.545	14438
560.606	12663
560.667	12424
560.729	11316
560.790	10961
560.852	12235
560.913	12019
560.974	11713
561.036	10518
561.097	11049
561.158	11783
561.220	11554
561.281	10220
561.342	10274
561.403	12867
561.465	12924
561.526	20300
561.587	17812
561.648	10717
561.709	9541
561.771	11177
561.832	9991
561.893	9645
561.954	9936
562.015	10468
562.076	10647
562.137	9882
562.198	9498
562.259	10617
562.320	10059
562.381	10513
562.442	11637
562.503	10124
562.564	9699
562.625	9363
562.686	9880
562.747	9857
562.808	10477
562.869	10466
562.930	10538
562.991	10483
563.051	10066
563.112	9793
563.173	8545
563.234	9108
563.294	9656
563.355	9997
563.416	9441
563.477	9246
563.537	9457
563.598	9420
563.659	9286
563.720	9363
563.780	9341
563.841	9955
563.901	9867
563.962	9188
564.023	10289
564.083	9980
564.144	9155
564.204	9152
564.265	10126
564.325	12064
564.386	15585
564.446	12235
564.507	8965
564.567	9108
564.628	8404
564.688	9670
564.749	8764
564.809	10692
564.869	9585
564.930	9179
564.990	9533
565.050	9396
565.111	9214
565.171	8431
565.231	8357
565.292	10211
565.352	8023
565.412	9043
565.472	9118
565.532	8751
565.593	9825
565.653	8445
565.713	9112
565.773	9491
565.833	9390
565.893	11099
565.953	8918
566.013	9647
566.074	9809
566.134	12438
566.194	15552
566.254	13315
566.314	10246
566.374	9927
566.434	9380
566.494	10450
566.554	10166
566.614	10489
566.673	9831
566.733	11462
566.793	10688
566.853	11608
566.913	11419
566.973	12391
567.033	11352
567.092	11250
567.152	11246
567.212	11341
567.272	12110
567.331	12491
567.391	11715
567.451	13496
567.511	16254
567.570	15046
567.630	11495
567.690	11935
567.749	12840
567.809	12352
567.868	13312
567.928	14627
567.988	15508
568.047	17478
568.107	21288
568.166	29855
568.226	46760
568.285	58127
568.345	44409
568.404	34833
568.464	29686
568.523	27763
568.582	28457
568.642	32861
568.701	41357
568.761	65972
568.820	97858
568.879	85247
568.939	59824
568.998	41473
569.057	31949
569.116	26169
569.176	21786
569.235	18923
569.294	16807
569.353	14984
569.413	15088
569.472	12849
569.531	12753
569.590	12333
569.649	11725
569.708	11391
569.767	11852
569.827	11810
569.886	10215
569.945	10117
570.004	10123
570.063	10791
570.122	9270
570.181	10834
570.240	10289
570.299	10537
570.358	10187
570.417	9179
570.475	9792
570.534	10050
570.593	8925
570.652	10046
570.711	9542
570.770	8638
570.829	9518
570.887	9253
570.946	9173
571.005	9494
571.064	8936
571.122	10519
571.181	9465
571.240	8445
571.299	9370
571.357	9336
571.416	8362
571.475	10063
571.533	9087
571.592	9291
571.650	9558
571.709	8992
571.768	9176
571.826	9019
571.885	8725
571.943	8976
572.002	8085
572.060	8571
572.119	9105
572.177	8659
572.236	7942
572.294	9826
572.352	8416
572.411	8366
572.469	8496
572.528	8329
572.586	8166
572.644	9171
572.703	8944
572.761	7573
572.819	7500
572.877	8097
572.936	7856
572.994	8423
573.052	7932
573.110	7737
573.169	7328
573.227	8156
573.285	7543
573.343	7368
573.401	6364
573.459	8354
573.517	6802
573.576	7783
573.634	8246
573.692	8124
573.750	8305
573.808	7865
573.866	8407
573.924	8621
573.982	8146
574.040	7007
574.098	7060
574.155	7285
574.213	7668
574.271	7335
574.329	7652
574.387	6701
574.445	7040
574.503	6548
574.560	6913
574.618	6560
574.676	6371
574.734	7471
574.792	5993
574.849	6465
574.907	6457
574.965	7398
575.022	6263
575.080	7373
575.138	6482
575.195	6484
575.253	6384
575.311	7192
575.368	6564
575.426	6005
575.483	6820
575.541	6499
575.598	6456
575.656	7569
575.713	6308
575.771	6584
575.828	6549
575.886	6174
575.943	6558
576.001	7468
576.058	6420
576.115	6920
576.173	6975
576.230	7809
576.287	7235
576.345	6894
576.402	6563
576.459	6757
576.517	6740
576.574	7158
576.631	6593
576.688	7225
576.746	6269
576.803	6925
576.860	5812
576.917	7157
576.974	6802
577.031	6860
577.089	7367
577.146	6924
577.203	6547
577.260	7377
577.317	7297
577.374	8022
577.431	7160
577.488	6191
577.545	6738
577.602	7037
577.659	6499
577.716	7264
577.773	7417
577.830	6577
577.886	6295
577.943	6359
578.000	6260
578.057	7222
578.114	7010
578.171	7220
578.227	8266
578.284	7672
578.341	6905
578.398	7756
578.454	6826
578.511	8294
578.568	7792
578.625	7613
578.681	6334
578.738	7072
578.794	6367
578.851	7339
578.908	6917
578.964	7596
579.021	7817
579.077	6972
579.134	7388
579.190	7338
579.247	5980
579.303	6549
579.360	7258
579.416	6528
579.473	6461
579.529	6752
579.586	7786
579.642	7830
579.698	6897
579.755	7409
579.811	7111
579.867	8077
579.924	7467
579.980	8294
580.036	8305
580.093	10009
580.149	11366
580.205	10209
580.261	8549
580.317	9427
580.374	8723
580.430	9699
580.486	8661
580.542	7347
580.598	8087
580.619	7959
580.654	7741
580.692	8306
580.710	8587
580.765	8655
580.767	8661
580.823	8622
580.838	8501
580.879	8128
580.911	8702
580.935	9144
580.984	8733
580.991	8680
581.047	9618
581.057	9467
581.103	8804
581.130	9124
581.159	9432
581.203	10364
581.215	10614
581.270	9059
581.276	9094
581.326	9442
581.349	9556
581.382	9706
581.422	9367
581.438	9215
581.494	8787
581.494	8791
581.550	8979
581.567	9403
581.606	10288
581.640	9323
581.661	8702
581.713	10264
581.717	10392
581.773	10153
581.786	10078
581.829	9749
581.859	10020
581.885	10305
581.932	10276
581.940	10255
581.996	11585
582.004	11369
582.052	10175
582.077	10570
582.107	10985
582.150	10451
582.163	10297
582.219	10754
582.223	10719
582.274	10302
582.296	10912
582.330	11854
582.368	11690
582.386	11647
582.441	11322
582.441	11317
582.497	11955
582.514	12082
582.552	12726
582.587	12593
582.608	12357
582.659	12515
582.663	12521
582.719	12232
582.732	12451
582.774	13314
582.805	13168
582.830	12999
582.877	13858
582.885	14041
582.941	14174
582.950	14481
582.996	16164
583.023	16841
583.052	17473
583.095	17879
583.107	17935
583.162	17750
583.168	17828
583.218	18090
583.240	17201
583.273	15954
583.313	16091
583.328	16226
583.384	15127
583.385	15125
583.439	14966
583.458	14840
583.494	14503
583.531	14340
583.549	14501
583.603	15094
583.605	15095
583.660	15245
583.676	15108
583.715	15061
583.748	15383
583.770	15635
583.820	16042
583.825	16051
583.881	15464
583.893	15502
583.936	15758
583.965	15797
583.991	15941
584.038	16610
584.046	16744
584.101	16633
584.110	16729
584.156	17285
584.183	17346
584.211	17152
584.255	17069
584.266	17192
584.321	17651
584.328	17723
584.376	18162
584.400	18538
584.431	19185
584.472	18985
584.486	18853
584.541	20237
584.545	20188
584.596	19833
584.617	20244
584.651	21007
584.689	21428
584.706	21530
584.761	21504
584.762	21487
584.816	21803
584.834	22013
584.871	22566
584.906	22898
584.926	22988
584.978	23337
584.980	23399
585.035	24939
585.051	25208
585.090	25433
585.123	25819
585.145	26265
585.195	27098
585.200	27242
585.254	28115
585.267	28740
585.309	31329
585.340	32590
585.364	33278
585.412	34579
585.419	34920
585.473	38563
585.484	39723
585.528	46316
585.556	53702
585.583	67251
585.628	99936
585.637	111161
585.692	211517
585.700	222272
585.747	253302
585.772	218329
585.801	138199
585.845	65308
585.856	58028
585.910	42129
585.917	40350
585.965	36929
585.989	35892
586.019	35972
586.061	35744
586.074	35654
586.128	35821
586.133	35727
586.183	35796
586.205	35564
586.237	35457
586.277	35625
586.292	35693
586.346	36183
586.349	36126
586.401	36143
586.421	36087
586.455	36738
586.493	38073
586.509	39240
586.564	42154
586.565	42206
586.618	49147
586.637	49641
586.672	46370
586.709	43688
586.727	43588
586.781	43940
586.781	44025
586.835	43356
586.853	43230
586.889	43704
586.925	43563
586.944	43711
586.996	44592
586.998	44748
587.052	47160
587.068	47601
587.106	48279
587.140	49064
587.161	50041
587.212	51538
587.215	51726
587.269	53946
587.284	54273
587.323	55827
587.356	57217
587.377	58398
587.427	61226
587.431	61630
587.485	64808
587.499	65518
587.539	67828
587.571	69453
587.593	71451
587.643	75586
587.648	76142
587.702	80370
587.715	81217
587.755	85539
587.786	88522
587.810	91279
587.858	97345
587.864	98472
587.917	106805
587.930	108378
587.971	115024
588.001	120214
588.025	125343
588.073	134650
588.079	136531
588.133	150719
588.145	153676
588.187	167927
588.217	177482
588.241	187371
588.288	206155
588.295	209772
588.348	237108
588.360	242621
588.402	272249
588.431	292317
588.456	314307
588.503	357071
588.510	366060
588.564	433910
588.575	448002
588.617	526087
588.646	581117
588.671	646121
588.718	771733
588.725	795472
588.778	975437
588.789	1010309
588.832	1108192
588.861	1162982
588.886	1116486
588.932	965103
588.939	951960
588.993	862383
589.004	856448
589.047	1087181
589.075	1201667
589.100	1173391
589.147	1092578
589.154	1073527
589.207	916634
589.218	884458
589.261	828246
589.290	793158
589.314	809575
589.361	843688
589.368	860560
589.421	994346
589.433	1021738
589.475	1093443
589.504	1123967
589.528	1068230
589.576	924098
589.582	937209
589.635	1082058
589.647	1099819
589.689	1018261
589.718	953232
589.742	855265
589.790	660538
589.795	647557
589.849	514659
589.861	483071
589.902	421619
589.932	374510
589.955	350913
590.004	299114
590.009	296642
590.062	260832
590.075	251221
590.115	230777
590.146	213937
590.168	206625
590.218	188710
590.222	188224
590.275	173464
590.289	169133
590.328	161768
590.360	154930
590.381	151421
590.431	141270
590.435	141284
590.488	133474
590.503	130853
590.541	126170
590.574	121200
590.594	119741
590.645	114715
590.647	114959
590.700	110763
590.716	109045
590.753	106432
590.787	103503
590.806	102628
590.859	98434
590.859	98753
590.912	96731
590.930	95806
590.965	94724
591.001	92939
591.018	92349
591.071	89342
591.072	88985
591.124	87693
591.143	86801
591.177	86673
591.214	85960
591.230	85834
591.283	84156
591.285	83778
591.336	81836
591.356	80591
591.389	80087
591.427	78908
591.442	78908
591.495	77737
591.498	77358
591.547	76584
591.569	75844
591.600	75908
591.640	75257
591.653	75348
591.706	74570
591.711	74203
591.759	74625
591.782	74430
591.811	74716
591.853	74407
591.864	74456
591.917	73238
591.924	72789
591.969	71908
591.995	70977
592.022	71405
592.066	71397
592.075	71863
592.127	73088
592.137	73035
592.180	74270
592.208	74599
592.233	73825
592.279	71528
592.285	71719
592.338	71052
592.350	70626
592.390	70135
592.421	69292
592.443	70218
592.491	71402
592.495	71623
592.548	70845
592.562	70363
592.600	70526
592.633	70153
592.653	70197
592.704	69233
592.705	69638
592.775	69829
592.846	69421
592.916	70660
592.987	69060
593.058	69408
593.128	67890
593.199	70106
593.270	67679
593.341	68130
593.411	68640
593.482	69151
593.553	70283
593.623	70215
593.694	72738
593.764	71090
593.835	70030
593.906	70887
593.976	70519
594.047	73444
594.117	74576
594.188	76279
594.258	72515
594.329	73007
594.399	73799
594.470	74984
594.540	76880
594.611	78521
594.681	77573
594.751	76896
594.822	79078
594.892	82146
594.963	82501
595.033	84064
595.103	84170
595.174	86173
595.244	92584
595.314	95647
595.384	88538
595.455	89579
595.525	93530
595.595	96082
595.665	94412
595.736	93686
595.806	95266
595.876	96717
595.946	96535
596.016	97817
596.087	101338
596.157	101492
596.227	101264
596.297	106720
596.367	111364
596.437	118643
596.507	120672
596.577	122698
596.647	118243
596.717	123044
596.787	124801
596.857	125331
596.927	124916
596.997	127375
597.067	127658
597.137	132372
597.207	132246
597.277	132758
597.347	127805
597.417	127867
597.487	128454
597.557	128927
597.626	131676
597.696	133713
597.766	136692
597.836	133944
597.906	124613
597.975	123447
598.045	123013
598.115	128892
598.185	136741
598.254	148048
598.324	157394
598.394	161672
598.464	156311
598.533	157136
598.603	147404
598.672	146036
598.742	149096
598.812	149586
598.881	154030
598.951	151503
599.020	154985
599.090	159866
599.159	163762
599.229	159461
599.299	157716
599.368	162394
599.437	162175
599.507	154841
599.576	152498
599.646	152077
599.715	151785
599.785	151673
599.854	151691
599.924	152097
599.993	150662
600.062	156516
600.132	159231
600.201	167259
600.270	184223
600.340	193166
600.409	190881
600.478	191373
600.547	195196
600.617	187718
600.686	165654
600.755	159770
600.824	158445
600.894	157450
600.963	160803
601.032	162191
601.101	159857
601.170	161016
601.239	161767
601.308	164093
601.378	166541
601.447	169342
601.516	172540
601.585	175219
601.654	181295
601.723	184547
601.792	190902
601.861	195943
601.930	206303
601.999	211028
602.068	207979
602.137	209973
602.206	212964
602.275	214798
602.343	218048
602.412	218110
602.481	220186
602.550	221590
602.619	226518
602.688	224257
602.756	230299
602.825	229938
602.894	237586
602.963	233707
603.032	239518
603.100	239948
603.169	233966
603.238	244537
603.307	233142
603.375	237018
603.444	246311
603.513	228622
603.581	236757
603.650	248270
603.719	208947
603.787	202527
603.856	206444
603.924	209980
603.993	218673
604.061	223722
604.130	230815
604.198	234715
604.267	236678
604.335	245554
604.404	245918
604.472	253382
604.541	253151
604.609	260668
604.678	266406
604.746	268343
604.815	281019
604.883	272740
604.951	266757
605.020	273950
605.088	259560
605.156	249733
605.225	250590
605.293	249962
605.361	251105
605.429	250233
605.498	257113
605.566	254026
605.634	268840
605.702	269218
605.771	274015
605.839	277835
605.907	262736
605.975	270178
606.043	259432
606.111	252784
606.180	272059
606.248	251072
606.316	248544
606.384	265706
606.452	221155
606.520	195585
606.588	199567
606.656	200782
606.724	195315
606.792	187938
606.860	170691
606.928	157841
606.996	150604
607.064	149555
607.132	153164
607.200	162379
607.267	166090
607.335	171261
607.403	175659
607.471	168675
607.539	162730
607.607	163786
607.674	146262
607.742	145410
607.810	142913
607.878	144601
607.946	147956
608.013	153121
608.081	155726
608.149	154561
608.216	160349
608.284	165333
608.352	163870
608.419	163540
608.487	162309
608.555	155562
608.622	160354
608.690	168893
608.757	182316
608.825	184579
608.893	181081
608.960	172407
609.028	167850
609.095	165469
609.163	164374
609.230	147364
609.298	138152
609.365	143399
609.432	154927
609.500	167580
609.567	190156
609.635	218575
609.702	226047
609.769	215895
609.837	170088
609.904	147243
609.971	148403
610.039	159504
610.106	185567
610.173	289720
610.241	548521
610.308	370189
610.375	195199
610.442	159777
610.509	151724
610.577	151722
610.644	155012
610.711	159778
610.778	163914
610.845	169329
610.912	178312
610.980	186636
611.047	189238
611.114	185736
611.181	177252
611.248	175901
611.315	185890
611.382	190288
611.449	196169
611.516	202194
611.583	197157
611.650	201145
611.717	202482
611.784	202456
611.851	208584
611.918	216936
611.984	237614
612.051	292173
612.118	465268
612.185	896796
612.252	636705
612.319	283423
612.386	251591
612.452	234074
612.519	226068
612.586	225138
612.653	226811
612.719	234061
612.786	224279
612.853	211678
612.919	205713
612.986	210884
613.053	197292
613.120	187382
613.186	178829
613.253	184697
613.319	182684
613.386	183574
613.453	184899
613.519	188645
613.586	183649
613.652	191338
613.719	186229
613.785	189785
613.852	190280
613.918	189343
613.985	191494
614.051	200945
614.118	207806
614.184	201437
614.250	187876
614.317	191863
614.383	189715
614.449	191917
614.516	192161
614.582	195763
614.648	189946
614.715	187739
614.781	185273
614.847	186917
614.914	187063
614.980	182747
615.046	181468
615.112	186643
615.179	188063
615.245	191110
615.311	194661
615.377	210332
615.443	215252
615.509	201569
615.575	199212
615.642	198495
615.708	200826
615.774	209483
615.840	217459
615.906	228643
615.972	264623
616.038	362556
616.104	568854
616.170	1009288
616.236	867511
616.302	359813
616.368	288581
616.434	238056
616.500	223242
616.565	231576
616.631	262629
616.697	239772
616.763	240581
616.829	301143
616.895	444805
616.961	430956
617.026	254535
617.092	207561
617.158	200698
617.224	196941
617.289	183867
617.355	179473
617.421	176293
617.487	178869
617.552	169138
617.618	167745
617.684	168232
617.749	170621
617.815	163788
617.880	160377
617.946	159130
618.012	164211
618.077	167382
618.143	163324
618.208	164204
618.274	174876
618.339	176762
618.405	148937
618.470	149553
618.536	150694
618.601	148945
618.667	140968
618.732	133615
618.798	133765
618.863	132219
618.928	131872
618.994	133964
619.059	134534
619.124	136884
619.190	134255
619.255	131836
619.320	133099
619.386	133504
619.451	130823
619.516	129930
619.581	131812
619.647	135702
619.712	135774
619.777	129869
619.842	132103
619.907	133220
619.972	135238
620.038	134993
620.103	132467
620.168	131272
620.233	134604
620.298	135150
620.363	135693
620.428	138390
620.493	142413
620.558	142337
620.623	145303
620.688	144545
620.753	144127
620.818	146346
620.883	148519
620.948	146162
621.013	146488
621.078	144950
621.143	145306
621.207	148290
621.272	146455
621.337	142489
621.402	143249
621.467	144049
621.532	145063
621.596	144321
621.661	140107
621.726	137416
621.791	139791
621.855	138861
621.920	139277
621.985	142495
622.049	145711
622.114	143553
622.179	145806
622.243	148360
622.308	151800
622.373	158128
622.437	154006
622.502	148198
622.566	145646
622.631	145497
622.695	149415
622.760	146384
622.824	146123
622.889	146951
622.953	147186
623.018	158675
623.082	158578
623.147	153610
623.211	151108
623.276	150987
623.340	144291
623.404	144525
623.469	143988
623.533	145467
623.597	140777
623.662	141564
623.726	133393
623.790	124753
623.854	124694
623.919	126279
623.983	127380
624.047	127292
624.111	128701
624.176	130767
624.240	132234
624.304	136641
624.368	129674
624.432	130583
624.496	132323
624.560	138391
624.625	139427
624.689	136630
624.753	141871
624.817	134022
624.881	132711
624.945	123569
625.009	120912
625.073	121661
625.137	124184
625.201	128267
625.265	128802
625.329	124293
625.393	125791
625.456	125999
625.520	127680
625.584	129938
625.648	135030
625.712	141397
625.776	163357
625.839	160074
625.903	118038
625.967	107580
626.031	120222
626.095	141698
626.158	117712
626.222	97540
626.286	92795
626.349	90785
626.413	86264
626.477	84893
626.540	83897
626.604	83344
626.668	83883
626.731	82816
626.795	82588
626.858	81164
626.922	80183
626.986	79328
627.049	78015
627.113	81892
627.176	80547
627.240	76799
627.303	77469
627.366	75558
627.430	76450
627.493	75461
627.557	75574
627.620	77845
627.684	77655
627.747	76634
627.810	71182
627.874	66685
627.937	63842
628.000	67863
628.064	66154
628.127	58140
628.190	58834
628.253	58346
628.317	56631
628.380	54651
628.443	52533
628.506	53404
628.569	51763
628.632	48301
628.696	48455
628.759	48092
628.822	45769
628.885	44753
628.948	45438
629.011	44526
629.074	45002
629.137	42589
629.200	42149
629.263	43717
629.326	40716
629.389	42022
629.452	42013
629.515	40771
629.578	41239
629.641	41071
629.704	40263
629.767	40966
629.830	40637
629.892	39228
629.955	38672
630.018	40145
630.081	39337
630.144	40214
630.207	37142
630.269	39699
630.332	37416
630.395	36920
630.458	35889
630.520	34452
630.583	36729
630.646	36974
630.708	36775
630.771	34596
630.834	38664
630.896	35454
630.959	36645
631.021	35177
631.084	36004
631.146	36430
631.209	37392
631.272	34806
631.334	36672
631.397	34429
631.459	34971
631.522	36619
631.584	36121
631.646	37385
631.709	37912
631.771	37755
631.834	37070
631.896	35217
631.958	34543
632.021	34676
632.083	33127
632.145	34682
632.208	33052
632.270	33792
632.332	32839
632.395	32250
632.457	34360
632.519	32816
632.581	34055
632.643	32025
632.706	33334
632.768	31908
632.830	33787
632.892	32468
632.954	31816
633.016	34277
633.078	32919
633.141	32805
633.203	32413
633.265	32662
633.327	33258
633.389	31475
633.451	33898
633.513	32378
633.575	34440
633.637	32714
633.698	33453
633.760	33557
633.822	34754
633.884	34146
633.946	34645
634.008	35120
634.070	35276
634.132	36058
634.193	36438
634.255	36779
634.317	37692
634.379	38091
634.441	35629
634.502	33230
634.564	34084
634.626	31292
634.687	31225
634.749	31073
634.811	30810
634.873	30129
634.934	31281
634.996	31697
635.057	30611
635.119	30010
635.181	31924
635.242	31334
635.304	30640
635.365	33063
635.427	31044
635.488	30418
635.550	30202
635.611	30880
635.673	27642
635.734	32980
635.796	31730
635.857	33969
635.918	33151
635.980	35304
636.041	35845
636.102	37904
636.164	36598
636.225	36873
636.286	31596
636.348	31104
636.409	31356
636.470	30054
636.531	30387
636.593	30326
636.654	30540
636.715	29362
636.776	28194
636.838	26997
636.899	29381
636.960	27983
637.021	27406
637.082	26441
637.143	28580
637.204	26208
637.265	26177
637.326	26955
637.387	28888
637.448	26100
637.509	27868
637.570	26859
637.631	27458
637.692	24743
637.753	25461
637.814	26373
637.875	26167
637.936	26875
637.997	26358
638.058	26254
638.119	27560
638.179	26536
638.240	26499
638.301	26946
638.362	25853
638.423	25579
638.483	26275
638.544	24623
638.605	26342
638.666	24314
638.726	26118
638.787	26010
638.848	24619
638.908	25828
638.969	25028
639.030	23098
639.090	22734
639.151	22888
639.211	25700
639.272	25411
639.332	27369
639.393	26274
639.453	23915
639.514	25489
639.574	24617
639.635	24209
639.695	23933
639.756	21551
639.816	22889
639.877	23097
639.937	24445
639.997	25174
640.058	22227
640.118	21403
640.178	23023
640.239	22003
640.299	22372
640.359	22234
640.420	24534
640.480	24369
640.540	25122
640.600	25252
640.661	24847
640.721	24197
640.781	27414
640.841	26393
640.901	24277
640.961	23399
641.021	23776
641.082	23081
641.142	23798
641.202	24237
641.262	19830
641.322	22188
641.382	20930
641.442	23241
641.502	21325
641.562	22395
641.622	21689
641.682	22468
641.742	24069
641.802	22714
641.861	22782
641.921	21409
641.981	21438
642.041	21330
642.101	21182
642.161	18735
642.221	20922
642.280	19722
642.340	20465
642.400	19859
642.460	22291
642.519	21038
642.579	21141
642.639	21411
642.698	19895
642.758	23476
642.818	21381
642.877	20252
642.937	21668
642.997	22614
643.056	22942
643.116	19510
643.175	23092
643.235	21369
643.294	22032
643.354	22481
643.414	23563
643.473	26242
643.532	27202
643.592	32273
643.651	43218
643.711	66514
643.770	120537
643.830	269056
643.889	496656
643.948	140455
644.008	39989
644.067	27788
644.126	23904
644.186	22140
644.245	22972
644.304	19764
644.363	22720
644.423	18317
644.482	20362
644.541	20548
644.600	20328
644.659	24258
644.719	25430
644.778	34107
644.837	49769
644.896	90171
644.955	190178
645.014	68583
645.073	27658
645.132	22233
645.191	21904
645.250	20889
645.309	22845
645.368	21681
645.427	26655
645.486	34268
645.545	51660
645.604	23247
645.663	21242
645.722	19704
645.781	21458
645.840	21585
645.898	23763
645.957	30931
646.016	39896
646.075	63658
646.134	113871
646.192	281048
646.251	377567
646.310	74317
646.369	32123
646.427	27160
646.486	21653
646.545	20364
646.603	19720
646.662	18806
646.721	17922
646.779	17198
646.838	17105
646.896	20871
646.955	24562
647.014	33399
647.072	55279
647.131	129426
647.189	63227
647.248	18864
647.306	17897
647.365	17732
647.423	15276
647.481	16635
647.540	14469
647.598	15745
647.657	16159
647.715	16236
647.773	14654
647.832	15472
647.890	14250
647.948	13360
648.007	14924
648.065	12921
648.123	13527
648.181	15574
648.240	16208
648.298	13705
648.356	13848
648.414	14547
648.472	12968
648.531	13412
648.589	13349
648.647	13264
648.705	13514
648.763	12373
648.821	14407
648.879	12900
648.937	14004
648.995	15394
649.053	17461
649.111	22252
649.169	32766
649.227	51717
649.285	103512
649.343	266994
649.401	125493
649.459	28951
649.516	21221
649.574	16501
649.632	22074
649.690	24524
649.748	21991
649.806	25801
649.863	44878
649.921	93231
649.979	60328
650.037	15839
650.094	11699
650.152	13037
650.210	11639
650.268	12760
650.325	12687
650.383	14137
650.440	10668
650.498	10769
650.556	10794
650.613	9417
650.671	10520
650.728	9728
650.786	11191
650.843	12239
650.901	8739
650.958	10200
651.016	9960
651.073	9932
651.131	9178
651.188	9161
651.246	9665
651.303	8506
651.360	9600
651.418	9278
651.475	9340
651.532	7760
651.590	10266
651.647	7903
651.704	9096
651.762	8299
651.819	9557
651.876	8002
651.933	9323
651.990	9469
652.048	7316
652.105	7340
652.162	8603
652.219	7496
652.276	9141
652.333	7860
652.390	8424
652.448	7396
652.505	8639
652.562	7647
652.619	8675
652.676	10912
652.733	11262
652.790	7653
652.847	6910
652.904	8740
652.961	6956
653.017	6752
653.074	7256
653.131	7843
653.188	7720
653.245	7973
653.302	7210
653.359	7598
653.415	8218
653.472	6429
653.529	6971
653.586	7244
653.642	7244
653.699	6996
653.756	7119
653.813	6686
653.869	7333
653.926	7574
653.983	6553
654.039	8197
654.096	7044
654.152	7951
654.209	6577
654.266	7105
654.322	7194
654.379	8250
654.435	7558
654.492	7008
654.548	8597
654.605	8653
654.661	8673
654.717	7302
654.774	7107
654.830	7203
654.887	7339
654.943	7374
655.000	7909
655.056	7573
655.112	7197
655.168	5970
655.225	7389
655.281	7761
655.337	7842
655.394	9581
655.450	8106
655.506	7842
655.562	10013
655.618	9184
655.675	6457
655.731	6365
655.787	6885
655.843	7396
655.899	6033
655.955	6606
656.011	7066
656.067	5121
656.123	7333
656.179	6840
656.235	7952
656.291	5661
656.347	7723
656.403	6446
656.459	6900
656.515	6979
656.571	7924
656.627	6209
656.683	5945
656.739	6741
656.795	7160
656.850	6935
656.906	6885
656.962	6879
657.018	6911
657.074	7462
657.129	8644
657.185	11804
657.241	20584
657.297	13423
657.352	7261
657.408	6265
657.464	7973
657.519	6615
657.575	6147
657.630	5943
657.686	6197
657.742	6123
657.797	6346
657.853	5908
657.908	8458
657.964	6200
658.019	6669
658.075	6087
658.130	7576
658.186	5486
658.241	6796
658.297	5796
658.352	6349
658.407	5274
658.463	5890
658.518	6294
658.573	6579
658.629	5682
658.684	5930
658.739	7677
658.795	5738
658.850	6435
658.905	6190
658.960	5707
659.016	6231
659.071	5842
659.126	6825
659.181	5737
659.236	8363
659.291	8104
659.346	6166
659.401	6534
659.457	8043
659.512	7563
659.567	7757
659.622	5947
659.677	5526
659.732	4744
659.787	6305
659.842	6751
659.897	7492
659.952	6715
660.007	6736
660.061	6778
660.116	5463
660.171	5262
660.226	5840
660.281	7251
660.336	5722
660.391	6899
660.445	5175
660.500	6236
660.555	6363
660.610	5696
660.664	6373
660.719	6140
660.774	6465
660.828	5753
660.883	5487
660.938	6750
660.992	4976
661.047	6102
661.101	6068
661.156	6501
661.211	5725
661.265	5157
661.320	6338
661.374	5319
661.429	5692
661.483	6071
661.538	5236
661.592	5830
661.647	5984
661.701	6355
661.755	6522
661.810	5370
661.864	5467
661.919	4856
661.973	6317
662.027	5045
662.081	5385
662.136	5330
662.190	6453
662.244	5678
662.299	5060
662.353	5122
662.407	4847
662.461	5026
662.515	6271
662.569	5859
662.624	6215
662.678	5070
662.732	5819
662.786	5425
662.840	5653
662.894	5874
662.948	5788
663.002	5535
663.056	6228
663.110	4631
663.164	5967
663.218	5267
663.272	6259
663.326	5710
663.380	6362
663.434	6116
663.488	4732
663.542	5318
663.595	5587
663.649	4943
663.703	5597
663.757	5259
663.811	5443
663.864	4728
663.918	5646
663.972	4687
664.026	4997
664.079	5190
664.133	4723
664.187	4997
664.240	5352
664.294	5150
664.348	6500
664.401	5134
664.455	5386
664.508	4830
664.562	5809
664.615	4426
664.669	4558
664.722	5485
664.776	5275
664.829	5260
664.883	5821
664.936	5019
664.990	4750
665.043	4182
665.097	5981
665.150	5767
665.203	5501
665.257	5251
665.310	5404
665.363	5921
665.417	5738
665.470	5392
665.523	6281
665.576	4981
665.630	5830
665.683	5655
665.736	5627
665.789	5503
665.842	5686
665.895	5065
665.949	6251
666.002	5437
666.055	5744
666.108	5617
666.161	5296
666.214	5134
666.267	5768
666.320	6118
666.373	5269
666.426	5231
666.479	5569
666.532	5597
666.585	5995
666.638	5821
666.691	5492
666.744	5782
666.796	6222
666.849	5409
666.902	5458
666.955	5290
667.008	4913
667.060	4587
667.113	4890
667.166	4398
667.219	5471
667.271	5325
667.324	5329
667.377	5451
667.430	5729
667.482	6079
667.535	5315
667.587	6070
667.640	5527
667.693	6073
667.745	5728
667.798	6711
667.850	6383
667.903	5652
667.955	4949
668.008	5448
668.060	6564
668.113	6283
668.165	6096
668.218	5308
668.270	6252
668.322	5964
668.375	5626
668.427	5708
668.479	4735
668.532	5605
668.584	5686
668.636	5297
668.689	5948
668.741	5312
668.793	4828
668.845	5019
668.898	6196
668.950	4541
669.002	5524
669.054	4517
669.106	5162
669.158	5450
669.211	5398
669.263	4971
669.315	6454
669.367	6285
669.419	5483
669.471	6905
669.523	5572
669.575	5609
669.627	5915
669.679	4022
669.731	6064
669.783	5121
669.835	5479
669.886	5235
669.938	5999
669.990	5124
670.042	5264
670.094	5294
670.146	5891
670.197	5862
670.249	6573
670.301	7157
670.353	10341
670.404	11874
670.456	16452
670.508	23638
670.560	38660
670.611	64504
670.663	112565
670.715	258509
670.766	373592
670.818	112351
670.869	25013
670.921	14003
670.972	11665
671.024	8774
671.075	7174
671.127	6868
671.178	6441
671.230	6346
671.281	6719
671.333	6455
671.384	7179
671.436	6889
671.487	9727
671.538	9724
671.590	14059
671.641	21148
671.692	33386
671.744	58075
671.795	41941
671.846	17696
671.897	10466
671.949	7523
672.000	6434
672.051	5528
672.102	5870
672.153	4690
672.204	5659
672.256	4636
672.307	5663
672.358	5111
672.409	5453
672.460	4425
672.511	4087
672.562	4165
672.613	4200
672.664	4348
672.715	4646
672.766	4104
672.817	4482
672.868	4679
672.919	4507
672.970	3349
673.021	3583
673.071	4115
673.122	4312
673.173	3913
673.224	4475
673.275	3977
673.326	3557
673.376	4139
673.427	4229
673.478	4049
673.528	4025
673.579	4395
673.630	3990
673.680	4387
673.731	4537
673.782	3598
673.832	4227
673.883	3543
673.934	3430
673.984	3514
674.035	4053
674.085	3188
674.136	4182
674.186	3977
674.237	5131
674.287	4575
674.338	4060
674.388	3706
674.438	3014
674.489	3615
674.539	4100
674.589	4113
674.640	4312
674.690	3787
674.740	3109
674.791	3401
674.841	4234
674.891	4065
674.942	3962
674.992	2885
675.042	2974
675.092	2240
675.142	2646
675.193	3061
675.243	3570
675.293	3565
675.343	4043
675.393	2844
675.443	3969
675.493	3340
675.543	3393
675.593	3274
675.643	3474
675.693	3122
675.743	3423
675.793	3086
675.843	2702
675.893	3022
675.943	4531
675.993	2875
676.043	3297
676.093	2648
676.142	2081
676.192	2623
676.242	3481
676.292	3066
676.341	2960
676.391	3234
676.441	2946
676.491	2179
676.540	3080
676.590	3506
676.640	4047
676.689	2602
676.739	2114
676.789	1954
676.838	3801
676.888	2733
676.937	3150
676.987	2100
677.037	2515
677.086	2770
677.136	3045
677.185	1784
677.235	2592
677.284	2215
677.333	2461
677.383	2308
677.432	2445
677.482	2258
677.531	3092
677.580	1688
677.630	2346
677.679	2249
677.728	2350
677.778	2467
677.827	2378
677.876	1870
677.925	3389
677.975	2376
678.024	2710
678.073	2816
678.122	3508
678.171	2329
678.220	2499
678.269	2256
678.319	2346
678.368	2325
678.417	3887
678.466	3183
678.515	2906
678.564	2898
678.613	1466
678.662	2016
678.711	3110
678.760	2508
678.809	2874
678.857	2638
678.906	2601
678.955	2165
679.004	3468
679.053	2455
679.102	3572
679.151	2664
679.199	2856
679.248	2216
679.297	1649
679.346	2655
679.394	2883
679.443	1877
679.492	3371
679.540	2530
679.589	2811
679.638	2100
679.686	2391
679.735	2617
679.784	2910
679.832	2371
679.881	2240
679.929	1839
679.978	2569
680.026	2036
680.075	2562
680.123	1699
680.172	2475
680.220	1407
680.268	2393
680.317	947
680.365	2319
680.414	2050
680.462	2409
680.510	2465
680.559	1864
680.607	1916
680.655	1924
680.703	2610
680.752	2129
680.800	1693
680.848	2036
680.896	879
680.945	2525
680.993	2036
681.041	2448
681.089	2133
681.137	2287
681.185	1677
681.233	2083
681.258	1801
681.281	1505
681.329	2078
681.377	1104
681.380	1167
681.425	1787
681.473	2906
681.502	2832
681.521	2736
681.569	3282
681.617	1877
681.624	2050
681.665	2944
681.713	3023
681.745	2712
681.761	2526
681.809	2554
681.857	3379
681.867	3233
681.904	2621
681.952	3230
681.989	3292
682.000	3280
682.048	2627
682.096	2852
682.111	2735
682.143	2383
682.191	2202
682.233	3130
682.239	3248
682.286	3109
682.334	2539
682.354	2696
682.382	2827
682.430	3005
682.476	2743
682.477	2714
682.525	2974
682.572	2992
682.598	3137
682.620	3208
682.667	3114
682.715	3347
682.720	3384
682.763	3459
682.810	3342
682.841	3598
682.857	3693
682.905	3029
682.952	4141
682.963	4077
683.000	3774
683.047	3270
683.085	4011
683.095	4191
683.142	3870
683.190	4463
683.206	4311
683.237	3957
683.284	3813
683.328	3645
683.332	3605
683.379	2827
683.426	3744
683.449	3985
683.473	4249
683.521	4383
683.568	4438
683.571	4488
683.615	4868
683.662	4221
683.693	4425
683.709	4475
683.757	3964
683.804	4631
683.814	4615
683.851	4472
683.898	3955
683.936	4554
683.945	4696
683.992	4736
684.039	5172
684.057	5013
684.086	4738
684.133	4093
684.179	4924
684.180	4929
684.227	4728
684.274	5522
684.300	5679
684.321	5857
684.368	4511
684.415	5066
684.422	5157
684.462	5515
684.509	4602
684.543	4707
684.556	4734
684.603	5912
684.649	5427
684.665	5581
684.696	5831
684.743	5687
684.786	5843
684.790	5842
684.837	5303
684.883	5526
684.908	5755
684.930	6012
684.977	6259
685.023	5869
685.029	5917
685.070	5901
685.117	5904
685.150	5814
685.164	5870
685.210	6722
685.257	6747
685.272	6809
685.303	6718
685.350	6897
685.393	6404
685.396	6358
685.443	5848
685.490	6520
685.514	6582
685.536	6620
685.583	6748
685.629	6466
685.636	6556
685.675	6990
685.722	6732
685.757	6861
685.768	6899
685.815	6638
685.861	7058
685.878	6831
685.908	6448
685.954	6936
686.000	6852
686.000	6846
686.047	7253
686.093	7683
686.121	8181
686.139	8389
686.185	7505
686.232	7810
686.242	7578
686.278	6819
686.324	7945
686.363	6661
686.370	6429
686.416	7420
686.463	7641
686.484	7735
686.509	7847
686.555	7586
686.601	7252
686.606	7313
686.647	7695
686.693	7445
686.727	7422
686.739	7449
686.785	7864
686.831	7662
686.848	7741
686.877	7868
686.923	7058
686.969	7656
686.969	7659
687.015	7796
687.061	7830
687.090	8097
687.107	8176
687.153	8532
687.199	7515
687.211	7733
687.245	8273
687.291	8074
687.332	7708
687.336	7709
687.382	7919
687.428	8402
687.453	8506
687.474	8446
687.520	8529
687.565	8683
687.574	8605
687.611	8495
687.657	9354
687.695	9266
687.702	9370
687.748	11190
687.794	12533
687.816	12457
687.839	11496
687.885	11107
687.931	9295
687.937	9248
687.976	9346
688.022	8470
688.058	8491
688.067	8611
688.113	8583
688.158	8641
688.179	8659
688.204	8607
688.249	8913
688.295	8357
688.300	8470
688.340	9367
688.386	9602
688.421	9184
688.431	9062
688.477	8783
688.522	9115
688.542	9181
688.567	9422
688.613	9993
688.658	9653
688.663	9696
688.703	9836
688.749	9350
688.784	9813
688.794	9959
688.839	9159
688.884	9520
688.905	9483
688.930	9478
688.975	9655
689.020	9577
689.026	9536
689.065	9408
689.110	9275
689.146	10088
689.155	10294
689.201	9745
689.246	10521
689.267	10253
689.291	9976
689.336	10332
689.381	9765
689.388	9794
689.426	9917
689.471	9883
689.509	10149
689.516	10219
689.561	9717
689.606	10107
689.630	9989
689.651	9855
689.696	9697
689.741	10058
689.750	10009
689.785	10134
689.830	10167
689.871	10404
689.875	10408
689.920	9713
689.965	10094
689.992	9807
690.010	9754
690.054	10038
690.099	9945
690.112	10057
690.144	10174
690.189	9918
690.233	9608
690.233	9622
690.278	9717
690.323	10184
690.354	10264
690.367	10343
690.412	10696
690.457	10932
690.474	11094
690.501	11156
690.546	10906
690.590	10990
690.595	10927
690.635	10859
690.680	11088
690.716	11475
690.724	11593
690.769	11979
690.813	12610
690.836	12747
690.857	13536
690.902	14615
690.946	16745
690.957	17320
690.991	21685
691.035	27504
691.077	32456
691.080	32421
691.124	29147
691.168	26278
691.198	24785
691.213	23443
691.257	18918
691.301	15231
691.318	13661
691.346	13355
691.390	12482
691.434	11939
691.439	11861
691.478	11833
691.522	11772
691.559	11686
691.567	11726
691.611	11780
691.655	11852
691.680	11675
691.699	11554
691.743	12353
691.787	12123
691.800	12220
691.831	12547
691.875	11954
691.919	12180
691.921	12159
691.964	12055
692.008	12030
692.041	11819
692.052	11800
692.096	12054
692.139	11715
692.162	11693
692.183	11691
692.227	11658
692.271	11430
692.282	11435
692.315	11731
692.359	11927
692.402	11945
692.403	11967
692.447	12000
692.490	12103
692.523	11710
692.534	11719
692.578	12205
692.622	12632
692.643	12666
692.666	12392
692.709	12344
692.753	12007
692.763	11883
692.797	11792
692.840	11497
692.884	11468
692.884	11497
692.928	12089
692.971	12423
693.004	12667
693.015	12661
693.059	12763
693.102	12851
693.124	12800
693.146	12816
693.189	12629
693.233	12694
693.245	12676
693.276	12937
693.320	13030
693.363	13660
693.365	13636
693.407	13850
693.450	14303
693.485	14422
693.493	14707
693.537	16278
693.580	17760
693.605	18686
693.624	20548
693.667	25138
693.710	29249
693.725	30863
693.753	38513
693.797	50751
693.840	62977
693.845	64047
693.883	57520
693.926	50628
693.966	45007
693.970	44206
694.013	34791
694.056	25265
694.086	18949
694.099	18597
694.142	17226
694.185	15857
694.206	15006
694.229	14758
694.272	14678
694.315	14483
694.326	14407
694.358	14167
694.401	13661
694.444	13303
694.446	13247
694.487	13210
694.530	13447
694.566	13173
694.573	13134
694.616	13112
694.659	12955
694.686	12825
694.702	12838
694.745	12877
694.787	12770
694.806	12690
694.830	12784
694.873	13119
694.916	13145
694.926	13187
694.959	13335
695.002	13306
695.044	13394
695.046	13368
695.087	13744
695.130	13724
695.166	13847
695.172	13894
695.215	14216
695.258	14086
695.286	14235
695.301	14369
695.343	14270
695.386	14648
695.406	14582
695.428	14496
695.471	14624
695.514	14558
695.526	14509
695.556	15069
695.599	15939
695.641	16543
695.646	16598
695.684	16116
695.726	15441
695.766	14517
695.769	14543
695.811	14879
695.854	14743
695.886	14753
695.896	14818
695.938	14978
695.981	15086
696.005	15083
696.023	15248
696.065	15651
696.108	16005
696.125	16112
696.150	16220
696.192	16304
696.235	16513
696.245	16492
696.277	16507
696.319	16508
696.361	16472
696.365	16430
696.404	16768
696.446	17016
696.485	17331
696.488	17365
696.530	17147
696.572	17014
696.604	16798
696.614	16750
696.656	16283
696.698	15932
696.724	15705
696.740	15942
696.783	16279
696.825	16799
696.844	16948
696.867	16914
696.909	16860
696.951	16636
696.964	16588
696.992	16755
697.034	16671
697.076	16744
697.083	16716
697.118	17117
697.160	17611
697.202	17909
697.203	17872
697.244	17611
697.286	17232
697.323	16965
697.327	17012
697.369	17013
697.411	16892
697.442	16777
697.453	16885
697.494	17158
697.536	17468
697.562	17599
697.578	17638
697.620	17614
697.661	17563
697.682	17508
697.703	17589
697.744	17633
697.786	17784
697.801	17752
697.828	17941
697.869	18130
697.911	18357
697.921	18374
697.952	18119
697.994	17706
698.035	17243
698.040	17154
698.077	17349
698.118	17358
698.160	17498
698.160	17453
698.201	17811
698.243	18187
698.279	18491
698.284	18582
698.325	18972
698.367	19297
698.399	19539
698.408	19579
698.449	19487
698.491	19453
698.518	19327
698.532	19387
698.573	19464
698.614	19503
698.638	19489
698.656	19579
698.697	19655
698.738	19728
698.757	19713
698.779	19752
698.820	19725
698.862	19681
698.877	19620
698.903	19806
698.944	20003
698.985	20204
698.996	20207
699.026	20047
699.067	19751
699.116	19347
699.235	19670
699.354	19073
699.474	19396
699.593	19577
699.713	19049
699.832	18556
699.951	19240
700.070	18696
700.190	17360
700.309	18380
700.428	17973
700.547	17501
700.667	17065
700.786	17866
700.905	17820
701.024	17184
701.143	16767
701.262	17564
701.381	17869
701.500	17915
701.619	17394
701.738	18074
701.857	16831
701.976	16446
702.095	16034
702.214	16969
702.333	16393
702.452	16958
702.571	17470
702.690	17835
702.809	15811
702.928	16058
703.047	16410
703.165	16229
703.284	16004
703.403	15093
703.522	16154
703.640	15971
703.759	16618
703.878	16950
703.997	15278
704.115	15754
704.234	14791
704.353	15483
704.471	14583
704.590	13720
704.708	15221
704.827	14814
704.946	14354
705.064	15236
705.183	14820
705.301	15788
705.420	18528
705.538	18088
705.656	16136
705.775	17842
705.893	24343
706.012	29721
706.130	16822
706.249	16865
706.367	16794
706.485	16062
706.604	16208
706.722	16488
706.840	18686
706.958	25097
707.077	19760
707.195	15771
707.313	15713
707.431	15017
707.549	14925
707.668	13899
707.786	14727
707.904	14378
708.022	14573
708.140	14516
708.258	14431
708.376	15098
708.494	14180
708.612	16427
708.730	18939
708.848	18316
708.966	16886
709.084	16644
709.202	16618
709.320	15054
709.438	16043
709.556	15941
709.674	15901
709.791	15911
709.909	15923
710.027	15527
710.145	15039
710.263	15844
710.380	15171
710.498	14949
710.616	15659
710.733	15305
710.851	14612
710.969	15395
711.086	14421
711.204	14254
711.322	14694
711.439	14882
711.557	14466
711.674	14289
711.792	14533
711.909	15554
712.027	16244
712.144	13257
712.262	13172
712.379	15454
712.497	18947
712.614	19856
712.732	16565
712.849	15933
712.966	16843
713.084	17006
713.201	16040
713.318	16938
713.436	16338
713.553	15648
713.670	16875
713.787	16944
713.905	16636
714.022	16471
714.139	16393
714.256	19163
714.373	22286
714.490	33810
714.608	79422
714.725	311212
714.842	314749
714.959	32816
715.076	19069
715.193	15982
715.310	16342
715.427	15686
715.544	13674
715.661	14295
715.778	15082
715.895	14851
716.011	14347
716.128	13850
716.245	13900
716.362	15290
716.479	14369
716.596	13164
716.713	14862
716.829	13511
716.946	13938
717.063	12245
717.180	13048
717.296	12666
717.413	13778
717.530	12342
717.646	11652
717.763	12925
717.880	12441
717.996	11419
718.113	11719
718.229	11771
718.346	11349
718.462	10941
718.579	12927
718.695	13778
718.812	13190
718.928	13505
719.045	11316
719.161	11800
719.277	11309
719.394	11986
719.510	12713
719.626	12119
719.743	15202
719.859	17892
719.975	29132
720.092	102362
720.208	231179
720.324	31989
720.440	13800
720.557	12217
720.673	13455
720.789	16700
720.905	24839
721.021	13916
721.137	11067
721.253	10789
721.369	11480
721.486	11378
721.602	12805
721.718	10262
721.834	9535
721.950	10764
722.066	9886
722.181	9616
722.297	10157
722.413	10259
722.529	10396
722.645	9724
722.761	9056
722.877	9675
722.993	10101
723.108	11070
723.224	10719
723.340	10180
723.456	9785
723.571	10289
723.687	8730
723.803	9390
723.918	8915
724.034	8909
724.150	8993
724.265	9032
724.381	12500
724.497	13917
724.612	8739
724.728	8699
724.843	8224
724.959	9263
725.074	12745
725.190	12277
725.305	8560
725.421	8391
725.536	9188
725.651	8588
725.767	7583
725.882	8139
725.997	8464
726.113	8060
726.228	7795
726.343	7967
726.459	7841
726.574	8199
726.689	8232
726.804	7537
726.920	7832
727.035	9196
727.150	7974
727.265	7597
727.380	7936
727.495	8270
727.610	8345
727.725	8337
727.841	8402
727.956	13274
728.071	11860
728.186	7524
728.301	7945
728.416	8375
728.531	7199
728.645	7881
728.760	7681
728.875	7771
728.990	8156
729.105	8218
729.220	7030
729.335	7712
729.449	7874
729.564	6508
729.679	6820
729.794	7749
729.908	7785
730.023	7742
730.138	7705
730.253	7179
730.367	6773
730.482	7771
730.596	7316
730.711	8410
730.826	9856
730.940	10649
731.055	8292
731.169	7918
731.284	8099
731.398	6876
731.513	7486
731.627	8071
731.742	10138
731.856	10300
731.970	9969
732.085	11442
732.199	13781
732.313	20513
732.428	48206
732.542	141486
732.656	81741
732.771	17740
732.885	11680
732.999	11642
733.113	12518
733.227	12227
733.342	11064
733.456	10985
733.570	10327
733.684	9776
733.798	9853
733.912	10610
734.026	9823
734.140	10430
734.254	10847
734.368	11444
734.482	12387
734.596	9692
734.710	9404
734.824	9772
734.938	9183
735.052	9615
735.166	9681
735.280	9606
735.393	8691
735.507	9657
735.621	9945
735.735	11033
735.849	9153
735.962	8905
736.076	9331
736.190	9582
736.303	10119
736.417	10431
736.531	8914
736.644	8489
736.758	8562
736.872	8243
736.985	7422
737.099	8451
737.212	8193
737.326	8483
737.439	8734
737.553	8469
737.666	8552
737.780	8007
737.893	8353
738.007	7922
738.120	9074
738.233	7764
738.347	8045
738.460	7714
738.573	8319
738.687	7739
738.800	7353
738.913	8000
739.026	8465
739.140	7944
739.253	8524
739.366	7807
739.479	6910
739.592	6835
739.705	7241
739.818	8455
739.932	6614
740.045	7684
740.158	8184
740.271	7719
740.384	6833
740.497	7684
740.610	7174
740.723	6921
740.836	7138
740.949	7632
741.062	7990
741.174	7722
741.287	7014
741.400	7455
741.513	7609
741.626	7557
741.739	7589
741.851	6120
741.964	7005
742.077	6997
742.189	6597
742.302	7427
742.415	5912
742.527	6993
742.640	5906
742.753	6657
742.865	6874
742.978	6750
743.090	6552
743.203	6966
743.316	6703
743.428	6438
743.541	7070
743.653	6310
743.766	6085
743.878	7277
743.990	6820
744.103	7197
744.215	6445
744.327	6211
744.440	7367
744.552	7388
744.664	6630
744.777	6928
744.889	5100
745.001	7078
745.113	6418
745.226	6311
745.338	5758
745.450	6778
745.562	5716
745.674	6746
745.786	5968
745.898	5846
746.010	6637
746.122	6677
746.234	6626
746.347	6619
746.459	7159
746.570	5110
746.682	5159
746.794	6103
746.906	5685
747.018	6199
747.130	5626
747.242	5783
747.354	5859
747.466	6444
747.577	5409
747.689	6547
747.801	5677
747.913	5512
748.024	5806
748.136	5150
748.248	4949
748.359	4966
748.471	5708
748.583	5635
748.694	5335
748.806	7048
748.918	5617
749.029	5594
749.141	5311
749.252	5976
749.364	5314
749.475	7050
749.587	5760
749.698	5688
749.809	5755
749.921	5826
750.032	5557
750.144	4720
750.255	5706
750.366	5711
750.478	5414
750.589	5065
750.700	4702
750.811	5434
750.923	5647
751.034	5720
751.145	6984
751.256	5694
751.367	5383
751.479	5033
751.590	5142
751.701	5681
751.812	5223
751.923	5597
752.034	5017
752.145	5768
752.256	5606
752.367	5274
752.478	4950
752.589	5603
752.700	4841
752.811	5104
752.922	4967
753.032	4949
753.143	5382
753.254	5108
753.365	5641
753.476	5674
753.586	4823
753.697	4863
753.808	5356
753.919	4141
754.029	5665
754.140	5168
754.251	4815
754.361	4633
754.472	5281
754.582	5031
754.693	5118
754.804	6041
754.914	4683
755.025	4511
755.135	4612
755.246	4650
755.356	4033
755.466	5398
755.577	4349
755.687	5403
755.798	4887
755.908	5232
756.018	4896
756.129	5406
756.239	5557
756.349	5102
756.460	4485
756.570	5018
756.680	4545
756.790	4966
756.900	5484
757.011	5318
757.121	5066
757.231	3968
757.341	5051
757.451	4421
757.561	4878
757.671	5409
757.781	4275
757.891	5780
758.001	5588
758.111	4986
758.221	5482
758.331	6071
758.441	5504
758.551	5525
758.661	5148
758.771	5322
758.880	5180
758.990	5793
759.100	5494
759.210	5481
759.320	5145
759.429	5559
759.539	5989
759.649	5822
759.758	5972
759.868	6197
759.978	6605
760.087	6750
760.197	6941
760.307	7042
760.416	5828
760.526	6933
760.635	6993
760.745	6387
760.854	7363
760.964	6717
761.073	7210
761.182	7284
761.292	6826
761.401	6187
761.511	5963
761.620	6849
761.729	6785
761.839	6813
761.948	7635
762.057	6727
762.166	7640
762.276	5798
762.385	7550
762.494	6940
762.603	7345
762.712	7709
762.822	7297
762.931	8556
763.040	7782
763.149	7389
763.258	7663
763.367	8660
763.476	8722
763.585	8667
763.694	9020
763.803	10093
763.912	10792
764.021	11167
764.130	10305
764.238	12190
764.347	12339
764.456	12722
764.565	13804
764.674	14731
764.783	15192
764.891	16692
765.000	19792
765.109	20589
765.217	22894
765.326	28713
765.435	32910
765.543	39360
765.652	49494
765.761	65754
765.869	90940
765.978	137592
766.086	217773
766.195	376897
766.303	643604
766.412	694211
766.520	649827
766.629	516904
766.737	293739
766.846	177601
766.954	118521
767.062	87430
767.171	67059
767.279	52708
767.387	42106
767.496	35965
767.604	31145
767.712	28079
767.820	24000
767.928	22628
768.037	21364
768.145	21164
768.253	20369
768.361	18344
768.469	18950
768.577	18551
768.685	20745
768.793	20428
768.901	22831
769.009	26014
769.117	30603
769.225	40004
769.333	56288
769.441	89537
769.549	155263
769.657	313497
769.765	591515
769.873	604464
769.981	470088
770.088	230437
770.196	122962
770.304	79341
770.412	55746
770.519	42908
770.627	34250
770.735	27948
770.842	23647
770.950	20928
771.058	17932
771.165	18416
771.273	15991
771.380	15647
771.488	14728
771.595	14521
771.703	12883
771.810	12904
771.918	11854
772.025	12881
772.133	12367
772.240	11705
772.348	12704
772.455	11352
772.562	10787
772.670	10127
772.777	9980
772.884	10602
772.991	9866
773.099	10350
773.206	8218
773.313	9528
773.420	9197
773.528	8711
773.635	8308
773.742	8859
773.849	8913
773.956	9564
774.063	7649
774.170	8336
774.277	8786
774.384	7894
774.491	7914
774.598	8709
774.705	7756
774.812	7639
774.919	8041
775.026	8059
775.133	7861
775.239	7919
775.346	7296
775.453	7094
775.560	7009
775.667	7266
775.773	6306
775.880	8281
775.987	6779
776.093	6370
776.200	6243
776.307	5848
776.413	6951
776.520	6869
776.627	7293
776.733	6011
776.840	4289
776.946	7673
777.053	6173
777.159	6049
777.266	4501
777.372	6517
777.478	6313
777.585	5848
777.691	5836
777.798	5991
777.904	7097
778.010	6288
778.117	6579
778.223	6070
778.329	6024
778.435	5744
778.542	6037
778.648	5729
778.754	4360
778.860	5510
778.966	5810
779.072	5788
779.178	5931
779.284	5644
779.391	5135
779.497	5636
779.603	9431
779.708	8970
779.815	21801
779.920	73729
780.026	106896
780.132	16106
780.238	6162
780.344	6244
780.450	6429
780.556	4835
780.661	4529
780.767	5315
780.873	4428
780.979	5175
781.085	4571
781.190	5417
781.296	4516
781.402	4922
781.507	4864
781.613	4340
781.719	4418
781.824	4741
781.930	5310
782.035	4469
782.141	4918
782.246	3318
782.352	3957
782.457	4447
782.563	4748
782.668	4548
782.773	3906
782.879	3601
782.984	4840
783.090	5414
783.195	5304
783.300	4834
783.405	4175
783.511	3969
783.616	4208
783.721	4111
783.826	4262
783.932	4128
784.037	4283
784.142	4065
784.247	3805
784.352	4033
784.457	3526
784.562	3530
784.667	4165
784.772	3997
784.877	2541
784.982	3857
785.087	3178
785.192	4265
785.297	4007
785.402	3948
785.507	3708
785.611	4230
785.716	3306
785.821	4317
785.926	3471
786.031	3010
786.135	3308
786.240	3028
786.345	2669
786.450	3457
786.554	3114
786.659	3092
786.763	1960
786.868	3179
786.973	4309
787.077	3489
787.182	2862
787.286	3614
787.391	3974
787.495	3166
787.600	3251
787.704	3516
787.809	3734
787.913	3309
788.017	3637
788.122	3931
788.226	3318
788.330	2146
788.435	3278
788.539	3499
788.643	3534
788.747	1905
788.852	2485
788.956	3287
789.060	4022
789.164	3705
789.268	2834
789.372	3907
789.476	3598
789.580	2247
789.684	2002
789.788	3228
789.892	2780
789.996	3072
790.100	2707
790.204	3370
790.308	3294
790.412	2691
790.516	2836
790.620	2467
790.724	2784
790.828	2361
790.931	1087
791.035	4315
791.139	2811
791.242	2165
791.346	3096
791.450	3138
791.554	2366
791.657	1477
791.761	4026
791.864	2803
791.968	2990
792.072	2954
792.175	2000
792.279	2564
792.382	1944
792.486	2882
792.589	2507
792.693	2168
792.796	2179
792.899	3065
793.003	3152
793.106	1649
793.209	2531
793.313	3315
793.416	1705
793.519	2862
793.623	3866
793.726	3177
793.829	2434
793.932	2435
794.035	1181
794.138	4145
794.242	4156
794.345	2864
794.448	5222
794.551	10456
794.654	39395
794.757	60558
794.860	9740
794.963	4250
795.066	2396
795.169	3220
795.272	2095
795.375	3284
795.477	1979
795.580	3119
795.683	1337
795.786	3381
795.889	1350
795.991	3620
796.094	3527
796.197	1303
796.300	3677
796.402	1557
796.505	2560
796.608	2205
796.710	2510
796.813	2220
796.915	2294
797.018	2536
797.120	2689
797.223	741
797.326	2859
797.428	1644
797.530	1662
797.633	1872
797.735	3284
797.838	2540
797.940	2754
798.042	1016
798.145	1782
798.247	2685
798.349	851
798.452	2901
798.554	2774
798.656	1506
798.758	2622
798.860	2074
798.962	1826
799.065	1814
799.167	586
799.269	2806
799.371	3120
799.473	2783
799.575	2610
799.677	1875
799.779	3926
799.881	863
799.983	3035
800.085	2142
800.187	2565
800.289	1206
800.390	1823
800.492	2161
800.594	2804
800.696	1245
800.798	2228
800.899	1019
801.001	1554
801.103	2310
801.205	1415
801.306	1906
801.408	1203
801.509	2336
801.611	2005
801.713	1965
801.814	693
801.916	1429
802.017	2276
802.119	1389
802.220	2637
802.322	-72
802.423	3037
802.525	947
802.626	2350
802.727	2538
802.829	2153
802.930	156
803.031	2736
803.133	1903
803.234	990
803.335	2118
803.436	601
803.538	798
803.639	1366
803.740	1823
803.841	1198
803.942	2522
804.043	1632
804.144	1442
804.245	1256
804.346	934
804.447	535
804.548	1594
804.649	2527
804.750	1368
804.851	1275
804.952	1615
805.053	2015
805.154	748
805.255	2065
805.355	1412
805.456	1199
805.557	1426
805.658	1227
805.758	2456
805.859	695
805.960	1976
806.061	1009
806.161	710
806.262	1714
806.362	1004
806.463	753
806.564	2298
806.664	1690
806.765	732
806.865	1210
806.966	1061
807.066	900
807.166	2074
807.267	1962
807.367	1285
807.468	1611
807.568	67
807.668	2772
807.769	2305
807.869	1558
807.969	1651
808.069	822
808.170	2371
808.270	2588
808.370	1743
808.470	1925
808.570	659
808.670	912
808.770	1984
808.870	115
808.970	1973
809.070	261
809.170	1401
809.271	1737
809.370	1228
809.470	1188
809.570	977
809.670	1314
809.770	1759
809.870	2242
809.970	966
810.070	1888
810.169	549
810.269	-592
810.369	829
810.469	1170
810.568	925
810.668	1637
810.768	765
810.867	1470
810.967	891
811.066	1669
811.166	1585
811.265	1916
811.365	782
811.464	1117
811.564	1159
811.663	1542
811.763	-344
811.862	1611
811.962	2351
812.061	906
812.160	414
812.260	848
812.359	1361
812.458	1045
812.557	3595
812.657	3204
812.756	1539
812.855	951
812.954	849
813.053	1288
813.153	1542
813.252	771
813.351	2129
813.450	2132
813.549	613
813.648	1587
813.747	1533
813.846	1593
813.945	511
814.044	1785
814.143	949
814.242	1965
814.341	583
814.439	1928
814.538	2425
814.637	1264
814.736	1037
814.835	1876
814.933	606
815.032	2431
815.131	2033
815.229	3712
815.328	4173
815.427	2885
815.525	3655
815.624	3561
815.722	2906
815.821	3491
815.919	2931
816.018	3533
816.116	3804
816.215	2703
816.313	4126
816.412	3649
816.510	4134
816.609	5884
816.707	4272
816.805	4126
816.904	3993
817.002	5140
817.100	5632
817.198	5529
817.296	5245
817.395	5043
817.493	7054
817.591	5707
817.689	8259
817.787	9075
817.885	15711
817.983	24945
818.081	50088
818.179	113700
818.277	252483
818.375	205833
818.473	67807
818.571	29298
818.669	19793
818.767	17665
818.865	17267
818.963	18239
819.061	28877
819.158	45801
819.256	93282
819.354	196555
819.452	337969
819.549	227596
819.647	90085
819.745	40019
819.842	25028
819.940	17798
820.038	12456
820.135	10667
820.233	10217
820.330	7546
820.428	6840
820.525	7592
820.623	5857
820.720	4180
820.818	4766
820.915	4987
821.012	4123
821.110	2973
821.207	3972
821.304	3529
821.402	3953
821.499	3799
821.596	4282
821.693	3213
821.791	3622
821.888	3149
821.985	4086
822.082	1844
822.179	3397
822.276	2952
822.373	2927
822.470	2591
822.567	2679
822.664	1998
822.761	3341
822.858	2327
822.955	2570
823.052	2985
823.149	2723
823.246	2034
823.343	2255
823.440	3179
823.536	3314
823.633	1752
823.730	2257
823.827	2825
823.923	1703
824.020	2678
824.117	2127
824.213	2667
824.310	2652
824.407	1977
824.503	2333
824.600	1655
824.696	1761
824.793	3298
824.889	1524
824.986	1579
825.082	1762
825.179	1841
825.275	2864
825.371	2467
825.468	2314
825.564	1013
825.660	3204
825.757	2212
825.853	2156
825.949	1514
826.045	1929
826.142	1908
826.238	2452
826.334	2505
826.430	882
826.526	1691
826.622	214
826.718	2010
826.814	1560
826.910	2476
827.006	1137
827.102	887
827.198	1926
827.294	1986
827.390	1955
827.486	1726
827.582	1485
827.678	1030
827.774	2489
827.869	331
827.965	2719
828.061	451
828.157	2029
828.252	2371
828.348	850
828.444	2095
828.539	896
828.635	1508
828.731	2469
828.826	1113
828.922	2259
829.017	1603
829.113	2345
829.208	968
829.304	728
829.399	2530
829.495	646
829.590	1367
829.685	903
829.781	1508
829.876	1697
829.971	829
830.066	1547
830.162	1553
830.257	1270
830.352	1175
830.447	2333
830.543	1505
830.638	461
830.733	2775
830.828	1494
830.923	1944
831.018	957
831.113	1299
831.208	232
831.303	1476
831.398	993
831.493	1046
831.588	1954
831.683	218
831.778	905
831.873	1403
831.967	2092
832.062	651
832.157	-151
832.252	1347
832.346	1345
832.441	2303
832.536	1622
832.631	2606
832.725	2298
832.820	801
832.914	2063
833.009	1474
833.104	460
833.198	844
833.293	656
833.387	1946
833.482	990
833.576	985
833.670	2174
833.765	1234
833.859	861
833.954	1720
834.048	928
834.142	1311
834.237	496
834.331	1416
834.425	1214
834.519	507
834.613	1157
834.708	1028
834.802	1161
834.896	658
834.990	915
835.084	1001
835.178	785
835.272	384
835.366	410
835.460	1053
835.554	796
835.648	608
835.742	360
835.836	985
835.930	-198
836.024	1651
836.117	782
836.211	741
836.305	426
836.399	2075
836.493	-569
836.586	1858
836.680	1353
836.774	1019
836.867	1228
836.961	732
837.055	-281
837.148	297
837.242	827
837.335	-48
837.429	873
837.522	327
837.616	900
837.709	1797
837.803	37
837.896	1542
837.989	54
838.083	1940
838.176	1713
838.269	554
838.363	1027
838.456	304
838.549	1270
838.642	1149
838.735	2032
838.829	1665
838.922	468
839.015	936
839.108	304
839.201	474
839.294	637
839.387	652
839.480	192
839.573	949
839.666	962
839.759	1075
839.852	682
839.945	1827
840.038	131
840.131	-32
840.223	41
840.316	1781
840.409	161
840.502	900
840.594	1586
840.687	69
840.780	404
840.873	226
840.965	543
841.058	815
841.150	1435
841.243	377
841.336	695
841.428	179
841.521	-188
841.613	129
841.706	622
841.798	468
841.890	865
841.983	-258
842.075	1226
842.167	577
842.260	434
842.352	1125
842.444	527
842.537	1292
842.629	2207
842.721	879
842.813	382
842.905	-437
842.997	616
843.090	282
843.182	793
843.274	903
843.366	3564
843.458	6533
843.550	4277
843.642	327
843.734	801
843.826	-319
843.918	334
844.009	337
844.101	-254
844.193	197
844.285	172
844.377	232
844.469	1550
844.560	-217
844.652	-664
844.744	799
844.835	786
844.927	-447
845.019	219
845.110	201
845.202	406
845.293	582
845.385	12
845.476	841
845.568	1144
845.659	-520
845.751	182
845.842	-671
845.934	-349
846.025	697
846.116	659
846.208	-414
846.299	113
846.390	287
846.482	85
846.573	894
846.664	906
846.755	246
846.846	1383
846.937	58
847.029	328
847.120	-764
847.211	21
847.302	1208
847.393	85
847.484	1144
847.575	322
847.666	7
847.757	81
847.847	100
847.938	1289
848.029	318
848.120	504
848.211	60
848.302	-34
848.392	151
848.483	865
848.574	-534
848.664	-95
848.755	-110
848.846	433
848.936	573
849.027	156
849.118	706
849.208	417
849.299	-269
849.389	1427
849.480	2252
849.570	5520
849.661	10259
849.751	18581
849.841	5781
849.932	1160
850.022	-104
850.112	320
850.203	-214
850.293	624
850.383	0
850.474	-191
850.564	181
850.654	14
850.744	-66
850.834	529
850.924	675
851.014	924
851.104	518
851.194	-426
851.284	230
851.374	355
851.464	174
851.554	639
851.644	799
851.734	1551
851.824	1704
851.914	1699
852.004	3588
852.094	2849
852.183	-237
852.273	584
852.363	243
852.452	-105
852.542	2
852.632	-192
852.721	700
852.811	354
852.901	1028
852.990	774
853.080	314
853.169	717
853.259	97
853.348	641
853.438	435
853.527	1521
853.617	1859
853.706	3585
853.795	6874
853.885	14884
853.974	29074
854.063	54555
854.152	85965
854.242	30656
854.331	4545
854.420	1790
854.509	1443
854.598	1771
854.687	1096
854.777	1298
854.866	-51
854.955	748
855.044	27
855.133	307
855.222	548
855.311	69
855.400	503
855.488	-948
855.577	295
855.666	84
855.755	946
855.844	1383
855.933	88
856.021	1063
856.110	882
856.199	30
856.288	-583
856.376	491
856.465	-648
856.554	-294
856.642	367
856.731	439
856.819	529
856.908	-76
856.996	14
857.085	-120
857.173	-77
857.262	308
857.350	1033
857.438	-314
857.527	237
857.615	-607
857.703	859
857.792	-1156
857.880	-81
857.968	-899
858.056	478
858.145	-252
858.233	-587
858.321	-757
858.409	243
858.497	-327
858.585	185
858.673	327
858.761	-366
858.849	-153
858.937	-314
859.025	89
859.113	472
859.201	-586
859.289	104
859.377	155
859.465	964
859.552	-186
859.640	-258
859.728	145
859.816	-341
859.903	708
859.991	75
860.079	-49
860.166	-193
860.254	-729
860.342	140
860.429	-648
860.517	-1017
860.604	942
860.692	-452
860.779	112
860.867	-1010
860.954	-265
861.042	522
861.129	1556
861.216	-440
861.304	1003
861.391	-323
861.478	-12
861.565	364
861.653	935
861.740	-918
861.827	-332
861.914	135
862.001	242
862.089	76
862.176	-428
862.263	-348
862.350	-111
862.437	-543
862.524	-378
862.611	-827
862.698	685
862.785	711
862.871	39
862.958	83
863.045	398
863.132	-126
863.219	607
863.306	-900
863.392	548
863.479	242
863.566	-228
863.652	503
863.739	64
863.826	593
863.912	-366
863.999	-337
864.086	-511
864.172	149
864.259	555
864.345	-292
864.432	118
864.518	361
864.604	1004
864.691	-560
864.777	364
864.863	1069
864.950	1075
865.036	1124
865.122	2768
865.209	3097
865.295	1962
865.381	2124
865.467	3052
865.553	2968
865.639	2848
865.726	4722
865.812	9715
865.898	16422
865.984	24384
866.070	45284
866.156	48544
866.242	13296
866.328	4207
866.414	2699
866.499	2838
866.585	1993
866.671	2463
866.757	2410
866.843	2759
866.928	1979
867.014	2493
867.100	2127
867.186	2264
867.271	1843
867.357	2447
867.442	2171
867.528	1368
867.614	1609
867.699	2045
867.785	1293
867.870	1794
867.956	1958
868.041	1098
868.127	2949
868.212	1369
868.297	1750
868.383	2126
868.468	1897
868.553	2322
868.639	2723
868.724	2874
868.809	3325
868.894	1581
868.979	1483
869.065	2017
869.150	1517
869.235	1770
869.320	662
869.405	1741
869.490	2031
869.575	1138
869.660	1152
869.745	2531
869.830	904
869.915	1113
870.000	1126
870.085	541
870.169	1219
870.254	1745
870.339	175
870.424	-80
870.509	2478
870.593	2241
870.678	352
870.763	1524
870.847	694
870.932	756
871.016	1175
871.101	989
871.186	1236
871.270	1756
871.355	1166
871.439	762
871.523	2236
871.608	440
871.692	921
871.777	2127
871.861	1256
871.945	739
872.030	2085
872.114	445
872.198	1075
872.282	933
872.367	1146
872.451	826
872.535	1327
872.619	1204
872.703	1262
872.787	258
872.871	936
872.955	127
873.039	117
873.123	697
873.207	1530
873.291	-128
873.375	283
873.459	1560
873.543	766
873.627	249
873.711	549
873.794	630
873.878	1171
873.962	171
874.045	331
874.129	1204
874.137	1151
874.213	619
874.245	379
874.296	-10
874.352	199
874.380	298
874.460	269
874.464	268
874.547	666
874.568	771
874.631	1063
874.676	708
874.714	428
874.784	1067
874.798	1189
874.881	1969
874.892	1736
874.965	149
874.999	148
875.048	107
875.107	250
875.131	321
875.215	797
875.215	796
875.298	7
875.323	170
875.381	631
875.430	947
875.465	1153
875.538	636
875.548	561
875.631	389
875.646	312
875.714	-2
875.753	-266
875.798	-604
875.861	218
875.881	496
875.964	724
875.968	723
876.047	587
876.076	512
876.130	447
876.183	366
876.213	313
876.291	1121
876.296	1173
876.379	247
876.398	345
876.462	673
876.506	591
876.545	524
876.613	794
876.628	841
876.711	630
876.721	580
876.794	363
876.828	337
876.877	221
876.935	338
876.960	405
877.043	539
877.043	540
877.125	656
877.150	573
877.208	401
877.258	361
877.291	484
877.365	735
877.374	714
877.456	135
877.472	190
877.539	494
877.579	235
877.622	26
877.687	865
877.704	1090
877.787	547
877.794	525
877.869	274
877.901	259
877.952	262
878.008	19
878.034	-105
878.115	252
878.117	260
878.199	6
878.222	147
878.282	525
878.329	988
878.364	1258
878.437	520
878.447	417
878.529	-94
878.544	-114
878.611	103
878.651	379
878.694	566
878.758	594
878.776	562
878.858	449
878.865	420
878.941	248
878.972	20
879.023	-308
879.078	461
879.105	755
879.185	634
879.187	635
879.269	70
879.292	210
879.351	476
879.399	243
879.433	207
879.506	1029
879.516	1078
879.598	379
879.613	305
879.680	358
879.720	603
879.762	722
879.827	84
879.844	-55
879.926	192
879.933	203
880.007	334
880.040	377
880.089	433
880.147	364
880.171	333
880.253	820
880.254	818
880.335	194
880.360	226
880.417	998
880.467	1578
880.499	1906
880.574	2670
880.580	2637
880.662	1205
880.680	858
880.744	-39
880.787	-20
880.825	157
880.893	118
880.907	126
880.989	-270
881.000	-187
881.070	372
881.106	357
881.152	231
881.213	299
881.233	353
881.315	341
881.319	352
881.396	510
881.426	515
881.478	386
881.532	97
881.559	104
881.639	16
881.641	11
881.722	483
881.745	348
881.803	27
881.852	167
881.885	250
881.958	15
881.966	-13
882.047	249
882.064	231
882.129	252
882.171	187
882.210	61
882.277	-71
882.291	-36
882.372	510
882.383	455
882.454	-61
882.489	304
882.535	527
882.596	-135
882.616	-199
882.697	303
882.702	330
882.778	850
882.808	886
882.859	371
882.914	62
882.940	81
883.020	-132
883.021	-129
883.102	684
883.127	795
883.183	240
883.233	-306
883.264	-292
883.339	250
883.345	247
883.426	-422
883.445	-421
883.507	136
883.551	325
883.587	219
883.657	43
883.668	112
883.749	651
883.763	707
883.830	293
883.869	142
883.910	148
883.975	-65
883.991	-118
884.072	184
884.081	179
884.152	121
884.187	122
884.233	216
884.292	160
884.314	90
884.394	-189
884.398	-191
884.475	-83
884.504	-36
884.555	-7
884.610	-246
884.636	-295
884.716	24
884.716	27
884.797	67
884.821	51
884.877	161
884.927	287
884.958	202
885.033	-95
885.038	-93
885.118	-104
885.139	-89
885.199	-187
885.244	-153
885.279	32
885.350	156
885.359	192
885.439	848
885.456	924
885.520	596
885.561	298
885.600	135
885.667	46
885.680	60
885.760	49
885.773	46
885.840	243
885.878	383
885.920	202
885.984	-90
886.000	-47
886.080	156
886.089	176
886.160	244
886.195	294
886.240	326
886.300	266
886.320	239
886.400	317
886.406	307
886.480	558
886.511	772
886.560	558
886.616	-9
886.640	-65
886.720	111
886.722	110
886.800	154
886.827	252
886.879	363
886.932	315
886.959	310
887.038	394
887.039	390
887.119	-84
887.143	-233
887.198	-101
887.248	97
887.278	192
887.354	337
887.358	329
887.437	-9
887.459	-6
887.517	548
887.564	875
887.596	648
887.669	168
887.676	169
887.755	103
887.774	89
887.835	22
887.880	82
887.914	276
887.985	461
887.994	455
888.073	590
888.090	569
888.153	534
888.195	537
888.232	414
888.300	271
888.311	201
888.391	-357
888.405	-463
888.470	-74
888.510	178
888.549	-77
888.615	-479
888.628	-471
888.708	-440
888.720	-427
888.787	185
888.825	508
888.866	608
888.930	799
888.945	770
889.024	590
889.035	568
889.103	806
889.140	898
889.182	868
889.245	879
889.261	776
889.340	277
889.349	214
889.419	86
889.454	45
889.498	315
889.559	685
889.577	610
889.656	291
889.664	263
889.735	256
889.768	258
889.814	220
889.873	176
889.978	-671
890.083	483
890.187	56
890.292	359
890.397	920
890.501	26
890.606	456
890.710	79
890.815	51
890.919	166
891.024	-140
891.128	-347
891.233	320
891.337	97
891.442	-383
891.546	21
891.650	-342
891.755	590
891.859	1445
891.963	202
892.068	411
892.172	42
892.276	-138
892.380	91
892.484	367
892.589	274
892.693	696
892.797	144
892.901	314
893.005	221
893.109	104
893.213	1134
893.317	-132
893.421	-30
893.525	-245
893.629	107
893.733	507
893.837	-71
893.941	480
894.045	365
894.148	143
894.252	1550
894.356	144
894.460	491
894.564	-397
894.667	-258
894.771	78
894.875	382
894.978	-378
895.082	-173
895.186	-57
895.289	711
895.393	527
895.496	546
895.600	-94
895.703	-66
895.807	-238
895.910	373
896.014	594
896.117	-770
896.221	-344
896.324	-368
896.427	-3
896.531	-614
896.634	-266
896.737	138
896.840	398
896.944	-76
897.047	836
897.150	35
897.253	-9
897.356	241
897.460	842
897.563	55
897.666	-155
897.769	455
897.872	322
897.975	-265
898.078	197
898.181	415
898.284	-37
898.387	502
898.490	-552
898.593	286
898.695	-314
898.798	-30
898.901	-249
899.004	-395
899.107	-59
899.209	208
899.312	659
899.415	355
899.518	226
899.620	947
899.723	222
899.826	728
899.928	425
900.031	-533
900.133	-534
900.236	-516
900.338	75
900.441	-441
900.543	133
900.646	541
900.748	-174
900.851	133
900.953	-283
901.055	-632
901.158	-364
901.260	-77
901.362	-384
901.465	-449
901.567	-1153
901.669	518
901.771	411
901.873	592
901.976	-270
902.078	-100
902.180	-569
902.282	503
902.384	-517
902.486	405
902.588	-211
902.690	155
902.792	-504
902.894	302
902.996	-234
903.098	-108
903.200	-325
903.302	640
903.404	396
903.505	-430
903.607	-355
903.709	69
903.811	95
903.913	-912
904.014	-391
904.116	163
904.218	-461
904.319	-443
904.421	324
904.523	89
904.624	-490
904.726	298
904.827	-247
904.929	-850
905.030	-486
905.132	-337
905.233	44
905.335	-538
905.436	570
905.537	-24
905.639	113
905.740	591
905.841	-544
905.943	-405
906.044	-112
906.145	-129
906.247	-837
906.348	-486
906.449	432
906.550	-322
906.651	-528
906.752	-116
906.854	-1118
906.955	-384
907.056	-425
907.157	-488
907.258	-859
907.359	-42
907.460	-781
907.561	-364
907.662	-68
907.762	-324
907.863	-410
907.964	-189
908.065	-193
908.166	-388
908.267	-4
908.367	-13
908.468	143
908.569	658
908.670	86
908.770	-5
908.871	-521
908.971	-634
909.072	-129
909.173	-734
909.273	-780
909.374	54
909.474	48
909.575	-289
909.675	-52
909.776	-525
909.876	-1201
909.977	113
910.077	579
910.177	-557
910.278	-654
910.378	-432
910.478	-748
910.579	-536
910.679	-320
910.779	-124
910.879	146
910.980	488
911.080	-866
911.180	-808
911.280	-533
911.380	-385
911.480	-119
911.580	-93
911.680	-1031
911.780	-555
911.880	-451
911.980	-803
912.080	-779
912.180	115
912.280	57
912.380	130
912.480	-560
912.580	-31
912.679	-488
912.779	-244
912.879	-531
912.979	100
913.078	-237
913.178	-814
913.278	-437
913.377	-508
913.477	-366
913.577	-587
913.676	208
913.776	-422
913.875	-11
913.975	-22
914.074	-489
914.174	356
914.273	-751
914.373	-354
914.472	-659
914.572	-997
914.671	112
914.770	-742
914.870	-1159
914.969	-932
915.068	-635
915.167	-180
915.267	64
915.366	-499
915.465	350
915.564	13
915.663	-613
915.763	-82
915.862	-565
915.961	-356
916.060	263
916.159	248
916.258	-826
916.357	137
916.456	-190
916.555	-1047
916.654	182
916.752	-522
916.851	-535
916.950	125
917.049	-39
917.148	120
917.247	306
917.345	203
917.444	-843
917.543	-406
917.642	-835
917.740	145
917.839	299
917.937	-180
918.036	-161
918.135	-59
918.233	-1236
918.332	-479
918.430	-717
918.529	-166
918.627	-409
918.726	-517
918.824	-286
918.923	54
919.021	-139
919.119	-1279
919.218	-706
919.316	-547
919.414	704
919.512	2
919.611	-448
919.709	58
919.807	-73
919.905	-458
920.003	-564
920.102	291
920.200	-331
920.298	-18
920.396	195
920.494	330
920.592	-649
920.690	70
920.788	-217
920.886	218
920.984	-133
921.082	-231
921.180	763
921.277	365
921.375	207
921.473	676
921.571	-400
921.669	-578
921.766	-42
921.864	630
921.962	-140
922.060	-732
922.157	-369
922.255	28
922.352	-174
922.450	370
922.548	-55
922.645	-235
922.743	-338
922.840	1241
922.938	1030
923.035	945
923.133	1028
923.230	1662
923.327	1784
923.425	1308
923.522	1313
923.619	1565
923.717	1214
923.814	873
923.911	927
924.008	1906
924.106	1029
924.203	1140
924.300	392
924.397	660
924.494	1099
924.591	1649
924.688	1212
924.786	1713
924.883	1049
924.979	1070
925.077	690
925.173	1927
925.270	486
925.367	1178
925.464	1592
925.561	2130
925.658	1566
925.755	1005
925.852	1207
925.948	1418
926.045	1469
926.142	864
926.239	1241
926.335	335
926.432	1163
926.529	967
926.625	724
926.722	957
926.818	1317
926.915	1280
927.011	857
927.108	878
927.204	466
927.301	10
927.397	381
927.494	1386
927.590	674
927.687	1082
927.783	361
927.879	1639
927.976	208
928.072	1190
928.168	1307
928.264	1027
928.361	1080
928.457	230
928.553	364
928.649	1134
928.745	614
928.841	636
928.937	-47
929.033	858
929.129	1097
929.225	835
929.321	327
929.417	523
929.513	740
929.609	660
929.705	535
929.801	1115
929.897	114
929.993	953
930.089	347
930.184	185
930.280	547
930.376	695
930.471	67
930.567	801
930.663	1074
930.758	-18
930.854	91
930.950	188
931.045	-708
931.141	552
931.236	1006
931.332	862
931.427	16
931.523	226
931.618	846
931.714	137
931.809	-283
931.905	1151
932.000	17
932.095	-470
932.191	609
932.286	271
932.381	25
932.476	116
932.572	61
932.667	914
932.762	-92
932.857	423
932.952	163
933.047	1170
933.142	503
933.237	281
933.332	233
933.427	370
933.522	187
933.617	-274
933.712	471
933.807	521
933.902	672
933.997	419
934.092	359
934.187	1483
934.282	-1
934.376	-376
934.471	354
934.566	119
934.661	597
934.755	223
934.850	555
934.945	738
935.039	-174
935.134	412
935.228	299
935.323	1412
935.417	-160
935.512	95
935.606	-1075
935.701	359
935.795	790
935.890	624
935.984	485
936.079	-26
936.173	337
936.267	147
936.362	-527
936.456	711
936.550	218
936.644	640
936.738	180
936.833	785
936.927	85
937.021	579
937.115	-244
937.209	-197
937.303	998
937.397	-82
937.491	343
937.585	392
937.679	430
937.773	-113
937.867	-768
937.961	473
938.055	187
938.149	992
938.243	-216
938.337	236
938.430	200
938.524	562
938.618	34
938.712	263
938.805	194
938.899	-325
938.993	450
939.086	-231
939.180	-1368
939.274	-204
939.367	806
939.461	-156
939.554	-75
939.648	410
939.741	-41
939.835	-100
939.928	673
940.022	509
940.115	-231
940.208	102
940.302	638
940.395	683
940.488	-1445
940.582	1204
940.675	-381
940.768	-343
940.861	-259
940.954	561
941.048	-1206
941.141	-399
941.234	-336
941.327	544
941.420	162
941.513	274
941.606	92
941.699	354
941.792	158
941.885	437
941.978	-170
942.071	408
942.164	-578
942.257	-173
942.349	-696
942.442	348
942.535	-664
942.628	-288
942.721	661
942.813	-1380
942.906	854
942.999	-768
943.091	-138
943.184	-1108
943.277	-880
943.369	742
943.462	-542
943.554	-260
943.647	-345
943.739	658
943.832	97
943.924	-1213
944.017	-703
944.109	-772
944.201	-350
944.294	-83
944.386	-89
944.478	-456
944.571	-566
944.663	612
944.755	-404
944.847	754
944.940	415
945.032	-701
945.124	-361
945.216	528
945.308	-351
945.400	730
945.492	-611
945.584	524
945.676	-116
945.768	-338
945.860	540
945.952	-1016
946.044	474
946.136	635
946.228	-790
946.320	-544
946.412	-370
946.503	142
946.595	116
946.687	-145
946.779	-453
946.870	794
946.962	-26
947.054	491
947.145	-764
947.237	-645
947.329	31
947.420	-253
947.512	68
947.603	257
947.695	377
947.786	-781
947.878	-311
947.969	-620
948.061	-303
948.152	-917
948.243	-543
948.335	-622
948.426	-1086
948.517	798
948.609	11
948.700	221
948.791	-384
948.882	150
948.973	-452
949.065	-346
949.156	-235
949.247	-927
949.338	-195
949.429	-257
949.520	-324
949.611	-774
949.702	-127
949.793	371
949.884	13
949.975	-401
950.066	-247
950.157	-372
950.247	-406
950.338	-277
950.429	-274
950.520	-803
950.611	-1082
950.701	-339
950.792	-333
950.883	-259
950.973	-210
951.064	142
951.155	-546
951.245	493
951.336	-682
951.427	-1218
951.517	804
951.608	-361
951.698	-1163
951.788	305
951.879	-582
951.969	-680
952.060	-935
952.150	-79
952.240	-140
952.331	-2100
952.421	231
952.511	-307
952.602	348
952.692	-879
952.782	-407
952.872	-343
952.962	-1448
953.052	-279
953.143	-660
953.233	-211
953.323	-673
953.413	-1594
953.503	-844
953.593	-451
953.683	-246
953.773	-1269
953.863	-1230
953.953	-869
954.042	425
954.132	-777
954.222	-343
954.312	-361
954.402	-293
954.492	-949
954.581	307
954.671	-1010
954.761	-905
954.850	999
954.940	-692
955.030	-110
955.119	-372
955.209	-809
955.298	-301
955.388	-716
955.477	28
955.567	-1124
955.656	139
955.746	-409
955.835	-1138
955.925	-541
956.014	-1061
956.103	-469
956.193	-889
956.282	338
956.371	-293
956.461	-142
956.550	-1577
956.639	-129
956.728	-1339
956.817	420
956.906	-369
956.995	-279
957.085	-990
957.174	177
957.263	-760
957.352	-702
957.441	-864
957.530	-599
957.619	-6
957.708	125
957.796	-1159
957.885	-154
957.974	-819
958.063	-845
958.152	-1421
958.241	-717
958.329	-445
958.418	-239
958.507	-1198
958.596	676
958.684	-274
958.773	-13
958.861	-1025
958.950	-408
959.039	-947
959.127	-692
959.216	-448
959.304	-844
959.393	-1028
959.481	-275
959.570	-847
959.658	-1253
959.746	-329
959.835	-64
959.923	331
960.011	-140
960.100	-160
960.188	252
960.276	-401
960.365	-758
960.453	-1070
960.541	-1319
960.629	-688
960.717	-503
960.805	-1270
960.893	-970
960.981	-953
961.069	27
961.158	-1121
961.245	-885
961.333	-265
961.421	-1073
961.509	-1236
961.597	-207
961.685	-499
961.773	-77
961.861	-751
961.949	193
962.036	-689
962.124	-573
962.212	-1568
962.299	-1000
962.387	-883
962.475	-932
962.562	-1455
962.650	9
962.738	-734
962.825	-640
962.913	-739
963.000	-1111
963.088	-642
963.175	-1206
963.263	-1031
963.350	-770
963.438	-842
963.525	-262
963.612	-243
963.700	563
963.787	3189
963.874	-210
963.962	-633
964.049	-268
964.136	-580
964.223	-715
964.310	-1445
964.398	-166
964.485	-1378
964.572	-184
964.659	-701
964.746	-987
964.833	-1069
964.920	-303
965.007	-691
965.094	-1145
965.181	-711
965.268	-338
965.355	-695
965.441	-365
965.528	-826
965.615	-511
965.702	-968
965.789	-1579
965.875	-749
965.962	-783
966.049	-1467
966.136	-538
966.222	-1154
966.309	14
966.395	-822
966.482	-687
966.569	-1062
966.655	-785
966.742	-1676
966.828	54
966.915	-801
967.001	-1094
967.087	-2169
967.174	-1287
967.260	-297
967.347	-396
967.433	-323
967.519	2058
967.605	286
967.692	-1143
967.778	-1031
967.864	-1205
967.950	-1041
968.036	-965
968.123	-938
968.209	-1451
968.295	-1429
968.381	-175
968.467	-263
968.553	-1905
968.639	-1030
968.725	-1354
968.811	-775
968.897	360
968.983	-644
969.069	-1182
969.154	-346
969.240	-477
969.326	-1207
969.412	-1455
969.497	-993
969.583	-1490
969.669	-330
969.755	-227
969.840	-1023
969.926	-514
970.012	-500
970.097	440
970.183	-223
970.268	-97
970.354	-779
970.439	-808
970.525	1518
970.610	-1179
970.696	141
970.781	-848
970.866	-1089
970.952	53
971.037	-1835
971.122	-1285
971.208	-1124
971.293	-2115
971.378	-2277
971.463	-869
971.549	-366
971.634	-1194
971.719	-530
971.804	-946
971.889	-160
971.974	-673
972.059	-758
972.144	-311
972.229	-894
972.314	-1361
972.399	-124
972.484	-1170
972.569	-694
972.654	-1830
972.739	321
972.824	-782
972.908	-180
972.993	-412
973.078	-1240
973.163	-1042
973.247	-999
973.332	-2151
973.417	-564
973.501	-1361
973.586	-138
973.671	-708
973.755	-293
973.840	-277
973.924	-1
974.009	-613
974.093	-714
974.178	-45
974.262	-428
974.346	-150
974.431	-844
974.515	-316
974.600	-1270
974.684	-212
974.768	-1091
974.852	-289
974.937	-2625
975.021	-758
975.105	-1470
975.189	-983
975.273	-1143
975.358	-658
975.442	-1742
975.526	244
975.610	-1477
975.694	-1651
975.778	102
975.862	-790
975.946	-2388
976.030	-296
976.114	-812
976.198	-748
976.281	-1660
976.365	-240
976.449	-1655
976.533	-1406
976.617	-1368
976.700	-755
976.784	-854
976.868	-1879
976.951	-798
977.035	-700
977.119	-734
977.202	-1264
977.286	-222
977.369	-451
977.453	-498
977.536	-1223
977.620	-2011
977.703	-1231
977.787	-1572
977.870	-204
977.953	-235
978.037	-1886
978.120	65
978.203	-1180
978.287	-452
978.370	-1134
978.453	-811
978.536	-1064
978.620	-617
978.703	-697
978.786	-720
978.869	-638
978.952	-2248
979.035	434
979.118	477
979.201	-1343
979.284	-819
979.367	-1559
979.450	-1263
979.533	-1093
979.616	-1224
979.699	-1579
979.782	-1237
979.865	-1004
979.948	-1134
980.030	-1683
980.113	-1277
980.196	-2057
980.279	-466
980.361	-514
980.444	-2094
980.526	-724
980.609	-987
980.692	-565
980.774	-364
980.857	-2402
980.939	-562
981.022	-1493
981.104	-1268
981.187	-1750
981.269	-1241
981.352	-888
981.434	-2376
981.516	-1472
981.599	239
981.681	-430
981.763	-738
981.846	-440
981.928	-1156
982.010	-1679
982.092	-2176
982.174	-215
982.256	-1714
982.339	-844
982.421	-566
982.503	-121
982.585	-2115
982.667	-653
982.749	-1238
982.831	-1027
982.913	-1471
982.995	-430
983.077	-1395
983.158	64
983.240	-2463
983.322	-935
983.404	-528
983.486	-1648
983.568	-955
983.649	-1085
983.731	-261
983.813	-1309
983.894	-725
983.976	-1033
984.058	-1094
984.139	-58
984.221	-2266
984.302	-711
984.384	-448
984.465	-899
984.547	-1122
984.628	-1088
984.710	-333
984.791	-682
984.872	-883
984.954	-819
985.035	-248
985.116	-1518
985.198	-2205
985.279	-341
985.360	-2427
985.441	-139
985.522	-852
985.604	-618
985.685	-2255
985.766	-196
985.847	488
985.928	-1785
986.009	-1538
986.090	-1667
986.171	-295
986.252	-915
986.333	-1272
986.414	-580
986.495	-259
986.576	-784
986.656	-704
986.737	266
986.818	-1559
986.899	-1619
986.980	-909
987.060	455
987.141	-1232
987.222	-256
987.302	-860
987.383	-171
987.464	-931
987.544	-370
987.625	-985
987.705	-160
987.786	-65
987.866	-1021
987.947	-589
988.027	-745
988.108	-1028
988.188	-105
988.268	-41
988.349	-650
988.429	-1771
988.509	-901
988.589	-562
988.670	-2273
988.750	418
988.830	250
988.910	172
988.990	-903
989.070	-692
989.151	51
989.231	-1178
989.311	-466
989.391	-1107
989.471	-541
989.551	-1434
989.631	-1260
989.711	-282
989.791	-562
989.870	-1284
989.950	182
990.030	-1011
990.110	-1140
990.190	-1031
990.269	-440
990.349	-533
990.429	-372
990.509	54
990.588	-1220
990.668	-722
990.747	-627
990.827	-1155
990.907	-913
990.986	-804
991.066	-298
991.145	-615
991.225	-587
991.304	-863
991.383	-1067
991.463	-688
991.542	18
991.622	-1777
991.701	-942
991.780	-976
991.859	-472
991.939	-1078
992.018	-963
992.097	-738
992.176	-569
992.256	-1105
992.335	-1325
992.414	-815
992.493	-1119
992.572	-906
992.651	145
992.730	-828
992.809	-613
992.888	-1473
992.967	-547
993.046	-732
993.125	-2272
993.203	-844
993.282	-809
993.361	-697
993.440	-828
993.519	-1799
993.597	-421
993.676	-913
993.755	209
993.834	-1007
993.912	-1551
993.991	915
994.069	-1635
994.148	-1199
994.226	-392
994.305	-848
994.384	-316
994.462	-270
994.540	-1581
994.619	-1509
994.697	-1539
994.776	-1464
994.854	-293
994.932	-1118
995.011	-843
995.089	-1028
995.167	-8
995.245	-805
995.324	-1332
995.402	-1026
995.480	-586
995.558	-1227
995.636	-874
995.714	-1439
995.792	-156
995.870	-1371
995.948	-1179
996.026	-592
996.104	-1957
996.182	-407
996.260	-1493
996.338	-396
996.416	-1769
996.494	-1556
996.572	146
996.649	-1604
996.727	-1221
996.805	-326
996.883	-108
996.960	-1857
997.038	-590
997.116	-793
997.193	-1265
997.271	-1460
997.348	-1576
997.426	-376
997.504	-1081
997.581	-864
997.658	-520
997.736	-2315
997.813	-1172
997.891	-135
997.968	-1691
998.046	-1082
998.123	-1096
998.200	-872
998.277	-1136
998.355	-714
998.432	-1415
998.509	-1035
998.586	-506
998.663	-1419
998.741	-632
998.818	-1460
998.895	-788
998.972	-1079
999.049	-561
999.126	-1520
999.203	203
999.280	-1501
999.357	-1440
999.434	-1263
999.511	-102
999.587	-564
999.664	-1778
999.741	-1125
999.818	-7
999.895	-1356
999.971	-1836
1000.048	-1231
1000.125	-515
1000.202	-1488
1000.278	-942
1000.355	-1301
1000.431	-1253
1000.508	-1663
1000.584	-759
1000.661	-716
1000.738	-1431
1000.814	-853
1000.890	-820
1000.967	-1161
1001.043	-962
1001.120	-2181
1001.196	-1035
1001.272	-1509
1001.349	-947
1001.425	-774
1001.501	-753
1001.577	-1747
1001.654	-1283
1001.730	-1291
1001.806	-987
1001.882	-1965
1001.958	-1025
1002.034	-899
1002.110	-1187
1002.186	-1056
1002.262	-1198
1002.338	-1568
1002.414	-346
1002.490	-151
1002.566	-594
1002.642	-1297
1002.718	-761
1002.794	-1580
1002.870	-1156
1002.945	-1116
1003.021	-844
1003.097	-1084
1003.173	416
1003.248	-1195
1003.324	-1755
1003.400	-1527
1003.475	-1162
1003.551	-1269
1003.626	-1586
1003.702	-1581
1003.777	-810
1003.853	-1062
1003.928	-1555
1004.004	-1570
1004.079	-232
1004.155	-1466
1004.230	-1554
1004.305	-684
1004.381	-714
1004.456	-1249
1004.531	1
1004.607	-852
1004.682	-950
1004.757	-1201
1004.832	-366
1004.907	-1708
1004.982	-1081
1005.057	-1292
1005.133	-1437
1005.208	-1463
1005.283	-579
1005.358	-432
1005.433	-1449
1005.508	-1141
1005.583	-1860
1005.657	-2183
1005.732	-636
1005.807	-2128
1005.882	-588
1005.957	-1847
1006.032	-250
1006.106	-1136
1006.181	-1185
1006.256	-1263
1006.331	-1167
1006.405	-1553
1006.480	-40
1006.554	-1659
1006.629	-1194
1006.704	-1307
1006.778	-681
1006.853	-497
1006.927	-931
1007.002	-1190
1007.076	-1354
1007.150	-665
1007.225	-790
1007.299	-583
1007.373	-1975
1007.448	-883
1007.522	-409
1007.596	-1236
1007.671	-1712
1007.745	-921
1007.819	-1246
1007.893	-1288
1007.967	-597
1008.041	-1433
1008.115	-3
1008.190	-1275
1008.264	-543
1008.338	-1962
1008.412	-982
1008.486	-892
1008.560	-1854
1008.633	-1582
1008.707	-757
1008.781	-959
1008.855	-1898
1008.929	-1426
1009.003	-1130
1009.076	-1580
1009.150	-1030
1009.224	-1208
1009.298	-45
1009.371	-1381
1009.445	-422
1009.519	-1085
1009.592	-2330
1009.666	-1284
1009.739	-611
1009.813	-1101
1009.886	18
1009.960	-1574
1010.033	-847
1010.107	-1062
1010.180	-1786
1010.253	-1611
1010.327	-1189
1010.400	-1174
1010.473	-1808
1010.547	-446
1010.620	-1909
1010.693	-1547
1010.766	-1134
1010.840	-1199
1010.913	-919
1010.986	-1620
1011.059	-648
1011.132	-1069
1011.205	-97
1011.278	-1367
1011.351	-1714
1011.424	-928
1011.497	-1808
1011.570	-1208
1011.643	-956
1011.716	-1053
1011.789	-1598
1011.862	-1699
1011.934	-537
1012.007	-1923
1012.080	-1139
1012.153	-1380
1012.225	-923
1012.298	-772
1012.371	-846
1012.443	-1177
1012.516	-1596
1012.588	-1141
1012.661	-153
1012.733	-2129
1012.806	-265
1012.879	-1700
1012.951	-1295
1013.023	-1068
1013.096	-727
1013.168	-1765
1013.241	-898
1013.313	-1130
1013.385	-1056
1013.458	-916
1013.530	-342
1013.602	-1950
1013.674	-692
1013.746	-2294
1013.819	-1002
1013.891	-704
1013.963	-1940
1014.035	-901
1014.107	-846
1014.179	-1204
1014.251	-1572
1014.323	-668
1014.395	-1890
1014.467	-1140
1014.539	-1284
1014.611	-2386
1014.683	-765
1014.754	-1225
1014.826	-1490
1014.898	-654
1014.970	-2075
1015.042	-683
1015.113	-862
1015.185	-1361
1015.257	-2044
1015.328	-1373
1015.400	-1192
1015.471	-1667
1015.543	-2314
1015.615	-2158
1015.686	-1760
1015.757	-1869
1015.829	-545
1015.901	-1755
1015.972	-1000
1016.043	-1805
1016.115	-1096
1016.186	-1139
1016.257	-1363
1016.328	-888
1016.400	-1346
1016.471	-1364
1016.542	-1118
1016.613	-1460
1016.685	-892
1016.756	-1013
1016.827	-1937
1016.898	-1768
1016.969	-441
1017.040	-1582
1017.111	-1317
1017.182	-1601
1017.253	-1095
1017.324	-1358
1017.395	-903
1017.466	-924
1017.537	-1107
1017.608	-1275
1017.678	-1347
1017.749	-1434
1017.820	-1004
1017.891	-1829
1017.961	-1233
1018.032	-1346
1018.103	-780
1018.173	-679
1018.244	-1838
1018.315	-1936
1018.385	-1187
1018.456	-1907
1018.526	-1834
1018.597	-1358
1018.667	-519
1018.738	-1913
1018.808	-1269
1018.878	-1038
1018.949	-1346
1019.019	-956
1019.089	-1627
1019.160	-1495
1019.230	-1847
1019.300	-2204
1019.371	-1325
1019.441	-917
1019.511	-907
1019.581	-1119
1019.651	-1111
1019.721	-1215
1019.791	-1378
1019.861	-1509
1019.931	-1086
1020.001	-1850
1020.071	-1516
1020.141	-1328
1020.211	-1072
1020.281	-950
1020.351	-1667
1020.421	-1304
1020.491	-1075
1020.560	-2478
1020.630	-1135
1020.700	-1030
1020.770	-1833
1020.839	-1940
1020.909	-1068
1020.979	-1477
1021.048	-1051
1021.118	-1405
1021.187	-702
1021.257	-931
1021.326	-1485
1021.396	-1385
1021.465	-1133
1021.535	-1999
1021.604	-1063
1021.674	-1075
1021.743	-1078
1021.812	-1421
1021.882	-1315
1021.951	-1763
1022.020	-749
1022.089	-938
1022.159	-1415
1022.228	-996
1022.297	-1267
1022.366	-2022
1022.435	-1646
1022.504	-1589
1022.573	-1279
1022.642	-1862
1022.711	-1529
1022.781	-1661
1022.849	-1256
1022.918	-1936
1022.987	-896
1023.056	-2057
1023.125	-738
1023.194	-577
1023.263	-829
1023.331	-1483
1023.400	-1674
1023.469	-1206
1023.538	-584
1023.606	-2298
1023.675	-1988
1023.744	-1288
1023.812	-2215
1023.881	-1326
1023.949	-1062
1024.018	-1593
1024.086	-995
1024.155	-2075
1024.223	-1798
1024.292	-1005
1024.360	-782
1024.429	-1962
1024.497	-1653
1024.565	-576
1024.634	-1438
1024.702	-1104
1024.770	-1298
1024.838	-1486
1024.907	-705
1024.975	-1604
1025.043	-1035
1025.111	-1583
1025.179	-1674
1025.247	-1643
1025.315	-1397
1025.383	-1859
1025.451	-1452
1025.519	-1389
1025.587	-1457
1025.655	-1356
1025.723	-1005
1025.791	-721
1025.859	-1985
1025.927	-589
1025.995	-1222
1026.062	-1107
1026.130	-376
1026.198	-1310
1026.266	-1892
1026.333	-1417
1026.401	-1343
1026.469	-1387
1026.536	-551
1026.604	-1117
1026.671	-1860
1026.739	-1307
1026.806	-1366
1026.874	-1514
1026.941	-1045
1027.009	-1923
1027.076	-2104
1027.144	-867
1027.211	-922
1027.278	-1861
1027.345	-961
1027.413	-1275
1027.480	-1923
1027.547	-1393
1027.614	-1613
1027.682	-1095
1027.749	-831
1027.816	-1374
1027.883	-927
1027.950	-1380
1028.017	-1304
1028.084	-1581
1028.151	-1789
1028.218	-1265
1028.285	-1273
1028.352	-2601
1028.419	-1768
1028.486	-1800
1028.553	-1214
1028.619	-1231
1028.686	-685
1028.753	-1638
1028.820	-1928
1028.886	-1844
1028.953	-1236
1029.020	-1223
1029.086	-1924
1029.153	-1175
1029.220	-1450
1029.286	-1170
1029.353	-832
1029.419	-2086
1029.486	-1244
1029.552	-2353
1029.619	-1635
1029.685	-2168
1029.751	-1334
1029.818	-933
1029.884	-1063
1029.951	-566
1030.017	-1453
1030.083	-2112
1030.149	-1223
1030.216	-1239
1030.282	-961
1030.348	-732
1030.414	-1152
1030.480	-1482
1030.546	-1556
1030.612	-1046
1030.678	-1441
1030.744	-1911
1030.810	-1491
1030.876	-1991
1030.942	-1408
1031.008	-1874
1031.074	-1623
1031.140	-1347
1031.206	-1169
1031.272	-1621
1031.337	-1127
1031.403	-937
1031.469	-1450
1031.534	-1884
1031.600	-849
1031.666	-1801
1031.731	-1681
1031.797	-1140
1031.863	-1215
1031.928	-2606
1031.994	-1856
1032.059	-1257
1032.125	-1741
1032.190	-1476
1032.256	-1603
1032.321	-1623
1032.386	-1313
1032.452	-1600
1032.517	-854
1032.582	-1290
1032.647	-975
1032.713	-1839
1032.778	-1374
1032.843	-1747
1032.908	-1061
1032.974	-1750
1033.039	-1790
1033.104	-1034
1033.169	-1273
1033.234	-1754
1033.299	-1004
1033.364	-944
1033.429	-1410
1033.494	-1873
1033.559	-1533
1033.624	-1297
1033.688	-1508
1033.753	-1795
1033.818	-1567
1033.883	-876
1033.948	-877
1034.013	-1340
1034.077	-1391
1034.142	-882
1034.207	-450
1034.271	-175
1034.336	-62
1034.400	-225
1034.465	-1289
1034.530	-630
1034.594	-1407
1034.658	-1809
1034.723	-1150
1034.787	-1428
1034.852	-1972
1034.916	-1856
1034.981	-1513
1035.045	-932
1035.109	-1929
1035.173	-1253
1035.238	-1424
1035.302	-929
1035.366	-1826
1035.430	-1950
1035.495	-1565
1035.559	-1432
1035.623	-2192
1035.687	-1539
1035.751	-2276
1035.815	-1588
1035.879	-1500
1035.943	-1969
1036.007	-1316
1036.071	-1865
1036.135	-1314
1036.198	-1374
1036.262	-1403
1036.326	-1565
1036.390	-1369
1036.454	-933
1036.517	-621
1036.581	-1593
1036.645	-1286
1036.709	-1483
1036.772	-1963
1036.836	-1531
1036.900	-1654
1036.963	-1033
1037.026	-1454
1037.090	-1933
1037.154	-1600
1037.217	-1697
1037.280	-1333
1037.344	-1914
1037.407	-1750
1037.471	-2030
1037.534	-1203
1037.597	-1973
1037.661	-2546
1037.724	-1458
1037.787	-287
1037.850	-2063
1037.913	-1622
1037.977	-1175
1038.040	-1507
1038.103	-2083
1038.166	-1734
1038.229	-1866
1038.292	-1427
1038.355	-1949
1038.418	-1677
1038.481	-1118
1038.544	-1533
1038.607	-2040
1038.670	-1570
1038.732	-1843
1038.795	-1497
1038.858	-1506
1038.921	-1851
1038.984	-1714
1039.046	-1398
1039.109	-2142
1039.172	-1596
1039.234	-1436
1039.297	-1388
1039.360	-1519
1039.422	-1676
1039.485	-1692
1039.547	-1791
1039.610	-1618
1039.672	-1774
1039.734	-1906
1039.797	-1487
1039.859	-1262
1039.922	-1570
1039.984	-1602
1040.046	-1290
1040.109	-1407
1040.171	-2493
1040.233	-1837
1040.295	-1846
1040.358	-1694
1040.420	-726
1040.482	-1610
1040.544	-1946
1040.606	-1647
1040.668	-1658
1040.730	-1988
1040.792	-2398
1040.854	-1843
1040.916	-1404
1040.978	-2093
1041.040	-1464
1041.102	-2492
1041.164	-1515
1041.225	-2123
1041.287	-1076
1041.349	-1078
1041.411	-1468
1041.472	-1490
1041.534	-2303
1041.596	-1490
1041.657	-977
1041.719	-1620
1041.781	-1139
1041.842	-1977
1041.904	-998
1041.965	-1764
1042.027	-1952
1042.088	-849
1042.150	-2397
1042.211	-1996
1042.272	-812
1042.334	-2210
1042.395	-933
1042.456	-2457
1042.518	-1298
1042.579	-1290
1042.640	-1410
1042.701	-1320
1042.763	-1495
1042.824	-1681
1042.885	-1851
1042.946	-1565
1043.007	-1973
1043.068	-3098
1043.129	-1135
1043.190	-1191
1043.251	-1658
1043.312	-1874
1043.373	-885
1043.434	-1808
1043.495	-1169
1043.556	-1257
1043.616	-1571
1043.677	-2082
1043.738	-1141
1043.799	-1792
1043.859	-1618
1043.920	-1602
1043.981	-1721
1044.041	-2307
1044.102	-1717
1044.162	-1378
1044.223	-1697
1044.284	-1901
1044.344	-1386
1044.405	-1824
1044.465	-1424
1044.525	-1949
1044.586	-776
1044.646	-1260
1044.707	-486
1044.767	-1967
1044.827	-1613
1044.887	-1257
1044.948	-577
1045.008	-1280
1045.068	-1020
1045.128	-1382
1045.188	-1560
1045.249	-960
1045.309	-1437
1045.369	-976
1045.429	-777
1045.489	-2032
1045.549	-938
1045.609	-1867
1045.669	-1304
1045.729	-2284
1045.789	-913
1045.848	-1346
1045.908	-1316
1045.968	-1403
1046.028	-2043
1046.088	-1572
1046.147	-417
1046.207	-802
1046.267	-1224
1046.326	-1654
1046.386	-1099
1046.446	-1460
1046.505	-910
1046.565	113
1046.624	-597
1046.684	-579
1046.743	-889
1046.803	-218
1046.862	56
1046.922	0
