'Start Wavelength	183.907
'End Wavelength	1046.922
'Gate Delay	5.000
'Gate Width (ms)	1.050
'Laser Output Level	0.000
'X Position	0.000
'Y Position	0.000
'Z Position	0.000
'Grid Point Number	1.000
'Shot Number	100.000
183.907	285.000
183.977	112.000
184.047	611
184.116	170
184.186	418
184.256	803
184.325	-804
184.395	-589
184.465	352
184.534	262
184.604	-380
184.674	207
184.743	469
184.813	582
184.883	596
184.952	827
185.022	516
185.092	65
185.161	46
185.231	-103
185.301	702
185.370	816
185.440	-609
185.509	31
185.579	738
185.649	432
185.718	-93
185.788	209
185.857	-417
185.927	1186
185.996	572
186.066	601
186.136	674
186.205	628
186.275	1262
186.344	275
186.414	468
186.483	249
186.553	1221
186.622	1094
186.692	672
186.761	778
186.831	418
186.900	599
186.970	797
187.039	366
187.109	1403
187.178	1040
187.248	55
187.317	254
187.387	178
187.456	692
187.526	1076
187.595	867
187.664	-133
187.734	645
187.803	688
187.873	1406
187.942	901
188.012	980
188.081	267
188.150	1145
188.220	1296
188.289	1400
188.358	1131
188.428	830
188.497	144
188.567	1347
188.636	-403
188.705	710
188.775	384
188.844	126
188.913	805
188.983	944
189.052	31
189.121	744
189.191	362
189.260	1848
189.329	1116
189.399	1358
189.468	1259
189.537	155
189.606	114
189.676	1051
189.745	971
189.814	1030
189.883	511
189.953	373
190.022	1525
190.091	4665
190.161	5262
190.230	2715
190.299	1428
190.368	436
190.437	-172
190.507	197
190.576	678
190.645	852
190.714	1139
190.783	254
190.853	1305
190.922	771
190.991	-8
191.060	1186
191.129	463
191.198	1733
191.268	237
191.337	371
191.406	1293
191.475	1135
191.544	-212
191.613	907
191.682	18
191.752	1359
191.821	88
191.890	707
191.959	484
192.028	276
192.097	605
192.166	1323
192.235	-257
192.304	565
192.373	370
192.442	651
192.511	201
192.580	792
192.650	653
192.719	56
192.788	710
192.857	633
192.926	885
192.995	365
193.064	1756
193.133	1863
193.202	1888
193.271	2614
193.340	1352
193.409	1528
193.478	2002
193.547	1961
193.615	3217
193.684	2480
193.753	1368
193.822	1909
193.891	1498
193.960	1789
194.029	487
194.098	885
194.167	-201
194.236	522
194.305	509
194.374	1061
194.443	406
194.512	944
194.580	1098
194.649	1581
194.718	1440
194.787	1399
194.856	456
194.925	1057
194.994	615
195.062	730
195.131	762
195.200	1699
195.269	1116
195.338	1515
195.407	317
195.475	1396
195.544	1571
195.613	1040
195.682	1081
195.751	1096
195.819	1403
195.888	1441
195.957	1279
196.026	1102
196.094	2152
196.163	1470
196.232	1651
196.301	1432
196.369	1640
196.438	1468
196.507	1335
196.576	1325
196.644	664
196.713	1315
196.782	189
196.850	1036
196.919	1063
196.988	1309
197.056	571
197.125	1094
197.194	1206
197.262	1156
197.331	1634
197.400	893
197.468	916
197.537	862
197.606	1344
197.674	2468
197.743	6050
197.812	3281
197.880	5727
197.949	4490
198.017	5476
198.086	3300
198.155	1331
198.223	2523
198.292	7255
198.360	3485
198.429	2237
198.497	2163
198.566	3968
198.635	7704
198.703	3218
198.772	3288
198.840	7417
198.909	8926
198.977	1757
199.046	1659
199.114	1316
199.183	2107
199.251	1895
199.320	1776
199.388	1168
199.457	1037
199.525	1514
199.594	1956
199.662	1328
199.731	1580
199.799	1490
199.867	2127
199.936	1457
200.004	1571
200.073	786
200.141	926
200.210	18
200.278	617
200.346	1480
200.415	1967
200.483	1870
200.552	1823
200.620	1659
200.688	1427
200.757	1289
200.825	1697
200.893	1678
200.962	947
201.030	1029
201.098	1291
201.167	1512
201.235	1155
201.303	979
201.372	918
201.440	970
201.508	1684
201.577	978
201.645	1814
201.713	788
201.781	1012
201.850	1073
201.918	1096
201.986	1370
202.055	2234
202.123	483
202.191	738
202.259	1509
202.327	1239
202.396	1020
202.464	639
202.532	1461
202.600	4144
202.669	1138
202.737	937
202.805	755
202.873	1157
202.941	1316
203.009	1320
203.078	1629
203.146	1285
203.214	1333
203.282	597
203.350	1632
203.418	2045
203.487	971
203.555	1950
203.623	634
203.691	1887
203.759	1154
203.827	1237
203.895	1033
203.963	1387
204.031	1547
204.099	1071
204.168	1008
204.236	2079
204.304	2136
204.372	2652
204.440	868
204.508	1034
204.576	1053
204.644	2094
204.712	684
204.780	1587
204.848	1806
204.916	2051
204.984	1385
205.052	1437
205.120	1346
205.188	1943
205.256	1399
205.324	1754
205.392	1929
205.460	2558
205.528	2049
205.596	2211
205.664	1600
205.732	2179
205.799	7080
205.867	14013
205.935	3104
206.003	3337
206.071	1470
206.139	2281
206.207	2147
206.275	2363
206.343	1567
206.411	1686
206.478	1483
206.546	1970
206.614	980
206.682	1725
206.750	1865
206.818	2027
206.885	2831
206.953	1638
207.021	2974
207.089	1777
207.157	1375
207.225	1919
207.292	1140
207.360	2282
207.428	2412
207.496	2234
207.563	2558
207.631	2088
207.699	703
207.767	1970
207.834	2529
207.902	2424
207.970	1551
208.038	2252
208.105	2559
208.173	2405
208.241	3662
208.309	3726
208.376	2963
208.444	5430
208.512	3140
208.579	1927
208.647	2848
208.715	2788
208.782	2262
208.850	2570
208.918	1462
208.985	1491
209.053	2985
209.120	2335
209.188	1978
209.256	1997
209.323	1128
209.391	2890
209.459	3446
209.526	2892
209.594	2340
209.661	1949
209.729	2079
209.796	2832
209.864	2511
209.932	1117
209.999	3271
210.067	2953
210.134	2491
210.202	2649
210.269	3170
210.337	3159
210.404	3555
210.472	2644
210.539	2620
210.607	2370
210.674	3164
210.742	2189
210.809	2712
210.877	2325
210.944	2968
211.012	2171
211.079	3447
211.146	2818
211.214	2162
211.281	3357
211.349	3053
211.416	3067
211.484	3696
211.551	2417
211.618	3273
211.686	3365
211.753	2264
211.821	3609
211.888	2185
211.955	2905
212.023	2570
212.090	3118
212.157	4023
212.225	5130
212.292	7623
212.359	15406
212.427	38770
212.494	20166
212.561	7187
212.629	4951
212.696	3982
212.763	4241
212.831	2802
212.898	3940
212.965	2886
213.032	3409
213.100	3645
213.167	4310
213.234	3988
213.301	4031
213.369	3683
213.436	3110
213.503	1974
213.570	3718
213.638	5387
213.705	3577
213.772	2320
213.839	3600
213.906	3965
213.973	3540
214.041	3220
214.108	3720
214.175	2743
214.242	3033
214.309	2986
214.376	3421
214.444	2996
214.511	3418
214.578	2870
214.645	4257
214.712	3708
214.779	4381
214.846	2932
214.913	4111
214.980	4266
215.048	4328
215.115	4610
215.182	4674
215.249	3869
215.316	4144
215.383	3471
215.450	2999
215.517	3141
215.584	3932
215.651	3100
215.718	3652
215.785	4231
215.852	3629
215.919	4184
215.986	3167
216.053	3552
216.120	3174
216.187	3609
216.254	3900
216.321	3796
216.388	3182
216.455	4326
216.522	4135
216.589	4176
216.656	7689
216.722	7362
216.789	5001
216.856	4796
216.923	4007
216.990	4548
217.057	4722
217.124	5380
217.191	4970
217.258	5598
217.324	5368
217.391	6595
217.458	5825
217.525	4382
217.592	4227
217.659	3967
217.725	4907
217.792	6605
217.859	6812
217.926	3861
217.993	3484
218.059	3909
218.126	4340
218.193	3538
218.260	3516
218.327	2740
218.393	4064
218.460	3258
218.527	3381
218.594	3664
218.660	5627
218.727	6333
218.794	3525
218.860	3568
218.927	3712
218.994	3263
219.061	3065
219.127	3513
219.194	5788
219.261	4075
219.327	2562
219.394	3499
219.461	2288
219.527	2732
219.594	4452
219.661	3557
219.727	2752
219.794	4275
219.860	2967
219.927	4019
219.994	5104
220.060	7903
220.127	6238
220.193	5487
220.260	4682
220.326	6768
220.393	8024
220.460	9359
220.526	7438
220.593	5656
220.659	7474
220.726	6853
220.792	18558
220.859	15720
220.925	13182
220.992	14989
221.058	19870
221.125	25524
221.191	18667
221.258	7716
221.324	6871
221.391	4580
221.457	4792
221.524	4757
221.590	6812
221.657	23488
221.723	17648
221.789	13835
221.856	13934
221.922	8170
221.989	6163
222.055	4573
222.121	4402
222.188	5370
222.254	5173
222.321	4109
222.387	3034
222.453	3492
222.520	4085
222.586	2671
222.652	4185
222.719	2657
222.785	4100
222.851	1996
222.918	2877
222.984	3265
223.050	3673
223.116	2257
223.183	4342
223.249	2528
223.315	2727
223.382	2987
223.448	3233
223.514	2614
223.580	2589
223.647	2680
223.713	2611
223.779	2550
223.845	3469
223.911	3478
223.978	2305
224.044	2826
224.110	2892
224.176	2973
224.242	3192
224.309	2508
224.375	2869
224.441	3158
224.507	2646
224.573	2101
224.639	3776
224.705	2674
224.772	2395
224.838	2288
224.904	2286
224.970	2410
225.036	2791
225.102	2636
225.168	3716
225.234	3334
225.300	2998
225.366	2472
225.432	3202
225.499	3392
225.565	3333
225.631	3855
225.697	4473
225.763	4771
225.829	5689
225.895	5677
225.961	8187
226.027	6727
226.093	5797
226.159	7291
226.225	10361
226.291	17709
226.357	27203
226.423	15706
226.489	10976
226.554	7347
226.620	7713
226.686	8888
226.752	12757
226.818	18177
226.884	37491
226.950	31969
227.016	15660
227.082	9214
227.148	7172
227.214	7061
227.279	6369
227.345	5675
227.411	5371
227.477	4599
227.543	8289
227.609	9005
227.674	7255
227.740	4237
227.806	5551
227.872	4566
227.938	4508
228.003	7149
228.069	5132
228.135	2983
228.201	4103
228.267	3057
228.332	4702
228.398	4149
228.464	3622
228.530	3232
228.595	3332
228.661	3414
228.727	5402
228.792	4258
228.858	3497
228.924	2629
228.990	5837
229.055	3357
229.121	5503
229.187	2831
229.252	3349
229.318	2670
229.384	3472
229.449	3671
229.515	1599
229.581	1244
229.646	5153
229.712	3936
229.777	7178
229.843	8167
229.909	6540
229.974	6555
230.040	6598
230.105	5043
230.171	6411
230.236	8833
230.302	10770
230.368	8212
230.433	5430
230.499	5999
230.564	6659
230.630	4305
230.695	5517
230.761	5048
230.826	3664
230.892	6533
230.957	4536
231.023	4169
231.088	4017
231.154	4452
231.219	5407
231.284	5059
231.350	6091
231.415	3968
231.481	3782
231.546	3416
231.612	4427
231.677	3610
231.742	2388
231.808	4400
231.873	3848
231.939	2732
232.004	5948
232.069	6576
232.135	3873
232.200	3572
232.265	3922
232.331	3451
232.396	3639
232.461	3050
232.527	4117
232.592	2645
232.657	4455
232.723	4189
232.788	4684
232.853	4048
232.918	3406
232.984	2840
233.049	3006
233.114	4495
233.179	5405
233.245	6282
233.310	7443
233.375	3265
233.440	3571
233.506	3619
233.571	3414
233.636	3431
233.701	3619
233.766	5313
233.832	5828
233.897	3041
233.962	2993
234.027	4941
234.092	4616
234.157	3907
234.222	3692
234.288	5846
234.353	14462
234.418	12193
234.483	8999
234.548	6570
234.613	6320
234.678	5747
234.743	5637
234.808	14101
234.873	9448
234.938	7121
235.004	5944
235.069	5787
235.134	5297
235.199	4840
235.264	5416
235.329	3523
235.394	4883
235.459	6278
235.524	4720
235.589	4719
235.654	4468
235.719	4397
235.784	5396
235.849	5536
235.913	7894
235.978	8449
236.043	9810
236.108	5331
236.173	5292
236.238	5972
236.303	4878
236.368	3947
236.433	7650
236.498	11488
236.563	10061
236.627	16273
236.692	50528
236.757	46365
236.822	19954
236.887	13567
236.952	11448
237.017	8773
237.081	11951
237.146	13128
237.211	24710
237.276	50563
237.341	86550
237.405	43146
237.470	17887
237.535	13134
237.600	9296
237.664	8529
237.729	7086
237.794	7634
237.859	14575
237.923	10983
237.988	7281
238.053	8740
238.118	8093
238.182	21665
238.247	21106
238.312	8156
238.376	7100
238.441	4794
238.506	6841
238.570	3783
238.635	5998
238.700	4631
238.764	4361
238.829	9733
238.893	10887
238.958	7513
239.023	6543
239.087	4289
239.152	5457
239.216	3481
239.281	5089
239.346	4258
239.410	4570
239.475	5302
239.539	18773
239.604	16827
239.668	7793
239.733	5148
239.797	6786
239.862	11697
239.926	16694
239.991	8488
240.055	4931
240.120	3903
240.184	5201
240.249	3218
240.313	4269
240.378	4531
240.442	10493
240.507	19151
240.571	7133
240.635	8199
240.700	10899
240.764	4372
240.829	4992
240.893	2512
240.957	4768
241.022	9760
241.086	16390
241.151	7920
241.215	3580
241.279	6217
241.344	9327
241.408	7399
241.472	5791
241.537	7942
241.601	6764
241.665	5274
241.730	4939
241.794	7121
241.858	5788
241.922	6001
241.987	7059
242.051	4441
242.115	4709
242.179	5688
242.244	4736
242.308	6658
242.372	5883
242.436	5809
242.501	4683
242.565	4997
242.629	5097
242.693	5702
242.757	4374
242.822	4260
242.886	6511
242.950	6622
243.014	5376
243.078	6210
243.142	6678
243.206	5288
243.271	8089
243.335	8591
243.399	13887
243.463	41870
243.527	107865
243.591	38066
243.655	13310
243.719	8548
243.783	9104
243.847	12740
243.911	18152
243.975	14665
244.040	9413
244.104	8120
244.168	6448
244.232	6118
244.296	11000
244.360	15655
244.424	7583
244.488	5982
244.552	6261
244.615	3913
244.679	4636
244.743	4914
244.807	5868
244.871	4996
244.935	5427
244.999	4024
245.063	4343
245.127	6554
245.191	11253
245.255	10737
245.319	6479
245.383	4382
245.446	6246
245.510	3789
245.574	4448
245.638	4894
245.702	3833
245.766	10952
245.829	8514
245.893	5413
245.957	4853
246.021	6421
246.085	6069
246.149	6622
246.212	15742
246.276	24729
246.340	11230
246.404	7889
246.467	8006
246.531	9872
246.595	9062
246.659	6963
246.722	5574
246.786	7252
246.850	7780
246.913	9643
246.977	5217
247.041	5219
247.104	7131
247.168	5857
247.232	13175
247.295	33059
247.359	16730
247.423	6802
247.486	11587
247.550	8594
247.614	6384
247.677	7113
247.741	5931
247.804	6238
247.868	8494
247.932	11969
247.995	31486
248.059	11964
248.122	7273
248.186	9023
248.249	13718
248.313	51782
248.376	53938
248.440	33282
248.503	13783
248.567	10783
248.630	13125
248.694	16979
248.757	23556
248.821	59044
248.884	33609
248.948	28311
249.011	41269
249.075	64455
249.138	56644
249.202	20495
249.265	13858
249.328	17069
249.392	12713
249.455	11767
249.519	10705
249.582	10828
249.645	16057
249.709	15596
249.772	13212
249.835	11445
249.899	11672
249.962	10238
250.025	9634
250.089	21033
250.152	28338
250.215	13872
250.279	11781
250.342	12810
250.405	12278
250.468	13061
250.532	17784
250.595	27191
250.658	98512
250.721	173232
250.785	60229
250.848	28120
250.911	18647
250.974	16724
251.038	20983
251.101	39190
251.164	23015
251.227	22345
251.290	24781
251.354	38177
251.417	140054
251.480	152320
251.543	103137
251.606	248483
251.669	204857
251.732	80689
251.795	64453
251.859	67143
251.922	159817
251.985	100702
252.048	37368
252.111	27105
252.174	22353
252.237	34931
252.300	75532
252.363	85378
252.426	195866
252.489	87376
252.552	38382
252.615	26461
252.678	28256
252.741	57877
252.804	89330
252.867	207720
252.930	114395
252.993	51852
253.056	28460
253.119	21899
253.182	18395
253.245	33061
253.308	25563
253.371	17010
253.434	16028
253.497	14367
253.559	28890
253.622	19062
253.685	19068
253.748	18334
253.811	11238
253.874	13489
253.937	12803
254.000	10212
254.062	17887
254.125	31562
254.188	22786
254.251	19015
254.314	10669
254.376	15159
254.439	16917
254.502	13641
254.565	19168
254.628	33400
254.690	16043
254.753	8988
254.816	8424
254.878	9059
254.941	20007
255.004	23409
255.067	9482
255.129	7583
255.192	6019
255.255	4776
255.317	6414
255.380	4587
255.443	4233
255.505	4618
255.568	3991
255.631	5403
255.693	4648
255.756	4432
255.819	4669
255.881	4311
255.944	4714
256.006	4014
256.069	4565
256.132	4293
256.194	5443
256.257	13429
256.319	10700
256.382	10232
256.444	7898
256.507	6821
256.569	6971
256.632	7681
256.694	11786
256.757	26111
256.819	81618
256.882	38345
256.944	15105
257.007	10593
257.069	10551
257.132	8290
257.194	8629
257.257	7696
257.319	8793
257.381	10470
257.444	20485
257.506	89242
257.569	101896
257.631	40797
257.693	22520
257.756	12188
257.818	9974
257.880	7660
257.943	7664
258.005	6888
258.067	6558
258.130	7175
258.192	6796
258.254	10904
258.317	7967
258.379	7112
258.441	15261
258.503	15762
258.566	16663
258.628	23216
258.690	8328
258.753	8112
258.815	10986
258.877	8502
258.939	7335
259.001	7671
259.064	6593
259.126	7013
259.188	8608
259.250	7367
259.312	8445
259.375	14161
259.437	10505
259.499	6766
259.561	5833
259.623	6529
259.685	6323
259.747	6597
259.809	17322
259.872	31238
259.934	48812
259.996	45886
260.058	13507
260.120	6708
260.182	6519
260.244	5693
260.306	5222
260.368	5610
260.430	5700
260.492	10029
260.554	17758
260.616	11669
260.678	21793
260.740	31260
260.802	9615
260.864	7324
260.926	5379
260.988	7051
261.050	6552
261.112	14649
261.174	35524
261.236	28094
261.298	9698
261.359	13051
261.421	19258
261.483	7125
261.545	6772
261.607	4533
261.669	5935
261.731	7764
261.793	18930
261.854	8708
261.916	6381
261.978	6192
262.040	7233
262.102	4757
262.164	8215
262.225	6932
262.287	5260
262.349	10783
262.411	9985
262.472	6067
262.534	8426
262.596	17337
262.658	7632
262.719	4402
262.781	6943
262.843	16596
262.904	10080
262.966	8634
263.028	11545
263.090	47995
263.151	139748
263.213	45402
263.275	19446
263.336	8619
263.398	6530
263.459	4571
263.521	4860
263.583	10412
263.644	8826
263.706	3953
263.767	3034
263.829	4060
263.891	3356
263.952	2961
264.014	3778
264.075	6185
264.137	16391
264.198	7881
264.260	4219
264.321	3724
264.383	9688
264.444	23454
264.506	9297
264.567	6230
264.629	9924
264.690	21402
264.752	8483
264.813	5476
264.875	4128
264.936	4941
264.998	4528
265.059	3908
265.120	5573
265.182	7321
265.243	33828
265.305	41346
265.366	10549
265.427	6504
265.489	5271
265.550	2450
265.611	5051
265.673	4304
265.734	4604
265.795	3874
265.857	3776
265.918	5845
265.979	10665
266.040	61276
266.102	58774
266.163	15429
266.224	10337
266.286	6417
266.347	3901
266.408	4055
266.469	4845
266.530	4392
266.592	3259
266.653	6314
266.714	11151
266.775	4917
266.836	4476
266.898	2984
266.959	6098
267.020	5130
267.081	4713
267.142	3532
267.203	3773
267.264	3090
267.326	5446
267.387	3319
267.448	2644
267.509	3253
267.570	3838
267.631	3146
267.692	3691
267.753	4391
267.814	3289
267.875	6356
267.936	16189
267.997	10844
268.058	10008
268.119	5475
268.180	5235
268.241	4192
268.302	4444
268.363	3385
268.424	2982
268.485	4279
268.546	3484
268.607	2358
268.668	2843
268.729	2889
268.790	3537
268.851	4534
268.912	8668
268.972	10103
269.033	5721
269.094	3028
269.155	3748
269.216	3862
269.277	4641
269.338	3430
269.398	3439
269.459	4943
269.520	5304
269.581	6125
269.642	7882
269.702	6195
269.763	5533
269.824	4210
269.885	4942
269.945	7757
270.006	3907
270.067	2698
270.128	4014
270.188	3558
270.249	3888
270.310	2591
270.370	3572
270.431	4061
270.492	2928
270.553	4124
270.613	5928
270.674	13641
270.734	6562
270.795	3927
270.856	5409
270.916	4647
270.977	4522
271.038	4984
271.098	4275
271.159	6847
271.219	7050
271.280	4659
271.340	3784
271.401	3889
271.462	9444
271.522	6036
271.583	4919
271.643	5204
271.704	5355
271.764	5266
271.825	11400
271.885	41899
271.946	66072
272.006	18098
272.066	25671
272.127	51580
272.187	15487
272.248	8296
272.308	8150
272.369	32196
272.429	19093
272.489	11656
272.550	11281
272.610	10317
272.671	8248
272.731	7126
272.791	11676
272.852	7025
272.912	6419
272.972	3567
273.033	4634
273.093	6202
273.153	6857
273.214	5729
273.274	6455
273.334	20307
273.394	45429
273.455	15109
273.515	14346
273.575	32986
273.635	13697
273.696	16794
273.756	43688
273.816	16341
273.876	9182
273.936	16313
273.997	31383
274.057	9512
274.117	7272
274.177	10716
274.237	48670
274.297	46110
274.358	25194
274.418	32122
274.478	23491
274.538	9074
274.598	8124
274.658	23431
274.718	30961
274.778	12925
274.838	8534
274.898	12212
274.958	42233
275.018	44707
275.078	29883
275.138	10109
275.198	6845
275.258	5324
275.318	6791
275.378	9447
275.438	11066
275.498	7892
275.558	18957
275.618	43649
275.678	29313
275.738	14847
275.798	11964
275.858	7715
275.918	4311
275.978	5631
276.038	5438
276.098	4692
276.157	7642
276.217	22028
276.277	10235
276.337	6604
276.397	4856
276.457	5057
276.517	4397
276.576	3080
276.636	3365
276.696	5013
276.756	13839
276.815	10744
276.875	4819
276.935	5244
276.995	5514
277.055	3397
277.114	3794
277.174	5845
277.234	19887
277.293	8660
277.353	5240
277.413	3692
277.472	4402
277.532	4353
277.592	5480
277.651	11261
277.711	19919
277.771	7939
277.830	25632
277.890	21955
277.950	15189
278.009	50063
278.069	18680
278.128	13494
278.188	19703
278.248	8922
278.307	20141
278.367	14639
278.426	6563
278.486	4122
278.545	4857
278.605	4561
278.664	3860
278.724	5176
278.783	15321
278.843	44556
278.902	13599
278.962	7094
279.021	7511
279.081	9078
279.140	9178
279.199	7575
279.259	8747
279.318	9906
279.378	13396
279.437	17700
279.496	59939
279.556	177361
279.615	145856
279.675	33933
279.734	19928
279.793	26580
279.853	48995
279.912	19499
279.971	11123
280.031	10444
280.090	19449
280.149	34579
280.208	21918
280.268	113456
280.327	126824
280.386	27156
280.445	19473
280.505	17983
280.564	8962
280.623	7389
280.682	10654
280.742	17628
280.801	6734
280.860	5038
280.919	4977
280.978	3889
281.037	5432
281.097	4091
281.156	4841
281.215	3758
281.274	5096
281.333	23588
281.392	21435
281.451	5143
281.510	4417
281.569	3754
281.628	3458
281.688	3741
281.747	4874
281.806	4296
281.865	3859
281.924	2105
281.983	3092
282.042	2631
282.101	3100
282.160	2531
282.219	2910
282.278	2462
282.337	12149
282.396	8583
282.454	3569
282.513	4667
282.572	17154
282.631	10002
282.690	3846
282.749	2722
282.808	4756
282.867	4138
282.926	4174
282.985	3389
283.043	3431
283.102	3353
283.161	4571
283.220	9052
283.279	23539
283.338	8423
283.396	4528
283.455	4088
283.514	4042
283.573	6343
283.631	5329
283.690	4372
283.749	3478
283.808	7103
283.866	9502
283.925	4048
283.984	3510
284.043	4697
284.101	5081
284.160	3593
284.219	6857
284.277	5626
284.336	6596
284.395	22978
284.453	21799
284.512	5986
284.570	8707
284.629	7253
284.688	5729
284.746	5824
284.805	7138
284.863	8632
284.922	11440
284.981	14989
285.039	21652
285.098	33607
285.156	80945
285.215	266231
285.273	273124
285.332	115096
285.390	51664
285.449	29756
285.507	19381
285.566	15196
285.624	12822
285.683	9906
285.741	8090
285.799	6651
285.858	6272
285.916	6139
285.975	5434
286.033	3884
286.091	4718
286.150	3412
286.208	4783
286.267	5722
286.325	5109
286.383	7584
286.442	6665
286.500	3556
286.558	4130
286.616	3520
286.675	4874
286.733	4823
286.791	4980
286.850	4477
286.908	6301
286.966	9782
287.024	6209
287.083	3890
287.141	3253
287.199	3944
287.257	5032
287.315	4637
287.374	4910
287.432	11501
287.490	9320
287.548	5467
287.606	6106
287.664	5008
287.723	8778
287.781	10948
287.839	9929
287.897	11902
287.955	18557
288.013	28056
288.071	52079
288.129	182078
288.187	480139
288.245	257195
288.303	85677
288.361	45896
288.419	30810
288.477	20748
288.535	16241
288.593	11827
288.651	11259
288.709	8382
288.767	7510
288.825	6890
288.883	5410
288.941	6167
288.999	5326
289.057	5057
289.115	4630
289.173	4711
289.231	4922
289.289	3354
289.346	3936
289.404	5146
289.462	6620
289.520	6043
289.578	4538
289.636	3622
289.694	3870
289.751	3522
289.809	3542
289.867	3034
289.925	4792
289.983	5080
290.040	3362
290.098	2832
290.156	3065
290.214	4244
290.271	3505
290.329	2708
290.387	2324
290.444	3270
290.502	2158
290.560	2421
290.617	3246
290.675	3131
290.733	2305
290.790	3862
290.848	2659
290.906	2459
290.963	2682
291.021	3551
291.078	2909
291.136	3273
291.194	10749
291.251	24921
291.309	7705
291.366	3453
291.424	2960
291.481	2527
291.539	2956
291.596	3008
291.654	2237
291.711	1854
291.769	3395
291.826	5692
291.884	3717
291.941	2134
291.999	2841
292.056	3223
292.114	3663
292.171	2325
292.228	3647
292.286	4049
292.343	5183
292.401	6958
292.458	4999
292.515	2863
292.573	4313
292.630	3861
292.687	4508
292.745	4105
292.802	4496
292.859	14101
292.917	23025
292.974	13175
293.031	5658
293.089	4190
293.146	3202
293.203	2294
293.260	2750
293.318	3801
293.375	7672
293.432	4719
293.489	3401
293.546	3589
293.604	6009
293.661	15834
293.718	48065
293.775	24123
293.832	9688
293.889	6877
293.947	6852
294.004	5857
294.061	5332
294.118	9786
294.175	23059
294.232	32568
294.289	13198
294.346	6586
294.403	7656
294.460	5807
294.517	4273
294.574	4056
294.631	4839
294.688	5710
294.745	12529
294.802	52042
294.859	57417
294.916	20902
294.973	10851
295.030	7363
295.087	6585
295.144	5017
295.201	4578
295.258	4888
295.315	6458
295.372	17075
295.429	40515
295.486	16843
295.542	9265
295.599	21940
295.656	40419
295.713	24984
295.770	34802
295.827	13539
295.883	7337
295.940	5836
295.997	8206
296.054	7768
296.111	5470
296.167	3934
296.224	3816
296.281	2901
296.338	4248
296.394	3359
296.451	5038
296.508	14192
296.564	26682
296.621	18966
296.678	41820
296.734	67286
296.791	23357
296.848	11100
296.904	10291
296.961	18892
297.018	36865
297.074	30957
297.131	12952
297.187	8855
297.244	11524
297.301	38958
297.357	82105
297.414	27847
297.470	11665
297.527	7420
297.583	5867
297.640	5906
297.696	4080
297.753	3867
297.809	3626
297.866	3393
297.922	3137
297.979	3259
298.035	4282
298.092	6163
298.148	21292
298.204	20940
298.261	10268
298.317	16789
298.374	55413
298.430	32505
298.486	13800
298.543	9581
298.599	8025
298.656	9032
298.712	15844
298.768	51132
298.824	43685
298.881	13102
298.937	7295
298.993	5759
299.050	7603
299.106	6694
299.162	5731
299.218	6478
299.275	5746
299.331	6375
299.387	10754
299.443	45315
299.500	49164
299.556	18160
299.612	8742
299.668	7980
299.724	9420
299.780	9193
299.837	6489
299.893	8751
299.949	30462
300.005	36824
300.061	29812
300.117	64629
300.173	31578
300.229	12187
300.285	11938
300.341	12912
300.397	7703
300.453	4694
300.510	5247
300.566	5599
300.622	6621
300.678	15634
300.734	31410
300.790	30113
300.845	42930
300.901	23337
300.957	30139
301.013	23158
301.069	9420
301.125	6364
301.181	5738
301.237	4208
301.293	4202
301.349	4006
301.405	3685
301.461	3668
301.516	6334
301.572	5419
301.628	8841
301.684	8159
301.740	13914
301.796	22675
301.851	15414
301.907	22850
301.963	23214
302.019	41677
302.074	132327
302.130	133708
302.186	56279
302.242	22551
302.297	14058
302.353	13284
302.409	23161
302.464	20299
302.520	15811
302.576	38541
302.631	45558
302.687	23575
302.743	10507
302.798	6511
302.854	5674
302.910	5924
302.965	6586
303.021	10635
303.076	10390
303.132	11537
303.187	13066
303.243	8062
303.299	5208
303.354	4131
303.410	5339
303.465	4555
303.521	4223
303.576	4646
303.632	5985
303.687	11252
303.743	40644
303.798	34585
303.853	13698
303.909	6967
303.964	6545
304.020	7498
304.075	10836
304.130	8640
304.186	16326
304.241	17900
304.297	13717
304.352	8684
304.358	8338
304.407	5529
304.449	5015
304.463	4847
304.518	5104
304.539	5197
304.573	5342
304.629	6214
304.630	6277
304.684	9662
304.720	22790
304.739	29234
304.794	49201
304.811	41494
304.850	23241
304.902	9893
304.905	9048
304.960	6477
304.992	6592
305.015	6613
305.071	6107
305.083	5753
305.126	4541
305.173	4010
305.181	3933
305.236	3452
305.264	4195
305.292	4913
305.347	4725
305.354	4889
305.402	6087
305.445	6168
305.457	6130
305.512	7955
305.535	7931
305.567	8143
305.622	8132
305.626	8374
305.678	14686
305.716	32522
305.733	38694
305.788	43372
305.807	37393
305.843	28508
305.897	39693
305.898	39782
305.953	41511
305.988	26014
306.008	17851
306.063	10558
306.078	9620
306.118	7661
306.168	5240
306.173	5030
306.228	4584
306.259	4308
306.283	4147
306.338	4237
306.349	4406
306.393	5290
306.440	6605
306.448	6781
306.503	6939
306.530	7085
306.558	8681
306.613	18249
306.620	19767
306.668	28487
306.711	35077
306.723	35576
306.778	26436
306.801	19704
306.833	12622
306.888	7225
306.892	7068
306.943	5782
306.982	4847
306.997	4574
307.052	4678
307.072	4953
307.107	5968
307.162	8705
307.163	8750
307.217	13397
307.253	16315
307.272	16915
307.327	18368
307.343	16691
307.381	13642
307.434	11439
307.436	11600
307.491	20081
307.524	30829
307.546	33861
307.600	30996
307.614	27103
307.655	16861
307.704	10563
307.710	10409
307.765	12954
307.795	16562
307.819	19337
307.874	30996
307.885	31152
307.929	27529
307.975	22452
307.984	23053
308.038	31666
308.065	38394
308.093	70578
308.148	150139
308.156	168745
308.202	245173
308.246	292305
308.257	284704
308.312	145880
308.336	94180
308.366	66406
308.421	38761
308.426	36566
308.475	24618
308.517	18403
308.530	17065
308.585	14373
308.607	13427
308.639	13324
308.694	14743
308.697	14971
308.748	26045
308.787	39254
308.803	39746
308.857	31284
308.877	26403
308.912	23033
308.967	22439
308.967	22474
309.021	29279
309.058	35085
309.076	45971
309.130	84563
309.148	99835
309.185	203038
309.238	383471
309.239	384031
309.293	384893
309.328	327468
309.348	279231
309.402	124583
309.418	87984
309.457	59076
309.508	34531
309.511	33701
309.566	26083
309.598	22808
309.620	22116
309.674	21800
309.688	22195
309.729	21373
309.778	18569
309.783	18303
309.837	15699
309.868	14530
309.892	18169
309.946	28258
309.959	31677
310.001	38437
310.049	43093
310.055	41785
310.109	25052
310.139	15359
310.163	12042
310.218	7989
310.229	7387
310.272	6950
310.319	6830
310.326	6715
310.381	6073
310.409	5842
310.435	5851
310.489	5643
310.499	5666
310.543	6225
310.589	6675
310.598	6573
310.652	6364
310.679	5988
310.706	5293
310.760	4028
310.769	3822
310.814	3444
310.859	3222
310.868	3257
310.923	3555
310.948	3708
310.977	3983
311.031	4723
311.038	4807
311.085	4091
311.128	3274
311.139	3364
311.193	4007
311.218	4232
311.247	4067
311.301	3889
311.308	3861
311.356	3846
311.398	3906
311.410	3874
311.464	3674
311.488	3534
311.518	3545
311.572	3624
311.578	3645
311.626	4306
311.668	4882
311.680	5071
311.734	5817
311.758	6183
311.788	5652
311.842	4658
311.847	4556
311.896	7227
311.937	9661
311.950	9256
312.004	7420
312.027	6584
312.058	5760
312.112	4345
312.117	4211
312.165	4324
312.207	4435
312.297	5603
312.386	4441
312.476	4653
312.566	7400
312.656	4565
312.745	3228
312.835	4426
312.925	4061
313.015	4818
313.104	4988
313.194	3388
313.284	3457
313.374	4467
313.463	4150
313.553	3384
313.643	2678
313.732	3479
313.822	2776
313.912	3766
314.001	3730
314.091	5508
314.180	5955
314.270	4674
314.360	5453
314.449	4730
314.539	3088
314.628	3488
314.718	4842
314.808	5972
314.897	3177
314.987	3748
315.076	4149
315.166	5767
315.255	5640
315.345	6139
315.434	4853
315.524	5829
315.613	5910
315.703	6197
315.792	9833
315.881	21514
315.971	9084
316.060	10728
316.150	17828
316.239	18048
316.328	6424
316.418	3753
316.507	3991
316.597	5207
316.686	4009
316.775	10396
316.865	17450
316.954	4162
317.043	2992
317.133	3898
317.222	2757
317.311	3814
317.400	2401
317.490	5019
317.579	4832
317.668	3562
317.757	6445
317.847	15958
317.936	38026
318.025	15393
318.114	9541
318.203	6586
318.293	10557
318.382	16977
318.471	13478
318.560	25515
318.649	51521
318.738	9227
318.828	6456
318.917	6189
319.006	10619
319.095	27702
319.184	69190
319.273	26810
319.362	10970
319.451	5590
319.540	4677
319.629	10909
319.718	14709
319.807	9402
319.896	24767
319.985	82128
320.074	19066
320.163	8370
320.252	11997
320.341	10424
320.430	7789
320.519	8692
320.608	4351
320.697	5527
320.786	4080
320.875	5552
320.964	7335
321.053	10126
321.142	14694
321.230	13273
321.319	14009
321.408	26816
321.497	11146
321.586	11799
321.675	17326
321.764	14727
321.852	11409
321.941	16321
322.030	9489
322.119	13585
322.207	29426
322.296	24738
322.385	12138
322.474	14021
322.562	32986
322.651	15692
322.740	13531
322.829	19315
322.917	24451
323.006	11078
323.095	9447
323.183	10200
323.272	12674
323.361	29230
323.449	85908
323.538	24244
323.626	61591
323.715	28389
323.804	15951
323.892	52173
323.981	20475
324.069	9262
324.158	31628
324.246	22229
324.335	8498
324.424	9605
324.512	4519
324.601	5358
324.689	9641
324.778	16553
324.866	17874
324.954	5185
325.043	4235
325.131	11443
325.220	21681
325.308	22301
325.397	16243
325.485	7538
325.574	3512
325.662	3305
325.750	3292
325.839	3290
325.927	3357
326.015	5169
326.104	11142
326.192	12640
326.280	2967
326.369	4105
326.457	5535
326.545	9092
326.634	3437
326.722	3574
326.810	3229
326.898	4048
326.987	4911
327.075	8711
327.163	9841
327.251	4238
327.340	6895
327.428	7395
327.516	3060
327.604	3670
327.692	3987
327.781	6784
327.869	9641
327.957	5583
328.045	4357
328.133	3811
328.221	5695
328.309	3739
328.397	4082
328.485	4825
328.574	6899
328.662	18231
328.750	12258
328.838	5841
328.926	3916
329.014	3986
329.102	5450
329.190	14507
329.278	7449
329.366	4528
329.454	4421
329.542	4161
329.630	3495
329.718	4948
329.806	6630
329.893	9492
329.981	14152
330.069	33592
330.157	147089
330.245	333550
330.333	148630
330.421	26442
330.509	14755
330.597	24431
330.684	14262
330.772	7864
330.860	10978
330.948	13426
331.036	6064
331.123	3013
331.211	4210
331.299	5034
331.387	12533
331.475	16574
331.562	5982
331.650	3425
331.738	4152
331.825	6207
331.913	3251
332.001	2990
332.089	4692
332.176	10814
332.264	28329
332.352	16281
332.439	5600
332.527	4681
332.614	3913
332.702	5755
332.790	3824
332.877	13550
332.965	20449
333.052	5375
333.140	5279
333.228	9910
333.315	3247
333.403	5264
333.490	16611
333.578	9646
333.665	7407
333.753	4793
333.840	3671
333.928	5954
334.015	17420
334.103	34119
334.190	88744
334.278	16235
334.365	8047
334.452	5304
334.540	3827
334.627	5569
334.715	9344
334.802	20895
334.889	115341
334.977	85883
335.064	9536
335.151	5437
335.239	6615
335.326	9547
335.413	49002
335.501	49623
335.588	6854
335.675	4258
335.762	7306
335.850	11357
335.937	9190
336.024	29198
336.111	105973
336.199	30071
336.286	6363
336.373	3926
336.460	3279
336.547	3786
336.635	4565
336.722	4228
336.809	4259
336.896	7025
336.983	25318
337.070	62680
337.157	87493
337.245	69055
337.332	36980
337.419	6016
337.506	4392
337.593	6484
337.680	22450
337.767	52269
337.854	13907
337.941	15728
338.028	18727
338.115	5951
338.202	8606
338.289	21041
338.376	60789
338.463	16327
338.550	37298
338.637	29955
338.724	12832
338.811	16300
338.898	4061
338.984	3583
339.071	3737
339.158	5153
339.245	10719
339.332	6153
339.419	13732
339.506	9100
339.593	1691
339.679	2609
339.766	2270
339.853	4560
339.940	7377
340.027	2694
340.113	3377
340.200	4736
340.287	3679
340.374	4751
340.460	6254
340.547	2748
340.634	6822
340.720	22010
340.807	8955
340.894	2519
340.980	2980
341.067	1816
341.154	3337
341.240	5504
341.327	10190
341.414	4023
341.500	3207
341.587	3613
341.674	3677
341.760	7065
341.847	6821
341.933	2730
342.020	1698
342.106	2325
342.193	3480
342.279	4830
342.366	3609
342.452	6131
342.539	3562
342.625	10216
342.712	21254
342.798	8573
342.885	3057
342.971	1509
343.058	1627
343.144	2296
343.230	3069
343.317	2586
343.403	1566
343.490	2233
343.576	1957
343.662	3084
343.749	3481
343.835	5227
343.921	12926
344.008	89514
344.094	151953
344.180	25724
344.267	10159
344.353	38773
344.439	31541
344.525	10313
344.612	8182
344.698	6921
344.784	3532
344.870	3317
344.957	2879
345.043	4367
345.129	3227
345.215	6761
345.301	3117
345.387	1976
345.474	1842
345.560	2394
345.646	3125
345.732	3204
345.818	2969
345.904	3105
345.990	3059
346.076	4446
346.162	7496
346.249	3370
346.335	2658
346.421	3536
346.507	19720
346.593	50984
346.679	8820
346.765	4325
346.851	2461
346.937	2991
347.023	3643
347.108	2764
347.194	2701
347.280	3635
347.366	4472
347.452	19319
347.538	66520
347.624	41410
347.710	27606
347.796	5042
347.882	3010
347.967	3185
348.053	4120
348.139	3077
348.225	2831
348.311	1370
348.397	1885
348.482	3736
348.568	3565
348.654	1229
348.740	3388
348.825	1625
348.911	8439
348.997	37597
349.083	57163
349.168	7598
349.254	2649
349.340	2860
349.425	2834
349.511	3282
349.597	4038
349.682	10146
349.768	30577
349.854	10735
349.939	2963
350.025	2813
350.110	3177
350.196	2210
350.282	993
350.367	2259
350.453	6320
350.538	5844
350.624	3765
350.709	3086
350.795	1591
350.880	2027
350.966	3099
351.051	6209
351.137	4571
351.222	3315
351.308	9915
351.393	21775
351.479	3929
351.564	1770
351.649	2118
351.735	2489
351.820	1482
351.906	2180
351.991	4189
352.076	18597
352.162	19061
352.247	4598
352.332	3161
352.418	5323
352.503	8547
352.588	34520
352.673	20726
352.759	4662
352.844	2842
352.929	3720
353.014	3687
353.100	3402
353.185	5523
353.270	6678
353.355	6255
353.441	3207
353.526	4802
353.611	7924
353.696	6949
353.781	5402
353.866	2063
353.952	3567
354.037	7002
354.122	13997
354.207	11117
354.292	4910
354.377	2330
354.462	2373
354.547	3414
354.632	3719
354.717	6181
354.802	4566
354.887	2544
354.972	2374
355.057	1996
355.142	1751
355.227	2988
355.312	5548
355.397	10987
355.482	22317
355.567	9787
355.652	8220
355.737	11254
355.822	37380
355.907	23411
355.991	4554
356.076	1837
356.161	3156
356.246	2098
356.331	4474
356.416	12963
356.501	80199
356.585	62771
356.670	6898
356.755	6482
356.840	10765
356.924	59909
357.009	170861
357.094	48099
357.179	9302
357.263	6323
357.348	6739
357.433	6190
357.517	5815
357.602	4334
357.687	4465
357.771	9148
357.856	25372
357.941	14644
358.025	55107
358.110	194119
358.195	67965
358.279	8530
358.364	6913
358.448	25204
358.533	58903
358.617	39842
358.702	39284
358.787	12948
358.871	6869
358.956	5821
359.040	1997
359.125	1937
359.209	2658
359.294	12957
359.378	16724
359.462	6224
359.547	3325
359.631	3196
359.716	2012
359.800	2830
359.885	5333
359.969	2106
360.053	3165
360.138	2776
360.222	3976
360.306	6772
360.391	6131
360.475	14774
360.559	24434
360.644	20844
360.728	15201
360.812	47394
360.896	104195
360.981	34521
361.065	14293
361.149	4577
361.233	3355
361.318	3581
361.402	4482
361.486	3729
361.570	3522
361.654	4478
361.739	15101
361.823	77543
361.907	99369
361.991	13200
362.075	8608
362.159	13476
362.243	10545
362.327	8665
362.411	10692
362.495	5784
362.580	3269
362.664	3267
362.748	2273
362.832	4133
362.916	7481
363.000	23963
363.084	83598
363.168	114495
363.252	21317
363.336	8123
363.420	14077
363.503	63459
363.587	61474
363.671	8952
363.755	6083
363.839	8206
363.923	3551
364.007	8854
364.091	11097
364.175	28764
364.258	98134
364.342	48990
364.426	31536
364.510	15248
364.594	12755
364.677	25277
364.761	98508
364.845	57061
364.929	13559
365.013	9403
365.096	9412
365.180	10214
365.264	32676
365.347	97303
365.431	34413
365.515	7908
365.598	3190
365.682	4839
365.766	8223
365.849	9680
365.933	4379
366.017	7130
366.100	4386
366.184	896
366.267	3386
366.351	1859
366.435	1611
366.518	1114
366.602	2002
366.685	3027
366.769	3380
366.852	7172
366.936	10181
367.019	5082
367.103	5475
367.186	11438
367.270	3005
367.353	403
367.436	1735
367.520	951
367.603	4023
367.687	4051
367.770	8402
367.853	6510
367.937	27108
368.020	36714
368.104	6100
368.187	7372
368.270	9377
368.353	9053
368.437	16871
368.520	39001
368.603	19778
368.687	28023
368.770	44008
368.853	10383
368.936	9909
369.020	10122
369.103	3499
369.186	2203
369.269	2689
369.352	6825
369.436	7412
369.519	5253
369.602	1027
369.685	3844
369.768	2525
369.851	2595
369.934	1622
370.018	3069
370.101	6697
370.184	6502
370.267	5433
370.350	8355
370.433	16029
370.516	49535
370.599	49863
370.682	11600
370.765	22734
370.848	33387
370.931	59540
371.014	19215
371.097	3153
371.180	3097
371.263	2973
371.346	1121
371.429	3324
371.511	2861
371.594	4052
371.677	9149
371.760	12260
371.843	13833
371.926	83594
372.009	153839
372.091	39242
372.174	30007
372.257	66477
372.340	21197
372.423	15824
372.505	17696
372.588	7373
372.671	22217
372.754	57516
372.836	25776
372.919	28918
373.002	48610
373.085	11930
373.167	9661
373.250	28435
373.332	62653
373.415	111305
373.498	199782
373.580	66447
373.663	107580
373.746	123067
373.828	21640
373.911	9593
373.993	13260
374.076	53842
374.159	42392
374.241	20719
374.324	46162
374.406	30962
374.489	72844
374.571	158894
374.654	52446
374.736	35611
374.819	104651
374.901	150216
374.983	133014
375.066	19917
375.148	10566
375.231	48616
375.313	76956
375.395	22694
375.478	4012
375.560	4641
375.643	7146
375.725	37031
375.807	128716
375.890	87154
375.972	32472
376.054	19345
376.136	30489
376.219	13702
376.301	41488
376.383	93850
376.465	31205
376.548	15955
376.630	28612
376.712	76268
376.794	28958
376.877	4390
376.959	2415
377.041	4214
377.123	9642
377.205	10482
377.287	2053
377.369	1981
377.452	2207
377.534	2917
377.616	2928
377.698	2116
377.780	908
377.862	2881
377.944	2702
378.026	1622
378.108	2074
378.190	1731
378.272	2466
378.354	1113
378.436	1467
378.518	5675
378.600	17736
378.682	16230
378.764	31124
378.846	22320
378.928	6289
379.010	7657
379.091	5448
379.173	2437
379.255	1358
379.337	4446
379.419	19052
379.501	44295
379.583	15618
379.664	5199
379.746	11655
379.828	30794
379.910	41516
379.991	34099
380.073	5507
380.155	3151
380.237	2417
380.318	1675
380.400	3058
380.482	6231
380.564	8756
380.645	7910
380.727	6814
380.809	5675
380.890	2857
380.972	1760
381.053	3358
381.135	4364
381.217	12372
381.298	30823
381.380	13891
381.461	19233
381.543	84029
381.624	84004
381.706	13696
381.787	7114
381.869	10544
381.951	52479
382.032	157731
382.113	80676
382.195	11092
382.276	9854
382.358	28436
382.439	73856
382.521	94622
382.602	132175
382.684	54276
382.765	84000
382.846	64456
382.928	45537
383.009	24791
383.090	27141
383.172	82410
383.253	98681
383.334	59271
383.416	100001
383.497	43534
383.578	13801
383.659	24681
383.741	87065
383.822	168148
383.903	77200
383.984	60784
384.066	112017
384.147	57789
384.228	11376
384.309	8039
384.390	5493
384.471	3811
384.553	5194
384.634	7274
384.715	7371
384.796	4056
384.877	6995
384.958	30960
385.039	30722
385.120	9979
385.201	6291
385.282	6148
385.363	7080
385.444	6215
385.525	18045
385.606	59570
385.687	45661
385.768	10874
385.849	16657
385.930	83598
386.011	123488
386.092	27001
386.173	7072
386.254	5472
386.335	5977
386.416	6260
386.496	21244
386.577	28223
386.658	11537
386.739	6762
386.820	7980
386.901	5561
386.981	5817
387.062	4337
387.143	9297
387.224	30865
387.304	24985
387.385	9507
387.466	6152
387.547	8700
387.627	6117
387.708	16628
387.789	63684
387.869	70937
387.950	18360
388.031	4515
388.111	4144
388.192	14389
388.273	17466
388.353	10195
388.434	6067
388.514	19539
388.595	78313
388.676	79395
388.756	30507
388.837	25268
388.917	13634
388.998	2733
389.078	4298
389.159	3545
389.239	2865
389.320	5864
389.400	3694
389.480	16477
389.561	34096
389.641	15911
389.722	5498
389.802	7988
389.883	20123
389.963	45228
390.043	26833
390.124	8552
390.204	15550
390.284	33204
390.365	23822
390.445	59907
390.525	177498
390.605	139530
390.686	25625
390.766	8477
390.846	5512
390.927	2940
391.007	2978
391.087	5581
391.167	5061
391.247	2891
391.328	9042
391.408	10528
391.488	7319
391.568	1703
391.648	3426
391.728	6361
391.808	6243
391.888	6796
391.969	21398
392.049	28088
392.129	13310
392.209	20340
392.289	40682
392.369	21865
392.449	19568
392.529	10658
392.609	9262
392.689	15524
392.769	43159
392.849	32326
392.929	29215
393.009	62300
393.089	41223
393.169	37798
393.248	155446
393.328	548586
393.408	498490
393.488	97137
393.568	25596
393.648	13489
393.728	9519
393.807	7316
393.887	7806
393.967	8169
394.047	10002
394.127	13772
394.206	30000
394.286	137259
394.366	514079
394.446	488045
394.525	104653
394.605	26113
394.685	19821
394.764	34710
394.844	52053
394.924	32488
395.003	10084
395.083	6818
395.163	6738
395.242	6526
395.322	6936
395.402	4556
395.481	9740
395.561	26311
395.640	55531
395.720	44361
395.799	71766
395.879	55827
395.958	47849
396.038	202802
396.117	672387
396.197	655086
396.276	177120
396.356	53045
396.435	32416
396.515	21534
396.594	20242
396.673	40392
396.753	177608
396.832	476074
396.912	287804
396.991	52825
397.070	15574
397.150	7589
397.229	7250
397.308	8736
397.388	11157
397.467	7836
397.546	4647
397.625	2247
397.705	6282
397.784	5003
397.863	3090
397.942	2192
398.022	4308
398.101	23217
398.180	55260
398.259	24623
398.338	5963
398.417	3257
398.497	2826
398.576	3759
398.655	1964
398.734	2328
398.813	3908
398.892	22770
398.971	62977
399.050	25431
399.129	2826
399.208	1617
399.287	2415
399.366	1161
399.445	1732
399.524	2735
399.603	1651
399.682	5237
399.761	21629
399.840	68982
399.919	47268
399.998	6030
400.077	766
400.156	290
400.235	4191
400.313	1677
400.392	3477
400.471	16903
400.550	21791
400.629	4847
400.708	3635
400.786	3686
400.865	12166
400.944	11191
401.023	6074
401.102	942
401.180	1593
401.259	1673
401.338	1732
401.416	3742
401.495	2652
401.574	3642
401.652	1471
401.731	4104
401.810	2232
401.888	1889
401.967	1297
402.046	2052
402.124	3263
402.203	3929
402.281	3026
402.360	5345
402.438	15298
402.517	8934
402.596	3543
402.674	2579
402.753	1482
402.831	2405
402.910	3158
402.988	12096
403.066	29568
403.145	16792
403.223	13479
403.302	23807
403.380	18271
403.459	15357
403.537	5952
403.615	2753
403.694	225
403.772	1943
403.850	1528
403.929	937
404.007	924
404.085	3557
404.164	3031
404.242	2895
404.320	14862
404.398	46336
404.477	55872
404.555	110125
404.633	85349
404.711	32859
404.789	17279
404.868	3271
404.946	1881
405.024	1036
405.102	1189
405.180	629
405.258	-131
405.336	1755
405.415	1088
405.493	4420
405.571	3443
405.649	687
405.727	727
405.805	2682
405.883	2308
405.961	3002
406.039	3315
406.117	388
406.195	4739
406.273	25792
406.351	76309
406.429	39450
406.507	6340
406.585	1983
406.663	2262
406.740	2696
406.818	1580
406.896	1225
406.974	3023
407.052	8089
407.130	47383
407.208	54366
407.285	9448
407.363	1374
407.441	1259
407.519	1640
407.596	2937
407.674	10364
407.752	27223
407.830	22771
407.907	8029
407.985	2356
408.063	1667
408.141	1766
408.218	3604
408.296	2107
408.373	1826
408.451	1961
408.529	1897
408.606	1048
408.684	891
408.762	300
408.839	-138
408.917	208
408.994	709
409.072	368
409.149	749
409.227	2781
409.304	2991
409.382	1778
409.459	1839
409.537	2325
409.614	2539
409.692	1598
409.769	1500
409.846	3022
409.924	4176
410.001	1587
410.079	2264
410.156	2800
410.233	3274
410.311	2479
410.388	950
410.465	1748
410.543	1492
410.620	1236
410.697	2327
410.775	1581
410.852	-21
410.929	2623
411.006	2813
411.083	1832
411.161	3884
411.238	4719
411.315	2921
411.392	14
411.469	2637
411.547	2558
411.624	302
411.701	936
411.778	2254
411.855	3455
411.932	1529
412.009	1020
412.086	1780
412.163	2361
412.240	2065
412.317	4229
412.394	1951
412.471	610
412.548	107
412.625	1145
412.702	2434
412.779	4188
412.856	3095
412.933	509
413.010	1151
413.087	3517
413.164	14202
413.241	17614
413.318	3222
413.395	3126
413.471	4120
413.548	1386
413.625	1285
413.702	2109
413.779	2011
413.855	-65
413.932	-423
414.009	108
414.086	690
414.162	1232
414.239	3698
414.316	15547
414.393	29062
414.469	7418
414.546	1416
414.623	406
414.699	889
414.776	587
414.853	691
414.929	478
415.006	561
415.082	1417
415.159	1690
415.236	1683
415.312	1409
415.389	3494
415.465	3037
415.542	2243
415.618	666
415.695	2392
415.771	1049
415.848	924
415.924	1182
416.000	1670
416.077	1020
416.153	-663
416.230	-123
416.306	-115
416.383	1171
416.459	1478
416.535	-265
416.612	192
416.688	1110
416.764	429
416.841	-250
416.917	43
416.993	1064
417.069	2043
417.146	3328
417.222	4107
417.298	1566
417.374	42
417.451	1812
417.527	1815
417.603	994
417.679	1156
417.755	1046
417.831	226
417.908	531
417.984	476
418.060	564
418.136	3120
418.212	4130
418.288	562
418.364	1104
418.440	497
418.516	2468
418.592	4694
418.668	7153
418.744	7474
418.820	5531
418.896	1200
418.972	425
419.048	1199
419.124	4517
419.200	810
419.276	146
419.352	-91
419.428	1021
419.504	637
419.579	1299
419.655	765
419.731	1930
419.807	5578
419.883	9634
419.959	5055
420.034	2252
420.110	5812
420.186	18374
420.262	12335
420.337	2072
420.413	903
420.489	1127
420.565	1214
420.640	565
420.716	1131
420.792	-461
420.867	1686
420.943	489
421.019	2315
421.094	1775
421.170	434
421.245	224
421.321	1739
421.397	1173
421.472	6926
421.548	12509
421.623	6776
421.699	2296
421.774	2397
421.850	1419
421.925	3792
422.001	3136
422.076	3422
422.152	3630
422.227	6147
422.302	7902
422.378	12077
422.453	22833
422.529	71680
422.604	249570
422.679	421363
422.755	205411
422.830	48188
422.905	18907
422.981	9811
423.056	6923
423.131	4327
423.207	3836
423.282	2852
423.357	5962
423.432	3903
423.508	5067
423.583	8237
423.658	5473
423.733	2420
423.808	3032
423.883	2992
423.959	2114
424.034	1394
424.109	1052
424.184	511
424.259	233
424.334	1117
424.409	-171
424.484	-3
424.559	1416
424.634	801
424.709	1605
424.784	2415
424.859	1645
424.934	2920
425.009	13209
425.084	19384
425.159	5743
425.234	1246
425.309	1132
425.384	6096
425.459	7319
425.534	2244
425.609	736
425.683	991
425.758	110
425.833	1044
425.908	2109
425.983	8294
426.058	18650
426.132	6919
426.207	1521
426.282	4113
426.357	2998
426.431	528
426.506	718
426.581	228
426.655	1322
426.730	834
426.805	121
426.879	1184
426.954	1510
427.029	4932
427.103	27799
427.178	59665
427.253	22834
427.327	2901
427.402	4152
427.476	10867
427.551	4356
427.625	703
427.700	2458
427.774	293
427.849	1719
427.923	-456
427.998	1047
428.072	1416
428.147	5889
428.221	22659
428.296	48712
428.370	18875
428.444	3375
428.519	5379
428.593	10812
428.667	9010
428.742	12309
428.816	13154
428.890	39174
428.965	45559
429.039	15837
429.113	12300
429.188	3575
429.262	1756
429.336	2895
429.410	9146
429.485	6986
429.559	9843
429.633	6656
429.707	2272
429.781	10017
429.855	43151
429.930	48928
430.004	34405
430.078	55650
430.152	54724
430.226	84071
430.300	65758
430.374	8470
430.448	5021
430.522	22314
430.596	54527
430.670	35215
430.744	68913
430.818	77714
430.892	14298
430.966	1947
431.040	1368
431.114	-200
431.188	777
431.262	712
431.336	527
431.410	5818
431.484	11944
431.557	6488
431.631	599
431.705	1903
431.779	12909
431.853	43096
431.927	22173
432.000	2612
432.074	801
432.148	1320
432.222	1414
432.295	530
432.369	904
432.443	4425
432.516	29816
432.590	61352
432.664	19247
432.737	1252
432.811	-321
432.885	-558
432.958	-482
433.032	-127
433.106	-213
433.179	-111
433.253	62
433.326	-203
433.400	-632
433.473	473
433.547	-627
433.620	-157
433.694	1564
433.767	2075
433.841	-27
433.914	-53
433.988	-189
434.061	-191
434.134	-151
434.208	-252
434.281	-1007
434.355	-326
434.428	192
434.501	173
434.575	-445
434.648	186
434.721	-614
434.795	-359
434.868	-458
434.941	-644
435.014	-298
435.088	201
435.161	691
435.234	1053
435.307	1360
435.381	422
435.454	49
435.527	867
435.600	137
435.673	486
435.746	297
435.819	159
435.892	175
435.966	-187
436.039	265
436.112	886
436.185	24
436.258	-920
436.331	-808
436.404	-588
436.477	303
436.550	-650
436.623	-350
436.696	-377
436.769	-530
436.842	381
436.915	148
436.987	281
437.060	333
437.133	-579
437.206	-538
437.279	743
437.352	175
437.425	-276
437.498	164
437.570	2206
437.643	1345
437.716	271
437.789	-226
437.861	1495
437.934	6025
438.007	2504
438.080	-424
438.152	1390
438.225	6211
438.298	46370
438.370	96791
438.443	32581
438.516	5224
438.588	639
438.661	-1
438.734	-15
438.806	578
438.879	898
438.951	1617
439.024	2950
439.096	-98
439.169	965
439.241	-158
439.314	31
439.386	1745
439.459	2950
439.531	4505
439.604	872
439.676	504
439.749	-913
439.821	-484
439.893	108
439.966	8
440.038	1162
440.110	855
440.183	150
440.255	257
440.327	2105
440.400	16638
440.472	54477
440.544	27997
440.617	3268
440.689	2667
440.761	2972
440.833	4025
440.905	2419
440.978	-1375
441.050	-44
441.122	679
441.194	-711
441.266	9
441.338	-380
441.411	2593
441.483	15066
441.555	17180
441.627	3218
441.699	2800
441.771	2618
441.843	-94
441.915	-72
441.987	-155
442.059	138
442.131	77
442.203	2594
442.275	1341
442.347	2473
442.419	4146
442.491	20570
442.563	35048
442.635	14295
442.706	12757
442.778	9622
442.850	672
442.922	475
442.994	537
443.066	1915
443.137	1895
443.209	787
443.281	1685
443.353	6964
443.425	32241
443.496	80534
443.568	59144
443.640	16824
443.711	3482
443.783	601
443.855	484
443.926	388
443.998	219
444.070	1673
444.141	594
444.213	1453
444.285	1884
444.356	1810
444.428	2276
444.499	108
444.571	-974
444.642	201
444.714	459
444.785	1154
444.857	3491
444.928	9019
445.000	5729
445.071	6817
445.143	8431
445.214	3167
445.285	8187
445.357	25641
445.428	74177
445.500	124436
445.571	67925
445.642	28827
445.714	15341
445.785	16724
445.856	4778
445.928	2638
445.999	2036
446.070	1228
446.141	939
446.213	2011
446.284	1032
446.355	1584
446.426	105
446.497	-628
446.569	3274
446.640	4204
446.711	1117
446.782	536
446.853	1587
446.924	1674
446.995	455
447.066	1021
447.138	3207
447.209	2058
447.280	-660
447.351	-443
447.422	-546
447.493	1195
447.564	1671
447.635	616
447.706	98
447.777	-395
447.847	-293
447.918	-585
447.989	1351
448.060	2580
448.131	6293
448.202	4817
448.273	1412
448.344	1302
448.414	-316
448.485	-391
448.556	24
448.627	-260
448.698	372
448.768	-199
448.839	376
448.910	2430
448.981	3163
449.051	287
449.122	149
449.193	-424
449.263	-226
449.334	878
449.405	1614
449.475	2929
449.546	2501
449.616	3517
449.687	4103
449.758	552
449.828	765
449.899	-15
449.969	-120
450.040	187
450.110	1055
450.181	1672
450.251	76
450.322	787
450.392	-433
450.463	666
450.533	7
450.604	1163
450.674	588
450.744	833
450.815	252
450.885	723
450.955	-489
451.026	-267
451.096	26
451.166	735
451.237	4143
451.307	10949
451.377	4281
451.447	270
451.518	-691
451.588	-250
451.658	659
451.728	2374
451.799	12416
451.869	14194
451.939	2604
452.009	190
452.079	303
452.149	-42
452.219	3557
452.289	14604
452.360	10428
452.430	1201
452.500	623
452.570	1631
452.640	2938
452.710	8474
452.780	14121
452.850	8205
452.920	3955
452.990	1717
453.060	959
453.129	1233
453.199	2518
453.269	20275
453.339	38859
453.409	57489
453.479	57533
453.549	82898
453.619	83620
453.688	34192
453.758	4450
453.828	1225
453.898	519
453.968	-204
454.037	452
454.087	497
454.107	501
454.168	152
454.177	83
454.247	-117
454.249	-72
454.316	534
454.330	791
454.386	1485
454.411	3648
454.456	6852
454.492	8994
454.525	10947
454.574	6075
454.595	4021
454.655	1223
454.665	811
454.734	2075
454.736	2231
454.804	4756
454.817	6955
454.873	14519
454.898	15442
454.943	16457
454.979	10964
455.013	6394
455.060	3846
455.082	2948
455.141	3611
455.152	3646
455.221	12675
455.222	12942
455.291	21840
455.303	22360
455.360	24762
455.384	31138
455.430	40704
455.465	29564
455.499	19482
455.546	15404
455.569	12976
455.627	8452
455.638	7842
455.707	1562
455.708	1572
455.777	1519
455.789	1451
455.846	827
455.869	769
455.916	688
455.950	574
455.985	429
456.031	596
456.054	666
456.112	384
456.124	428
456.193	970
456.193	944
456.262	1976
456.274	2162
456.332	2853
456.355	3265
456.401	2693
456.436	1955
456.470	1734
456.516	912
456.540	508
456.597	408
456.609	387
456.678	-49
456.678	-59
456.747	-719
456.759	-666
456.817	-238
456.840	-116
456.886	106
456.920	261
456.955	749
457.001	719
457.024	988
457.082	3395
457.093	3924
457.162	7545
457.163	7619
457.232	5712
457.243	4934
457.301	1733
457.324	729
457.370	340
457.405	332
457.439	396
457.485	774
457.508	820
457.566	1059
457.577	1114
457.646	1255
457.647	1272
457.715	2860
457.727	3061
457.784	4172
457.808	5044
457.853	5801
457.889	6744
457.922	6951
457.969	5346
457.991	5518
458.050	7025
458.060	7305
458.129	11013
458.130	11132
458.198	8911
458.211	7780
458.267	4243
458.292	3070
458.336	2501
458.372	2429
458.405	3611
458.453	5763
458.474	6960
458.533	12352
458.543	12726
458.611	17464
458.614	17525
458.680	9604
458.694	7240
458.749	3484
458.775	2788
458.818	1845
458.855	1891
458.887	2067
458.936	1623
458.955	1414
459.016	1462
459.024	1458
459.093	1634
459.097	1613
459.162	1321
459.177	1363
459.230	1519
459.257	1863
459.299	2354
459.338	2322
459.368	2210
459.418	2551
459.437	2458
459.499	1877
459.505	1911
459.574	1813
459.579	1830
459.643	1545
459.659	1463
459.711	1180
459.740	1404
459.780	2123
459.820	2060
459.849	1874
459.900	2437
459.917	2388
459.981	1774
459.986	1759
460.054	1460
460.061	1465
460.123	1519
460.141	1459
460.191	1965
460.222	2432
460.260	2637
460.302	2993
460.328	2920
460.382	2456
460.397	2462
460.462	2302
460.465	2462
460.534	6572
460.543	7135
460.602	15936
460.623	19652
460.671	29754
460.703	39598
460.739	34753
460.783	22583
460.808	19141
460.864	5586
460.876	4134
460.944	2580
460.945	2554
461.013	2348
461.024	2246
461.081	2443
461.104	2706
461.150	2453
461.184	1962
461.218	2166
461.264	2530
461.286	2470
461.345	2642
461.355	2668
461.423	2629
461.425	2625
461.491	4078
461.505	4472
461.559	11478
461.585	14633
461.628	21849
461.665	29122
461.696	29492
461.745	32021
461.764	27470
461.825	6991
461.832	6820
461.901	4196
461.905	4234
461.969	2874
461.985	2492
462.037	3374
462.065	4008
462.105	5777
462.145	7578
462.173	10062
462.225	14771
462.241	16169
462.305	22854
462.310	22015
462.378	9074
462.385	7171
462.446	4058
462.465	3654
462.514	3311
462.545	3220
462.582	3158
462.625	3443
462.650	3781
462.705	4079
462.718	4285
462.785	5451
462.786	5501
462.854	8642
462.865	9177
462.922	10131
462.945	10591
462.990	7303
463.025	4102
463.058	3582
463.104	2840
463.126	2715
463.184	2949
463.194	3055
463.262	3623
463.264	3654
463.330	4011
463.344	3974
463.398	4908
463.424	5497
463.466	5586
463.504	5623
463.533	5350
463.583	4608
463.601	4803
463.663	5805
463.669	6097
463.737	9367
463.743	9661
463.805	17598
463.823	19940
463.873	30052
463.903	36411
463.940	34873
463.982	33812
464.008	26448
464.062	8680
464.076	8202
464.142	4849
464.144	4802
464.211	4312
464.221	4294
464.279	3995
464.301	3916
464.347	5394
464.381	6492
464.414	7206
464.461	8140
464.482	8026
464.540	7924
464.550	7629
464.617	4896
464.620	4801
464.685	6024
464.699	6296
464.753	6812
464.779	7082
464.820	7768
464.859	8403
464.888	8541
464.938	8776
464.956	9073
465.018	9990
465.023	9761
465.091	6629
465.098	6272
465.158	6419
465.177	6552
465.226	6805
465.257	6884
465.293	6996
465.336	7080
465.361	7942
465.416	9911
465.428	11419
465.495	19540
465.496	19666
465.563	34105
465.575	36719
465.631	38996
465.654	39915
465.698	23712
465.734	9530
465.765	8665
465.813	7249
465.833	7032
465.893	7095
465.900	7125
465.968	7267
465.972	7258
466.035	7845
466.052	8005
466.102	8221
466.131	8333
466.170	8506
466.210	8649
466.237	8862
466.290	9230
466.304	9440
466.369	10268
466.372	10318
466.439	11283
466.449	11404
466.506	13593
466.528	14400
466.573	22358
466.607	28241
466.641	37973
466.687	51499
466.708	54161
466.766	61398
466.775	56555
466.842	19214
466.845	17404
466.909	15084
466.925	14608
466.977	13967
467.004	13622
467.044	13806
467.083	13979
467.111	14320
467.163	14900
467.178	14884
467.242	14675
467.245	14661
467.312	13899
467.321	13777
467.379	14653
467.400	14928
467.446	16119
467.480	16930
467.559	13519
467.638	11763
467.717	12461
467.796	11460
467.875	12782
467.955	13331
468.034	29212
468.113	57351
468.192	74725
468.271	12731
468.350	10322
468.429	10862
468.508	10655
468.588	9700
468.667	10646
468.746	9707
468.825	9739
468.904	8254
468.983	12772
469.062	19913
469.141	23355
469.220	7147
469.299	8689
469.378	7725
469.456	9996
469.535	9673
469.614	8584
469.693	10850
469.772	16433
469.851	22943
469.930	11105
470.009	7791
470.088	7658
470.166	7303
470.245	9807
470.324	11048
470.403	8589
470.482	7636
470.560	7712
470.639	7932
470.718	9400
470.797	9074
470.875	12094
470.954	16695
471.033	16435
471.111	5462
471.190	6524
471.269	6254
471.347	6384
471.426	7396
471.505	9293
471.583	8157
471.662	7786
471.740	6250
471.819	7450
471.898	6684
471.976	7487
472.055	7688
472.133	10179
472.212	14303
472.290	13885
472.369	7629
472.447	7255
472.526	6510
472.604	7149
472.683	7261
472.761	6938
472.839	7272
472.918	7256
472.996	7739
473.075	10421
473.153	8590
473.231	7130
473.310	9503
473.388	8653
473.466	7951
473.545	8800
473.623	10266
473.701	8846
473.780	7466
473.858	5916
473.936	8944
474.014	7720
474.093	9570
474.171	17907
474.249	26551
474.327	10597
474.405	5386
474.484	6809
474.562	6135
474.640	7754
474.718	9019
474.796	9468
474.874	8958
474.952	6702
475.030	7678
475.108	8242
475.187	10165
475.265	10376
475.343	11891
475.421	11552
475.499	8240
475.577	8545
475.655	15284
475.733	34637
475.811	59444
475.889	50778
475.966	23113
476.044	6984
476.122	9497
476.200	11329
476.278	8994
476.356	6445
476.434	8118
476.512	9576
476.590	11808
476.667	9144
476.745	6984
476.823	8265
476.901	7403
476.979	7959
477.056	7827
477.134	6560
477.212	7654
477.290	6921
477.367	6274
477.445	6082
477.523	6205
477.601	6247
477.678	7532
477.756	10291
477.834	11485
477.911	7265
477.989	9212
478.066	6667
478.144	8855
478.222	8829
478.299	11957
478.377	9321
478.454	6448
478.532	6172
478.609	5455
478.687	6976
478.764	6144
478.842	6898
478.919	7013
478.997	7547
479.074	6606
479.152	9661
479.229	13408
479.307	6962
479.384	5380
479.461	5535
479.539	7358
479.616	9006
479.694	7067
479.771	9665
479.848	9860
479.926	14720
480.003	13670
480.080	6879
480.157	5903
480.235	5994
480.312	6800
480.389	10403
480.467	20198
480.544	21540
480.621	7921
480.698	8182
480.775	9816
480.853	10521
480.930	7157
481.007	7701
481.084	11155
481.161	11302
481.238	8682
481.315	6299
481.392	5996
481.470	8044
481.547	6196
481.624	7708
481.701	7427
481.778	6666
481.855	9253
481.932	18621
482.009	30253
482.086	14337
482.163	7634
482.240	10877
482.317	14306
482.393	10687
482.470	7648
482.547	8221
482.624	6867
482.701	6790
482.778	7072
482.855	6182
482.932	5357
483.009	5943
483.085	7784
483.162	8617
483.239	7583
483.316	6347
483.393	6345
483.469	6539
483.546	8761
483.623	9581
483.699	7109
483.776	7029
483.853	8815
483.930	19531
484.006	48555
484.083	73480
484.160	22247
484.236	29052
484.313	21726
484.389	17947
484.466	16779
484.543	15902
484.619	16183
484.696	18732
484.772	20208
484.849	20593
484.925	14990
485.002	15182
485.078	16922
485.155	14781
485.231	14068
485.308	14061
485.384	15578
485.461	25491
485.537	47044
485.614	46337
485.690	15156
485.766	14016
485.843	14860
485.919	19626
485.995	18382
486.072	12629
486.148	12411
486.224	12465
486.301	14832
486.377	18202
486.453	15054
486.530	15667
486.606	19570
486.682	24215
486.758	36435
486.835	39056
486.911	33602
486.987	57366
487.063	39435
487.139	42936
487.215	28739
487.292	17194
487.368	15659
487.444	17327
487.520	19129
487.596	18315
487.672	29618
487.748	60140
487.824	73087
487.900	28558
487.976	18501
488.052	17780
488.128	19797
488.204	15720
488.280	15802
488.356	26230
488.432	57678
488.508	76053
488.584	17253
488.660	13152
488.736	13255
488.812	12719
488.888	17467
488.964	23156
489.039	44725
489.115	60079
489.191	31669
489.267	14715
489.343	13599
489.418	12186
489.494	11682
489.570	9913
489.646	12585
489.722	11438
489.797	14003
489.873	30808
489.949	66930
490.024	38778
490.100	10206
490.176	11444
490.251	13815
490.327	15789
490.403	9956
490.478	10657
490.554	8793
490.629	8902
490.705	9186
490.781	10609
490.856	10875
490.932	12915
491.007	12252
491.083	13802
491.158	12557
491.234	22217
491.309	51507
491.385	36913
491.460	11966
491.536	12768
491.611	10160
491.686	11312
491.762	15996
491.837	31009
491.913	50839
491.988	70604
492.063	69724
492.139	30103
492.214	16272
492.289	9775
492.365	8925
492.440	12341
492.515	12659
492.590	11326
492.666	10385
492.741	17172
492.816	26380
492.891	10122
492.967	9243
493.042	8583
493.117	7949
493.192	10614
493.267	26183
493.342	73291
493.418	83904
493.493	11728
493.568	7873
493.643	7591
493.718	13515
493.793	20089
493.868	15996
493.943	9330
494.018	9408
494.093	8408
494.168	8394
494.243	6780
494.318	6340
494.393	6564
494.468	6756
494.543	7068
494.618	8819
494.693	7260
494.768	7593
494.842	7680
494.917	7528
494.992	7507
495.067	6716
495.142	6074
495.217	8572
495.292	8136
495.366	9791
495.441	11327
495.516	14843
495.591	22026
495.665	68073
495.740	129323
495.815	40102
495.890	13773
495.964	10104
496.039	13483
496.114	11518
496.188	12781
496.263	13179
496.338	12145
496.412	14353
496.487	17050
496.561	15530
496.636	15677
496.710	14400
496.785	18565
496.860	19981
496.934	14009
497.009	16457
497.083	16308
497.158	17787
497.232	21962
497.307	25284
497.381	23059
497.455	31552
497.530	39461
497.604	29187
497.679	34914
497.753	50735
497.827	58052
497.902	54648
497.976	67052
498.050	169610
498.125	473948
498.199	335425
498.273	70981
498.348	63412
498.422	55222
498.496	50278
498.570	44096
498.645	37430
498.719	35408
498.793	41202
498.867	53382
498.941	74898
499.016	224583
499.090	439112
499.164	97338
499.238	21012
499.312	19675
499.386	21798
499.460	20466
499.534	20400
499.609	25130
499.683	32974
499.757	34683
499.831	107175
499.905	325992
499.979	207214
500.053	40834
500.127	35505
500.201	21317
500.275	16550
500.349	16263
500.422	18186
500.496	25697
500.570	61460
500.644	188208
500.718	274886
500.792	37769
500.866	18765
500.940	23458
501.013	18286
501.087	17363
501.161	25355
501.235	41331
501.309	124876
501.382	292722
501.456	168887
501.530	53215
501.603	83541
501.677	22580
501.751	12227
501.825	19324
501.898	46638
501.972	112375
502.046	44217
502.119	17674
502.193	56337
502.266	114575
502.340	41261
502.413	60438
502.487	97119
502.561	46251
502.634	12915
502.708	11653
502.781	9293
502.855	9280
502.928	7931
503.002	8470
503.075	7706
503.149	10050
503.222	10739
503.295	10864
503.369	14142
503.442	27264
503.516	103172
503.589	206765
503.662	99513
503.736	41961
503.809	97250
503.882	65277
503.956	112801
504.029	69808
504.102	37322
504.175	39501
504.249	17301
504.322	15893
504.395	12140
504.468	8818
504.542	10058
504.615	5762
504.688	7268
504.761	5772
504.834	9177
504.907	9641
504.980	13686
505.053	6976
505.127	8060
505.200	15326
505.273	15401
505.346	7208
505.419	5957
505.492	6719
505.565	4182
505.638	5627
505.711	5423
505.784	5605
505.857	5471
505.930	7096
506.003	5261
506.076	8172
506.149	11225
506.221	12091
506.294	14618
506.367	53527
506.440	143423
506.513	46792
506.586	14586
506.659	6786
506.731	6731
506.804	7901
506.877	10207
506.950	7763
507.022	7923
507.095	10253
507.168	10990
507.241	7069
507.313	4976
507.386	6592
507.459	8308
507.531	4492
507.604	4632
507.677	5640
507.749	3225
507.822	8195
507.894	12300
507.967	14725
508.040	8124
508.112	7729
508.185	7759
508.257	5622
508.330	10969
508.402	6962
508.475	7625
508.547	8369
508.620	9930
508.692	16133
508.765	7567
508.837	4757
508.909	5557
508.982	5853
509.054	7089
509.127	5213
509.199	5688
509.271	4711
509.344	5085
509.416	5628
509.488	6202
509.560	6221
509.633	5349
509.705	6382
509.777	7312
509.849	10201
509.922	6484
509.994	5602
510.066	6697
510.138	6177
510.210	14682
510.283	12049
510.355	8728
510.427	8958
510.499	7014
510.571	7087
510.643	7430
510.715	11845
510.787	8295
510.859	9397
510.931	10266
511.003	10601
511.076	10123
511.148	6397
511.219	8959
511.291	17915
511.363	17077
511.435	7119
511.507	6506
511.579	6943
511.651	7068
511.723	6410
511.795	6262
511.867	7041
511.939	12235
512.010	28183
512.082	14433
512.154	6550
512.226	7466
512.298	10800
512.369	14252
512.441	11288
512.513	11823
512.585	6965
512.656	9980
512.728	9700
512.800	7074
512.871	9225
512.943	8054
513.015	6193
513.086	7283
513.158	7665
513.230	8109
513.301	11979
513.373	11999
513.444	6746
513.516	6453
513.588	5590
513.659	8312
513.731	9076
513.802	7539
513.874	19696
513.945	23644
514.016	7009
514.088	6789
514.159	7618
514.231	10850
514.302	12912
514.374	10743
514.445	13330
514.516	30652
514.588	14660
514.659	14356
514.730	25044
514.802	17036
514.873	17261
514.944	19340
515.016	13972
515.087	12774
515.158	22036
515.229	25480
515.301	22132
515.372	31951
515.443	19767
515.514	12996
515.585	7301
515.656	8753
515.728	8059
515.799	6523
515.870	8458
515.941	7941
516.012	7079
516.083	10454
516.154	10592
516.225	13346
516.296	12245
516.367	9712
516.438	10252
516.509	11350
516.580	18279
516.651	58551
516.722	146339
516.793	53496
516.864	19327
516.935	19173
517.006	19408
517.077	26348
517.148	59047
517.219	177414
517.289	216986
517.360	137890
517.431	33624
517.502	12202
517.573	12313
517.643	10782
517.714	12698
517.785	13009
517.856	12132
517.926	15598
517.997	14871
518.068	16111
518.138	20998
518.209	33335
518.280	139524
518.350	362169
518.421	96123
518.492	18312
518.562	17387
518.633	17529
518.703	15763
518.774	32422
518.845	59797
518.915	43765
518.986	19833
519.056	18180
519.127	30486
519.197	59656
519.268	152343
519.338	62530
519.408	17657
519.479	16946
519.549	11909
519.620	10827
519.690	7813
519.760	7858
519.831	8286
519.901	8335
519.971	8521
520.042	9640
520.112	10873
520.182	11688
520.253	10328
520.323	9577
520.393	11927
520.463	17622
520.534	13854
520.604	26487
520.674	12826
520.744	15429
520.814	28534
520.885	26896
520.955	65890
521.025	176163
521.095	38588
521.165	10648
521.235	8692
521.305	7577
521.375	7944
521.445	8678
521.515	9044
521.585	11442
521.655	9249
521.725	9593
521.795	9789
521.865	6988
521.935	17446
522.005	10180
522.075	7022
522.145	10226
522.215	11273
522.285	16803
522.355	27006
522.424	49008
522.494	29656
522.564	14277
522.634	30583
522.704	55870
522.774	16006
522.843	8835
522.913	7573
522.983	9236
523.053	6224
523.122	7920
523.192	12344
523.262	35991
523.331	24586
523.401	7387
523.471	5760
523.540	6571
523.610	4721
523.680	6648
523.749	6294
523.819	10333
523.888	7557
523.958	5231
524.027	6082
524.097	7779
524.166	6116
524.236	5864
524.305	8038
524.375	5302
524.444	5086
524.514	8238
524.583	7470
524.653	9871
524.722	11729
524.791	5613
524.861	7879
524.930	4675
524.999	6298
525.069	9027
525.138	9397
525.207	10256
525.277	6892
525.346	6590
525.415	6926
525.484	8435
525.554	9404
525.623	7998
525.692	7832
525.761	8424
525.830	9380
525.900	9084
525.969	15095
526.038	21100
526.107	44991
526.176	104583
526.245	68602
526.314	33183
526.383	62489
526.452	70978
526.522	139900
526.591	108422
526.660	35245
526.729	17354
526.797	22734
526.867	59733
526.935	213455
527.004	302789
527.073	114619
527.142	14940
527.211	9724
527.280	10010
527.349	8195
527.418	5632
527.487	6454
527.555	4834
527.624	4588
527.693	4154
527.762	6123
527.831	3376
527.899	5241
527.968	4666
528.037	4200
528.106	7703
528.174	11544
528.243	11376
528.312	19361
528.380	16652
528.449	4630
528.518	5743
528.586	3063
528.655	5429
528.723	4488
528.792	3769
528.861	5632
528.929	3318
528.998	5127
529.066	4877
529.135	4591
529.203	4012
529.272	4916
529.340	6090
529.409	8010
529.477	5967
529.545	8071
529.614	11036
529.682	11135
529.751	11512
529.819	14775
529.887	7386
529.956	6479
530.024	6992
530.092	4736
530.161	7845
530.229	9586
530.297	6924
530.365	6440
530.434	6076
530.502	4595
530.570	5279
530.638	4664
530.707	6379
530.775	7234
530.843	5319
530.911	5907
530.979	5301
531.047	6396
531.115	7614
531.183	5815
531.252	6021
531.320	6042
531.388	4393
531.456	6298
531.524	4979
531.592	6021
531.660	8844
531.728	5799
531.796	5980
531.864	6584
531.932	6590
532.000	5956
532.067	7741
532.135	7349
532.203	8914
532.271	9200
532.339	16147
532.407	29043
532.475	13887
532.542	9834
532.610	10169
532.678	14775
532.746	63261
532.814	101229
532.881	21084
532.949	8844
533.017	7903
533.084	7411
533.152	6132
533.220	6893
533.287	6527
533.355	6663
533.423	6203
533.490	5489
533.558	7101
533.625	7262
533.693	7804
533.761	7594
533.828	8110
533.896	6776
533.963	14755
534.031	15568
534.098	18018
534.166	8591
534.233	7083
534.300	7881
534.368	8975
534.435	7108
534.503	7440
534.570	8180
534.637	6958
534.705	7575
534.772	8938
534.840	15776
534.907	58792
534.974	48677
535.041	11102
535.109	10918
535.176	5589
535.243	6628
535.310	6484
535.378	5495
535.445	6811
535.512	4931
535.579	5930
535.646	5103
535.714	6157
535.781	7418
535.848	7466
535.915	7730
535.982	8165
536.049	7456
536.116	8666
536.183	6762
536.250	6694
536.317	7527
536.384	8193
536.451	10850
536.518	10322
536.585	6705
536.652	12260
536.719	13191
536.786	7820
536.853	8391
536.920	15243
536.987	17410
537.053	17749
537.120	63465
537.187	34992
537.254	6445
537.321	5993
537.388	6708
537.454	5085
537.521	5125
537.588	4122
537.654	6752
537.721	6994
537.788	7246
537.855	5497
537.921	6143
537.988	6269
538.055	6433
538.121	5340
538.188	6710
538.254	11381
538.321	17878
538.388	9414
538.454	6199
538.521	6130
538.587	6245
538.654	5332
538.720	5653
538.787	5138
538.853	7607
538.920	8772
538.986	8365
539.053	6680
539.119	7054
539.185	6315
539.252	8733
539.318	9659
539.385	9500
539.451	6557
539.517	7631
539.583	9435
539.650	22544
539.716	38854
539.782	9851
539.849	6812
539.915	6905
539.981	6832
540.047	7230
540.114	7115
540.180	8064
540.246	6041
540.312	11090
540.378	19129
540.444	16784
540.510	22061
540.576	42623
540.643	11134
540.709	6802
540.775	6575
540.841	6478
540.907	11478
540.973	15109
541.039	11363
541.105	10200
541.171	7445
541.237	5863
541.303	7466
541.369	9664
541.435	11483
541.500	15679
541.566	6974
541.632	5737
541.698	6133
541.764	6212
541.830	5989
541.896	5866
541.961	6859
542.027	6139
542.093	6354
542.159	7322
542.224	6756
542.290	11937
542.356	17728
542.421	15901
542.487	9121
542.553	8137
542.618	8500
542.684	7413
542.750	5616
542.815	8234
542.881	16298
542.947	44128
543.012	22238
543.078	5725
543.143	5506
543.209	7639
543.274	6734
543.340	9142
543.405	20051
543.471	20673
543.536	6756
543.602	7518
543.667	5103
543.732	6888
543.798	5432
543.863	6648
543.928	4758
543.994	5000
544.059	6569
544.124	5513
544.190	5385
544.255	6975
544.320	6665
544.386	5725
544.451	9842
544.516	9598
544.581	10526
544.646	32588
544.712	33689
544.777	9587
544.842	9536
544.907	9954
544.972	7914
545.037	8276
545.102	9792
545.168	9267
545.233	10152
545.298	10858
545.363	11284
545.428	13757
545.493	21745
545.558	32368
545.623	14021
545.688	9359
545.753	9098
545.818	9413
545.883	10153
545.947	9242
546.012	11385
546.077	9511
546.142	10367
546.207	9490
546.272	12190
546.337	10478
546.401	10795
546.466	9583
546.531	8894
546.596	11026
546.661	10114
546.725	10555
546.790	9023
546.855	10782
546.919	8965
546.984	11051
547.049	12656
547.113	14081
547.178	12452
547.243	14623
547.307	16164
547.372	20405
547.436	18608
547.501	15345
547.565	16863
547.630	17750
547.695	17807
547.759	21384
547.823	16697
547.888	14846
547.952	15302
548.017	16924
548.081	20531
548.146	24416
548.210	18929
548.274	16215
548.339	15320
548.403	15979
548.468	14336
548.532	15297
548.596	14995
548.660	14694
548.725	17977
548.789	20626
548.853	19539
548.917	17790
548.982	25036
549.046	19325
549.110	13664
549.174	13520
549.238	15559
549.303	15046
549.367	17184
549.431	15800
549.495	14479
549.559	14413
549.623	16601
549.687	18421
549.751	22916
549.815	21895
549.879	20347
549.943	19334
550.007	21612
550.071	20921
550.135	21728
550.199	18030
550.263	17707
550.327	21938
550.391	24912
550.455	20161
550.519	20682
550.582	22195
550.646	25506
550.710	26237
550.774	23632
550.838	22894
550.901	24743
550.965	26096
551.029	26643
551.093	31983
551.156	40575
551.220	67617
551.284	53208
551.347	40525
551.411	74027
551.475	53077
551.538	25880
551.602	23319
551.666	22712
551.729	18731
551.793	20196
551.856	20103
551.920	20868
551.983	20478
552.047	19127
552.110	19972
552.174	19517
552.237	19815
552.301	18824
552.364	18531
552.428	18009
552.491	18195
552.554	18719
552.618	18853
552.681	19931
552.745	20415
552.808	23866
552.871	24190
552.934	21521
552.998	20259
553.061	21213
553.124	19488
553.187	20069
553.251	20578
553.314	20941
553.377	21447
553.440	30598
553.503	76493
553.567	91255
553.630	25315
553.693	20568
553.756	20431
553.819	19598
553.882	18626
553.945	19352
554.008	18591
554.071	17666
554.134	19355
554.197	17621
554.260	17914
554.323	18680
554.386	18640
554.449	19023
554.512	18706
554.575	17414
554.638	19030
554.701	17117
554.764	17195
554.827	17768
554.889	16427
554.952	15742
555.015	15458
555.078	15887
555.141	15911
555.203	15945
555.266	15957
555.329	16349
555.391	14200
555.454	15690
555.517	15866
555.580	14456
555.642	14439
555.705	13821
555.768	13924
555.830	14703
555.893	12959
555.955	12890
556.018	14558
556.080	12811
556.143	12990
556.206	13236
556.268	12981
556.330	13987
556.393	14427
556.455	14988
556.518	21394
556.580	15907
556.643	11929
556.705	12298
556.767	11098
556.830	12297
556.892	12748
556.955	16800
557.017	11318
557.079	11845
557.142	12623
557.204	13350
557.266	22383
557.328	15540
557.391	10210
557.453	10502
557.515	11727
557.577	12308
557.639	11857
557.701	10613
557.764	10232
557.826	11317
557.888	12904
557.950	12002
558.012	12396
558.074	17058
558.136	41600
558.198	69060
558.260	23939
558.322	13992
558.384	15236
558.446	15599
558.508	17878
558.570	22814
558.632	31695
558.694	41087
558.756	62153
558.818	216033
558.880	358248
558.942	89810
559.003	77302
559.065	31808
559.127	19079
559.189	16840
559.251	20912
559.312	33464
559.374	97568
559.436	238140
559.498	77375
559.559	19310
559.621	16400
559.683	22270
559.744	44325
559.806	133566
559.868	131209
559.929	26064
559.991	20987
560.052	33769
560.114	74896
560.176	39202
560.237	53180
560.299	58967
560.360	14884
560.422	11716
560.483	11868
560.545	10362
560.606	10419
560.667	10185
560.729	9717
560.790	9162
560.852	10266
560.913	10166
560.974	9025
561.036	9797
561.097	9408
561.158	9272
561.220	9560
561.281	8811
561.342	8754
561.403	11372
561.465	13997
561.526	27889
561.587	25086
561.648	10839
561.709	9801
561.771	9838
561.832	9360
561.893	8566
561.954	9162
562.015	9695
562.076	9058
562.137	9431
562.198	9066
562.259	8817
562.320	8426
562.381	10647
562.442	11681
562.503	10175
562.564	9226
562.625	9363
562.686	10681
562.747	9642
562.808	9289
562.869	9903
562.930	13501
562.991	11270
563.051	10279
563.112	8612
563.173	9776
563.234	8957
563.294	9825
563.355	9685
563.416	9659
563.477	9731
563.537	10014
563.598	10649
563.659	8852
563.720	9907
563.780	10711
563.841	9761
563.901	10086
563.962	10264
564.023	10217
564.083	10268
564.144	10983
564.204	10244
564.265	10314
564.325	14291
564.386	27347
564.446	16977
564.507	10599
564.567	10012
564.628	8926
564.688	9823
564.749	9727
564.809	13148
564.869	14050
564.930	10634
564.990	10220
565.050	10051
565.111	9321
565.171	10049
565.231	11000
565.292	11195
565.352	10101
565.412	10760
565.472	10882
565.532	11949
565.593	10909
565.653	10714
565.713	12656
565.773	12807
565.833	13315
565.893	14895
565.953	12446
566.013	12656
566.074	14760
566.134	19710
566.194	28232
566.254	22861
566.314	18737
566.374	16013
566.434	15472
566.494	15485
566.554	18334
566.614	17902
566.673	19195
566.733	19494
566.793	22138
566.853	23088
566.913	23124
566.973	24376
567.033	23480
567.092	23154
567.152	23430
567.212	24197
567.272	25664
567.331	27799
567.391	28700
567.451	32414
567.511	37875
567.570	32663
567.630	26498
567.690	25503
567.749	26790
567.809	28576
567.868	32386
567.928	38206
567.988	44493
568.047	53396
568.107	69719
568.166	99185
568.226	154521
568.285	200908
568.345	174559
568.404	145600
568.464	122843
568.523	114885
568.582	114893
568.642	128185
568.701	162610
568.761	240402
568.820	348277
568.879	333991
568.939	264667
568.998	196336
569.057	151040
569.116	120678
569.176	97156
569.235	79198
569.294	68972
569.353	58010
569.413	50418
569.472	44184
569.531	38828
569.590	34633
569.649	31467
569.708	28997
569.767	27300
569.827	26496
569.886	22898
569.945	21094
570.004	20918
570.063	19641
570.122	19905
570.181	19125
570.240	19606
570.299	18083
570.358	16388
570.417	15409
570.475	13707
570.534	14934
570.593	13643
570.652	13802
570.711	13445
570.770	13442
570.829	16133
570.887	14237
570.946	12670
571.005	12611
571.064	10524
571.122	12037
571.181	12722
571.240	11290
571.299	10265
571.357	12041
571.416	12094
571.475	13205
571.533	12664
571.592	10968
571.650	10682
571.709	10001
571.768	9471
571.826	9642
571.885	10037
571.943	9265
572.002	10020
572.060	9565
572.119	9278
572.177	9212
572.236	7919
572.294	8642
572.352	8430
572.411	8621
572.469	8292
572.528	8966
572.586	8981
572.644	9573
572.703	10075
572.761	8304
572.819	8068
572.877	7686
572.936	7548
572.994	7885
573.052	7878
573.110	8264
573.169	9033
573.227	6538
573.285	8481
573.343	8076
573.401	8156
573.459	7714
573.517	7789
573.576	7636
573.634	8553
573.692	7958
573.750	7327
573.808	8980
573.866	9729
573.924	12095
573.982	10648
574.040	7633
574.098	7402
574.155	7159
574.213	7243
574.271	7767
574.329	7361
574.387	7308
574.445	6645
574.503	6292
574.560	6106
574.618	6755
574.676	6429
574.734	6393
574.792	6978
574.849	6174
574.907	6380
574.965	6557
575.022	5940
575.080	6823
575.138	8152
575.195	7166
575.253	6963
575.311	7070
575.368	7562
575.426	6733
575.483	7867
575.541	6219
575.598	6921
575.656	7873
575.713	6413
575.771	7929
575.828	7139
575.886	6912
575.943	7736
576.001	7699
576.058	7492
576.115	7917
576.173	9964
576.230	10657
576.287	10645
576.345	8999
576.402	7176
576.459	7898
576.517	8191
576.574	9482
576.631	9321
576.688	8106
576.746	7842
576.803	7701
576.860	7639
576.917	7434
576.974	6727
577.031	7806
577.089	7283
577.146	8497
577.203	8174
577.260	9296
577.317	9471
577.374	10659
577.431	9388
577.488	7309
577.545	7717
577.602	8561
577.659	8316
577.716	8521
577.773	8793
577.830	7252
577.886	7790
577.943	7733
578.000	7487
578.057	9110
578.114	8926
578.171	9210
578.227	11213
578.284	10633
578.341	10116
578.398	9522
578.454	10027
578.511	11265
578.568	10859
578.625	8645
578.681	8299
578.738	7460
578.794	7649
578.851	8119
578.908	8422
578.964	8590
579.021	9043
579.077	7766
579.134	7990
579.190	8278
579.247	7474
579.303	7698
579.360	8028
579.416	8395
579.473	7550
579.529	7053
579.586	7739
579.642	8997
579.698	8485
579.755	9213
579.811	9124
579.867	9750
579.924	8499
579.980	9467
580.036	10555
580.093	11512
580.149	14221
580.205	15571
580.261	12727
580.317	11988
580.374	11811
580.430	12085
580.486	10707
580.542	9376
580.598	8625
580.619	8902
580.654	9390
580.692	9277
580.710	9237
580.765	8711
580.767	8704
580.823	9565
580.838	9403
580.879	8992
580.911	9030
580.935	9079
580.984	9115
580.991	9126
581.047	9565
581.057	9690
581.103	10304
581.130	10488
581.159	10695
581.203	11212
581.215	11343
581.270	11626
581.276	11468
581.326	10123
581.349	10181
581.382	10245
581.422	9877
581.438	9743
581.494	9912
581.494	9903
581.550	9586
581.567	9818
581.606	10213
581.640	10211
581.661	10260
581.713	9688
581.717	9657
581.773	9812
581.786	10023
581.829	10537
581.859	10618
581.885	10813
581.932	10292
581.940	10185
581.996	10315
582.004	10329
582.052	10419
582.077	10228
582.107	10033
582.150	10821
582.163	11055
582.219	9951
582.223	10033
582.274	11000
582.296	11185
582.330	11573
582.368	10744
582.386	10353
582.441	11305
582.441	11308
582.497	10672
582.514	10865
582.552	11367
582.587	11608
582.608	11747
582.659	11311
582.663	11257
582.719	11044
582.732	11209
582.774	11970
582.805	12026
582.830	12121
582.877	12097
582.885	12047
582.941	12382
582.950	12381
582.996	12425
583.023	12568
583.052	13022
583.095	14028
583.107	14220
583.162	15507
583.168	15523
583.218	15448
583.240	15018
583.273	14479
583.313	14190
583.328	14112
583.384	13285
583.385	13292
583.439	13085
583.458	13118
583.494	13477
583.531	13127
583.549	12993
583.603	13614
583.605	13624
583.660	13593
583.676	13521
583.715	13277
583.748	13751
583.770	14241
583.820	13901
583.825	13834
583.881	14115
583.893	13858
583.936	13336
583.965	14102
583.991	14520
584.038	14275
584.046	14277
584.101	14497
584.110	14552
584.156	14801
584.183	14949
584.211	14934
584.255	14969
584.266	15114
584.321	15410
584.328	15533
584.376	15819
584.400	15585
584.431	15690
584.472	15939
584.486	15845
584.541	15686
584.545	15694
584.596	16253
584.617	16385
584.651	16844
584.689	17566
584.706	17650
584.761	17426
584.762	17425
584.816	17974
584.834	18319
584.871	18776
584.906	18801
584.926	18822
584.978	18683
584.980	18693
585.035	20118
585.051	20340
585.090	20829
585.123	21042
585.145	21103
585.195	22233
585.200	22428
585.254	23453
585.267	24249
585.309	26483
585.340	27145
585.364	27486
585.412	26800
585.419	26585
585.473	27861
585.484	28005
585.528	29814
585.556	32683
585.583	36594
585.628	46286
585.637	49192
585.692	81420
585.700	84789
585.747	97580
585.772	83039
585.801	58260
585.845	38211
585.856	35249
585.910	31098
585.917	30578
585.965	29647
585.989	29814
586.019	30059
586.061	30381
586.074	30481
586.128	31128
586.133	31171
586.183	31724
586.205	32189
586.237	33190
586.277	33609
586.292	33716
586.346	34373
586.349	34416
586.401	35708
586.421	36305
586.455	37143
586.493	39265
586.509	41013
586.564	46331
586.565	46537
586.618	56411
586.637	55621
586.672	49520
586.709	45326
586.727	44334
586.781	44753
586.781	44778
586.835	46319
586.853	46440
586.889	46781
586.925	47456
586.944	48213
586.996	50698
586.998	50797
587.052	53944
587.068	54508
587.106	55768
587.140	57277
587.161	58303
587.212	60733
587.215	60934
587.269	64380
587.284	65500
587.323	68415
587.356	70419
587.377	71926
587.427	75988
587.431	76361
587.485	81289
587.499	82386
587.539	86625
587.571	90746
587.593	93717
587.643	100277
587.648	101046
587.702	107578
587.715	109709
587.755	117578
587.786	123042
587.810	127381
587.858	137105
587.864	138588
587.917	152833
587.930	156191
587.971	169066
588.001	178641
588.025	187445
588.073	205648
588.079	208567
588.133	234774
588.145	240819
588.187	265373
588.217	282977
588.241	301164
588.288	338682
588.295	344849
588.348	397283
588.360	408779
588.402	462758
588.431	501330
588.456	540503
588.503	622490
588.510	638171
588.564	766632
588.575	795691
588.617	945321
588.646	1055636
588.671	1186740
588.718	1447870
588.725	1496977
588.778	1891952
588.789	1968384
588.832	2184647
588.861	2292020
588.886	2227678
588.932	1995633
588.939	1970224
588.993	1829554
589.004	1826976
589.047	2166040
589.075	2321621
589.100	2251190
589.147	2044367
589.154	2000591
589.207	1656690
589.218	1591090
589.261	1465268
589.290	1394150
589.314	1429031
589.361	1521611
589.368	1557828
589.421	1874177
589.433	1940843
589.475	2117257
589.504	2190442
589.528	2113594
589.576	1911471
589.582	1923204
589.635	2108512
589.647	2120786
589.689	1895712
589.718	1714522
589.742	1493548
589.790	1071947
589.795	1047183
589.849	818640
589.861	767505
589.902	647929
589.932	559678
589.955	509397
590.004	407072
590.009	401955
590.062	343700
590.075	329467
590.115	297698
590.146	273436
590.168	261470
590.218	234738
590.222	233190
590.275	209676
590.289	203477
590.328	190925
590.360	180422
590.381	174866
590.431	161509
590.435	160911
590.488	147196
590.503	143262
590.541	136663
590.574	130877
590.594	127924
590.645	119600
590.647	119480
590.700	111873
590.716	109498
590.753	105530
590.787	101693
590.806	99918
590.859	94531
590.859	94598
590.912	89857
590.930	88206
590.965	85477
591.001	82681
591.018	81562
591.071	77379
591.072	77220
591.124	75534
591.143	74716
591.177	72194
591.214	69344
591.230	68967
591.283	67437
591.285	67264
591.336	65432
591.356	64543
591.389	63386
591.427	61788
591.442	61401
591.495	59588
591.498	59354
591.547	57295
591.569	56265
591.600	55400
591.640	53989
591.653	53951
591.706	53388
591.711	53250
591.759	52188
591.782	51518
591.811	51356
591.853	50822
591.864	50527
591.917	48538
591.924	48183
591.969	47413
591.995	46850
592.022	46604
592.066	45948
592.075	46032
592.127	46148
592.137	46100
592.180	47056
592.208	47442
592.233	45510
592.279	41644
592.285	41654
592.338	41227
592.350	41047
592.390	39225
592.421	37759
592.443	38065
592.491	38561
592.495	38602
592.548	38270
592.562	38123
592.600	36831
592.633	35595
592.653	35521
592.704	35007
592.705	35185
592.775	34005
592.846	33972
592.916	34232
592.987	34477
593.058	33132
593.128	31346
593.199	31990
593.270	30189
593.341	29406
593.411	30197
593.482	28739
593.553	29956
593.623	27773
593.694	28243
593.764	28578
593.835	27618
593.906	26430
593.976	26729
594.047	26213
594.117	29104
594.188	27907
594.258	24642
594.329	24678
594.399	24929
594.470	23618
594.540	24416
594.611	22840
594.681	22958
594.751	23339
594.822	25477
594.892	25470
594.963	24587
595.033	22836
595.103	22260
595.174	23502
595.244	30620
595.314	32068
595.384	22831
595.455	22043
595.525	22427
595.595	22305
595.665	21596
595.736	21336
595.806	21645
595.876	20842
595.946	21552
596.016	21456
596.087	21032
596.157	20185
596.227	20028
596.297	21589
596.367	20597
596.437	23294
596.507	26790
596.577	30067
596.647	22660
596.717	21117
596.787	20472
596.857	20224
596.927	21059
596.997	20529
597.067	21377
597.137	22992
597.207	22265
597.277	20203
597.347	20696
597.417	19380
597.487	20468
597.557	20539
597.626	21012
597.696	21081
597.766	24072
597.836	27375
597.906	22190
597.975	19124
598.045	19379
598.115	19580
598.185	18622
598.254	21181
598.324	21209
598.394	20192
598.464	20152
598.533	19639
598.603	19697
598.672	19473
598.742	19844
598.812	19726
598.881	19652
598.951	18967
599.020	19829
599.090	19007
599.159	20306
599.229	19593
599.299	19479
599.368	19287
599.437	19615
599.507	19052
599.576	19758
599.646	20210
599.715	21254
599.785	18642
599.854	19659
599.924	19962
599.993	19695
600.062	18324
600.132	18449
600.201	18111
600.270	20289
600.340	20205
600.409	18881
600.478	20195
600.547	20467
600.617	19781
600.686	18485
600.755	17440
600.824	17772
600.894	17393
600.963	16992
601.032	17219
601.101	18251
601.170	17003
601.239	17092
601.308	17262
601.378	17947
601.447	17254
601.516	17209
601.585	17357
601.654	17631
601.723	17612
601.792	17749
601.861	18588
601.930	22122
601.999	19232
602.068	18862
602.137	19024
602.206	18804
602.275	18351
602.343	18961
602.412	18864
602.481	19172
602.550	17527
602.619	18094
602.688	18407
602.756	18715
602.825	17353
602.894	19166
602.963	18108
603.032	18377
603.100	17926
603.169	17761
603.238	18507
603.307	18046
603.375	18239
603.444	18002
603.513	17035
603.581	18668
603.650	18794
603.719	17064
603.787	17251
603.856	18785
603.924	17944
603.993	18587
604.061	17936
604.130	19652
604.198	18893
604.267	19372
604.335	18509
604.404	18417
604.472	18437
604.541	19040
604.609	18474
604.678	20415
604.746	20300
604.815	20104
604.883	19818
604.951	20165
605.020	19245
605.088	20905
605.156	19562
605.225	19823
605.293	18663
605.361	19709
605.429	19018
605.498	20752
605.566	19589
605.634	20034
605.702	20116
605.771	20664
605.839	20833
605.907	20248
605.975	19365
606.043	20523
606.111	19029
606.180	22276
606.248	23048
606.316	24052
606.384	20099
606.452	21261
606.520	20237
606.588	18711
606.656	17003
606.724	17414
606.792	16048
606.860	16131
606.928	14625
606.996	15163
607.064	13798
607.132	14558
607.200	15452
607.267	15261
607.335	15917
607.403	16492
607.471	15305
607.539	14952
607.607	15749
607.674	13271
607.742	14565
607.810	14911
607.878	14007
607.946	14061
608.013	14655
608.081	15660
608.149	15018
608.216	14973
608.284	14937
608.352	15480
608.419	14631
608.487	20101
608.555	15549
608.622	16171
608.690	15879
608.757	16481
608.825	16095
608.893	16884
608.960	17516
609.028	19027
609.095	21765
609.163	16040
609.230	15119
609.298	14324
609.365	13878
609.432	15102
609.500	15222
609.567	17023
609.635	18193
609.702	18766
609.769	18745
609.837	18094
609.904	15186
609.971	14608
610.039	18425
610.106	24378
610.173	41974
610.241	93792
610.308	64538
610.375	27579
610.442	16237
610.509	15220
610.577	15399
610.644	15210
610.711	14796
610.778	15707
610.845	14746
610.912	17021
610.980	19304
611.047	25629
611.114	20815
611.181	17042
611.248	14880
611.315	17313
611.382	16210
611.449	16701
611.516	17715
611.583	17194
611.650	16826
611.717	17587
611.784	18326
611.851	20501
611.918	22711
611.984	26984
612.051	41632
612.118	85535
612.185	204938
612.252	135056
612.319	33538
612.386	23749
612.452	21779
612.519	21939
612.586	23558
612.653	21402
612.719	19685
612.786	18202
612.853	16684
612.919	16811
612.986	18088
613.053	16122
613.120	14605
613.186	15258
613.253	16790
613.319	15491
613.386	15398
613.453	15540
613.519	17251
613.586	17532
613.652	22528
613.719	18730
613.785	18807
613.852	17643
613.918	16621
613.985	20269
614.051	29099
614.118	56043
614.184	51918
614.250	18840
614.317	16492
614.383	16958
614.449	15438
614.516	15644
614.582	16894
614.648	16814
614.715	17098
614.781	16402
614.847	16550
614.914	16550
614.980	17258
615.046	18420
615.112	18826
615.179	21301
615.245	26379
615.311	39421
615.377	75963
615.443	88778
615.509	45548
615.575	29866
615.642	24527
615.708	26181
615.774	27841
615.840	33834
615.906	48418
615.972	85498
616.038	180016
616.104	245452
616.170	322124
616.236	257598
616.302	64264
616.368	39400
616.434	28126
616.500	26412
616.565	26432
616.631	29299
616.697	25735
616.763	26457
616.829	35846
616.895	58373
616.961	57683
617.026	30397
617.092	20241
617.158	19121
617.224	17399
617.289	16675
617.355	17219
617.421	15683
617.487	16340
617.552	15874
617.618	14462
617.684	14434
617.749	17248
617.815	15190
617.880	14550
617.946	15020
618.012	14348
618.077	14443
618.143	14525
618.208	14603
618.274	15531
618.339	15728
618.405	12528
618.470	14797
618.536	14364
618.601	15336
618.667	13832
618.732	14070
618.798	13692
618.863	13646
618.928	12379
618.994	15161
619.059	14717
619.124	18022
619.190	15218
619.255	13608
619.320	14006
619.386	13058
619.451	12158
619.516	12855
619.581	13409
619.647	13301
619.712	12688
619.777	13169
619.842	13463
619.907	13368
619.972	12952
620.038	13252
620.103	11647
620.168	12510
620.233	13520
620.298	11948
620.363	12657
620.428	13275
620.493	12791
620.558	13007
620.623	12879
620.688	12909
620.753	12960
620.818	13172
620.883	13204
620.948	13647
621.013	11905
621.078	13435
621.143	11659
621.207	15464
621.272	13940
621.337	14914
621.402	15249
621.467	18613
621.532	17303
621.596	15004
621.661	14544
621.726	13511
621.791	13735
621.855	14855
621.920	14215
621.985	16240
622.049	17756
622.114	16556
622.179	14453
622.243	15275
622.308	13769
622.373	17585
622.437	14947
622.502	14567
622.566	14060
622.631	13971
622.695	15627
622.760	14593
622.824	14455
622.889	14617
622.953	15225
623.018	19961
623.082	18513
623.147	15380
623.211	14185
623.276	14653
623.340	12886
623.404	14369
623.469	13545
623.533	14907
623.597	13261
623.662	13949
623.726	11995
623.790	13660
623.854	12342
623.919	12726
623.983	12511
624.047	12934
624.111	12664
624.176	13437
624.240	12740
624.304	15046
624.368	12990
624.432	12946
624.496	13148
624.560	14659
624.625	13764
624.689	13722
624.753	13418
624.817	14178
624.881	12004
624.945	13125
625.009	11526
625.073	12882
625.137	12610
625.201	14351
625.265	13561
625.329	13025
625.393	12253
625.456	12926
625.520	13818
625.584	14326
625.648	17712
625.712	25372
625.776	54041
625.839	59674
625.903	24668
625.967	13997
626.031	23996
626.095	34800
626.158	14307
626.222	10564
626.286	11598
626.349	9989
626.413	8792
626.477	11616
626.540	9557
626.604	9725
626.668	10815
626.731	9251
626.795	9612
626.858	9597
626.922	9431
626.986	9405
627.049	7046
627.113	10600
627.176	9055
627.240	8514
627.303	8482
627.366	9028
627.430	9656
627.493	9426
627.557	9024
627.620	10608
627.684	8138
627.747	9910
627.810	7304
627.874	8950
627.937	7568
628.000	10079
628.064	8613
628.127	6660
628.190	8351
628.253	8346
628.317	7982
628.380	8385
628.443	7499
628.506	8153
628.569	7480
628.632	7578
628.696	7774
628.759	7243
628.822	6868
628.885	7416
628.948	7278
629.011	7056
629.074	6402
629.137	6412
629.200	6194
629.263	8464
629.326	5216
629.389	6899
629.452	6129
629.515	6982
629.578	6474
629.641	8013
629.704	6006
629.767	7040
629.830	7021
629.892	6503
629.955	5803
630.018	8639
630.081	7217
630.144	7799
630.207	6038
630.269	8458
630.332	7319
630.395	7048
630.458	6780
630.520	5636
630.583	7898
630.646	6476
630.708	6136
630.771	5507
630.834	6467
630.896	6096
630.959	6621
631.021	5622
631.084	6726
631.146	8380
631.209	7678
631.272	5719
631.334	5543
631.397	5688
631.459	5674
631.522	6980
631.584	6609
631.646	7111
631.709	7232
631.771	7398
631.834	6766
631.896	5891
631.958	4738
632.021	6940
632.083	4616
632.145	6521
632.208	5325
632.270	6520
632.332	4702
632.395	5025
632.457	6266
632.519	5137
632.581	6000
632.643	4677
632.706	5799
632.768	5082
632.830	6317
632.892	5691
632.954	4539
633.016	5929
633.078	5230
633.141	4797
633.203	5065
633.265	5695
633.327	4764
633.389	4428
633.451	5829
633.513	7131
633.575	7201
633.637	5816
633.698	5453
633.760	6252
633.822	6422
633.884	6523
633.946	5015
634.008	5169
634.070	5530
634.132	8490
634.193	6258
634.255	6642
634.317	5105
634.379	6902
634.441	4367
634.502	5998
634.564	5992
634.626	6381
634.687	8407
634.749	6209
634.811	6028
634.873	4507
634.934	5135
634.996	5335
635.057	3746
635.119	4177
635.181	3926
635.242	5466
635.304	3009
635.365	7195
635.427	4741
635.488	4627
635.550	4367
635.611	5694
635.673	2859
635.734	7176
635.796	5075
635.857	7055
635.918	5024
635.980	6860
636.041	5107
636.102	7043
636.164	6179
636.225	6856
636.286	3968
636.348	6405
636.409	5471
636.470	4988
636.531	5141
636.593	5464
636.654	5422
636.715	5553
636.776	3723
636.838	4416
636.899	5506
636.960	4827
637.021	4454
637.082	5197
637.143	5401
637.204	3606
637.265	3382
637.326	4969
637.387	4442
637.448	3197
637.509	4795
637.570	4971
637.631	5353
637.692	3342
637.753	3741
637.814	4502
637.875	3524
637.936	5195
637.997	2802
638.058	4532
638.119	4903
638.179	3872
638.240	3555
638.301	3970
638.362	3050
638.423	3855
638.483	5672
638.544	2816
638.605	4329
638.666	3846
638.726	4522
638.787	4651
638.848	3228
638.908	4153
638.969	4446
639.030	3877
639.090	2160
639.151	3195
639.211	4638
639.272	5566
639.332	6874
639.393	5456
639.453	2616
639.514	4318
639.574	4489
639.635	4105
639.695	4688
639.756	3172
639.816	4742
639.877	5056
639.937	6988
639.997	7486
640.058	3310
640.118	2992
640.178	4168
640.239	3421
640.299	3191
640.359	2921
640.420	3097
640.480	3683
640.540	3389
640.600	4196
640.661	4263
640.721	3720
640.781	5610
640.841	2894
640.901	4471
640.961	4665
641.021	4026
641.082	4483
641.142	4901
641.202	5992
641.262	1582
641.322	4362
641.382	2876
641.442	4088
641.502	3184
641.562	4653
641.622	2993
641.682	4051
641.742	3192
641.802	4438
641.861	4700
641.921	4081
641.981	4020
642.041	4837
642.101	4126
642.161	2981
642.221	2621
642.280	3933
642.340	2718
642.400	2310
642.460	4316
642.519	3456
642.579	3353
642.639	5365
642.698	1976
642.758	5684
642.818	3406
642.877	3865
642.937	3275
642.997	4357
643.056	5253
643.116	2543
643.175	4269
643.235	3915
643.294	3588
643.354	4793
643.414	4711
643.473	5965
643.532	5034
643.592	6935
643.651	11511
643.711	22353
643.770	39441
643.830	91602
643.889	192225
643.948	46533
644.008	9256
644.067	6083
644.126	4509
644.186	4771
644.245	4231
644.304	2559
644.363	4408
644.423	2426
644.482	4164
644.541	3582
644.600	2345
644.659	5064
644.719	3902
644.778	5793
644.837	8769
644.896	17582
644.955	36732
645.014	14897
645.073	5954
645.132	3179
645.191	4142
645.250	3126
645.309	5724
645.368	4038
645.427	4158
645.486	4315
645.545	8098
645.604	3740
645.663	4235
645.722	2931
645.781	3423
645.840	4660
645.898	5095
645.957	8250
646.016	9642
646.075	17814
646.134	32787
646.192	86158
646.251	125417
646.310	19310
646.369	5082
646.427	5289
646.486	3593
646.545	4260
646.603	3267
646.662	4102
646.721	3258
646.779	2337
646.838	1816
646.896	4146
646.955	3780
647.014	6679
647.072	8915
647.131	22619
647.189	11348
647.248	3211
647.306	3016
647.365	4011
647.423	897
647.481	3884
647.540	1065
647.598	2569
647.657	1876
647.715	3940
647.773	1997
647.832	3192
647.890	2524
647.948	2189
648.007	2870
648.065	2110
648.123	2216
648.181	5150
648.240	5147
648.298	3697
648.356	3219
648.414	4371
648.472	3633
648.531	3550
648.589	2067
648.647	3101
648.705	2498
648.763	2592
648.821	3574
648.879	3280
648.937	2766
648.995	3993
649.053	3302
649.111	6148
649.169	8832
649.227	12830
649.285	25008
649.343	68448
649.401	36125
649.459	12734
649.516	9603
649.574	8379
649.632	20589
649.690	23746
649.748	8952
649.806	9737
649.863	16554
649.921	17230
649.979	10852
650.037	3993
650.094	1343
650.152	2950
650.210	2264
650.268	2657
650.325	2362
650.383	2930
650.440	1077
650.498	2772
650.556	1888
650.613	2656
650.671	2749
650.728	2924
650.786	1389
650.843	2694
650.901	489
650.958	3003
651.016	2327
651.073	3108
651.131	1062
651.188	776
651.246	2097
651.303	1783
651.360	2597
651.418	1628
651.475	2071
651.532	1430
651.590	2032
651.647	1622
651.704	1838
651.762	2222
651.819	2506
651.876	1563
651.933	1253
651.990	2574
652.048	731
652.105	935
652.162	1999
652.219	1350
652.276	2491
652.333	2379
652.390	457
652.448	2975
652.505	2215
652.562	1859
652.619	2455
652.676	4941
652.733	5578
652.790	1961
652.847	206
652.904	2369
652.961	-334
653.017	1874
653.074	1572
653.131	1755
653.188	793
653.245	1564
653.302	1166
653.359	1370
653.415	1855
653.472	821
653.529	1906
653.586	506
653.642	869
653.699	2576
653.756	1130
653.813	1368
653.869	1596
653.926	582
653.983	1061
654.039	2334
654.096	789
654.152	2249
654.209	81
654.266	2000
654.322	1165
654.379	2477
654.435	2169
654.492	1950
654.548	3021
654.605	3875
654.661	2933
654.717	1645
654.774	1884
654.830	1867
654.887	1860
654.943	1874
655.000	2810
655.056	2183
655.112	1318
655.168	1142
655.225	1325
655.281	2960
655.337	2631
655.394	4836
655.450	3457
655.506	3495
655.562	4106
655.618	4962
655.675	837
655.731	3155
655.787	1904
655.843	3172
655.899	1677
655.955	3716
656.011	2837
656.067	3166
656.123	3543
656.179	4426
656.235	5459
656.291	4081
656.347	4662
656.403	2984
656.459	3396
656.515	3478
656.571	2763
656.627	2889
656.683	2567
656.739	3030
656.795	2958
656.850	2111
656.906	3142
656.962	3023
657.018	1112
657.074	2431
657.129	1366
657.185	2328
657.241	3205
657.297	2701
657.352	1817
657.408	1431
657.464	2269
657.519	2136
657.575	282
657.630	1845
657.686	817
657.742	1360
657.797	1265
657.853	1029
657.908	2181
657.964	829
658.019	859
658.075	1366
658.130	732
658.186	1017
658.241	1721
658.297	1025
658.352	269
658.407	1718
658.463	176
658.518	971
658.573	943
658.629	1048
658.684	1050
658.739	2195
658.795	285
658.850	1558
658.905	841
658.960	1672
659.016	520
659.071	1448
659.126	1695
659.181	2128
659.236	2834
659.291	3345
659.346	877
659.401	2420
659.457	2399
659.512	3267
659.567	2436
659.622	861
659.677	701
659.732	232
659.787	805
659.842	1614
659.897	1827
659.952	1880
660.007	925
660.061	1262
660.116	404
660.171	1507
660.226	872
660.281	2023
660.336	459
660.391	1852
660.445	1044
660.500	930
660.555	825
660.610	192
660.664	1090
660.719	832
660.774	1168
660.828	1022
660.883	696
660.938	1822
660.992	-166
661.047	1507
661.101	429
661.156	1411
661.211	57
661.265	1167
661.320	686
661.374	1162
661.429	272
661.483	1563
661.538	644
661.592	986
661.647	857
661.701	1235
661.755	649
661.810	1436
661.864	290
661.919	219
661.973	1326
662.027	992
662.081	-170
662.136	892
662.190	1414
662.244	1407
662.299	1251
662.353	1151
662.407	-108
662.461	748
662.515	1431
662.569	1191
662.624	1475
662.678	767
662.732	1434
662.786	676
662.840	1854
662.894	1079
662.948	597
663.002	457
663.056	395
663.110	908
663.164	202
663.218	1386
663.272	1347
663.326	1500
663.380	586
663.434	383
663.488	315
663.542	1127
663.595	729
663.649	1157
663.703	894
663.757	1777
663.811	477
663.864	870
663.918	913
663.972	883
664.026	571
664.079	593
664.133	1099
664.187	2305
664.240	-366
664.294	1131
664.348	1289
664.401	1663
664.455	343
664.508	900
664.562	334
664.615	1868
664.669	373
664.722	1443
664.776	30
664.829	1784
664.883	1545
664.936	570
664.990	156
665.043	1424
665.097	1430
665.150	1738
665.203	1071
665.257	562
665.310	996
665.363	1252
665.417	747
665.470	1352
665.523	1604
665.576	1075
665.630	758
665.683	1123
665.736	1443
665.789	1317
665.842	-313
665.895	1811
665.949	890
666.002	1589
666.055	436
666.108	1324
666.161	894
666.214	2085
666.267	1556
666.320	2232
666.373	967
666.426	1412
666.479	1252
666.532	1429
666.585	1343
666.638	1628
666.691	1196
666.744	1540
666.796	662
666.849	877
666.902	1406
666.955	1315
667.008	268
667.060	1016
667.113	611
667.166	424
667.219	1243
667.271	1342
667.324	691
667.377	1695
667.430	1358
667.482	2708
667.535	774
667.587	1290
667.640	766
667.693	1240
667.745	2213
667.798	2728
667.850	725
667.903	1663
667.955	656
668.008	1093
668.060	1622
668.113	1117
668.165	1647
668.218	1124
668.270	718
668.322	1262
668.375	869
668.427	1299
668.479	255
668.532	1406
668.584	408
668.636	1765
668.689	1347
668.741	760
668.793	644
668.845	746
668.898	1553
668.950	684
669.002	317
669.054	386
669.106	948
669.158	1552
669.211	351
669.263	1637
669.315	1764
669.367	2636
669.419	1133
669.471	2327
669.523	1429
669.575	2077
669.627	1503
669.679	1711
669.731	1853
669.783	2026
669.835	1861
669.886	1990
669.938	869
669.990	985
670.042	1007
670.094	1060
670.146	773
670.197	2121
670.249	2048
670.301	2363
670.353	3163
670.404	5061
670.456	6868
670.508	12319
670.560	18696
670.611	31435
670.663	54231
670.715	132514
670.766	210316
670.818	61448
670.869	8752
670.921	5545
670.972	3794
671.024	2695
671.075	2439
671.127	2520
671.178	893
671.230	1811
671.281	1594
671.333	1908
671.384	2130
671.436	1378
671.487	2518
671.538	2003
671.590	2651
671.641	3734
671.692	5779
671.744	9545
671.795	7806
671.846	3708
671.897	3033
671.949	1707
672.000	1588
672.051	1293
672.102	2174
672.153	1259
672.204	1096
672.256	1274
672.307	1296
672.358	1156
672.409	810
672.460	1395
672.511	865
672.562	342
672.613	46
672.664	1355
672.715	453
672.766	1124
672.817	1032
672.868	926
672.919	1056
672.970	1431
673.021	-70
673.071	99
673.122	838
673.173	706
673.224	663
673.275	351
673.326	537
673.376	1496
673.427	759
673.478	220
673.528	822
673.579	495
673.630	485
673.680	1344
673.731	353
673.782	604
673.832	1137
673.883	1402
673.934	711
673.984	913
674.035	808
674.085	2103
674.136	1272
674.186	1275
674.237	1003
674.287	3218
674.338	1256
674.388	1103
674.438	649
674.489	1261
674.539	452
674.589	1073
674.640	704
674.690	910
674.740	355
674.791	608
674.841	578
674.891	1277
674.942	1223
674.992	983
675.042	89
675.092	1344
675.142	176
675.193	680
675.243	889
675.293	1101
675.343	572
675.393	710
675.443	-249
675.493	1542
675.543	105
675.593	981
675.643	265
675.693	494
675.743	909
675.793	382
675.843	932
675.893	538
675.943	198
675.993	1186
676.043	343
676.093	1963
676.142	310
676.192	1411
676.242	389
676.292	667
676.341	259
676.391	343
676.441	-1118
676.491	1031
676.540	-680
676.590	684
676.640	357
676.689	1516
676.739	247
676.789	609
676.838	124
676.888	973
676.937	620
676.987	395
677.037	294
677.086	554
677.136	445
677.185	457
677.235	146
677.284	952
677.333	24
677.383	301
677.432	-496
677.482	380
677.531	1345
677.580	94
677.630	713
677.679	-56
677.728	-174
677.778	1196
677.827	-203
677.876	824
677.925	106
677.975	168
678.024	-857
678.073	-179
678.122	213
678.171	460
678.220	506
678.269	1583
678.319	144
678.368	153
678.417	263
678.466	897
678.515	906
678.564	682
678.613	-26
678.662	-80
678.711	25
678.760	433
678.809	710
678.857	409
678.906	-447
678.955	96
679.004	72
679.053	727
679.102	785
679.151	-197
679.199	637
679.248	111
679.297	325
679.346	-428
679.394	68
679.443	-153
679.492	-566
679.540	893
679.589	349
679.638	-197
679.686	427
679.735	772
679.784	453
679.832	-247
679.881	86
679.929	232
679.978	412
680.026	-244
680.075	347
680.123	36
680.172	99
680.220	1067
680.268	550
680.317	822
680.365	26
680.414	397
680.462	-281
680.510	1212
680.559	-154
680.607	-183
680.655	168
680.703	31
680.752	114
680.800	49
680.848	-358
680.896	-28
680.945	-142
680.993	173
681.041	-447
681.089	1632
681.137	247
681.185	300
681.233	-419
681.258	157
681.281	686
681.329	158
681.377	13
681.380	23
681.425	-84
681.473	428
681.502	222
681.521	42
681.569	745
681.617	239
681.624	230
681.665	65
681.713	785
681.745	732
681.761	678
681.809	682
681.857	365
681.867	157
681.904	-636
681.952	677
681.989	623
682.000	588
682.048	434
682.096	11
682.111	272
682.143	797
682.191	-32
682.233	1344
682.239	1527
682.286	963
682.334	1007
682.354	1038
682.382	1069
682.430	1429
682.476	1141
682.477	1121
682.525	1284
682.572	439
682.598	499
682.620	531
682.667	753
682.715	1516
682.720	1496
682.763	1153
682.810	807
682.841	1026
682.857	1129
682.905	1397
682.952	1792
682.963	1702
683.000	1303
683.047	1505
683.085	1836
683.095	1923
683.142	1784
683.190	1818
683.206	1402
683.237	560
683.284	1825
683.328	935
683.332	849
683.379	1242
683.426	441
683.449	814
683.473	1190
683.521	1284
683.568	2100
683.571	2076
683.615	1609
683.662	1732
683.693	1676
683.709	1629
683.757	1264
683.804	989
683.814	1122
683.851	1546
683.898	1603
683.936	2343
683.945	2512
683.992	1430
684.039	1707
684.057	1692
684.086	1621
684.133	1746
684.179	1035
684.180	1003
684.227	2086
684.274	1718
684.300	1912
684.321	2043
684.368	1730
684.415	2097
684.422	2008
684.462	1393
684.509	2050
684.543	1830
684.556	1725
684.603	1849
684.649	1645
684.665	1731
684.696	1995
684.743	1979
684.786	2580
684.790	2621
684.837	1939
684.883	2630
684.908	2867
684.930	3032
684.977	3502
685.023	3079
685.029	3080
685.070	2960
685.117	2259
685.150	2084
685.164	2049
685.210	3000
685.257	3149
685.272	3141
685.303	3054
685.350	2775
685.393	2822
685.396	2813
685.443	3339
685.490	2666
685.514	2795
685.536	2980
685.583	2649
685.629	2846
685.636	2852
685.675	2713
685.722	3401
685.757	2625
685.768	2408
685.815	3524
685.861	3125
685.878	3594
685.908	4312
685.954	3581
686.000	4018
686.000	4026
686.047	3882
686.093	4878
686.121	4719
686.139	4370
686.185	4212
686.232	3338
686.242	3423
686.278	3900
686.324	3377
686.363	2854
686.370	2760
686.416	3069
686.463	4135
686.484	3925
686.509	3742
686.555	3144
686.601	3167
686.606	3229
686.647	3691
686.693	2842
686.727	3430
686.739	3655
686.785	3459
686.831	3681
686.848	3546
686.877	3287
686.923	3086
686.969	3695
686.969	3697
687.015	3869
687.061	3460
687.090	3775
687.107	3912
687.153	3823
687.199	3658
687.211	3484
687.245	3137
687.291	4064
687.332	4521
687.336	4560
687.382	4117
687.428	3825
687.453	3919
687.474	3908
687.520	3788
687.565	4069
687.574	3897
687.611	3344
687.657	4144
687.695	3679
687.702	3620
687.748	4282
687.794	4542
687.816	4582
687.839	4433
687.885	4242
687.931	3573
687.937	3590
687.976	3927
688.022	3852
688.058	3811
688.067	3776
688.113	3766
688.158	3367
688.179	3484
688.204	3869
688.249	3755
688.295	5156
688.300	5126
688.340	4556
688.386	4364
688.421	4329
688.431	4333
688.477	4358
688.522	4433
688.542	4656
688.567	4968
688.613	4328
688.658	4650
688.663	4682
688.703	4939
688.749	4318
688.784	4311
688.794	4328
688.839	4671
688.884	4647
688.905	4799
688.930	4922
688.975	4476
689.020	4400
689.026	4426
689.065	4753
689.110	4747
689.146	4455
689.155	4427
689.201	5150
689.246	5192
689.267	5286
689.291	5173
689.336	4783
689.381	4265
689.388	4268
689.426	4532
689.471	4773
689.509	4421
689.516	4367
689.561	4870
689.606	4750
689.630	4752
689.651	4776
689.696	4499
689.741	5144
689.750	5069
689.785	4631
689.830	4883
689.871	4814
689.875	4844
689.920	5148
689.965	5028
689.992	5123
690.010	5143
690.054	5087
690.099	5385
690.112	5272
690.144	5055
690.189	5169
690.233	5042
690.233	5050
690.278	5619
690.323	4799
690.354	5175
690.367	5388
690.412	5634
690.457	5940
690.474	5973
690.501	5865
690.546	5569
690.590	4905
690.595	4917
690.635	5502
690.680	5822
690.716	5717
690.724	5758
690.769	6750
690.813	7675
690.836	7872
690.857	8376
690.902	9930
690.946	11262
690.957	11631
690.991	14920
691.035	19460
691.077	24305
691.080	24382
691.124	22784
691.168	21786
691.198	21256
691.213	19965
691.257	15833
691.301	12230
691.318	10841
691.346	10241
691.390	8688
691.434	7818
691.439	7677
691.478	7448
691.522	7221
691.559	7164
691.567	7210
691.611	7022
691.655	7033
691.680	6853
691.699	6610
691.743	6271
691.787	6362
691.800	6079
691.831	5745
691.875	6365
691.919	6312
691.921	6316
691.964	6760
692.008	6220
692.041	6171
692.052	6261
692.096	6972
692.139	7488
692.162	7370
692.183	6804
692.227	6094
692.271	5871
692.282	5709
692.315	5835
692.359	6093
692.402	6076
692.403	6090
692.447	6111
692.490	6627
692.523	6898
692.534	6943
692.578	6708
692.622	6583
692.643	6738
692.666	6852
692.709	6368
692.753	6414
692.763	6349
692.797	6265
692.840	6275
692.884	6223
692.884	6238
692.928	6308
692.971	6498
693.004	6692
693.015	6803
693.059	7035
693.102	7397
693.124	7594
693.146	7612
693.189	7364
693.233	7290
693.245	7223
693.276	7578
693.320	8174
693.363	8635
693.365	8636
693.407	8968
693.450	9531
693.485	9577
693.493	9800
693.537	11470
693.580	12435
693.605	13240
693.624	14716
693.667	18177
693.710	21695
693.725	22894
693.753	28969
693.797	39180
693.840	49351
693.845	50324
693.883	48279
693.926	45053
693.966	43119
693.970	42378
694.013	33540
694.056	24978
694.086	18998
694.099	18214
694.142	15760
694.185	12921
694.206	11749
694.229	11486
694.272	10954
694.315	9923
694.326	9798
694.358	9771
694.401	9480
694.444	8933
694.446	8895
694.487	8716
694.530	8298
694.566	8056
694.573	8033
694.616	7601
694.659	7625
694.686	7325
694.702	7350
694.745	7714
694.787	7655
694.806	7835
694.830	7879
694.873	7539
694.916	7251
694.926	7149
694.959	7148
695.002	7220
695.044	7112
695.046	7102
695.087	7235
695.130	7069
695.166	7103
695.172	7166
695.215	7218
695.258	7373
695.286	7420
695.301	7441
695.343	7528
695.386	7720
695.406	7715
695.428	7729
695.471	7658
695.514	7745
695.526	7730
695.556	7617
695.599	7562
695.641	7273
695.646	7224
695.684	7268
695.726	7307
695.766	7478
695.769	7496
695.811	7266
695.854	7137
695.886	7091
695.896	7138
695.938	7106
695.981	6946
696.005	7007
696.023	7183
696.065	7361
696.108	7584
696.125	7655
696.150	7637
696.192	7672
696.235	7610
696.245	7584
696.277	7466
696.319	7144
696.361	6950
696.365	6912
696.404	7244
696.446	7577
696.485	7848
696.488	7869
696.530	7965
696.572	7815
696.604	7783
696.614	7772
696.656	7481
696.698	7454
696.724	7327
696.740	7393
696.783	7490
696.825	7703
696.844	7724
696.867	7696
696.909	7633
696.951	7533
696.964	7499
696.992	7324
697.034	7071
697.076	6697
697.083	6629
697.118	7133
697.160	7661
697.202	8148
697.203	8142
697.244	8039
697.286	7708
697.323	7460
697.327	7513
697.369	7822
697.411	7928
697.442	8238
697.453	8188
697.494	7594
697.536	7239
697.562	6924
697.578	6975
697.620	7019
697.661	7034
697.682	7077
697.703	7176
697.744	7257
697.786	7454
697.801	7462
697.828	7658
697.869	7921
697.911	8175
697.921	8220
697.952	7863
697.994	7364
698.035	6943
698.040	6856
698.077	7282
698.118	7816
698.160	8296
698.160	8272
698.201	7868
698.243	7393
698.279	6944
698.284	7024
698.325	7557
698.367	8141
698.399	8539
698.408	8499
698.449	8200
698.491	7916
698.518	7709
698.532	7810
698.573	8017
698.614	8262
698.638	8347
698.656	8234
698.697	7958
698.738	7652
698.757	7496
698.779	7796
698.820	8296
698.862	8827
698.877	8996
698.903	9030
698.944	9035
698.985	9047
698.996	9025
699.026	8988
699.067	8904
699.116	8778
699.235	7343
699.354	8456
699.474	7504
699.593	9627
699.713	9812
699.832	9196
699.951	8420
700.070	8158
700.190	9039
700.309	8588
700.428	9089
700.547	8561
700.667	8016
700.786	8606
700.905	8077
701.024	8638
701.143	7480
701.262	6982
701.381	6608
701.500	8320
701.619	7527
701.738	7288
701.857	7486
701.976	6963
702.095	6719
702.214	8081
702.333	7503
702.452	7395
702.571	7720
702.690	7431
702.809	7214
702.928	7199
703.047	7350
703.165	7371
703.284	6795
703.403	7052
703.522	7687
703.640	8195
703.759	8717
703.878	10770
703.997	7133
704.115	7165
704.234	7022
704.353	7147
704.471	6803
704.590	5919
704.708	6560
704.827	6264
704.946	6611
705.064	8029
705.183	6506
705.301	7781
705.420	10804
705.538	9760
705.656	8546
705.775	9702
705.893	15793
706.012	18451
706.130	8707
706.249	9023
706.367	9426
706.485	9798
706.604	8757
706.722	8395
706.840	9439
706.958	10569
707.077	7923
707.195	8436
707.313	7660
707.431	7902
707.549	7575
707.668	8048
707.786	8045
707.904	6747
708.022	7220
708.140	7779
708.258	7122
708.376	7767
708.494	7534
708.612	9346
708.730	11420
708.848	9631
708.966	9540
709.084	9478
709.202	9677
709.320	10214
709.438	10062
709.556	9299
709.674	8319
709.791	9874
709.909	8534
710.027	9514
710.145	8838
710.263	9013
710.380	8046
710.498	8477
710.616	8909
710.733	9457
710.851	9530
710.969	9082
711.086	8152
711.204	9219
711.322	9036
711.439	8724
711.557	8779
711.674	9489
711.792	9041
711.909	9051
712.027	9799
712.144	7983
712.262	9006
712.379	9351
712.497	11584
712.614	12728
712.732	10871
712.849	9994
712.966	10181
713.084	11774
713.201	10827
713.318	10738
713.436	10264
713.553	10238
713.670	10366
713.787	11244
713.905	10833
714.022	10211
714.139	9591
714.256	10160
714.373	11206
714.490	14501
714.608	25865
714.725	92289
714.842	85172
714.959	13295
715.076	10906
715.193	9661
715.310	8775
715.427	9377
715.544	8152
715.661	9512
715.778	8286
715.895	10108
716.011	9581
716.128	9084
716.245	9561
716.362	9687
716.479	8628
716.596	9524
716.713	9046
716.829	9556
716.946	8786
717.063	8217
717.180	8050
717.296	8660
717.413	8624
717.530	8465
717.646	7966
717.763	7678
717.880	7795
717.996	7806
718.113	7084
718.229	7838
718.346	7320
718.462	7967
718.579	8508
718.695	10183
718.812	9612
718.928	10893
719.045	8385
719.161	7078
719.277	6944
719.394	7919
719.510	8585
719.626	8020
719.743	8251
719.859	8277
719.975	10664
720.092	26916
720.208	48425
720.324	11609
720.440	7311
720.557	8667
720.673	10761
720.789	15318
720.905	31685
721.021	12194
721.137	7185
721.253	8038
721.369	7674
721.486	7600
721.602	10447
721.718	7097
721.834	5698
721.950	7013
722.066	6378
722.181	6451
722.297	6491
722.413	6693
722.529	6675
722.645	6468
722.761	5987
722.877	5746
722.993	6428
723.108	6651
723.224	5655
723.340	6914
723.456	6293
723.571	6384
723.687	5260
723.803	5314
723.918	5745
724.034	5414
724.150	5554
724.265	6754
724.381	12597
724.497	14975
724.612	6062
724.728	5508
724.843	5413
724.959	7140
725.074	12201
725.190	14156
725.305	6257
725.421	6230
725.536	4977
725.651	6115
725.767	4546
725.882	5421
725.997	4507
726.113	4854
726.228	4775
726.343	5430
726.459	4304
726.574	5525
726.689	5825
726.804	5554
726.920	5138
727.035	5112
727.150	5025
727.265	4768
727.380	5053
727.495	4673
727.610	4450
727.725	5300
727.841	5846
727.956	10500
728.071	8150
728.186	5805
728.301	3667
728.416	5141
728.531	4173
728.645	5125
728.760	5237
728.875	5808
728.990	5547
729.105	5463
729.220	4830
729.335	5021
729.449	3714
729.564	4932
729.679	3742
729.794	4785
729.908	4588
730.023	4911
730.138	4411
730.253	3978
730.367	4112
730.482	4157
730.596	3469
730.711	4572
730.826	4620
730.940	4682
731.055	4179
731.169	4231
731.284	4143
731.398	3734
731.513	4555
731.627	4793
731.742	4421
731.856	4837
731.970	4110
732.085	4269
732.199	4632
732.313	5964
732.428	10451
732.542	24622
732.656	13787
732.771	4473
732.885	4456
732.999	4121
733.113	4152
733.227	4735
733.342	4234
733.456	3678
733.570	3736
733.684	2886
733.798	4036
733.912	3480
734.026	3137
734.140	4651
734.254	4142
734.368	6699
734.482	8730
734.596	4003
734.710	3320
734.824	4237
734.938	3439
735.052	3855
735.166	4134
735.280	3519
735.393	2739
735.507	3495
735.621	4696
735.735	8432
735.849	3496
735.962	4353
736.076	4558
736.190	3943
736.303	4949
736.417	6885
736.531	3274
736.644	4058
736.758	3257
736.872	3059
736.985	3822
737.099	3604
737.212	2900
737.326	2436
737.439	3043
737.553	3414
737.666	3542
737.780	3261
737.893	2737
738.007	3264
738.120	2338
738.233	2866
738.347	3320
738.460	3672
738.573	3373
738.687	3592
738.800	3237
738.913	3524
739.026	3770
739.140	4040
739.253	3311
739.366	3638
739.479	2251
739.592	3456
739.705	3240
739.818	3321
739.932	3194
740.045	3409
740.158	2643
740.271	3701
740.384	3578
740.497	2783
740.610	4344
740.723	4592
740.836	3485
740.949	4057
741.062	4218
741.174	3555
741.287	2730
741.400	3098
741.513	3537
741.626	4414
741.739	3526
741.851	2637
741.964	3810
742.077	2806
742.189	4627
742.302	8535
742.415	5881
742.527	3646
742.640	3091
742.753	3212
742.865	2542
742.978	2603
743.090	2508
743.203	1981
743.316	2377
743.428	2802
743.541	2295
743.653	2695
743.766	2590
743.878	3087
743.990	4253
744.103	7701
744.215	9421
744.327	4247
744.440	3143
744.552	4155
744.664	2809
744.777	3090
744.889	2158
745.001	3732
745.113	2497
745.226	2334
745.338	2297
745.450	3055
745.562	1839
745.674	3398
745.786	2241
745.898	2473
746.010	2181
746.122	2639
746.234	2569
746.347	2645
746.459	2765
746.570	3516
746.682	8031
746.794	13921
746.906	5765
747.018	3255
747.130	3077
747.242	2636
747.354	2782
747.466	3322
747.577	2558
747.689	3361
747.801	2146
747.913	2883
748.024	2536
748.136	2660
748.248	1707
748.359	2125
748.471	3230
748.583	2893
748.694	2503
748.806	3807
748.918	2889
749.029	2586
749.141	2615
749.252	3415
749.364	3018
749.475	4241
749.587	3095
749.698	2910
749.809	2720
749.921	1956
750.032	2457
750.144	2458
750.255	2039
750.366	2676
750.478	1990
750.589	2593
750.700	1649
750.811	3378
750.923	3279
751.034	4301
751.145	4679
751.256	2566
751.367	1929
751.479	2472
751.590	2173
751.701	2851
751.812	1637
751.923	2551
752.034	2557
752.145	2597
752.256	1638
752.367	2226
752.478	1506
752.589	3215
752.700	1886
752.811	2350
752.922	1779
753.032	1959
753.143	2038
753.254	1871
753.365	2317
753.476	2853
753.586	2512
753.697	2402
753.808	1819
753.919	2034
754.029	2290
754.140	1859
754.251	2028
754.361	2637
754.472	1851
754.582	2015
754.693	2742
754.804	2366
754.914	1944
755.025	2646
755.135	1345
755.246	2361
755.356	2023
755.466	2834
755.577	2665
755.687	2599
755.798	1819
755.908	2726
756.018	1600
756.129	2414
756.239	1669
756.349	2909
756.460	2363
756.570	2721
756.680	2567
756.790	2058
756.900	2623
757.011	2642
757.121	1578
757.231	2618
757.341	2002
757.451	2417
757.561	1596
757.671	2142
757.781	1528
757.891	3144
758.001	2297
758.111	2707
758.221	1842
758.331	2778
758.441	2198
758.551	2754
758.661	2848
758.771	2722
758.880	1882
758.990	2467
759.100	2041
759.210	3010
759.320	3085
759.429	2458
759.539	2755
759.649	2908
759.758	2929
759.868	3964
759.978	2203
760.087	3785
760.197	2908
760.307	3027
760.416	3206
760.526	2416
760.635	3205
760.745	3190
760.854	3440
760.964	3371
761.073	3307
761.182	3245
761.292	3909
761.401	4260
761.511	4138
761.620	4111
761.729	3483
761.839	3338
761.948	4100
762.057	3880
762.166	3870
762.276	3370
762.385	4486
762.494	4219
762.603	3577
762.712	4373
762.822	4000
762.931	4299
763.040	4079
763.149	4913
763.258	4771
763.367	5647
763.476	6088
763.585	5258
763.694	6449
763.803	6442
763.912	6276
764.021	6833
764.130	5830
764.238	7345
764.347	7582
764.456	7684
764.565	8417
764.674	10151
764.783	10119
764.891	10578
765.000	14002
765.109	14742
765.217	16052
765.326	20333
765.435	24339
765.543	29248
765.652	35757
765.761	47693
765.869	69232
765.978	106916
766.086	181127
766.195	338859
766.303	691243
766.412	1044095
766.520	920325
766.629	502298
766.737	233642
766.846	133829
766.954	88731
767.062	63966
767.171	47876
767.279	36862
767.387	29728
767.496	24756
767.604	20587
767.712	19096
767.820	16972
767.928	15255
768.037	14045
768.145	13875
768.253	12675
768.361	12384
768.469	12727
768.577	12954
768.685	13530
768.793	15433
768.901	14747
769.009	18930
769.117	21216
769.225	28845
769.333	42974
769.441	71797
769.549	128374
769.657	281968
769.765	662185
769.873	874481
769.981	492578
770.088	179443
770.196	89137
770.304	55197
770.412	40208
770.519	29246
770.627	21891
770.735	18370
770.842	15421
770.950	14186
771.058	11799
771.165	10557
771.273	9218
771.380	9493
771.488	8376
771.595	7441
771.703	6875
771.810	7442
771.918	5774
772.025	6243
772.133	5191
772.240	5554
772.348	5161
772.455	5793
772.562	4487
772.670	3786
772.777	5008
772.884	4934
772.991	4299
773.099	4737
773.206	2848
773.313	4214
773.420	3208
773.528	3545
773.635	3495
773.742	3095
773.849	3712
773.956	2828
774.063	3023
774.170	2797
774.277	3684
774.384	3181
774.491	3386
774.598	4077
774.705	2675
774.812	3899
774.919	2882
775.026	2830
775.133	2842
775.239	3238
775.346	1982
775.453	2672
775.560	3115
775.667	2518
775.773	1922
775.880	3594
775.987	2952
776.093	3872
776.200	2000
776.307	2774
776.413	3139
776.520	2160
776.627	3137
776.733	3051
776.840	2832
776.946	6034
777.053	11487
777.159	24226
777.266	12672
777.372	21388
777.478	16240
777.585	7771
777.691	3299
777.798	3577
777.904	2648
778.010	3887
778.117	3187
778.223	2550
778.329	2165
778.435	2291
778.542	2401
778.648	2319
778.754	1562
778.860	2129
778.966	2116
779.072	2143
779.178	1713
779.284	2046
779.391	2397
779.497	1147
779.603	4047
779.708	4598
779.815	11287
779.920	40720
780.026	58552
780.132	7484
780.238	3036
780.344	3269
780.450	2775
780.556	1803
780.661	1787
780.767	1657
780.873	1180
780.979	2015
781.085	1124
781.190	2043
781.296	1028
781.402	1410
781.507	995
781.613	1905
781.719	1437
781.824	1615
781.930	2294
782.035	1564
782.141	2145
782.246	1094
782.352	1175
782.457	1822
782.563	1081
782.668	1218
782.773	1816
782.879	1200
782.984	1965
783.090	2025
783.195	2448
783.300	2157
783.405	1800
783.511	1836
783.616	1688
783.721	1459
783.826	1335
783.932	954
784.037	1728
784.142	2213
784.247	1048
784.352	1770
784.457	1377
784.562	1705
784.667	780
784.772	1304
784.877	890
784.982	1636
785.087	931
785.192	1370
785.297	1388
785.402	1074
785.507	1133
785.611	913
785.716	1104
785.821	1257
785.926	1020
786.031	1032
786.135	1160
786.240	2007
786.345	-382
786.450	1757
786.554	979
786.659	831
786.763	-81
786.868	1978
786.973	1797
787.077	630
787.182	1024
787.286	1943
787.391	898
787.495	1025
787.600	823
787.704	920
787.809	874
787.913	1014
788.017	1275
788.122	1763
788.226	920
788.330	617
788.435	422
788.539	1700
788.643	465
788.747	1036
788.852	335
788.956	924
789.060	1549
789.164	1056
789.268	-205
789.372	1502
789.476	435
789.580	781
789.684	709
789.788	1300
789.892	-3
789.996	1711
790.100	704
790.204	892
790.308	508
790.412	648
790.516	999
790.620	917
790.724	1020
790.828	1341
790.931	715
791.035	2587
791.139	1144
791.242	68
791.346	1622
791.450	1034
791.554	132
791.657	126
791.761	1412
791.864	1453
791.968	848
792.072	1908
792.175	983
792.279	1561
792.382	1503
792.486	1068
792.589	662
792.693	1337
792.796	782
792.899	1892
793.003	1173
793.106	-69
793.209	111
793.313	2430
793.416	-842
793.519	1850
793.623	1478
793.726	689
793.829	887
793.932	813
794.035	295
794.138	2150
794.242	1349
794.345	2147
794.448	2447
794.551	5340
794.654	20414
794.757	30008
794.860	4596
794.963	1163
795.066	735
795.169	1821
795.272	225
795.375	866
795.477	142
795.580	1122
795.683	-350
795.786	484
795.889	-159
795.991	1716
796.094	984
796.197	-20
796.300	1237
796.402	730
796.505	7
796.608	461
796.710	914
796.813	606
796.915	384
797.018	672
797.120	1203
797.223	-392
797.326	1238
797.428	264
797.530	135
797.633	1198
797.735	1300
797.838	1446
797.940	2511
798.042	-251
798.145	136
798.247	1143
798.349	-1255
798.452	1226
798.554	-460
798.656	-357
798.758	2234
798.860	543
798.962	-197
799.065	246
799.167	-544
799.269	1151
799.371	1000
799.473	1353
799.575	219
799.677	318
799.779	2252
799.881	-889
799.983	1109
800.085	440
800.187	708
800.289	190
800.390	577
800.492	1241
800.594	1421
800.696	453
800.798	610
800.899	-453
801.001	725
801.103	466
801.205	-241
801.306	1139
801.408	-204
801.509	229
801.611	873
801.713	932
801.814	201
801.916	-49
802.017	720
802.119	91
802.220	712
802.322	-777
802.423	2286
802.525	516
802.626	396
802.727	712
802.829	254
802.930	-1413
803.031	2116
803.133	617
803.234	-1
803.335	-1
803.436	-593
803.538	725
803.639	-819
803.740	1221
803.841	-625
803.942	541
804.043	479
804.144	307
804.245	539
804.346	-287
804.447	-566
804.548	16
804.649	1192
804.750	297
804.851	-414
804.952	191
805.053	-65
805.154	-796
805.255	501
805.355	254
805.456	-23
805.557	-278
805.658	-235
805.758	1271
805.859	675
805.960	535
806.061	-419
806.161	-349
806.262	551
806.362	285
806.463	887
806.564	853
806.664	152
806.765	750
806.865	386
806.966	564
807.066	-659
807.166	966
807.267	1027
807.367	61
807.468	-163
807.568	-484
807.668	662
807.769	880
807.869	-166
807.969	-283
808.069	-614
808.170	591
808.270	-1067
808.370	1507
808.470	-85
808.570	-167
808.670	311
808.770	285
808.870	-482
808.970	1296
809.070	-158
809.170	-105
809.271	174
809.370	267
809.470	158
809.570	341
809.670	-90
809.770	248
809.870	988
809.970	600
810.070	-837
810.169	298
810.269	-1191
810.369	764
810.469	135
810.568	390
810.668	-415
810.768	-1
810.867	53
810.967	-163
811.066	434
811.166	-80
811.265	442
811.365	136
811.464	-153
811.564	222
811.663	534
811.763	-846
811.862	-98
811.962	1051
812.061	-304
812.160	-327
812.260	388
812.359	769
812.458	32
812.557	1152
812.657	356
812.756	656
812.855	-32
812.954	305
813.053	334
813.153	917
813.252	-586
813.351	1352
813.450	-678
813.549	191
813.648	996
813.747	371
813.846	1231
813.945	320
814.044	357
814.143	708
814.242	617
814.341	-474
814.439	576
814.538	1110
814.637	446
814.736	1295
814.835	1506
814.933	871
815.032	573
815.131	1172
815.229	873
815.328	798
815.427	86
815.525	2221
815.624	966
815.722	474
815.821	1873
815.919	1716
816.018	1203
816.116	2755
816.215	2065
816.313	2890
816.412	1684
816.510	2186
816.609	4065
816.707	3614
816.805	3095
816.904	4006
817.002	3955
817.100	6116
817.198	5635
817.296	5837
817.395	7753
817.493	10412
817.591	12303
817.689	17413
817.787	22355
817.885	38383
817.983	65447
818.081	132093
818.179	291618
818.277	601005
818.375	517404
818.473	204436
818.571	91376
818.669	60024
818.767	51276
818.865	48553
818.963	56722
819.061	78802
819.158	127816
819.256	243414
819.354	495258
819.452	814325
819.549	591900
819.647	264822
819.745	128071
819.842	76705
819.940	50326
820.038	36669
820.135	27181
820.233	22785
820.330	16716
820.428	13521
820.525	13126
820.623	11161
820.720	7444
820.818	8699
820.915	7683
821.012	6992
821.110	4509
821.207	5991
821.304	3842
821.402	5875
821.499	7775
821.596	10896
821.693	6745
821.791	4385
821.888	2845
821.985	4642
822.082	3355
822.179	5473
822.276	4697
822.373	2916
822.470	1930
822.567	2071
822.664	902
822.761	2040
822.858	624
822.955	1626
823.052	2119
823.149	1487
823.246	1485
823.343	1267
823.440	1719
823.536	519
823.633	427
823.730	1093
823.827	871
823.923	473
824.020	2896
824.117	2202
824.213	2329
824.310	2029
824.407	38
824.503	1482
824.600	830
824.696	-129
824.793	795
824.889	-75
824.986	-6
825.082	877
825.179	976
825.275	26
825.371	182
825.468	855
825.564	-505
825.660	727
825.757	375
825.853	689
825.949	-621
826.045	373
826.142	-24
826.238	478
826.334	-175
826.430	-784
826.526	1037
826.622	312
826.718	90
826.814	-582
826.910	1506
827.006	214
827.102	-582
827.198	281
827.294	-792
827.390	-359
827.486	296
827.582	-874
827.678	-960
827.774	504
827.869	-929
827.965	1207
828.061	-553
828.157	-763
828.252	-400
828.348	-190
828.444	1113
828.539	-847
828.635	-368
828.731	1266
828.826	-833
828.922	564
829.017	-1141
829.113	-29
829.208	-401
829.304	-274
829.399	5
829.495	-974
829.590	588
829.685	-1375
829.781	-348
829.876	-177
829.971	-160
830.066	-686
830.162	-560
830.257	-647
830.352	-514
830.447	450
830.543	-257
830.638	-1800
830.733	373
830.828	-106
830.923	-325
831.018	409
831.113	-406
831.208	-439
831.303	-1236
831.398	-542
831.493	-1757
831.588	486
831.683	-969
831.778	863
831.873	-761
831.967	692
832.062	-934
832.157	-1027
832.252	574
832.346	-566
832.441	357
832.536	-175
832.631	1131
832.725	787
832.820	-914
832.914	-544
833.009	-348
833.104	87
833.198	-1015
833.293	-317
833.387	-866
833.482	-567
833.576	-1237
833.670	999
833.765	-890
833.859	-339
833.954	-946
834.048	-1134
834.142	-742
834.237	-755
834.331	183
834.425	-705
834.519	-485
834.613	168
834.708	-920
834.802	365
834.896	-1200
834.990	-40
835.084	-116
835.178	-382
835.272	-766
835.366	-228
835.460	-1074
835.554	-71
835.648	-333
835.742	-478
835.836	-696
835.930	-1089
836.024	-174
836.117	-457
836.211	-582
836.305	836
836.399	720
836.493	-944
836.586	37
836.680	-1188
836.774	-968
836.867	1511
836.961	-689
837.055	-1081
837.148	310
837.242	-255
837.335	-923
837.429	-123
837.522	-859
837.616	-212
837.709	1750
837.803	729
837.896	-402
837.989	-271
838.083	431
838.176	2464
838.269	780
838.363	-357
838.456	-1142
838.549	-97
838.642	-380
838.735	1463
838.829	409
838.922	-317
839.015	-492
839.108	-720
839.201	328
839.294	-313
839.387	-199
839.480	-784
839.573	-223
839.666	300
839.759	-364
839.852	-1233
839.945	-489
840.038	-974
840.131	-1493
840.223	-583
840.316	-170
840.409	-533
840.502	-1855
840.594	122
840.687	-1624
840.780	-256
840.873	-1241
840.965	-180
841.058	348
841.150	1854
841.243	232
841.336	204
841.428	-702
841.521	-997
841.613	-821
841.706	248
841.798	-1033
841.890	-721
841.983	-388
842.075	243
842.167	-313
842.260	-1287
842.352	647
842.444	705
842.537	1155
842.629	2999
842.721	-248
842.813	-1076
842.905	-1130
842.997	379
843.090	177
843.182	668
843.274	1393
843.366	5827
843.458	10113
843.550	6060
843.642	-464
843.734	363
843.826	97
843.918	467
844.009	19
844.101	-153
844.193	-503
844.285	284
844.377	671
844.469	2635
844.560	4229
844.652	3957
844.744	646
844.835	-218
844.927	-132
845.019	-244
845.110	-496
845.202	105
845.293	-835
845.385	-381
845.476	-376
845.568	564
845.659	-654
845.751	635
845.842	-910
845.934	-748
846.025	-1161
846.116	-493
846.208	-745
846.299	-362
846.390	-783
846.482	-171
846.573	-592
846.664	187
846.755	508
846.846	302
846.937	-1594
847.029	-141
847.120	-1097
847.211	-526
847.302	118
847.393	-986
847.484	-690
847.575	-646
847.666	-1394
847.757	-660
847.847	-1705
847.938	49
848.029	-1317
848.120	-606
848.211	-472
848.302	-886
848.392	-805
848.483	-363
848.574	-1627
848.664	-1203
848.755	-788
848.846	-811
848.936	-1384
849.027	-650
849.118	-878
849.208	-815
849.299	-836
849.389	-118
849.480	255
849.570	2485
849.661	4229
849.751	7401
849.841	1402
849.932	-128
850.022	-934
850.112	-470
850.203	-1150
850.293	-724
850.383	-672
850.474	-706
850.564	-738
850.654	-873
850.744	-432
850.834	-163
850.924	-220
851.014	-1143
851.104	-842
851.194	-1818
851.284	-575
851.374	-329
851.464	-279
851.554	-768
851.644	-884
851.734	451
851.824	84
851.914	-460
852.004	-20
852.094	-1183
852.183	-677
852.273	-529
852.363	-813
852.452	-1051
852.542	-1353
852.632	-1188
852.721	-223
852.811	-126
852.901	-784
852.990	-368
853.080	-54
853.169	-1011
853.259	-943
853.348	-618
853.438	-384
853.527	416
853.617	-44
853.706	1845
853.795	3409
853.885	9641
853.974	18126
854.063	35372
854.152	48808
854.242	15886
854.331	2097
854.420	307
854.509	-987
854.598	62
854.687	461
854.777	644
854.866	-853
854.955	210
855.044	-1439
855.133	-544
855.222	-1252
855.311	-1433
855.400	682
855.488	-1206
855.577	-923
855.666	372
855.755	502
855.844	-120
855.933	-1220
856.021	-786
856.110	-158
856.199	-483
856.288	-434
856.376	-1454
856.465	-790
856.554	-584
856.642	-943
856.731	74
856.819	-430
856.908	-1098
856.996	-710
857.085	-320
857.173	-1527
857.262	-903
857.350	-379
857.438	-679
857.527	-769
857.615	-625
857.703	-293
857.792	-18
857.880	-635
857.968	-1385
858.056	-1507
858.145	-878
858.233	-1559
858.321	-1343
858.409	-1076
858.497	-967
858.585	-1438
858.673	-189
858.761	-1315
858.849	-1206
858.937	-951
859.025	349
859.113	100
859.201	-440
859.289	522
859.377	841
859.465	-353
859.552	-283
859.640	-1615
859.728	-42
859.816	-1041
859.903	-417
859.991	-1492
860.079	-694
860.166	-849
860.254	-149
860.342	-629
860.429	279
860.517	-1832
860.604	260
860.692	-1195
860.779	-739
860.867	-895
860.954	-475
861.042	-1389
861.129	-1230
861.216	-288
861.304	-710
861.391	-896
861.478	-992
861.565	121
861.653	212
861.740	-1713
861.827	-697
861.914	-897
862.001	-1026
862.089	-439
862.176	-218
862.263	-1002
862.350	-1013
862.437	-792
862.524	-678
862.611	83
862.698	558
862.785	686
862.871	1471
862.958	-61
863.045	-790
863.132	-1050
863.219	-288
863.306	-1279
863.392	251
863.479	-1018
863.566	-591
863.652	-240
863.739	-1095
863.826	120
863.912	210
863.999	-1683
864.086	-1140
864.172	-1609
864.259	-985
864.345	-1359
864.432	-841
864.518	-789
864.604	-871
864.691	-1131
864.777	-873
864.863	-784
864.950	-331
865.036	-810
865.122	138
865.209	-496
865.295	30
865.381	-247
865.467	173
865.553	734
865.639	-60
865.726	1696
865.812	4559
865.898	8031
865.984	12373
866.070	25270
866.156	23755
866.242	4694
866.328	375
866.414	-153
866.499	431
866.585	-405
866.671	-109
866.757	-1350
866.843	-385
866.928	-614
867.014	-825
867.100	-664
867.186	-767
867.271	-506
867.357	130
867.442	-307
867.528	96
867.614	-452
867.699	1276
867.785	1610
867.870	3932
867.956	4716
868.041	2235
868.127	1738
868.212	2682
868.297	2273
868.383	104
868.468	1063
868.553	2031
868.639	224
868.724	953
868.809	396
868.894	-20
868.979	-28
869.065	-104
869.150	-872
869.235	-443
869.320	-1581
869.405	-295
869.490	-935
869.575	-506
869.660	-701
869.745	-145
869.830	-793
869.915	-1518
870.000	-727
870.085	-281
870.169	-163
870.254	177
870.339	-1740
870.424	-453
870.509	-985
870.593	-1219
870.678	-420
870.763	-485
870.847	-252
870.932	-201
871.016	827
871.101	618
871.186	-626
871.270	-688
871.355	-599
871.439	-678
871.523	-765
871.608	-393
871.692	-480
871.777	554
871.861	169
871.945	-1045
872.030	-234
872.114	-1463
872.198	-1216
872.282	-1431
872.367	-1493
872.451	-896
872.535	-750
872.619	-647
872.703	-1146
872.787	-366
872.871	-1207
872.955	-945
873.039	-1698
873.123	-208
873.207	-1038
873.291	-1099
873.375	-1872
873.459	-473
873.543	-1287
873.627	-1298
873.711	-1231
873.794	254
873.878	-967
873.962	-837
874.045	-1250
874.129	12
874.137	-93
874.213	-1140
874.245	-957
874.296	-657
874.352	-1153
874.380	-1403
874.460	-516
874.464	-481
874.547	-1080
874.568	-912
874.631	-405
874.676	-606
874.714	-762
874.784	-509
874.798	-472
874.881	-105
874.892	-214
874.965	-903
874.999	-589
875.048	-203
875.107	-710
875.131	-878
875.215	-819
875.215	-818
875.298	-36
875.323	-412
875.381	-1201
875.430	-717
875.465	-423
875.538	-581
875.548	-595
875.631	-1354
875.646	-1356
875.714	-1370
875.753	-929
875.798	-451
875.861	-943
875.881	-1109
875.964	-1066
875.968	-1082
876.047	-1220
876.076	-913
876.130	-382
876.183	-803
876.213	-1002
876.291	61
876.296	121
876.379	-741
876.398	-649
876.462	-236
876.506	-422
876.545	-615
876.613	-964
876.628	-1030
876.711	-135
876.721	-161
876.794	-451
876.828	-707
876.877	-1007
876.935	-768
876.960	-678
877.043	-393
877.043	-394
877.125	-498
877.150	-488
877.208	-522
877.258	-347
877.291	-205
877.365	-350
877.374	-371
877.456	-230
877.472	-309
877.539	-567
877.579	-341
877.622	-211
877.687	-875
877.704	-994
877.787	-69
877.794	-137
877.869	-1088
877.901	-605
877.952	253
878.008	-265
878.034	-522
878.115	-325
878.117	-315
878.199	-474
878.222	-216
878.282	324
878.329	42
878.364	-198
878.437	480
878.447	580
878.529	-845
878.544	-737
878.611	-234
878.651	-366
878.694	-525
878.758	-474
878.776	-437
878.858	-500
878.865	-469
878.941	-174
878.972	-163
879.023	-99
879.078	-255
879.105	-255
879.185	-591
879.187	-597
879.269	-147
879.292	-101
879.351	-147
879.399	-171
879.433	-133
879.506	-345
879.516	-377
879.598	-201
879.613	-284
879.680	-475
879.720	-224
879.762	-12
879.827	-322
879.844	-421
879.926	-256
879.933	-279
880.007	-524
880.040	-420
880.089	-106
880.147	-257
880.171	-272
880.253	691
880.254	687
880.335	123
880.360	284
880.417	795
880.467	847
880.499	1157
880.574	2250
880.580	2213
880.662	37
880.680	-77
880.744	114
880.787	50
880.825	-112
880.893	-354
880.907	-291
880.989	-94
881.000	-72
881.070	-235
881.106	-236
881.152	-166
881.213	-91
881.233	-94
881.315	-153
881.319	-173
881.396	199
881.426	344
881.478	-1
881.532	-158
881.559	-228
881.639	-791
881.641	-792
881.722	-83
881.745	-253
881.803	-374
881.852	95
881.885	138
881.958	-84
881.966	-68
882.047	467
882.064	417
882.129	-112
882.171	-237
882.210	65
882.277	322
882.291	276
882.372	393
882.383	330
882.454	-150
882.489	-103
882.535	13
882.596	-274
882.616	-196
882.697	467
882.702	494
882.778	129
882.808	41
882.859	203
882.914	293
882.940	216
883.020	-201
883.021	-195
883.102	308
883.127	468
883.183	593
883.233	513
883.264	302
883.339	74
883.345	105
883.426	-9
883.445	64
883.507	75
883.551	-203
883.587	-273
883.657	160
883.668	257
883.749	860
883.763	895
883.830	259
883.869	-9
883.910	186
883.975	343
883.991	299
884.072	184
884.081	156
884.152	464
884.187	479
884.233	151
884.292	100
884.314	169
884.394	192
884.398	191
884.475	4
884.504	-90
884.555	30
884.610	148
884.636	105
884.716	139
884.716	146
884.797	601
884.821	622
884.877	219
884.927	-217
884.958	-65
885.033	407
885.038	371
885.118	-61
885.139	-265
885.199	-186
885.244	188
885.279	683
885.350	1226
885.359	1145
885.439	545
885.456	339
885.520	484
885.561	1021
885.600	1074
885.667	401
885.680	287
885.760	51
885.773	-13
885.840	301
885.878	409
885.920	618
885.984	1133
886.000	1054
886.080	450
886.089	375
886.160	20
886.195	-2
886.240	513
886.300	633
886.320	439
886.400	462
886.406	439
886.480	1142
886.511	1352
886.560	1253
886.616	1163
886.640	1121
886.720	1172
886.722	1157
886.800	122
886.827	-98
886.879	327
886.932	531
886.959	619
887.038	1078
887.039	1089
887.119	1019
887.143	1117
887.198	953
887.248	681
887.278	725
887.354	748
887.358	740
887.437	439
887.459	385
887.517	881
887.564	1159
887.596	907
887.669	488
887.676	539
887.755	942
887.774	1076
887.835	578
887.880	103
887.914	396
887.985	1048
887.994	978
888.073	299
888.090	160
888.153	713
888.195	1009
888.232	1045
888.300	1221
888.311	1265
888.391	1361
888.405	1401
888.470	1005
888.510	669
888.549	731
888.615	867
888.628	866
888.708	876
888.720	872
888.787	603
888.825	386
888.866	301
888.930	234
888.945	430
889.024	1379
889.035	1513
889.103	793
889.140	363
889.182	513
889.245	776
889.261	812
889.340	906
889.349	917
889.419	692
889.454	569
889.498	779
889.559	1070
889.577	932
889.656	302
889.664	239
889.735	655
889.768	850
889.814	1242
889.873	1752
889.978	364
890.083	1964
890.187	718
890.292	329
890.397	1091
890.501	1124
890.606	994
890.710	1553
890.815	814
890.919	792
891.024	613
891.128	1686
891.233	994
891.337	966
891.442	185
891.546	379
891.650	-142
891.755	1230
891.859	1843
891.963	553
892.068	19
892.172	742
892.276	241
892.380	1169
892.484	32
892.589	1583
892.693	499
892.797	702
892.901	1123
893.005	1326
893.109	1378
893.213	1946
893.317	390
893.421	996
893.525	-226
893.629	655
893.733	967
893.837	1485
893.941	590
894.045	801
894.148	714
894.252	2049
894.356	1509
894.460	777
894.564	748
894.667	758
894.771	-416
894.875	-274
894.978	350
895.082	292
895.186	1116
895.289	1105
895.393	-52
895.496	1059
895.600	450
895.703	1048
895.807	1026
895.910	133
896.014	451
896.117	725
896.221	761
896.324	402
896.427	-11
896.531	551
896.634	1190
896.737	1147
896.840	761
896.944	745
897.047	43
897.150	1426
897.253	464
897.356	1198
897.460	240
897.563	311
897.666	114
897.769	775
897.872	563
897.975	1016
898.078	453
898.181	1087
898.284	-163
898.387	831
898.490	808
898.593	727
898.695	212
898.798	834
898.901	572
899.004	1450
899.107	-330
899.209	877
899.312	144
899.415	731
899.518	461
899.620	715
899.723	-600
899.826	1659
899.928	1018
900.031	1183
900.133	422
900.236	804
900.338	188
900.441	844
900.543	-131
900.646	602
900.748	465
900.851	1084
900.953	959
901.055	-84
901.158	471
901.260	1150
901.362	642
901.465	465
901.567	54
901.669	731
901.771	620
901.873	219
901.976	649
902.078	1194
902.180	141
902.282	813
902.384	919
902.486	822
902.588	601
902.690	1020
902.792	1295
902.894	2176
902.996	789
903.098	725
903.200	853
903.302	817
903.404	275
903.505	291
903.607	500
903.709	1570
903.811	-246
903.913	9
904.014	253
904.116	471
904.218	686
904.319	1490
904.421	1392
904.523	3614
904.624	639
904.726	1923
904.827	1012
904.929	1031
905.030	1175
905.132	1493
905.233	513
905.335	1028
905.436	-87
905.537	-56
905.639	410
905.740	800
905.841	701
905.943	1777
906.044	725
906.145	1905
906.247	823
906.348	865
906.449	999
906.550	337
906.651	-433
906.752	834
906.854	101
906.955	367
907.056	696
907.157	734
907.258	536
907.359	681
907.460	536
907.561	791
907.662	-114
907.762	163
907.863	504
907.964	725
908.065	311
908.166	1089
908.267	-851
908.367	640
908.468	-348
908.569	1038
908.670	454
908.770	1506
908.871	590
908.971	839
909.072	1028
909.173	440
909.273	-52
909.374	165
909.474	545
909.575	783
909.675	-102
909.776	879
909.876	709
909.977	1035
910.077	271
910.177	351
910.278	404
910.378	625
910.478	688
910.579	335
910.679	889
910.779	1203
910.879	894
910.980	896
911.080	528
911.180	1049
911.280	332
911.380	996
911.480	223
911.580	401
911.680	465
911.780	459
911.880	769
911.980	712
912.080	-86
912.180	621
912.280	1114
912.380	596
912.480	-501
912.580	694
912.679	673
912.779	1431
912.879	262
912.979	757
913.078	-239
913.178	775
913.278	139
913.377	701
913.477	32
913.577	414
913.676	-12
913.776	333
913.875	389
913.975	730
914.074	386
914.174	917
914.273	-111
914.373	936
914.472	734
914.572	298
914.671	-636
914.770	94
914.870	245
914.969	260
915.068	94
915.167	732
915.267	524
915.366	115
915.465	-206
915.564	1450
915.663	-69
915.763	821
915.862	455
915.961	-301
916.060	-47
916.159	732
916.258	-171
916.357	696
916.456	785
916.555	1266
916.654	35
916.752	817
916.851	396
916.950	878
917.049	-597
917.148	876
917.247	464
917.345	253
917.444	256
917.543	1359
917.642	676
917.740	82
917.839	-118
917.937	965
918.036	543
918.135	760
918.233	692
918.332	541
918.430	106
918.529	293
918.627	-233
918.726	229
918.824	-291
918.923	522
919.021	552
919.119	869
919.218	454
919.316	164
919.414	114
919.512	650
919.611	660
919.709	223
919.807	667
919.905	1092
920.003	115
920.102	127
920.200	285
920.298	-60
920.396	385
920.494	880
920.592	-36
920.690	821
920.788	-126
920.886	813
920.984	320
921.082	-81
921.180	461
921.277	238
921.375	450
921.473	298
921.571	321
921.669	322
921.766	614
921.864	993
921.962	893
922.060	754
922.157	230
922.255	724
922.352	-191
922.450	1463
922.548	602
922.645	1225
922.743	640
922.840	2452
922.938	778
923.035	1363
923.133	1437
923.230	1757
923.327	1048
923.425	1092
923.522	1321
923.619	771
923.717	743
923.814	1764
923.911	548
924.008	1754
924.106	819
924.203	1038
924.300	-141
924.397	1011
924.494	1113
924.591	1721
924.688	116
924.786	1088
924.883	777
924.979	708
925.077	757
925.173	2459
925.270	1187
925.367	913
925.464	549
925.561	1605
925.658	604
925.755	1829
925.852	1811
925.948	2201
926.045	2133
926.142	2923
926.239	3027
926.335	3902
926.432	1823
926.529	3252
926.625	3177
926.722	2030
926.818	1181
926.915	957
927.011	930
927.108	900
927.204	253
927.301	1064
927.397	785
927.494	556
927.590	-322
927.687	424
927.783	487
927.879	950
927.976	92
928.072	1575
928.168	1028
928.264	966
928.361	468
928.457	1441
928.553	596
928.649	1501
928.745	837
928.841	1077
928.937	521
929.033	328
929.129	386
929.225	215
929.321	342
929.417	1522
929.513	243
929.609	17
929.705	-34
929.801	1243
929.897	-769
929.993	762
930.089	324
930.184	780
930.280	876
930.376	1032
930.471	-83
930.567	791
930.663	538
930.758	-163
930.854	-56
930.950	787
931.045	626
931.141	607
931.236	421
931.332	1226
931.427	-240
931.523	746
931.618	446
931.714	83
931.809	1322
931.905	452
932.000	916
932.095	700
932.191	537
932.286	417
932.381	32
932.476	634
932.572	279
932.667	399
932.762	-252
932.857	1196
932.952	419
933.047	367
933.142	1371
933.237	289
933.332	982
933.427	1376
933.522	-5
933.617	777
933.712	136
933.807	845
933.902	372
933.997	692
934.092	621
934.187	562
934.282	27
934.376	851
934.471	660
934.566	515
934.661	406
934.755	639
934.850	522
934.945	411
935.039	354
935.134	117
935.228	527
935.323	470
935.417	275
935.512	321
935.606	56
935.701	155
935.795	-428
935.890	136
935.984	-123
936.079	546
936.173	-136
936.267	-42
936.362	-219
936.456	1122
936.550	344
936.644	818
936.738	-127
936.833	827
936.927	747
937.021	941
937.115	-201
937.209	-373
937.303	710
937.397	556
937.491	-220
937.585	232
937.679	110
937.773	534
937.867	-443
937.961	620
938.055	-150
938.149	914
938.243	-590
938.337	555
938.430	467
938.524	1784
938.618	4148
938.712	2919
938.805	337
938.899	741
938.993	1639
939.086	1654
939.180	3878
939.274	5534
939.367	1457
939.461	657
939.554	-355
939.648	184
939.741	170
939.835	942
939.928	309
940.022	1080
940.115	-276
940.208	517
940.302	234
940.395	335
940.488	-767
940.582	612
940.675	53
940.768	604
940.861	-393
940.954	1253
941.048	-82
941.141	257
941.234	73
941.327	1457
941.420	1659
941.513	1429
941.606	-383
941.699	457
941.792	-39
941.885	55
941.978	83
942.071	280
942.164	-1238
942.257	258
942.349	258
942.442	765
942.535	-190
942.628	506
942.721	1038
942.813	-459
942.906	171
942.999	376
943.091	-274
943.184	-214
943.277	-916
943.369	-89
943.462	-666
943.554	410
943.647	-544
943.739	938
943.832	-274
943.924	-560
944.017	-402
944.109	-1187
944.201	-259
944.294	589
944.386	-500
944.478	-433
944.571	62
944.663	-588
944.755	227
944.847	33
944.940	-363
945.032	-956
945.124	-335
945.216	825
945.308	-752
945.400	279
945.492	-508
945.584	418
945.676	-69
945.768	14
945.860	-112
945.952	264
946.044	878
946.136	31
946.228	-235
946.320	-407
946.412	-233
946.503	382
946.595	189
946.687	96
946.779	178
946.870	399
946.962	-629
947.054	371
947.145	218
947.237	-82
947.329	140
947.420	-1104
947.512	-1159
947.603	522
947.695	-606
947.786	-664
947.878	-1042
947.969	307
948.061	-728
948.152	-33
948.243	-1105
948.335	541
948.426	20
948.517	-121
948.609	308
948.700	9
948.791	-660
948.882	452
948.973	-519
949.065	37
949.156	-491
949.247	515
949.338	-379
949.429	-254
949.520	447
949.611	-1060
949.702	0
949.793	-251
949.884	-560
949.975	427
950.066	-262
950.157	-483
950.247	386
950.338	-69
950.429	-107
950.520	774
950.611	-471
950.701	459
950.792	-233
950.883	202
950.973	260
951.064	345
951.155	-919
951.245	400
951.336	-570
951.427	-423
951.517	976
951.608	119
951.698	-784
951.788	-122
951.879	-722
951.969	37
952.060	-367
952.150	-117
952.240	-95
952.331	-1743
952.421	1146
952.511	-390
952.602	-192
952.692	-392
952.782	25
952.872	-581
952.962	-759
953.052	214
953.143	-973
953.233	512
953.323	-969
953.413	-356
953.503	-64
953.593	185
953.683	-837
953.773	-1242
953.863	-1819
953.953	-301
954.042	-1253
954.132	-699
954.222	86
954.312	34
954.402	-245
954.492	685
954.581	433
954.671	122
954.761	31
954.850	1041
954.940	-553
955.030	-365
955.119	-730
955.209	-335
955.298	-777
955.388	-347
955.477	160
955.567	-312
955.656	-115
955.746	34
955.835	-1076
955.925	-10
956.014	-217
956.103	444
956.193	-861
956.282	117
956.371	112
956.461	-185
956.550	-617
956.639	-157
956.728	-770
956.817	202
956.906	-469
956.995	958
957.085	-513
957.174	-284
957.263	-204
957.352	-549
957.441	-601
957.530	-61
957.619	-288
957.708	562
957.796	-546
957.885	27
957.974	-931
958.063	50
958.152	-1581
958.241	396
958.329	-76
958.418	-64
958.507	-1078
958.596	-113
958.684	-349
958.773	671
958.861	-134
958.950	424
959.039	-133
959.127	7
959.216	-1332
959.304	34
959.393	-105
959.481	113
959.570	263
959.658	-211
959.746	13
959.835	523
959.923	225
960.011	238
960.100	164
960.188	365
960.276	-706
960.365	287
960.453	-518
960.541	-659
960.629	-897
960.717	-603
960.805	-887
960.893	557
960.981	-1102
961.069	297
961.158	-328
961.245	933
961.333	-1126
961.421	-901
961.509	-531
961.597	-214
961.685	-834
961.773	-264
961.861	-1086
961.949	233
962.036	-779
962.124	286
962.212	-128
962.299	-569
962.387	-1035
962.475	-319
962.562	-1900
962.650	197
962.738	-494
962.825	-126
962.913	-259
963.000	240
963.088	381
963.175	-307
963.263	-765
963.350	-71
963.438	-820
963.525	68
963.612	645
963.700	2371
963.787	8018
963.874	2995
963.962	643
964.049	424
964.136	-845
964.223	-148
964.310	-799
964.398	297
964.485	-917
964.572	620
964.659	-15
964.746	712
964.833	-500
964.920	-320
965.007	-701
965.094	-610
965.181	-1299
965.268	248
965.355	-883
965.441	655
965.528	-978
965.615	-59
965.702	-828
965.789	-752
965.875	-366
965.962	-454
966.049	-1564
966.136	209
966.222	-761
966.309	824
966.395	-915
966.482	-189
966.569	-914
966.655	-269
966.742	-678
966.828	-191
966.915	-753
967.001	322
967.087	-1037
967.174	-351
967.260	-149
967.347	912
967.433	1828
967.519	4918
967.605	625
967.692	-808
967.778	-687
967.864	-362
967.950	-1056
968.036	-993
968.123	-809
968.209	-182
968.295	-1542
968.381	440
968.467	-40
968.553	-1090
968.639	-147
968.725	-893
968.811	632
968.897	866
968.983	-732
969.069	-1152
969.154	-549
969.240	333
969.326	-1015
969.412	-1351
969.497	-1439
969.583	-1454
969.669	-697
969.755	337
969.840	-1190
969.926	-692
970.012	-1339
970.097	974
970.183	-737
970.268	-205
970.354	-282
970.439	962
970.525	3115
970.610	203
970.696	-226
970.781	-261
970.866	-1809
970.952	-488
971.037	-1015
971.122	-397
971.208	-439
971.293	-542
971.378	-2050
971.463	-731
971.549	-1520
971.634	-474
971.719	-1068
971.804	-293
971.889	-324
971.974	-684
972.059	-1157
972.144	-500
972.229	-762
972.314	-1857
972.399	-710
972.484	-473
972.569	-718
972.654	-608
972.739	350
972.824	464
972.908	-626
972.993	-540
973.078	-951
973.163	-835
973.247	-1111
973.332	-1948
973.417	358
973.501	-2066
973.586	-705
973.671	-357
973.755	-1334
973.840	134
973.924	-136
974.009	-1418
974.093	-2032
974.178	572
974.262	-226
974.346	105
974.431	-973
974.515	-538
974.600	-919
974.684	-26
974.768	-1538
974.852	-596
974.937	-1377
975.021	-243
975.105	-1067
975.189	-1113
975.273	-781
975.358	-1523
975.442	-2103
975.526	239
975.610	-1140
975.694	-1369
975.778	143
975.862	-1054
975.946	-2500
976.030	836
976.114	-1386
976.198	-25
976.281	-1297
976.365	-186
976.449	-1414
976.533	-429
976.617	-1644
976.700	-173
976.784	-809
976.868	-1061
976.951	-861
977.035	-700
977.119	-154
977.202	-206
977.286	-622
977.369	-510
977.453	-1413
977.536	-1236
977.620	-1786
977.703	-300
977.787	-1253
977.870	-115
977.953	-52
978.037	-1693
978.120	-375
978.203	-416
978.287	717
978.370	332
978.453	-1210
978.536	-1301
978.620	-252
978.703	289
978.786	-1354
978.869	-1433
978.952	-2155
979.035	-31
979.118	-920
979.201	-1422
979.284	-677
979.367	-672
979.450	-778
979.533	-1175
979.616	-1129
979.699	-415
979.782	-1208
979.865	-1288
979.948	-898
980.030	-776
980.113	-1512
980.196	-1671
980.279	-924
980.361	-856
980.444	-1526
980.526	-593
980.609	-1127
980.692	-655
980.774	-866
980.857	-1813
980.939	1
981.022	-1297
981.104	-1688
981.187	-726
981.269	-432
981.352	-1028
981.434	-2229
981.516	-1155
981.599	-781
981.681	-955
981.763	-979
981.846	-712
981.928	-1434
982.010	-1121
982.092	-1678
982.174	-472
982.256	-1585
982.339	-1443
982.421	-1113
982.503	-953
982.585	-1607
982.667	-588
982.749	-1576
982.831	-717
982.913	-1453
982.995	-519
983.077	-1355
983.158	-250
983.240	-2461
983.322	-337
983.404	-1559
983.486	-2412
983.568	-1100
983.649	-1671
983.731	-1345
983.813	-1218
983.894	-1038
983.976	-1738
984.058	-1174
984.139	39
984.221	-3395
984.302	-834
984.384	-1148
984.465	-1015
984.547	-1391
984.628	-1750
984.710	-1269
984.791	-1593
984.872	-1228
984.954	-1357
985.035	-1590
985.116	-1702
985.198	-1701
985.279	371
985.360	-2149
985.441	-1372
985.522	-1181
985.604	-630
985.685	-2855
985.766	31
985.847	14
985.928	-1301
986.009	-1083
986.090	-888
986.171	-1351
986.252	-1882
986.333	-1337
986.414	-1404
986.495	-1330
986.576	-1728
986.656	-1464
986.737	-66
986.818	-1397
986.899	-1748
986.980	-1020
987.060	-373
987.141	-1753
987.222	-1101
987.302	-688
987.383	-1097
987.464	-1555
987.544	-634
987.625	-1340
987.705	-424
987.786	-1354
987.866	-702
987.947	-2140
988.027	-991
988.108	-1451
988.188	-747
988.268	-1354
988.349	-485
988.429	-2278
988.509	-638
988.589	-1211
988.670	-2326
988.750	-682
988.830	-822
988.910	-631
988.990	-543
989.070	-1737
989.151	-1408
989.231	-1748
989.311	-1418
989.391	-2105
989.471	-1105
989.551	-2236
989.631	-1128
989.711	-1734
989.791	-1979
989.870	-1875
989.950	221
990.030	-2663
990.110	-1006
990.190	-1879
990.269	-454
990.349	-1614
990.429	-952
990.509	-1158
990.588	-993
990.668	-1905
990.747	-583
990.827	-2019
990.907	-539
990.986	-2287
991.066	-1223
991.145	-2363
991.225	-625
991.304	-1828
991.383	-947
991.463	-1947
991.542	-701
991.622	-2145
991.701	-873
991.780	-1330
991.859	-823
991.939	-1548
992.018	-1465
992.097	-304
992.176	-1007
992.256	-1902
992.335	-1383
992.414	-1135
992.493	-1857
992.572	-1606
992.651	570
992.730	-2124
992.809	-212
992.888	-2364
992.967	-1108
993.046	-1563
993.125	-2148
993.203	-1606
993.282	-1509
993.361	-1168
993.440	-1140
993.519	-2919
993.597	-1014
993.676	-2145
993.755	-655
993.834	-1061
993.912	-1475
993.991	-1179
994.069	-2129
994.148	-1936
994.226	-1641
994.305	-1451
994.384	-1611
994.462	-269
994.540	-2126
994.619	-2130
994.697	-370
994.776	-2371
994.854	-1048
994.932	-2140
995.011	-2200
995.089	-2458
995.167	-1210
995.245	-1776
995.324	-1836
995.402	-1403
995.480	-2068
995.558	-1491
995.636	-2214
995.714	-1970
995.792	-622
995.870	-2473
995.948	-932
996.026	-196
996.104	-2157
996.182	-544
996.260	-1307
996.338	-1587
996.416	-2103
996.494	-1997
996.572	-1050
996.649	-1622
996.727	-2025
996.805	-1228
996.883	-1156
996.960	-2318
997.038	-352
997.116	-2201
997.193	-1970
997.271	-859
997.348	-859
997.426	-1670
997.504	-2515
997.581	-2033
997.658	-826
997.736	-2822
997.813	-1888
997.891	-1256
997.968	-1725
998.046	-1796
998.123	-1373
998.200	-1522
998.277	-1091
998.355	-1615
998.432	-1952
998.509	-2224
998.586	-446
998.663	-573
998.741	-2092
998.818	-1285
998.895	-1556
998.972	-1923
999.049	-1842
999.126	-2418
999.203	-44
999.280	-1140
999.357	-1640
999.434	-1759
999.511	-1767
999.587	-482
999.664	-1707
999.741	-342
999.818	-853
999.895	-2185
999.971	-887
1000.048	-1920
1000.125	-1038
1000.202	-1587
1000.278	-1477
1000.355	-1729
1000.431	-1492
1000.508	-2101
1000.584	-1299
1000.661	-2237
1000.738	-1331
1000.814	-1692
1000.890	-777
1000.967	-1942
1001.043	-1564
1001.120	-2219
1001.196	-1759
1001.272	-2796
1001.349	-662
1001.425	-1429
1001.501	-743
1001.577	-2130
1001.654	-975
1001.730	-1481
1001.806	-1607
1001.882	-2242
1001.958	-1241
1002.034	-1355
1002.110	-741
1002.186	-2044
1002.262	-1938
1002.338	-2837
1002.414	-766
1002.490	-1463
1002.566	-2112
1002.642	-1633
1002.718	-606
1002.794	-1908
1002.870	-1447
1002.945	-1936
1003.021	-1383
1003.097	-1948
1003.173	-691
1003.248	-1932
1003.324	-660
1003.400	-1172
1003.475	-1505
1003.551	-2173
1003.626	-1520
1003.702	-2502
1003.777	-1983
1003.853	-1827
1003.928	-2113
1004.004	-1874
1004.079	-1204
1004.155	-1663
1004.230	-1805
1004.305	-71
1004.381	-1551
1004.456	-1204
1004.531	-1920
1004.607	-2116
1004.682	-1385
1004.757	-1277
1004.832	-2019
1004.907	-1883
1004.982	-924
1005.057	-1381
1005.133	-1589
1005.208	-2295
1005.283	-1846
1005.358	-1373
1005.433	-1538
1005.508	-1303
1005.583	-1945
1005.657	-2059
1005.732	-1073
1005.807	-1436
1005.882	-1083
1005.957	-1759
1006.032	-2066
1006.106	-1941
1006.181	-1519
1006.256	-1531
1006.331	-1339
1006.405	-1893
1006.480	-1235
1006.554	-2860
1006.629	-1317
1006.704	-2104
1006.778	-968
1006.853	-1667
1006.927	-1671
1007.002	-1638
1007.076	-1799
1007.150	-2013
1007.225	-1458
1007.299	-1593
1007.373	-2632
1007.448	-2243
1007.522	-726
1007.596	-1982
1007.671	-1772
1007.745	-1448
1007.819	-2168
1007.893	-2351
1007.967	-804
1008.041	-2654
1008.115	-882
1008.190	-2353
1008.264	-868
1008.338	-2215
1008.412	-1840
1008.486	-1128
1008.560	-1599
1008.633	-2608
1008.707	-1826
1008.781	-2164
1008.855	-1848
1008.929	-1666
1009.003	-2249
1009.076	-2295
1009.150	-1231
1009.224	-2250
1009.298	-935
1009.371	-2296
1009.445	-940
1009.519	-2401
1009.592	-2414
1009.666	-2388
1009.739	-779
1009.813	-2805
1009.886	-62
1009.960	-2503
1010.033	-663
1010.107	-1878
1010.180	-2056
1010.253	-2218
1010.327	-2422
1010.400	-2021
1010.473	-1514
1010.547	-752
1010.620	-1683
1010.693	-2047
1010.766	-1507
1010.840	-1161
1010.913	-1926
1010.986	-1739
1011.059	-1238
1011.132	-1974
1011.205	-842
1011.278	-1526
1011.351	-932
1011.424	-1157
1011.497	-1314
1011.570	-2122
1011.643	-1584
1011.716	-2188
1011.789	-1869
1011.862	-2535
1011.934	-690
1012.007	-2957
1012.080	-994
1012.153	-2226
1012.225	-564
1012.298	-3413
1012.371	-1581
1012.443	-1634
1012.516	-1787
1012.588	-1800
1012.661	-1269
1012.733	-2588
1012.806	-371
1012.879	-2306
1012.951	-1314
1013.023	-2505
1013.096	-2052
1013.168	-2664
1013.241	-507
1013.313	-1920
1013.385	-2583
1013.458	-2789
1013.530	-1166
1013.602	-2098
1013.674	-125
1013.746	-2714
1013.819	-2291
1013.891	-1939
1013.963	-1967
1014.035	-1980
1014.107	-1648
1014.179	-1959
1014.251	-1715
1014.323	-2505
1014.395	-1819
1014.467	-2157
1014.539	-2546
1014.611	-2306
1014.683	-1544
1014.754	-1896
1014.826	-2428
1014.898	-2108
1014.970	-2507
1015.042	-2052
1015.113	-1576
1015.185	-2413
1015.257	-1844
1015.328	-2208
1015.400	-2521
1015.471	-1964
1015.543	-2749
1015.615	-2293
1015.686	-2071
1015.757	-2344
1015.829	-1601
1015.901	-2911
1015.972	-1662
1016.043	-2172
1016.115	-1921
1016.186	-2357
1016.257	-2067
1016.328	-2060
1016.400	-1306
1016.471	-2756
1016.542	-1747
1016.613	-1968
1016.685	-2112
1016.756	-1740
1016.827	-1762
1016.898	-2460
1016.969	-1708
1017.040	-1622
1017.111	-2337
1017.182	-2096
1017.253	-1689
1017.324	-2679
1017.395	-1866
1017.466	-1450
1017.537	-2910
1017.608	-1959
1017.678	-2212
1017.749	-3237
1017.820	-1549
1017.891	-3337
1017.961	-1313
1018.032	-1545
1018.103	-1001
1018.173	-2092
1018.244	-1860
1018.315	-2537
1018.385	-1744
1018.456	-2368
1018.526	-2676
1018.597	-1840
1018.667	-1985
1018.738	-3304
1018.808	-2471
1018.878	-2580
1018.949	-1482
1019.019	-1613
1019.089	-1925
1019.160	-2973
1019.230	-1662
1019.300	-1837
1019.371	-2108
1019.441	-2631
1019.511	-1804
1019.581	-2052
1019.651	-1610
1019.721	-2275
1019.791	-2061
1019.861	-2788
1019.931	-2062
1020.001	-2714
1020.071	-2105
1020.141	-2398
1020.211	-2563
1020.281	-2656
1020.351	-1685
1020.421	-2107
1020.491	-1566
1020.560	-2958
1020.630	-2039
1020.700	-2227
1020.770	-2201
1020.839	-2892
1020.909	-2005
1020.979	-2061
1021.048	-2543
1021.118	-2996
1021.187	-2115
1021.257	-1915
1021.326	-1001
1021.396	-2256
1021.465	-2395
1021.535	-3075
1021.604	-2727
1021.674	-3020
1021.743	-2109
1021.812	-2781
1021.882	-2329
1021.951	-2350
1022.020	-1906
1022.089	-1789
1022.159	-2152
1022.228	-1701
1022.297	-2873
1022.366	-2303
1022.435	-2740
1022.504	-2316
1022.573	-2215
1022.642	-2005
1022.711	-1862
1022.781	-2444
1022.849	-1663
1022.918	-3009
1022.987	-2080
1023.056	-2552
1023.125	-2985
1023.194	-2301
1023.263	-2182
1023.331	-2206
1023.400	-2709
1023.469	-2699
1023.538	-1633
1023.606	-2934
1023.675	-2216
1023.744	-2315
1023.812	-1946
1023.881	-2535
1023.949	-2185
1024.018	-2323
1024.086	-2110
1024.155	-2899
1024.223	-2688
1024.292	-3055
1024.360	-2282
1024.429	-2543
1024.497	-2802
1024.565	-3249
1024.634	-2264
1024.702	-2547
1024.770	-2328
1024.838	-2443
1024.907	-1892
1024.975	-2285
1025.043	-2337
1025.111	-2655
1025.179	-2303
1025.247	-2560
1025.315	-1700
1025.383	-1513
1025.451	-2342
1025.519	-2451
1025.587	-2351
1025.655	-2784
1025.723	-1595
1025.791	-1675
1025.859	-1269
1025.927	-2469
1025.995	-1539
1026.062	-1919
1026.130	-3089
1026.198	-3063
1026.266	-2559
1026.333	-2083
1026.401	-1153
1026.469	-2285
1026.536	-2390
1026.604	-2671
1026.671	-2534
1026.739	-2197
1026.806	-2211
1026.874	-2190
1026.941	-1686
1027.009	-2795
1027.076	-2080
1027.144	-1640
1027.211	-2504
1027.278	-2464
1027.345	-2555
1027.413	-2550
1027.480	-2596
1027.547	-2674
1027.614	-1826
1027.682	-1912
1027.749	-2366
1027.816	-2254
1027.883	-2508
1027.950	-2098
1028.017	-1331
1028.084	-1936
1028.151	-2553
1028.218	-2283
1028.285	-2004
1028.352	-2634
1028.419	-2233
1028.486	-2270
1028.553	-1144
1028.619	-3050
1028.686	-1931
1028.753	-2254
1028.820	-1799
1028.886	-2284
1028.953	-1042
1029.020	-2369
1029.086	-2256
1029.153	-2784
1029.220	-1960
1029.286	-2144
1029.353	-2192
1029.419	-2658
1029.486	-1753
1029.552	-1950
1029.619	-1677
1029.685	-2540
1029.751	-1278
1029.818	-2233
1029.884	-2102
1029.951	-1794
1030.017	-1328
1030.083	-2705
1030.149	-1671
1030.216	-2238
1030.282	-1823
1030.348	-2837
1030.414	-2252
1030.480	-2804
1030.546	-2880
1030.612	-2808
1030.678	-1791
1030.744	-2586
1030.810	-2060
1030.876	-2238
1030.942	-2057
1031.008	-1892
1031.074	-2615
1031.140	-2549
1031.206	-2250
1031.272	-2436
1031.337	-1690
1031.403	-2198
1031.469	-1955
1031.534	-2713
1031.600	-1589
1031.666	-3092
1031.731	-2002
1031.797	-2790
1031.863	-1880
1031.928	-2713
1031.994	-1521
1032.059	-1896
1032.125	-1511
1032.190	-2952
1032.256	-2358
1032.321	-2749
1032.386	-1713
1032.452	-1900
1032.517	-1451
1032.582	-2202
1032.647	-1922
1032.713	-2363
1032.778	-1649
1032.843	-2240
1032.908	-2311
1032.974	-2587
1033.039	-2259
1033.104	-1923
1033.169	-1593
1033.234	-2913
1033.299	-1204
1033.364	-1915
1033.429	-1675
1033.494	-2200
1033.559	-1468
1033.624	-2839
1033.688	-1988
1033.753	-2514
1033.818	-1701
1033.883	-2662
1033.948	-2074
1034.013	-2107
1034.077	-868
1034.142	-1848
1034.207	-2313
1034.271	-1710
1034.336	-1168
1034.400	-2148
1034.465	-2275
1034.530	-2368
1034.594	-1606
1034.658	-2782
1034.723	-2251
1034.787	-3086
1034.852	-1448
1034.916	-2414
1034.981	-1931
1035.045	-2220
1035.109	-2224
1035.173	-2146
1035.238	-2290
1035.302	-2392
1035.366	-1876
1035.430	-2458
1035.495	-2162
1035.559	-2040
1035.623	-1660
1035.687	-1682
1035.751	-2436
1035.815	-2427
1035.879	-2369
1035.943	-2312
1036.007	-2424
1036.071	-3089
1036.135	-1629
1036.198	-2364
1036.262	-2110
1036.326	-2881
1036.390	-1981
1036.454	-2952
1036.517	-1592
1036.581	-2043
1036.645	-1888
1036.709	-1576
1036.772	-2362
1036.836	-2780
1036.900	-2026
1036.963	-2062
1037.026	-2296
1037.090	-2284
1037.154	-1966
1037.217	-1893
1037.280	-2571
1037.344	-1354
1037.407	-1745
1037.471	-2470
1037.534	-2139
1037.597	-2666
1037.661	-2091
1037.724	-2520
1037.787	-1597
1037.850	-2422
1037.913	-2011
1037.977	-2032
1038.040	-2594
1038.103	-1922
1038.166	-1389
1038.229	-1848
1038.292	-1768
1038.355	-2646
1038.418	-1744
1038.481	-2466
1038.544	-1706
1038.607	-2361
1038.670	-1867
1038.732	-1800
1038.795	-2332
1038.858	-2493
1038.921	-2349
1038.984	-1901
1039.046	-2575
1039.109	-2757
1039.172	-1555
1039.234	-2773
1039.297	-1967
1039.360	-2711
1039.422	-2166
1039.485	-2407
1039.547	-2561
1039.610	-1626
1039.672	-2674
1039.734	-2483
1039.797	-2722
1039.859	-2396
1039.922	-2428
1039.984	-2759
1040.046	-2203
1040.109	-1954
1040.171	-2711
1040.233	-2606
1040.295	-2001
1040.358	-2385
1040.420	-2662
1040.482	-2052
1040.544	-2190
1040.606	-2596
1040.668	-2498
1040.730	-3012
1040.792	-2069
1040.854	-2914
1040.916	-2132
1040.978	-2190
1041.040	-1057
1041.102	-2584
1041.164	-2724
1041.225	-3060
1041.287	-2303
1041.349	-2729
1041.411	-1805
1041.472	-2148
1041.534	-2624
1041.596	-3105
1041.657	-2869
1041.719	-2330
1041.781	-2108
1041.842	-2877
1041.904	-2317
1041.965	-2748
1042.027	-1884
1042.088	-2714
1042.150	-2101
1042.211	-3506
1042.272	-1414
1042.334	-2813
1042.395	-2233
1042.456	-3738
1042.518	-2034
1042.579	-2095
1042.640	-2295
1042.701	-1727
1042.763	-2097
1042.824	-3349
1042.885	-3175
1042.946	-2714
1043.007	-2195
1043.068	-2558
1043.129	-1839
1043.190	-2418
1043.251	-2215
1043.312	-3574
1043.373	-1929
1043.434	-3187
1043.495	-2485
1043.556	-2794
1043.616	-2168
1043.677	-3068
1043.738	-2815
1043.799	-2932
1043.859	-2113
1043.920	-2604
1043.981	-2179
1044.041	-2781
1044.102	-2374
1044.162	-2150
1044.223	-2620
1044.284	-3183
1044.344	-1882
1044.405	-3403
1044.465	-2619
1044.525	-2627
1044.586	-1769
1044.646	-3215
1044.707	-2355
1044.767	-2956
1044.827	-2253
1044.887	-3353
1044.948	-1759
1045.008	-3025
1045.068	-2449
1045.128	-2632
1045.188	-3163
1045.249	-2799
1045.309	-1333
1045.369	-2294
1045.429	-2732
1045.489	-2829
1045.549	-2853
1045.609	-2389
1045.669	-2696
1045.729	-2397
1045.789	-1738
1045.848	-2769
1045.908	-2956
1045.968	-2232
1046.028	-1800
1046.088	-2023
1046.147	-1612
1046.207	-1708
1046.267	-1947
1046.326	-1600
1046.386	-1946
1046.446	-1513
1046.505	-1844
1046.565	-1710
1046.624	-1479
1046.684	-1173
1046.743	-1469
1046.803	-1048
1046.862	-1091
1046.922	0
