'Start Wavelength	183.907
'End Wavelength	1046.922
'Gate Delay	5.000
'Gate Width (ms)	1.050
'Laser Output Level	0.000
'X Position	0.000
'Y Position	0.000
'Z Position	0.000
'Grid Point Number	1.000
'Shot Number	100.000
183.907	-153.000
183.977	-337.000
184.047	77
184.116	271
184.186	144
184.256	67
184.325	261
184.395	-850
184.465	-463
184.534	294
184.604	-11
184.674	442
184.743	21
184.813	493
184.883	-12
184.952	-647
185.022	104
185.092	264
185.161	-165
185.231	11
185.301	71
185.370	157
185.440	239
185.509	-55
185.579	-490
185.649	-79
185.718	680
185.788	519
185.857	-229
185.927	-261
185.996	-127
186.066	-76
186.136	-548
186.205	-776
186.275	262
186.344	-219
186.414	55
186.483	-407
186.553	1152
186.622	1041
186.692	49
186.761	-684
186.831	420
186.900	-271
186.970	227
187.039	-267
187.109	1194
187.178	-651
187.248	-250
187.317	646
187.387	-55
187.456	-208
187.526	629
187.595	860
187.664	-668
187.734	700
187.803	465
187.873	-158
187.942	624
188.012	788
188.081	266
188.150	127
188.220	919
188.289	891
188.358	220
188.428	89
188.497	-508
188.567	526
188.636	468
188.705	-351
188.775	338
188.844	299
188.913	881
188.983	51
189.052	316
189.121	44
189.191	435
189.260	1092
189.329	1222
189.399	727
189.468	167
189.537	824
189.606	191
189.676	608
189.745	824
189.814	542
189.883	172
189.953	1595
190.022	1036
190.091	4701
190.161	6558
190.230	2600
190.299	991
190.368	162
190.437	675
190.507	870
190.576	674
190.645	226
190.714	-331
190.783	873
190.853	441
190.922	1515
190.991	776
191.060	1831
191.129	555
191.198	1214
191.268	747
191.337	388
191.406	357
191.475	796
191.544	-221
191.613	132
191.682	-918
191.752	615
191.821	799
191.890	-33
191.959	76
192.028	214
192.097	859
192.166	718
192.235	-172
192.304	416
192.373	-150
192.442	-229
192.511	6
192.580	-719
192.650	-19
192.719	207
192.788	-13
192.857	34
192.926	-238
192.995	142
193.064	3340
193.133	2660
193.202	1957
193.271	1191
193.340	904
193.409	1228
193.478	746
193.547	1626
193.615	2197
193.684	2029
193.753	1525
193.822	1202
193.891	-519
193.960	824
194.029	-683
194.098	952
194.167	445
194.236	894
194.305	121
194.374	514
194.443	470
194.512	244
194.580	251
194.649	511
194.718	230
194.787	190
194.856	-215
194.925	1082
194.994	506
195.062	-181
195.131	766
195.200	170
195.269	838
195.338	326
195.407	1359
195.475	1018
195.544	934
195.613	508
195.682	596
195.751	386
195.819	1360
195.888	656
195.957	1371
196.026	564
196.094	468
196.163	1124
196.232	723
196.301	854
196.369	831
196.438	1213
196.507	1047
196.576	677
196.644	299
196.713	491
196.782	382
196.850	1201
196.919	96
196.988	969
197.056	701
197.125	1406
197.194	327
197.262	697
197.331	731
197.400	753
197.468	850
197.537	343
197.606	1603
197.674	2368
197.743	6108
197.812	2503
197.880	5196
197.949	3947
198.017	5228
198.086	3395
198.155	1789
198.223	1837
198.292	7312
198.360	3081
198.429	1124
198.497	2178
198.566	3983
198.635	7115
198.703	2367
198.772	1807
198.840	8318
198.909	8809
198.977	2252
199.046	1059
199.114	1083
199.183	1101
199.251	34
199.320	455
199.388	625
199.457	410
199.525	760
199.594	968
199.662	337
199.731	820
199.799	896
199.867	1039
199.936	1258
200.004	269
200.073	611
200.141	268
200.210	512
200.278	473
200.346	486
200.415	1271
200.483	1176
200.552	-54
200.620	349
200.688	152
200.757	698
200.825	737
200.893	385
200.962	533
201.030	506
201.098	-784
201.167	1292
201.235	563
201.303	1645
201.372	1747
201.440	903
201.508	1210
201.577	749
201.645	1251
201.713	784
201.781	29
201.850	1403
201.918	1066
201.986	1414
202.055	931
202.123	261
202.191	537
202.259	803
202.327	61
202.396	-2
202.464	966
202.532	1104
202.600	4040
202.669	2376
202.737	418
202.805	868
202.873	590
202.941	1003
203.009	564
203.078	739
203.146	1351
203.214	255
203.282	505
203.350	1703
203.418	411
203.487	538
203.555	99
203.623	646
203.691	1208
203.759	1045
203.827	929
203.895	1224
203.963	1286
204.031	762
204.099	1313
204.168	1417
204.236	1355
204.304	439
204.372	705
204.440	554
204.508	803
204.576	1044
204.644	1573
204.712	346
204.780	1029
204.848	1213
204.916	653
204.984	322
205.052	2113
205.120	2102
205.188	1065
205.256	873
205.324	1394
205.392	889
205.460	1806
205.528	2552
205.596	1104
205.664	1452
205.732	1890
205.799	6755
205.867	14525
205.935	2940
206.003	2461
206.071	914
206.139	2014
206.207	1834
206.275	910
206.343	1107
206.411	1142
206.478	780
206.546	2397
206.614	1378
206.682	1110
206.750	1245
206.818	1495
206.885	1935
206.953	558
207.021	1711
207.089	1300
207.157	1071
207.225	2079
207.292	1154
207.360	1672
207.428	1467
207.496	1739
207.563	1422
207.631	1269
207.699	1426
207.767	935
207.834	636
207.902	1645
207.970	1093
208.038	1037
208.105	1253
208.173	1563
208.241	2867
208.309	2870
208.376	1460
208.444	5564
208.512	3221
208.579	760
208.647	2044
208.715	2411
208.782	1341
208.850	1694
208.918	755
208.985	1992
209.053	1533
209.120	1579
209.188	1408
209.256	1670
209.323	1286
209.391	2606
209.459	2525
209.526	1334
209.594	959
209.661	967
209.729	2055
209.796	1662
209.864	1634
209.932	458
209.999	2660
210.067	1967
210.134	2079
210.202	1759
210.269	2660
210.337	2451
210.404	2123
210.472	1554
210.539	2012
210.607	1255
210.674	3045
210.742	2118
210.809	1976
210.877	2609
210.944	2874
211.012	1415
211.079	3820
211.146	1455
211.214	2082
211.281	2734
211.349	2794
211.416	2144
211.484	2247
211.551	1806
211.618	1798
211.686	1858
211.753	1260
211.821	1985
211.888	2941
211.955	2383
212.023	1404
212.090	2119
212.157	2780
212.225	3639
212.292	8624
212.359	16467
212.427	47835
212.494	21296
212.561	6238
212.629	4908
212.696	3338
212.763	3293
212.831	2464
212.898	2755
212.965	2680
213.032	2545
213.100	2119
213.167	1758
213.234	2975
213.301	2372
213.369	1966
213.436	2016
213.503	2076
213.570	2817
213.638	3086
213.705	1682
213.772	1800
213.839	2478
213.906	3527
213.973	2121
214.041	1956
214.108	2742
214.175	2229
214.242	2332
214.309	3269
214.376	1860
214.444	2454
214.511	3030
214.578	2365
214.645	2451
214.712	3639
214.779	2324
214.846	2171
214.913	3562
214.980	3471
215.048	3036
215.115	3895
215.182	2907
215.249	2324
215.316	2665
215.383	2820
215.450	2978
215.517	1901
215.584	2054
215.651	2141
215.718	1667
215.785	3094
215.852	2988
215.919	4375
215.986	3942
216.053	2568
216.120	1120
216.187	2408
216.254	3300
216.321	2497
216.388	3294
216.455	3936
216.522	2678
216.589	3034
216.656	6017
216.722	6807
216.789	4423
216.856	4360
216.923	3785
216.990	2925
217.057	2251
217.124	3500
217.191	2665
217.258	3489
217.324	5006
217.391	5061
217.458	4909
217.525	2793
217.592	3774
217.659	1871
217.725	4425
217.792	4474
217.859	6053
217.926	2735
217.993	2650
218.059	2099
218.126	1824
218.193	2052
218.260	1352
218.327	1746
218.393	2319
218.460	1517
218.527	1630
218.594	2452
218.660	4855
218.727	5499
218.794	2027
218.860	2363
218.927	1463
218.994	1452
219.061	1750
219.127	2475
219.194	4121
219.261	3251
219.327	1959
219.394	1965
219.461	1317
219.527	1705
219.594	3502
219.661	2325
219.727	1074
219.794	2817
219.860	1698
219.927	2980
219.994	3587
220.060	6416
220.127	5263
220.193	3346
220.260	2556
220.326	4955
220.393	6651
220.460	8418
220.526	5572
220.593	4085
220.659	5516
220.726	5014
220.792	17947
220.859	13861
220.925	11243
220.992	14775
221.058	19426
221.125	26429
221.191	19760
221.258	7102
221.324	4794
221.391	3881
221.457	3185
221.524	3843
221.590	6174
221.657	25386
221.723	18617
221.789	15145
221.856	14298
221.922	6215
221.989	4094
222.055	4001
222.121	3371
222.188	5333
222.254	3995
222.321	2814
222.387	2114
222.453	2163
222.520	3140
222.586	2267
222.652	2804
222.719	3275
222.785	2732
222.851	2172
222.918	2876
222.984	2794
223.050	3348
223.116	2596
223.183	2625
223.249	1814
223.315	1415
223.382	2335
223.448	2300
223.514	842
223.580	1147
223.647	1250
223.713	1471
223.779	2584
223.845	2190
223.911	2333
223.978	937
224.044	1268
224.110	2010
224.176	2094
224.242	1306
224.309	757
224.375	1974
224.441	1841
224.507	1707
224.573	637
224.639	1732
224.705	1239
224.772	1404
224.838	2405
224.904	2503
224.970	2078
225.036	2363
225.102	1263
225.168	2110
225.234	1854
225.300	2187
225.366	1837
225.432	1762
225.499	2171
225.565	2726
225.631	2612
225.697	2705
225.763	2962
225.829	3965
225.895	3898
225.961	5659
226.027	6278
226.093	5042
226.159	7011
226.225	6820
226.291	13992
226.357	23945
226.423	13001
226.489	6919
226.554	5813
226.620	5625
226.686	5796
226.752	10461
226.818	13944
226.884	33689
226.950	31075
227.016	11318
227.082	6325
227.148	4539
227.214	5319
227.279	5714
227.345	5478
227.411	4296
227.477	3422
227.543	6375
227.609	7229
227.674	6699
227.740	3785
227.806	3879
227.872	3362
227.938	4436
228.003	7957
228.069	4253
228.135	2294
228.201	2863
228.267	1886
228.332	3012
228.398	3241
228.464	2945
228.530	1485
228.595	2303
228.661	2198
228.727	3138
228.792	4222
228.858	1714
228.924	1747
228.990	5828
229.055	3146
229.121	4544
229.187	2897
229.252	2637
229.318	1944
229.384	2712
229.449	3767
229.515	912
229.581	1005
229.646	3019
229.712	2328
229.777	6463
229.843	7023
229.909	6054
229.974	6518
230.040	6699
230.105	3992
230.171	4324
230.236	8434
230.302	13969
230.368	8074
230.433	3943
230.499	4147
230.564	7836
230.630	4684
230.695	3022
230.761	3317
230.826	1608
230.892	5381
230.957	2843
231.023	2102
231.088	2497
231.154	2327
231.219	2365
231.284	3371
231.350	4323
231.415	2008
231.481	2029
231.546	2265
231.612	2865
231.677	2088
231.742	852
231.808	3895
231.873	1962
231.939	925
232.004	5403
232.069	4356
232.135	2598
232.200	1380
232.265	2625
232.331	2008
232.396	1153
232.461	1925
232.527	1753
232.592	1185
232.657	2622
232.723	5915
232.788	4543
232.853	2372
232.918	2185
232.984	1111
233.049	1946
233.114	4474
233.179	4642
233.245	8155
233.310	11275
233.375	2200
233.440	3243
233.506	1883
233.571	2492
233.636	2916
233.701	2300
233.766	5437
233.832	9242
233.897	3279
233.962	2152
234.027	4193
234.092	3616
234.157	3115
234.222	3613
234.288	5911
234.353	22291
234.418	17885
234.483	8923
234.548	5908
234.613	4648
234.678	4078
234.743	4644
234.808	20101
234.873	13133
234.938	6117
235.004	4773
235.069	3388
235.134	2904
235.199	4376
235.264	3319
235.329	1940
235.394	3914
235.459	5138
235.524	4174
235.589	4256
235.654	3223
235.719	1914
235.784	4479
235.849	4257
235.913	9877
235.978	10766
236.043	13296
236.108	4930
236.173	4457
236.238	5238
236.303	3542
236.368	4082
236.433	7263
236.498	13530
236.563	7696
236.627	12062
236.692	44634
236.757	37365
236.822	14823
236.887	11862
236.952	9355
237.017	6573
237.081	9508
237.146	9593
237.211	18722
237.276	43577
237.341	81576
237.405	37708
237.470	14486
237.535	11580
237.600	7552
237.664	5861
237.729	3691
237.794	6098
237.859	12262
237.923	10567
237.988	6799
238.053	9388
238.118	10495
238.182	31816
238.247	31910
238.312	11323
238.376	7895
238.441	6153
238.506	6543
238.570	3309
238.635	4400
238.700	3154
238.764	3048
238.829	12165
238.893	15708
238.958	7455
239.023	5371
239.087	3692
239.152	4694
239.216	3325
239.281	4166
239.346	3707
239.410	4008
239.475	5007
239.539	29129
239.604	26538
239.668	7151
239.733	4765
239.797	5228
239.862	10458
239.926	22479
239.991	9757
240.055	5162
240.120	3672
240.184	3506
240.249	3592
240.313	3931
240.378	4064
240.442	14667
240.507	30843
240.571	9352
240.635	12227
240.700	15847
240.764	5132
240.829	4402
240.893	3728
240.957	4715
241.022	14721
241.086	27927
241.151	12539
241.215	4543
241.279	6766
241.344	13249
241.408	6630
241.472	5431
241.537	5718
241.601	5646
241.665	2625
241.730	3824
241.794	6031
241.858	4808
241.922	4047
241.987	4315
242.051	3763
242.115	5221
242.179	4655
242.244	4018
242.308	5196
242.372	5342
242.436	8010
242.501	5226
242.565	3417
242.629	3363
242.693	4540
242.757	3367
242.822	4150
242.886	5158
242.950	4948
243.014	4663
243.078	5441
243.142	5071
243.206	5868
243.271	7140
243.335	8130
243.399	12395
243.463	43944
243.527	123551
243.591	39315
243.655	13904
243.719	7908
243.783	8092
243.847	12851
243.911	18199
243.975	14000
244.040	9358
244.104	8363
244.168	5611
244.232	6534
244.296	10543
244.360	15142
244.424	6544
244.488	6510
244.552	6130
244.615	3018
244.679	4026
244.743	4852
244.807	4580
244.871	3321
244.935	3820
244.999	2983
245.063	3851
245.127	5966
245.191	11252
245.255	10916
245.319	5210
245.383	3705
245.446	5086
245.510	2903
245.574	4076
245.638	4333
245.702	2725
245.766	10956
245.829	7361
245.893	5468
245.957	4167
246.021	4433
246.085	4939
246.149	6043
246.212	14975
246.276	24340
246.340	10093
246.404	6422
246.467	7651
246.531	9949
246.595	8124
246.659	6232
246.722	5129
246.786	6298
246.850	6867
246.913	9582
246.977	4372
247.041	5588
247.104	5951
247.168	5505
247.232	12273
247.295	32060
247.359	15856
247.423	7035
247.486	10816
247.550	6459
247.614	5395
247.677	6876
247.741	5995
247.804	5392
247.868	8864
247.932	11981
247.995	30337
248.059	11528
248.122	5117
248.186	8041
248.249	11694
248.313	49926
248.376	51303
248.440	31726
248.503	11098
248.567	8876
248.630	12292
248.694	15532
248.757	21030
248.821	56945
248.884	30013
248.948	25608
249.011	39925
249.075	62919
249.138	53917
249.202	18208
249.265	12639
249.328	20095
249.392	12192
249.455	10049
249.519	8119
249.582	9331
249.645	13769
249.709	12124
249.772	10543
249.835	10139
249.899	11333
249.962	9662
250.025	8307
250.089	19967
250.152	27239
250.215	12558
250.279	10942
250.342	11587
250.405	11783
250.468	12537
250.532	16032
250.595	26160
250.658	104367
250.721	192563
250.785	58265
250.848	27397
250.911	16615
250.974	15284
251.038	19047
251.101	37656
251.164	21973
251.227	21419
251.290	22904
251.354	35832
251.417	153763
251.480	162709
251.543	99868
251.606	288704
251.669	224008
251.732	77717
251.795	63468
251.859	65942
251.922	177624
251.985	105166
252.048	39211
252.111	27290
252.174	22974
252.237	34089
252.300	74173
252.363	86262
252.426	222951
252.489	92362
252.552	49742
252.615	33955
252.678	29675
252.741	58362
252.804	91967
252.867	232672
252.930	119291
252.993	58502
253.056	30630
253.119	29166
253.182	22935
253.245	39571
253.308	26976
253.371	19841
253.434	20750
253.497	22065
253.559	33093
253.622	24359
253.685	21410
253.748	20367
253.811	11493
253.874	17712
253.937	15733
254.000	10855
254.062	17700
254.125	31905
254.188	30427
254.251	24504
254.314	11820
254.376	17004
254.439	18563
254.502	14850
254.565	17830
254.628	34270
254.690	17087
254.753	10531
254.816	8092
254.878	10276
254.941	21669
255.004	24244
255.067	9388
255.129	8131
255.192	5789
255.255	3317
255.317	5985
255.380	4959
255.443	4561
255.505	3497
255.568	4773
255.631	7599
255.693	5354
255.756	3828
255.819	4608
255.881	4705
255.944	4357
256.006	4060
256.069	4134
256.132	3258
256.194	6535
256.257	22056
256.319	14991
256.382	14075
256.444	7639
256.507	6535
256.569	5242
256.632	6728
256.694	11023
256.757	21783
256.819	68177
256.882	29733
256.944	11523
257.007	8705
257.069	10056
257.132	10136
257.194	7906
257.257	7376
257.319	7424
257.381	8073
257.444	17286
257.506	76882
257.569	88546
257.631	61047
257.693	25450
257.756	13471
257.818	11422
257.880	6857
257.943	7244
258.005	5208
258.067	6619
258.130	6912
258.192	6810
258.254	13341
258.317	9477
258.379	6951
258.441	17598
258.503	16828
258.566	27216
258.628	39239
258.690	9057
258.753	7560
258.815	10863
258.877	6729
258.939	5274
259.001	6354
259.064	6467
259.126	7084
259.188	11128
259.250	8444
259.312	11090
259.375	37801
259.437	21893
259.499	8483
259.561	6513
259.623	8345
259.685	9650
259.747	8634
259.809	27062
259.872	54448
259.934	81372
259.996	79396
260.058	21616
260.120	8647
260.182	7057
260.244	5925
260.306	5397
260.368	6674
260.430	6589
260.492	18519
260.554	42485
260.616	28708
260.678	32443
260.740	50878
260.802	13086
260.864	9212
260.926	7243
260.988	8997
261.050	10004
261.112	27768
261.174	71866
261.236	48167
261.298	13091
261.359	21097
261.421	32385
261.483	8618
261.545	7916
261.607	4652
261.669	6179
261.731	11404
261.793	29641
261.854	11839
261.916	8262
261.978	10094
262.040	12667
262.102	6888
262.164	11539
262.225	9118
262.287	5376
262.349	11262
262.411	10919
262.472	6492
262.534	12502
262.596	32946
262.658	10500
262.719	5136
262.781	8797
262.843	29106
262.904	14516
262.966	11316
263.028	14140
263.090	65739
263.151	192360
263.213	62197
263.275	29235
263.336	11880
263.398	8423
263.459	6035
263.521	5348
263.583	12260
263.644	9067
263.706	5518
263.767	3724
263.829	4051
263.891	3629
263.952	4506
264.014	4733
264.075	12743
264.137	37116
264.198	12761
264.260	5765
264.321	5544
264.383	13971
264.444	50390
264.506	16397
264.567	8472
264.629	18651
264.690	49551
264.752	14689
264.813	6909
264.875	5309
264.936	6396
264.998	6269
265.059	4887
265.120	5185
265.182	6007
265.243	27996
265.305	29129
265.366	7993
265.427	4707
265.489	4591
265.550	2491
265.611	4759
265.673	4545
265.734	5519
265.795	4258
265.857	3172
265.918	4330
265.979	7830
266.040	50379
266.102	44396
266.163	12047
266.224	11883
266.286	5746
266.347	4261
266.408	3665
266.469	5384
266.530	3841
266.592	2792
266.653	5641
266.714	10761
266.775	3882
266.836	2879
266.898	2913
266.959	9819
267.020	7731
267.081	3955
267.142	3422
267.203	2686
267.264	2304
267.326	4083
267.387	2752
267.448	1499
267.509	3896
267.570	2495
267.631	2199
267.692	1671
267.753	3459
267.814	2293
267.875	6253
267.936	14880
267.997	14854
268.058	10875
268.119	4927
268.180	4311
268.241	2631
268.302	2882
268.363	2097
268.424	2773
268.485	5180
268.546	3706
268.607	1742
268.668	2306
268.729	2449
268.790	2362
268.851	4682
268.912	11830
268.972	11231
269.033	5532
269.094	3257
269.155	3229
269.216	2843
269.277	3420
269.338	3422
269.398	2613
269.459	3072
269.520	3802
269.581	5383
269.642	6682
269.702	4143
269.763	3789
269.824	2849
269.885	3534
269.945	6306
270.006	4321
270.067	1882
270.128	3367
270.188	2883
270.249	3152
270.310	2470
270.370	3507
270.431	3632
270.492	1979
270.553	3224
270.613	6242
270.674	14144
270.734	6191
270.795	2923
270.856	4703
270.916	4279
270.977	2987
271.038	4722
271.098	3975
271.159	6050
271.219	6594
271.280	4220
271.340	3655
271.401	4327
271.462	14146
271.522	6801
271.583	4031
271.643	5144
271.704	4731
271.764	5471
271.825	9622
271.885	40780
271.946	61973
272.006	17600
272.066	24268
272.127	49860
272.187	13704
272.248	7221
272.308	8391
272.369	31998
272.429	18627
272.489	12302
272.550	14295
272.610	10452
272.671	8350
272.731	11980
272.791	20163
272.852	8013
272.912	6465
272.972	4019
273.033	4397
273.093	8781
273.153	9651
273.214	7638
273.274	7535
273.334	30093
273.394	52241
273.455	16390
273.515	16587
273.575	40146
273.635	16004
273.696	21259
273.756	46419
273.816	17496
273.876	10946
273.936	28774
273.997	59237
274.057	16204
274.117	9736
274.177	11550
274.237	57378
274.297	55517
274.358	36625
274.418	34459
274.478	25223
274.538	11068
274.598	10401
274.658	41149
274.718	52940
274.778	20934
274.838	11367
274.898	24420
274.958	77571
275.018	53727
275.078	31912
275.138	12301
275.198	8234
275.258	6720
275.318	8414
275.378	12135
275.438	11633
275.498	10038
275.558	32791
275.618	66578
275.678	32964
275.738	18828
275.798	18551
275.858	13888
275.918	5647
275.978	5665
276.038	5375
276.098	4442
276.157	8621
276.217	23045
276.277	10708
276.337	6635
276.397	4277
276.457	5399
276.517	5474
276.576	3873
276.636	3226
276.696	5802
276.756	14846
276.815	11583
276.875	4511
276.935	6298
276.995	5073
277.055	3312
277.114	3440
277.174	5455
277.234	18222
277.293	8151
277.353	4998
277.413	3178
277.472	3213
277.532	4167
277.592	4627
277.651	12751
277.711	25279
277.771	8396
277.830	29724
277.890	25745
277.950	19586
278.009	65131
278.069	23534
278.128	17108
278.188	24276
278.248	11159
278.307	25013
278.367	18912
278.426	8047
278.486	5189
278.545	5163
278.605	5918
278.664	4712
278.724	5263
278.783	15693
278.843	48262
278.902	14764
278.962	7735
279.021	7505
279.081	13472
279.140	12292
279.199	8819
279.259	9497
279.318	11748
279.378	15694
279.437	25507
279.496	90048
279.556	293604
279.615	237134
279.675	53969
279.734	29801
279.793	40951
279.853	78040
279.912	29300
279.971	16550
280.031	15791
280.090	29286
280.149	54609
280.208	38702
280.268	204885
280.327	217194
280.386	44143
280.445	28364
280.505	25749
280.564	15044
280.623	14063
280.682	13732
280.742	19893
280.801	8135
280.860	6859
280.919	6944
280.978	6828
281.037	8210
281.097	6262
281.156	5754
281.215	4916
281.274	6372
281.333	27910
281.392	22633
281.451	6364
281.510	4890
281.569	4262
281.628	4150
281.688	4664
281.747	5886
281.806	7666
281.865	4482
281.924	3188
281.983	4144
282.042	2902
282.101	2235
282.160	3942
282.219	3348
282.278	3692
282.337	12294
282.396	9223
282.454	4519
282.513	5107
282.572	17923
282.631	11815
282.690	4494
282.749	3043
282.808	7733
282.867	7158
282.926	5973
282.985	3865
283.043	3787
283.102	3405
283.161	5053
283.220	14039
283.279	29289
283.338	8507
283.396	4912
283.455	4659
283.514	4261
283.573	6884
283.631	5881
283.690	3524
283.749	3268
283.808	7040
283.866	9059
283.925	3319
283.984	4184
284.043	5987
284.101	6239
284.160	5867
284.219	16683
284.277	8959
284.336	7018
284.395	23551
284.453	21771
284.512	7563
284.570	7931
284.629	7449
284.688	5720
284.746	5975
284.805	6987
284.863	9033
284.922	10805
284.981	12964
285.039	17771
285.098	30714
285.156	76782
285.215	282066
285.273	280269
285.332	98911
285.390	45335
285.449	26382
285.507	17745
285.566	12973
285.624	12388
285.683	9899
285.741	7801
285.799	7330
285.858	7345
285.916	6839
285.975	4864
286.033	4385
286.091	4195
286.150	4442
286.208	6699
286.267	10110
286.325	5637
286.383	7188
286.442	5973
286.500	3642
286.558	3964
286.616	3444
286.675	3978
286.733	5246
286.791	3761
286.850	5359
286.908	8645
286.966	10745
287.024	6013
287.083	3891
287.141	4075
287.199	4483
287.257	6195
287.315	5305
287.374	4745
287.432	10847
287.490	8535
287.548	6410
287.606	6412
287.664	5968
287.723	10992
287.781	19254
287.839	11353
287.897	13340
287.955	18871
288.013	29931
288.071	54884
288.129	201454
288.187	572724
288.245	284603
288.303	89045
288.361	49513
288.419	39931
288.477	28707
288.535	18445
288.593	15161
288.651	12327
288.709	8673
288.767	8215
288.825	7542
288.883	7574
288.941	8616
288.999	6347
289.057	4853
289.115	7144
289.173	5835
289.231	5082
289.289	4811
289.346	4559
289.404	4616
289.462	6506
289.520	6836
289.578	3784
289.636	3196
289.694	3023
289.751	3609
289.809	3381
289.867	3729
289.925	3867
289.983	5027
290.040	3835
290.098	2718
290.156	3434
290.214	4216
290.271	3346
290.329	3250
290.387	3283
290.444	2767
290.502	1984
290.560	3962
290.617	4681
290.675	3727
290.733	3320
290.790	3092
290.848	3411
290.906	2869
290.963	3906
291.021	4808
291.078	4274
291.136	4611
291.194	19063
291.251	45937
291.309	13349
291.366	6316
291.424	4412
291.481	4260
291.539	3613
291.596	3661
291.654	2680
291.711	3300
291.769	3403
291.826	6744
291.884	4811
291.941	3318
291.999	3333
292.056	3242
292.114	3665
292.171	2518
292.228	3165
292.286	3884
292.343	6882
292.401	7872
292.458	5542
292.515	3184
292.573	4865
292.630	5964
292.687	6478
292.745	5196
292.802	9690
292.859	32538
292.917	32759
292.974	17410
293.031	6695
293.089	4777
293.146	5292
293.203	4676
293.260	4906
293.318	10874
293.375	18132
293.432	9848
293.489	5440
293.546	5048
293.604	7241
293.661	18424
293.718	57317
293.775	34897
293.832	14092
293.889	11043
293.947	15163
294.004	10656
294.061	8489
294.118	13673
294.175	34960
294.232	69041
294.289	25692
294.346	10787
294.403	10149
294.460	8098
294.517	6974
294.574	7797
294.631	6907
294.688	9287
294.745	16463
294.802	71061
294.859	100828
294.916	41945
294.973	23330
295.030	12217
295.087	9761
295.144	7703
295.201	7297
295.258	6873
295.315	7471
295.372	20637
295.429	45845
295.486	22351
295.542	14840
295.599	44794
295.656	85741
295.713	48743
295.770	43836
295.827	18919
295.883	11382
295.940	8522
295.997	13953
296.054	12987
296.111	7294
296.167	6309
296.224	5468
296.281	4180
296.338	5169
296.394	5102
296.451	7823
296.508	18617
296.564	39723
296.621	29335
296.678	46833
296.734	78735
296.791	31120
296.848	15668
296.904	12293
296.961	21658
297.018	42589
297.074	42023
297.131	17378
297.187	11759
297.244	13439
297.301	42960
297.357	88883
297.414	32835
297.470	12902
297.527	9367
297.583	7443
297.640	8193
297.696	6746
297.753	5571
297.809	5434
297.866	4761
297.922	4813
297.979	5335
298.035	5872
298.092	7994
298.148	23757
298.204	24363
298.261	12574
298.317	23243
298.374	65931
298.430	38475
298.486	17881
298.543	14211
298.599	11721
298.656	11445
298.712	18309
298.768	60265
298.824	52819
298.881	18098
298.937	9422
298.993	7955
299.050	9142
299.106	8590
299.162	7211
299.218	7684
299.275	6570
299.331	7214
299.387	12463
299.443	47382
299.500	53225
299.556	21169
299.612	10527
299.668	8936
299.724	9105
299.780	10895
299.837	8919
299.893	10471
299.949	34247
300.005	41477
300.061	37481
300.117	80656
300.173	39040
300.229	15919
300.285	15377
300.341	16103
300.397	9739
300.453	6719
300.510	7321
300.566	7124
300.622	7078
300.678	17061
300.734	32856
300.790	33879
300.845	48674
300.901	27376
300.957	31729
301.013	26593
301.069	10934
301.125	8401
301.181	7873
301.237	6095
301.293	4581
301.349	5474
301.405	5388
301.461	6007
301.516	6874
301.572	6524
301.628	9669
301.684	11683
301.740	19271
301.796	27320
301.851	19038
301.907	25975
301.963	27279
302.019	44226
302.074	141672
302.130	144207
302.186	63455
302.242	26156
302.297	17255
302.353	15349
302.409	26137
302.464	24546
302.520	18263
302.576	44950
302.631	53374
302.687	27249
302.743	13625
302.798	9099
302.854	7919
302.910	8022
302.965	10518
303.021	17400
303.076	12990
303.132	14817
303.187	16442
303.243	10773
303.299	6118
303.354	6209
303.410	5710
303.465	5005
303.521	6105
303.576	6359
303.632	7662
303.687	13408
303.743	45609
303.798	41272
303.853	17315
303.909	9645
303.964	8374
304.020	10030
304.075	13369
304.130	11850
304.186	19378
304.241	20978
304.297	17429
304.352	10344
304.358	10153
304.407	8607
304.449	8278
304.463	8171
304.518	8875
304.539	8770
304.573	8624
304.629	9137
304.630	9243
304.684	14553
304.720	28410
304.739	35159
304.794	55627
304.811	47389
304.850	27976
304.902	13396
304.905	12465
304.960	8968
304.992	9166
305.015	9280
305.071	8288
305.083	7888
305.126	6505
305.173	5286
305.181	5101
305.236	5637
305.264	5933
305.292	6196
305.347	6441
305.354	6559
305.402	7450
305.445	8650
305.457	8951
305.512	10420
305.535	10323
305.567	10343
305.622	11297
305.626	11641
305.678	20526
305.716	40583
305.733	47380
305.788	56236
305.807	49640
305.843	39500
305.897	48131
305.898	48174
305.953	50372
305.988	33869
306.008	25210
306.063	13769
306.078	12529
306.118	10032
306.168	7787
306.173	7594
306.228	6773
306.259	6586
306.283	6595
306.338	7683
306.349	7923
306.393	8541
306.440	9199
306.448	9546
306.503	12242
306.530	14368
306.558	20583
306.613	54168
306.620	57607
306.668	67761
306.711	56600
306.723	52939
306.778	35273
306.801	26710
306.833	18188
306.888	11701
306.892	11434
306.943	9196
306.982	8454
306.997	8428
307.052	10200
307.072	11050
307.107	15023
307.162	24686
307.163	24878
307.217	45703
307.253	56670
307.272	57664
307.327	58397
307.343	50621
307.381	36437
307.434	27325
307.436	27713
307.491	55836
307.524	82154
307.546	86347
307.600	56145
307.614	46743
307.655	28505
307.704	18610
307.710	18886
307.765	28121
307.795	39197
307.819	47902
307.874	88360
307.885	87517
307.929	62165
307.975	32136
307.984	30106
308.038	30066
308.065	34101
308.093	59921
308.148	124570
308.156	141545
308.202	214468
308.246	258190
308.257	252930
308.312	128658
308.336	84436
308.366	60140
308.421	37448
308.426	35595
308.475	23703
308.517	17905
308.530	16856
308.585	15591
308.607	15479
308.639	18691
308.694	25784
308.697	26536
308.748	65460
308.787	110716
308.803	110634
308.857	73689
308.877	55500
308.912	40121
308.967	31491
308.967	31424
309.021	31983
309.058	33520
309.076	41112
309.130	69761
309.148	81712
309.185	173802
309.238	340227
309.239	340724
309.293	355191
309.328	296849
309.348	250930
309.402	109563
309.418	76760
309.457	50391
309.508	30459
309.511	29804
309.566	24953
309.598	23495
309.620	25714
309.674	34607
309.688	37146
309.729	34471
309.778	27202
309.783	26687
309.837	20292
309.868	17754
309.892	21760
309.946	33227
309.959	37009
310.001	46762
310.049	55485
310.055	53869
310.109	32932
310.139	20788
310.163	17116
310.218	11846
310.229	11168
310.272	11924
310.319	13257
310.326	13421
310.381	15665
310.409	16088
310.435	16047
310.489	16259
310.499	16337
310.543	18271
310.589	20418
310.598	19971
310.652	17922
310.679	15861
310.706	13244
310.760	7885
310.769	7165
310.814	6143
310.859	5318
310.868	5399
310.923	6119
310.948	6549
310.977	7555
311.031	9620
311.038	9908
311.085	8810
311.128	7387
311.139	7418
311.193	7939
311.218	8048
311.247	7311
311.301	6150
311.308	5998
311.356	6724
311.398	7598
311.410	7298
311.464	5696
311.488	4940
311.518	5132
311.572	5631
311.578	5707
311.626	7790
311.668	9593
311.680	10709
311.734	15812
311.758	18096
311.788	16178
311.842	12361
311.847	11974
311.896	19159
311.937	25656
311.950	24458
312.004	19003
312.027	16501
312.058	13454
312.112	8213
312.117	7707
312.165	7878
312.207	8059
312.297	14882
312.386	9385
312.476	8058
312.566	12312
312.656	7102
312.745	5804
312.835	9127
312.925	8826
313.015	12836
313.104	13939
313.194	5910
313.284	5577
313.374	7219
313.463	5902
313.553	6144
313.643	4462
313.732	4361
313.822	4750
313.912	7626
314.001	7221
314.091	11096
314.180	14027
314.270	10834
314.360	16784
314.449	9730
314.539	6069
314.628	6824
314.718	10513
314.808	17380
314.897	5509
314.987	6631
315.076	8489
315.166	15337
315.255	16872
315.345	13721
315.434	18093
315.524	17088
315.613	15028
315.703	15936
315.792	36239
315.881	130937
315.971	40279
316.060	38877
316.150	79448
316.239	80524
316.328	20611
316.418	7692
316.507	7340
316.597	9627
316.686	11456
316.775	38790
316.865	80768
316.954	11485
317.043	5612
317.133	6239
317.222	5582
317.311	6659
317.400	5607
317.490	9555
317.579	9712
317.668	10670
317.757	19178
317.847	66260
317.936	221940
318.025	60237
318.114	42400
318.203	19164
318.293	14517
318.382	19159
318.471	17513
318.560	42187
318.649	96401
318.738	17615
318.828	11830
318.917	13500
319.006	32389
319.095	87402
319.184	123398
319.273	43446
319.362	16767
319.451	10198
319.540	9012
319.629	17458
319.718	23850
319.807	15745
319.896	44315
319.985	143800
320.074	34587
320.163	22331
320.252	54495
320.341	27918
320.430	16784
320.519	14797
320.608	10003
320.697	10077
320.786	8532
320.875	10766
320.964	12069
321.053	16759
321.142	22501
321.230	22698
321.319	26578
321.408	51965
321.497	26161
321.586	26284
321.675	71965
321.764	49812
321.852	31342
321.941	29205
322.030	18011
322.119	28449
322.207	68264
322.296	94862
322.385	42236
322.474	30701
322.562	55754
322.651	34430
322.740	30472
322.829	69876
322.917	111437
323.006	33794
323.095	24134
323.183	36242
323.272	40768
323.361	89581
323.449	271752
323.538	82553
323.626	219587
323.715	99036
323.804	54705
323.892	194999
323.981	73234
324.069	30002
324.158	125348
324.246	81058
324.335	17464
324.424	17388
324.512	8049
324.601	9939
324.689	13032
324.778	35613
324.866	80218
324.954	16755
325.043	14957
325.131	49008
325.220	93605
325.308	99168
325.397	68479
325.485	28726
325.574	8039
325.662	7357
325.750	5969
325.839	7617
325.927	7491
326.015	14570
326.104	52070
326.192	58935
326.280	9301
326.369	9111
326.457	8560
326.545	12216
326.634	6299
326.722	5263
326.810	5178
326.898	5282
326.987	7013
327.075	18411
327.163	40295
327.251	18482
327.340	9750
327.428	9016
327.516	7184
327.604	8713
327.692	12740
327.781	25575
327.869	45557
327.957	17276
328.045	8238
328.133	8769
328.221	21906
328.309	8152
328.397	5654
328.485	7004
328.574	9549
328.662	30962
328.750	46707
328.838	21430
328.926	7119
329.014	5518
329.102	10282
329.190	30698
329.278	13230
329.366	4766
329.454	5709
329.542	6228
329.630	4779
329.718	6440
329.806	6547
329.893	9467
329.981	9278
330.069	13679
330.157	56641
330.245	141181
330.333	62452
330.421	13145
330.509	11286
330.597	32395
330.684	22656
330.772	15118
330.860	33298
330.948	35294
331.036	10711
331.123	4914
331.211	7747
331.299	10389
331.387	30564
331.475	44033
331.562	16204
331.650	6482
331.738	15278
331.825	22767
331.913	6867
332.001	6321
332.089	16869
332.176	45884
332.264	124458
332.352	64595
332.439	12826
332.527	9542
332.614	14714
332.702	20735
332.790	11882
332.877	53291
332.965	92414
333.052	14269
333.140	19406
333.228	36839
333.315	8387
333.403	15639
333.490	71780
333.578	36015
333.665	15656
333.753	11152
333.840	8358
333.928	17732
334.015	71075
334.103	89510
334.190	219690
334.278	41161
334.365	25755
334.452	13095
334.540	10028
334.627	21968
334.715	29643
334.802	70354
334.889	397948
334.977	263276
335.064	27314
335.151	13652
335.239	14313
335.326	19232
335.413	89694
335.501	86723
335.588	12064
335.675	9599
335.762	16586
335.850	25565
335.937	19746
336.024	80413
336.111	316933
336.199	88003
336.286	15768
336.373	8710
336.460	6356
336.547	8028
336.635	10811
336.722	8043
336.809	8793
336.896	13998
336.983	50837
337.070	118341
337.157	169462
337.245	226845
337.332	125825
337.419	17895
337.506	9995
337.593	12064
337.680	49622
337.767	108046
337.854	29922
337.941	46272
338.028	79729
338.115	20278
338.202	23920
338.289	68594
338.376	214954
338.463	49541
338.550	78780
338.637	63712
338.724	53544
338.811	73472
338.898	12771
338.984	7615
339.071	9507
339.158	10389
339.245	21161
339.332	16148
339.419	56855
339.506	40696
339.593	4960
339.679	4944
339.766	4071
339.853	7313
339.940	10424
340.027	5137
340.113	4437
340.200	9016
340.287	7111
340.374	7470
340.460	8737
340.547	4975
340.634	8334
340.720	31477
340.807	14388
340.894	5024
340.980	6848
341.067	3971
341.154	5275
341.240	7308
341.327	11947
341.414	4424
341.500	3935
341.587	6412
341.674	5068
341.760	9638
341.847	9065
341.933	3531
342.020	1999
342.106	2487
342.193	3897
342.279	7546
342.366	5060
342.452	8847
342.539	4917
342.625	11503
342.712	27748
342.798	10881
342.885	4628
342.971	2422
343.058	2178
343.144	3117
343.230	2757
343.317	3364
343.403	2272
343.490	3070
343.576	2957
343.662	3360
343.749	4502
343.835	7994
343.921	14058
344.008	89535
344.094	161707
344.180	31628
344.267	14302
344.353	52799
344.439	63852
344.525	17094
344.612	5930
344.698	5553
344.784	4212
344.870	3853
344.957	2760
345.043	5472
345.129	4172
345.215	10097
345.301	5786
345.387	3528
345.474	3398
345.560	6677
345.646	13303
345.732	5598
345.818	4359
345.904	4378
345.990	7008
346.076	16369
346.162	31480
346.249	7717
346.335	5049
346.421	5535
346.507	20558
346.593	57334
346.679	12173
346.765	5856
346.851	3756
346.937	4043
347.023	3520
347.108	4192
347.194	2623
347.280	4579
347.366	6508
347.452	21512
347.538	73618
347.624	51375
347.710	52287
347.796	10988
347.882	5299
347.967	5313
348.053	10585
348.139	5556
348.225	2971
348.311	3888
348.397	3420
348.482	5066
348.568	5421
348.654	3061
348.740	3783
348.825	4591
348.911	9767
348.997	42607
349.083	75229
349.168	15252
349.254	5067
349.340	4448
349.425	3078
349.511	5978
349.597	7868
349.682	11227
349.768	33055
349.854	14629
349.939	5568
350.025	4408
350.110	3023
350.196	2716
350.282	2099
350.367	6748
350.453	29914
350.538	23594
350.624	6822
350.709	6487
350.795	2959
350.880	3027
350.966	7755
351.051	26020
351.137	15857
351.222	4714
351.308	11021
351.393	24904
351.479	5243
351.564	2622
351.649	3748
351.735	3074
351.820	2644
351.906	3470
351.991	9725
352.076	22787
352.162	22690
352.247	5342
352.332	3181
352.418	5842
352.503	9343
352.588	38214
352.673	25356
352.759	6890
352.844	2935
352.929	3830
353.014	5109
353.100	5694
353.185	11038
353.270	12322
353.355	10304
353.441	5164
353.526	14511
353.611	13302
353.696	8729
353.781	6563
353.866	1774
353.952	4322
354.037	8185
354.122	19390
354.207	16861
354.292	6731
354.377	2926
354.462	3872
354.547	4631
354.632	6182
354.717	12194
354.802	13573
354.887	4796
354.972	3178
355.057	2275
355.142	2238
355.227	4171
355.312	7269
355.397	13614
355.482	30293
355.567	13910
355.652	12877
355.737	12537
355.822	42776
355.907	27975
355.991	5389
356.076	2780
356.161	5173
356.246	2733
356.331	4588
356.416	13551
356.501	89331
356.585	74553
356.670	9329
356.755	7977
356.840	12673
356.924	68951
357.009	201713
357.094	59270
357.179	13517
357.263	9245
357.348	12113
357.433	10108
357.517	7642
357.602	5409
357.687	5631
357.771	10749
357.856	21441
357.941	14269
358.025	54595
358.110	204179
358.195	75477
358.279	9935
358.364	8481
358.448	28366
358.533	67223
358.617	46315
358.702	50455
358.787	16111
358.871	9627
358.956	6910
359.040	3347
359.125	2299
359.209	3448
359.294	9350
359.378	14946
359.462	8291
359.547	9932
359.631	9700
359.716	3043
359.800	5039
359.885	10301
359.969	4233
360.053	4641
360.138	2621
360.222	5151
360.306	9276
360.391	8215
360.475	13779
360.559	26632
360.644	27413
360.728	19879
360.812	51776
360.896	120529
360.981	49533
361.065	25243
361.149	6664
361.233	6436
361.318	5706
361.402	7525
361.486	5125
361.570	4369
361.654	5444
361.739	16666
361.823	86385
361.907	116031
361.991	16333
362.075	9905
362.159	18276
362.243	14195
362.327	13113
362.411	19947
362.495	15341
362.580	7139
362.664	4027
362.748	3269
362.832	5519
362.916	8342
363.000	30312
363.084	102214
363.168	138340
363.252	27626
363.336	12452
363.420	23624
363.503	112394
363.587	102914
363.671	14373
363.755	9546
363.839	11338
363.923	5481
364.007	12960
364.091	23809
364.175	53523
364.258	159882
364.342	77425
364.426	55979
364.510	29607
364.594	21223
364.677	28145
364.761	108728
364.845	65452
364.929	17452
365.013	13143
365.096	12973
365.180	16417
365.264	55117
365.347	163677
365.431	62073
365.515	14184
365.598	5741
365.682	6377
365.766	20475
365.849	20335
365.933	11892
366.017	18039
366.100	11225
366.184	7229
366.267	8393
366.351	3564
366.435	2559
366.518	1785
366.602	2048
366.685	3328
366.769	4702
366.852	14378
366.936	18498
367.019	7584
367.103	13141
367.186	24771
367.270	5363
367.353	1240
367.436	2965
367.520	1945
367.603	4016
367.687	5773
367.770	10864
367.853	7631
367.937	29427
368.020	40208
368.104	9055
368.187	8694
368.270	12413
368.353	13517
368.437	59565
368.520	157902
368.603	56876
368.687	33961
368.770	51115
368.853	12719
368.936	18784
369.020	18830
369.103	6012
369.186	3484
369.269	3795
369.352	9333
369.436	13533
369.519	7679
369.602	3386
369.685	5556
369.768	5809
369.851	5179
369.934	3291
370.018	5268
370.101	9990
370.184	10669
370.267	7984
370.350	11804
370.433	20748
370.516	58195
370.599	84682
370.682	30606
370.765	28766
370.848	38090
370.931	70680
371.014	31257
371.097	5934
371.180	4368
371.263	3852
371.346	1481
371.429	2744
371.511	2398
371.594	7855
371.677	16746
371.760	22656
371.843	13662
371.926	78890
372.009	149583
372.091	41695
372.174	38283
372.257	75444
372.340	27188
372.423	32727
372.505	39155
372.588	12760
372.671	24037
372.754	65813
372.836	32666
372.919	55095
373.002	88361
373.085	18720
373.167	11458
373.250	29745
373.332	65303
373.415	115689
373.498	212375
373.580	75743
373.663	145418
373.746	163967
373.828	30212
373.911	15126
373.993	24698
374.076	103650
374.159	91372
374.241	30299
374.324	55664
374.406	36031
374.489	68939
374.571	164117
374.654	57027
374.736	37285
374.819	110485
374.901	160805
374.983	147778
375.066	22457
375.148	17490
375.231	88298
375.313	134471
375.395	42237
375.478	8630
375.560	7151
375.643	9112
375.725	45325
375.807	159078
375.890	184401
375.972	118757
376.054	67076
376.136	130149
376.219	43324
376.301	46299
376.383	107952
376.465	37051
376.548	21041
376.630	31301
376.712	84851
376.794	34344
376.877	4641
376.959	3234
377.041	6561
377.123	22127
377.205	22992
377.287	2885
377.369	3685
377.452	3032
377.534	3718
377.616	3526
377.698	2722
377.780	1609
377.862	3273
377.944	3601
378.026	1866
378.108	2558
378.190	2266
378.272	3342
378.354	1645
378.436	2190
378.518	12561
378.600	37690
378.682	23167
378.764	35778
378.846	26466
378.928	10611
379.010	9703
379.091	5987
379.173	2921
379.255	2597
379.337	4992
379.419	19660
379.501	51393
379.583	20066
379.664	6486
379.746	12886
379.828	35410
379.910	46300
379.991	38702
380.073	6705
380.155	5248
380.237	3559
380.318	2682
380.400	3246
380.482	8762
380.564	12028
380.645	13993
380.727	12097
380.809	7036
380.890	3750
380.972	3105
381.053	3313
381.135	6070
381.217	13802
381.298	34789
381.380	17513
381.461	22953
381.543	95468
381.624	99725
381.706	17143
381.787	11269
381.869	12004
381.951	50555
382.032	166052
382.113	89758
382.195	15945
382.276	13722
382.358	31803
382.439	76634
382.521	98018
382.602	145857
382.684	61748
382.765	102907
382.846	86972
382.928	81745
383.009	42120
383.090	34935
383.172	135266
383.253	188532
383.334	84634
383.416	119525
383.497	53329
383.578	19860
383.659	37070
383.741	132605
383.822	302120
383.903	143933
383.984	71275
384.066	129597
384.147	71536
384.228	13858
384.309	10933
384.390	7759
384.471	6485
384.553	7628
384.634	12116
384.715	11712
384.796	5312
384.877	9178
384.958	32488
385.039	34665
385.120	11390
385.201	8018
385.282	13756
385.363	16945
385.444	9004
385.525	18065
385.606	62055
385.687	50336
385.768	16915
385.849	22354
385.930	81180
386.011	124296
386.092	29091
386.173	8748
386.254	10466
386.335	9860
386.416	7984
386.496	23642
386.577	36763
386.658	20033
386.739	13775
386.820	16400
386.901	12507
386.981	10871
387.062	6212
387.143	11778
387.224	34577
387.304	33926
387.385	13923
387.466	13641
387.547	16663
387.627	8186
387.708	17701
387.789	68032
387.869	76386
387.950	21911
388.031	5599
388.111	10896
388.192	34829
388.273	48465
388.353	20786
388.434	8794
388.514	18856
388.595	78266
388.676	83849
388.756	33869
388.837	30215
388.917	17070
388.998	3927
389.078	5167
389.159	4396
389.239	2697
389.320	7098
389.400	5562
389.480	20583
389.561	39792
389.641	16957
389.722	7801
389.802	10882
389.883	21999
389.963	55933
390.043	53699
390.124	23591
390.204	16830
390.284	38502
390.365	32105
390.445	88370
390.525	219268
390.605	161492
390.686	28228
390.766	9171
390.846	6605
390.927	3031
391.007	4185
391.087	7700
391.167	7849
391.247	8551
391.328	28963
391.408	30820
391.488	15289
391.568	3563
391.648	6105
391.728	7265
391.808	8706
391.888	7555
391.969	22784
392.049	32428
392.129	21741
392.209	22195
392.289	43825
392.369	31954
392.449	42609
392.529	22026
392.609	15162
392.689	20160
392.769	47841
392.849	42306
392.929	46891
393.009	87799
393.089	65640
393.169	78086
393.248	295741
393.328	922484
393.408	896265
393.488	239095
393.568	65368
393.648	32121
393.728	19756
393.807	13797
393.887	13443
393.967	9694
394.047	11154
394.127	13210
394.206	22535
394.286	97434
394.366	401339
394.446	383200
394.525	74600
394.605	19329
394.685	23460
394.764	60829
394.844	98413
394.924	57698
395.003	12839
395.083	7842
395.163	7455
395.242	6887
395.322	7692
395.402	5952
395.481	12776
395.561	44976
395.640	97861
395.720	70503
395.799	117390
395.879	80600
395.958	35062
396.038	141143
396.117	530960
396.197	524824
396.276	140263
396.356	50551
396.435	43303
396.515	27688
396.594	29365
396.673	66473
396.753	311493
396.832	823031
396.912	543188
396.991	110989
397.070	32299
397.150	16046
397.229	13770
397.308	13537
397.388	18834
397.467	11636
397.546	6173
397.625	4720
397.705	7622
397.784	6188
397.863	4629
397.942	3873
398.022	7101
398.101	44954
398.180	105182
398.259	50342
398.338	11701
398.417	5845
398.497	5822
398.576	5648
398.655	2144
398.734	3761
398.813	6650
398.892	42599
398.971	114492
399.050	46261
399.129	4225
399.208	3431
399.287	3185
399.366	2067
399.445	3525
399.524	3532
399.603	2942
399.682	7434
399.761	35876
399.840	121422
399.919	81122
399.998	9856
400.077	1914
400.156	1580
400.235	6567
400.313	4330
400.392	5470
400.471	17768
400.550	25923
400.629	7028
400.708	5790
400.786	9116
400.865	27599
400.944	23774
401.023	8531
401.102	507
401.180	2623
401.259	5370
401.338	5734
401.416	6074
401.495	5287
401.574	5431
401.652	4745
401.731	7547
401.810	5641
401.888	2225
401.967	994
402.046	2337
402.124	6507
402.203	5872
402.281	5112
402.360	10529
402.438	34549
402.517	19694
402.596	7854
402.674	7913
402.753	5060
402.831	3925
402.910	6208
402.988	25714
403.066	68888
403.145	36778
403.223	24122
403.302	52532
403.380	40390
403.459	37003
403.537	16521
403.615	6529
403.694	1028
403.772	1493
403.850	1465
403.929	111
404.007	1762
404.085	8185
404.164	8388
404.242	2169
404.320	5636
404.398	13063
404.477	31479
404.555	114634
404.633	90330
404.711	13515
404.789	5938
404.868	3923
404.946	2201
405.024	731
405.102	769
405.180	586
405.258	298
405.336	2666
405.415	3354
405.493	8943
405.571	7715
405.649	678
405.727	1702
405.805	5567
405.883	5616
405.961	6884
406.039	9344
406.117	2644
406.195	4635
406.273	27257
406.351	89050
406.429	52441
406.507	11641
406.585	2988
406.663	2155
406.740	3346
406.818	2967
406.896	1362
406.974	2924
407.052	7430
407.130	51637
407.208	62572
407.285	12084
407.363	1753
407.441	2952
407.519	1845
407.596	3987
407.674	15539
407.752	54234
407.830	52335
407.907	18164
407.985	3642
408.063	2397
408.141	2063
408.218	8965
408.296	7047
408.373	3777
408.451	2302
408.529	2336
408.606	74
408.684	479
408.762	6
408.839	728
408.917	-185
408.994	421
409.072	-817
409.149	985
409.227	1510
409.304	2359
409.382	1416
409.459	2754
409.537	3305
409.614	2714
409.692	2247
409.769	2763
409.846	4514
409.924	7120
410.001	2425
410.079	2459
410.156	2118
410.233	2978
410.311	2670
410.388	1416
410.465	1519
410.543	815
410.620	449
410.697	1814
410.775	798
410.852	-95
410.929	1800
411.006	2805
411.083	1072
411.161	4477
411.238	8317
411.315	5271
411.392	1048
411.469	2047
411.547	1211
411.624	-732
411.701	605
411.778	2434
411.855	3987
411.932	2816
412.009	1264
412.086	2355
412.163	3248
412.240	4550
412.317	5992
412.394	4868
412.471	1410
412.548	1021
412.625	803
412.702	4728
412.779	6840
412.856	3686
412.933	721
413.010	1606
413.087	4300
413.164	15881
413.241	19631
413.318	4099
413.395	2647
413.471	3346
413.548	1422
413.625	1796
413.702	3531
413.779	3057
413.855	-235
413.932	243
414.009	-266
414.086	313
414.162	1123
414.239	4858
414.316	18358
414.393	32775
414.469	9906
414.546	918
414.623	458
414.699	701
414.776	1065
414.853	477
414.929	1600
415.006	2768
415.082	4335
415.159	2888
415.236	598
415.312	1024
415.389	3024
415.465	4112
415.542	1476
415.618	655
415.695	2906
415.771	1581
415.848	1323
415.924	2997
416.000	2844
416.077	2063
416.153	-897
416.230	-33
416.306	1024
416.383	3892
416.459	1550
416.535	-464
416.612	144
416.688	782
416.764	587
416.841	535
416.917	741
416.993	1540
417.069	2595
417.146	4441
417.222	4601
417.298	2446
417.374	569
417.451	1770
417.527	1071
417.603	1620
417.679	1148
417.755	1621
417.831	-805
417.908	440
417.984	-230
418.060	8
418.136	3622
418.212	3989
418.288	1251
418.364	1167
418.440	570
418.516	4452
418.592	9292
418.668	10204
418.744	10007
418.820	6857
418.896	1454
418.972	-554
419.048	931
419.124	4616
419.200	2080
419.276	866
419.352	-1031
419.428	355
419.504	210
419.579	1471
419.655	-106
419.731	1528
419.807	5883
419.883	11560
419.959	7442
420.034	3042
420.110	5708
420.186	19840
420.262	14084
420.337	3141
420.413	1798
420.489	548
420.565	1445
420.640	394
420.716	525
420.792	405
420.867	1343
420.943	284
421.019	2446
421.094	1840
421.170	893
421.245	113
421.321	360
421.397	1423
421.472	8859
421.548	24463
421.623	13801
421.699	3124
421.774	2883
421.850	1827
421.925	4535
422.001	3900
422.076	2851
422.152	3489
422.227	6249
422.302	8251
422.378	11962
422.453	22329
422.529	65608
422.604	231994
422.679	399538
422.755	217998
422.830	58670
422.905	20772
422.981	10467
423.056	6925
423.131	4679
423.207	3576
423.282	3375
423.357	6324
423.432	4631
423.508	5749
423.583	10428
423.658	7488
423.733	3041
423.808	5317
423.883	4430
423.959	3367
424.034	2418
424.109	2279
424.184	2
424.259	975
424.334	1502
424.409	591
424.484	795
424.559	1787
424.634	1080
424.709	2318
424.784	2280
424.859	2860
424.934	3103
425.009	14016
425.084	22688
425.159	7937
425.234	1611
425.309	224
425.384	3327
425.459	6020
425.534	1991
425.609	2973
425.683	808
425.758	1188
425.833	2092
425.908	2074
425.983	8870
426.058	24048
426.132	10595
426.207	4560
426.282	10342
426.357	8400
426.431	1490
426.506	1585
426.581	2124
426.655	2295
426.730	389
426.805	187
426.879	546
426.954	2239
427.029	5545
427.103	30042
427.178	66492
427.253	29597
427.327	4223
427.402	10094
427.476	16686
427.551	7117
427.625	3785
427.700	3787
427.774	1658
427.849	4637
427.923	1413
427.998	2164
428.072	3015
428.147	9034
428.221	27965
428.296	70468
428.370	32553
428.444	7714
428.519	14502
428.593	27351
428.667	23461
428.742	27779
428.816	25008
428.890	62091
428.965	76632
429.039	35253
429.113	29382
429.188	8335
429.262	1658
429.336	5920
429.410	15184
429.485	13013
429.559	22889
429.633	15751
429.707	4563
429.781	18230
429.855	76092
429.930	95678
430.004	83786
430.078	125394
430.152	91907
430.226	106569
430.300	93924
430.374	14660
430.448	9738
430.522	46389
430.596	109628
430.670	56020
430.744	82936
430.818	106642
430.892	20538
430.966	3299
431.040	2126
431.114	482
431.188	1592
431.262	2952
431.336	3953
431.410	14192
431.484	31826
431.557	16306
431.631	2355
431.705	1741
431.779	14874
431.853	60904
431.927	39753
432.000	4196
432.074	1878
432.148	6010
432.222	3763
432.295	1061
432.369	1028
432.443	5967
432.516	36953
432.590	74092
432.664	26855
432.737	2955
432.811	-244
432.885	-285
432.958	390
433.032	83
433.106	-301
433.179	-488
433.253	-508
433.326	220
433.400	-1109
433.473	954
433.547	-331
433.620	689
433.694	1709
433.767	5052
433.841	3152
433.914	350
433.988	-735
434.061	525
434.134	-143
434.208	-593
434.281	-897
434.355	-331
434.428	359
434.501	-97
434.575	848
434.648	1118
434.721	-549
434.795	-319
434.868	-990
434.941	-1148
435.014	-666
435.088	-235
435.161	310
435.234	1287
435.307	1674
435.381	792
435.454	1226
435.527	1460
435.600	1530
435.673	1008
435.746	-130
435.819	105
435.892	-709
435.966	579
436.039	451
436.112	1237
436.185	-440
436.258	-866
436.331	-1967
436.404	-580
436.477	-437
436.550	-370
436.623	-364
436.696	-892
436.769	371
436.842	1646
436.915	1430
436.987	2803
437.060	-172
437.133	-379
437.206	-841
437.279	1645
437.352	-759
437.425	680
437.498	216
437.570	2534
437.643	1233
437.716	371
437.789	-556
437.861	896
437.934	3915
438.007	2163
438.080	630
438.152	556
438.225	5845
438.298	46822
438.370	112828
438.443	40309
438.516	5631
438.588	1343
438.661	205
438.734	614
438.806	975
438.879	1650
438.951	767
439.024	1722
439.096	-116
439.169	474
439.241	-312
439.314	812
439.386	5251
439.459	12266
439.531	14481
439.604	3568
439.676	353
439.749	-470
439.821	-461
439.893	355
439.966	1671
440.038	1993
440.110	690
440.183	190
440.255	-295
440.327	2650
440.400	21971
440.472	68186
440.544	38780
440.617	4986
440.689	2275
440.761	3510
440.833	3395
440.905	2381
440.978	182
441.050	377
441.122	664
441.194	706
441.266	-440
441.338	-516
441.411	2162
441.483	16997
441.555	22818
441.627	6759
441.699	7066
441.771	9180
441.843	1777
441.915	-179
441.987	150
442.059	-180
442.131	1907
442.203	4580
442.275	6048
442.347	5259
442.419	5230
442.491	26437
442.563	60949
442.635	33573
442.706	30776
442.778	19921
442.850	2134
442.922	1447
442.994	3029
443.066	5220
443.137	2419
443.209	2644
443.281	4328
443.353	11749
443.425	41515
443.496	120580
443.568	107471
443.640	37516
443.711	7907
443.783	3831
443.855	1089
443.926	1783
443.998	2667
444.070	4214
444.141	2919
444.213	3390
444.285	5362
444.356	10041
444.428	8670
444.499	2132
444.571	249
444.642	971
444.714	979
444.785	3310
444.857	10287
444.928	25819
445.000	14020
445.071	18387
445.143	18251
445.214	8628
445.285	17024
445.357	48235
445.428	102692
445.500	205309
445.571	132031
445.642	59146
445.714	38067
445.785	40214
445.856	9433
445.928	3941
445.999	2291
446.070	2151
446.141	2105
446.213	4114
446.284	2800
446.355	5526
446.426	2361
446.497	3281
446.569	7723
446.640	9277
446.711	3731
446.782	3725
446.853	10034
446.924	7665
446.995	1247
447.066	3824
447.138	9185
447.209	4473
447.280	-171
447.351	304
447.422	-478
447.493	4159
447.564	3010
447.635	2395
447.706	281
447.777	-118
447.847	414
447.918	640
447.989	3924
448.060	7966
448.131	18704
448.202	11989
448.273	6103
448.344	2187
448.414	824
448.485	673
448.556	-701
448.627	361
448.698	421
448.768	643
448.839	1870
448.910	8650
448.981	6150
449.051	1327
449.122	177
449.193	-190
449.263	1131
449.334	615
449.405	1872
449.475	3810
449.546	5011
449.616	10009
449.687	7929
449.758	1354
449.828	470
449.899	788
449.969	928
450.040	917
450.110	6893
450.181	6258
450.251	1007
450.322	679
450.392	1558
450.463	1930
450.533	-40
450.604	1550
450.674	958
450.744	2009
450.815	355
450.885	1305
450.955	747
451.026	-138
451.096	771
451.166	3222
451.237	13510
451.307	28586
451.377	9776
451.447	1584
451.518	349
451.588	1368
451.658	1612
451.728	6941
451.799	31843
451.869	33075
451.939	7067
452.009	1510
452.079	454
452.149	2049
452.219	9403
452.289	36420
452.360	24230
452.430	3852
452.500	1755
452.570	2184
452.640	6333
452.710	22520
452.780	31187
452.850	14780
452.920	8929
452.990	4139
453.060	2086
453.129	4925
453.199	8455
453.269	45981
453.339	86477
453.409	127028
453.479	129725
453.549	187026
453.619	188076
453.688	73687
453.758	11210
453.828	4045
453.898	2510
453.968	2240
454.037	1722
454.087	2136
454.107	2285
454.168	1423
454.177	1279
454.247	809
454.249	856
454.316	1200
454.330	2117
454.386	4948
454.411	10254
454.456	18521
454.492	22014
454.525	25232
454.574	12631
454.595	7280
454.655	3016
454.665	2392
454.734	4606
454.736	4934
454.804	11523
454.817	16553
454.873	34714
454.898	37510
454.943	42054
454.979	29850
455.013	19472
455.060	10583
455.082	7018
455.141	8801
455.152	8752
455.221	27511
455.222	27920
455.291	41845
455.303	38733
455.360	26218
455.384	28142
455.430	30008
455.465	27071
455.499	24003
455.546	29389
455.569	30931
455.627	19486
455.638	17808
455.707	3648
455.708	3663
455.777	2054
455.789	2102
455.846	2169
455.869	2077
455.916	2059
455.950	2440
455.985	2520
456.031	2516
456.054	2544
456.112	1958
456.124	1946
456.193	2183
456.193	2148
456.262	4332
456.274	5119
456.332	7975
456.355	8927
456.401	9252
456.436	6742
456.470	4661
456.516	2206
456.540	1292
456.597	1139
456.609	1036
456.678	1074
456.678	1058
456.747	1267
456.759	1179
456.817	794
456.840	868
456.886	1072
456.920	1329
456.955	1915
457.001	2783
457.024	3759
457.082	6895
457.093	7381
457.162	13593
457.163	13679
457.232	14118
457.243	12573
457.301	5354
457.324	3444
457.370	1596
457.405	2033
457.439	2451
457.485	1912
457.508	1714
457.566	2478
457.577	2569
457.646	2217
457.647	2242
457.715	4390
457.727	4800
457.784	6617
457.808	8129
457.853	9700
457.889	11077
457.922	11681
457.969	9385
457.991	9575
458.050	10810
458.060	10991
458.129	17161
458.130	17346
458.198	15807
458.211	14074
458.267	8912
458.292	6896
458.336	5669
458.372	5895
458.405	7529
458.453	10129
458.474	11543
458.533	19229
458.543	19667
458.611	27859
458.614	27923
458.680	18231
458.694	14858
458.749	8520
458.775	6831
458.818	4876
458.855	4537
458.887	4087
458.936	4205
458.955	4449
459.016	4816
459.024	4721
459.093	4440
459.097	4383
459.162	4025
459.177	4200
459.230	4427
459.257	4403
459.299	4293
459.338	4428
459.368	4608
459.418	4643
459.437	4493
459.499	3839
459.505	3789
459.574	3063
459.579	3115
459.643	3789
459.659	3598
459.711	2851
459.740	3046
459.780	3957
459.820	4790
459.849	5263
459.900	6248
459.917	6093
459.981	4941
459.986	4870
460.054	4129
460.061	4081
460.123	4983
460.141	5066
460.191	5008
460.222	5231
460.260	5204
460.302	5736
460.328	5697
460.382	4570
460.397	4602
460.462	5427
460.465	5675
460.534	11493
460.543	12264
460.602	26443
460.623	32056
460.671	48579
460.703	64271
460.739	53967
460.783	36365
460.808	33196
460.864	12026
460.876	9699
460.944	5760
460.945	5699
461.013	5500
461.024	5305
461.081	4937
461.104	5151
461.150	5019
461.184	4526
461.218	4393
461.264	4445
461.286	4618
461.345	5005
461.355	5103
461.423	6163
461.425	6180
461.491	8174
461.505	8667
461.559	22476
461.585	29029
461.628	41642
461.665	55147
461.696	56632
461.745	62940
461.764	55280
461.825	15000
461.832	14214
461.901	7735
461.905	7683
461.969	5565
461.985	5304
462.037	6747
462.065	7360
462.105	10770
462.145	14268
462.173	19063
462.225	28854
462.241	31750
462.305	45916
462.310	44391
462.378	19250
462.385	15556
462.446	8347
462.465	7139
462.514	6314
462.545	6523
462.582	6315
462.625	6274
462.650	6461
462.705	6636
462.718	7354
462.785	11313
462.786	11414
462.854	16951
462.865	18076
462.922	21010
462.945	22137
462.990	15589
463.025	9007
463.058	8088
463.104	7049
463.126	6677
463.184	6616
463.194	6684
463.262	7013
463.264	7045
463.330	7722
463.344	7750
463.398	9654
463.424	10613
463.466	10289
463.504	10000
463.533	10019
463.583	9670
463.601	9970
463.663	11274
463.669	11830
463.737	18459
463.743	19053
463.805	34313
463.823	38849
463.873	57879
463.903	70080
463.940	68304
463.982	67665
464.008	53524
464.062	17606
464.076	16301
464.142	8735
464.144	8608
464.211	7189
464.221	7100
464.279	8190
464.301	8624
464.347	10162
464.381	11308
464.414	13430
464.461	16313
464.482	16428
464.540	17221
464.550	16492
464.617	10102
464.620	9865
464.685	9395
464.699	9365
464.753	10743
464.779	11630
464.820	13058
464.859	14047
464.888	15002
464.938	16784
464.956	16843
465.018	17132
465.023	16792
465.091	11859
465.098	11268
465.158	10719
465.177	10773
465.226	11332
465.257	11449
465.293	12069
465.336	12951
465.361	14251
465.416	17035
465.428	20073
465.495	36460
465.496	36678
465.563	61369
465.575	65748
465.631	74041
465.654	77746
465.698	45301
465.734	16441
465.765	14458
465.813	11445
465.833	11174
465.893	11914
465.900	11912
465.968	11665
465.972	11632
466.035	12292
466.052	12438
466.102	12756
466.131	12935
466.170	13068
466.210	13161
466.237	14060
466.290	15746
466.304	15968
466.369	16796
466.372	16818
466.439	16621
466.449	16555
466.506	21260
466.528	23042
466.573	37558
466.607	48294
466.641	66767
466.687	92455
466.708	98249
466.766	114359
466.775	104893
466.842	31646
466.845	28112
466.909	22271
466.925	21059
466.977	20778
467.004	20678
467.044	20384
467.083	20033
467.111	20651
467.163	21735
467.178	21795
467.242	21832
467.245	21830
467.312	21015
467.321	20872
467.379	21783
467.400	22050
467.446	25493
467.480	27905
467.559	19774
467.638	16943
467.717	17980
467.796	18936
467.875	19664
467.955	22912
468.034	51447
468.113	107407
468.192	144116
468.271	22708
468.350	16272
468.429	17684
468.508	16774
468.588	16626
468.667	16761
468.746	16609
468.825	16520
468.904	15438
468.983	23351
469.062	38456
469.141	42104
469.220	14602
469.299	15019
469.378	15243
469.456	14559
469.535	14759
469.614	15029
469.693	19347
469.772	28651
469.851	43638
469.930	19830
470.009	13460
470.088	11695
470.166	13771
470.245	14072
470.324	15697
470.403	12939
470.482	12076
470.560	11930
470.639	12800
470.718	15236
470.797	14569
470.875	21548
470.954	31312
471.033	31025
471.111	11874
471.190	10021
471.269	11039
471.347	10624
471.426	13559
471.505	15168
471.583	14188
471.662	12399
471.740	12088
471.819	12019
471.898	11184
471.976	10174
472.055	12845
472.133	16752
472.212	25927
472.290	25015
472.369	12980
472.447	11102
472.526	10570
472.604	12188
472.683	12451
472.761	12832
472.839	11087
472.918	11057
472.996	14655
473.075	18582
473.153	14743
473.231	13409
473.310	17127
473.388	14484
473.466	13571
473.545	13569
473.623	16794
473.701	14468
473.780	11695
473.858	11312
473.936	14080
474.014	12520
474.093	16857
474.171	31469
474.249	46988
474.327	21014
474.405	11450
474.484	10286
474.562	11462
474.640	11530
474.718	15760
474.796	13667
474.874	13305
474.952	10548
475.030	13186
475.108	13359
475.187	16161
475.265	17882
475.343	22537
475.421	21671
475.499	12797
475.577	14678
475.655	28109
475.733	64149
475.811	113834
475.889	96361
475.966	46881
476.044	14509
476.122	19552
476.200	22192
476.278	17469
476.356	14424
476.434	15607
476.512	19769
476.590	24270
476.667	17868
476.745	13432
476.823	13836
476.901	15926
476.979	16118
477.056	14957
477.134	14502
477.212	13534
477.290	12341
477.367	12559
477.445	12760
477.523	11995
477.601	12252
477.678	14403
477.756	20303
477.834	22780
477.911	13685
477.989	15397
478.066	14658
478.144	18168
478.222	18470
478.299	26777
478.377	19559
478.454	12608
478.532	11832
478.609	12123
478.687	12752
478.764	10732
478.842	11552
478.919	13543
478.997	12994
479.074	13808
479.152	19756
479.229	26229
479.307	12273
479.384	11072
479.461	11122
479.539	15201
479.616	18256
479.694	13699
479.771	16604
479.848	19730
479.926	28289
480.003	27260
480.080	11741
480.157	11609
480.235	12019
480.312	12755
480.389	20746
480.467	37517
480.544	42933
480.621	17126
480.698	15854
480.775	19909
480.853	20407
480.930	15306
481.007	16349
481.084	20339
481.161	22467
481.238	19093
481.315	14360
481.392	13530
481.470	14877
481.547	14881
481.624	13608
481.701	14015
481.778	14999
481.855	20135
481.932	36011
482.009	61029
482.086	29655
482.163	15349
482.240	21266
482.317	32639
482.393	21875
482.470	15115
482.547	16473
482.624	13735
482.701	14914
482.778	13093
482.855	10641
482.932	12269
483.009	11541
483.085	14354
483.162	16892
483.239	14946
483.316	11576
483.393	13513
483.469	13626
483.546	18102
483.623	19018
483.699	14271
483.776	14698
483.853	17265
483.930	36073
484.006	97949
484.083	147034
484.160	36628
484.236	38672
484.313	29909
484.389	26389
484.466	23647
484.543	22492
484.619	24650
484.696	27550
484.772	32468
484.849	34151
484.925	23348
485.002	22746
485.078	23546
485.155	24278
485.231	21357
485.308	21295
485.384	25692
485.461	43044
485.537	85208
485.614	89778
485.690	24126
485.766	20925
485.843	22636
485.919	27529
485.995	26124
486.072	19711
486.148	19750
486.224	19133
486.301	23224
486.377	27921
486.453	24179
486.530	23237
486.606	28893
486.682	37712
486.758	61290
486.835	72486
486.911	58884
486.987	101293
487.063	64207
487.139	55691
487.215	38592
487.292	23702
487.368	22697
487.444	24669
487.520	27417
487.596	25089
487.672	40660
487.748	82597
487.824	98600
487.900	35411
487.976	24488
488.052	27711
488.128	28407
488.204	23377
488.280	25209
488.356	42175
488.432	109868
488.508	149117
488.584	29121
488.660	18971
488.736	19606
488.812	19717
488.888	23582
488.964	30759
489.039	61007
489.115	80189
489.191	40908
489.267	23138
489.343	21748
489.418	16020
489.494	17474
489.570	15189
489.646	18648
489.722	18109
489.797	22807
489.873	56257
489.949	125847
490.024	77902
490.100	18674
490.176	17712
490.251	21207
490.327	23141
490.403	16084
490.478	14620
490.554	14350
490.629	13557
490.705	14373
490.781	17625
490.856	18428
490.932	19007
491.007	18278
491.083	18834
491.158	20345
491.234	41179
491.309	96715
491.385	79227
491.460	21009
491.536	21459
491.611	16445
491.686	17243
491.762	23354
491.837	43491
491.913	73784
491.988	106435
492.063	96615
492.139	51833
492.214	31418
492.289	14291
492.365	15686
492.440	18711
492.515	21352
492.590	19068
492.666	15966
492.741	30776
492.816	48857
492.891	18491
492.967	13208
493.042	12916
493.117	12501
493.192	14002
493.267	26117
493.342	65026
493.418	68846
493.493	14418
493.568	11294
493.643	12937
493.718	23363
493.793	36753
493.868	26554
493.943	13860
494.018	12740
494.093	14067
494.168	14702
494.243	10752
494.318	11188
494.393	11770
494.468	10132
494.543	10661
494.618	13353
494.693	11959
494.768	14227
494.842	13580
494.917	10676
494.992	10943
495.067	11021
495.142	10437
495.217	12331
495.292	11823
495.366	16146
495.441	19455
495.516	24496
495.591	34513
495.665	95300
495.740	170335
495.815	53667
495.890	22068
495.964	18322
496.039	20798
496.114	20461
496.188	21309
496.263	20680
496.338	20437
496.412	26417
496.487	28611
496.561	25316
496.636	24770
496.710	22782
496.785	27967
496.860	33699
496.934	23304
497.009	22524
497.083	22456
497.158	25152
497.232	32597
497.307	39622
497.381	32507
497.455	47045
497.530	59168
497.604	40284
497.679	48705
497.753	77316
497.827	89549
497.902	74171
497.976	95612
498.050	290991
498.125	865261
498.199	633526
498.273	95949
498.348	77614
498.422	64131
498.496	57184
498.570	48538
498.645	44064
498.719	44073
498.793	54597
498.867	84433
498.941	127949
499.016	412305
499.090	845533
499.164	188194
499.238	32804
499.312	29152
499.386	32107
499.460	32429
499.534	33143
499.609	40986
499.683	61889
499.757	63954
499.831	200057
499.905	629982
499.979	425984
500.053	78669
500.127	66056
500.201	34874
500.275	28944
500.349	28949
500.422	31822
500.496	45069
500.570	107205
500.644	357802
500.718	554511
500.792	80785
500.866	35208
500.940	46913
501.013	35084
501.087	31845
501.161	45668
501.235	81227
501.309	249395
501.382	590015
501.456	364248
501.530	105509
501.603	175051
501.677	50104
501.751	26121
501.825	35914
501.898	93788
501.972	230809
502.046	102523
502.119	36891
502.193	110991
502.266	236484
502.340	92137
502.413	123338
502.487	207897
502.561	105782
502.634	27424
502.708	20109
502.781	18386
502.855	16545
502.928	15341
503.002	16437
503.075	18772
503.149	21104
503.222	20317
503.295	22556
503.369	27825
503.442	53831
503.516	209227
503.589	433804
503.662	225024
503.736	86525
503.809	202427
503.882	143041
503.956	228059
504.029	149049
504.102	61010
504.175	56995
504.249	25743
504.322	28636
504.395	24617
504.468	17609
504.542	18637
504.615	12285
504.688	12570
504.761	12357
504.834	17423
504.907	16484
504.980	21452
505.053	14724
505.127	16376
505.200	24777
505.273	34572
505.346	18768
505.419	13658
505.492	13139
505.565	10873
505.638	11366
505.711	12650
505.784	12542
505.857	11637
505.930	14544
506.003	12641
506.076	17070
506.149	24492
506.221	27886
506.294	29690
506.367	110208
506.440	294945
506.513	104784
506.586	30930
506.659	14689
506.731	13577
506.804	17171
506.877	20691
506.950	17248
507.022	13782
507.095	22767
507.168	24010
507.241	11982
507.313	9692
507.386	11171
507.459	13654
507.531	9272
507.604	9304
507.677	10927
507.749	7979
507.822	12733
507.894	19817
507.967	17736
508.040	11308
508.112	10862
508.185	12279
508.257	9396
508.330	14948
508.402	10271
508.475	13285
508.547	14667
508.620	19556
508.692	32854
508.765	14173
508.837	9030
508.909	9892
508.982	10641
509.054	11959
509.127	9500
509.199	9354
509.271	9171
509.344	8526
509.416	8677
509.488	10153
509.560	10115
509.633	9888
509.705	11223
509.777	11578
509.849	13938
509.922	10329
509.994	9254
510.066	11190
510.138	9491
510.210	18400
510.283	14763
510.355	13275
510.427	10928
510.499	10573
510.571	10906
510.643	11898
510.715	16216
510.787	12818
510.859	14598
510.931	16487
511.003	16117
511.076	13847
511.148	11709
511.219	14264
511.291	33872
511.363	34598
511.435	10566
511.507	9993
511.579	11214
511.651	11509
511.723	9170
511.795	9759
511.867	11201
511.939	21897
512.010	55352
512.082	30327
512.154	9301
512.226	11557
512.298	14897
512.369	17451
512.441	14974
512.513	14624
512.585	10701
512.656	14308
512.728	14356
512.800	10392
512.871	13273
512.943	12570
513.015	7582
513.086	10292
513.158	10594
513.230	11554
513.301	16817
513.373	16628
513.444	9918
513.516	9144
513.588	9191
513.659	11247
513.731	11852
513.802	12404
513.874	24724
513.945	32393
514.016	10885
514.088	10736
514.159	10878
514.231	15215
514.302	15744
514.374	14452
514.445	20625
514.516	58017
514.588	30872
514.659	24304
514.730	48432
514.802	26839
514.873	20049
514.944	20807
515.016	14330
515.087	17846
515.158	35257
515.229	45256
515.301	25330
515.372	30140
515.443	16257
515.514	11688
515.585	9409
515.656	10305
515.728	10111
515.799	9069
515.870	9966
515.941	10563
516.012	10234
516.083	12950
516.154	12896
516.225	17624
516.296	16259
516.367	12716
516.438	13073
516.509	16230
516.580	26045
516.651	79534
516.722	197506
516.793	68347
516.864	30620
516.935	30476
517.006	31579
517.077	40485
517.148	84209
517.219	246067
517.289	317087
517.360	275183
517.431	71675
517.502	21601
517.573	20177
517.643	19981
517.714	19563
517.785	20833
517.856	21091
517.926	23725
517.997	24919
518.068	25958
518.138	31799
518.209	49300
518.280	193322
518.350	477477
518.421	121242
518.492	28279
518.562	29164
518.633	30564
518.703	24723
518.774	45139
518.845	89478
518.915	67679
518.986	31220
519.056	31451
519.127	47212
519.197	103949
519.268	304336
519.338	138837
519.408	33998
519.479	27585
519.549	18964
519.620	18532
519.690	13744
519.760	15514
519.831	14846
519.901	14605
519.971	15190
520.042	18598
520.112	22839
520.182	18623
520.253	17714
520.323	16282
520.393	20096
520.463	24829
520.534	24119
520.604	40762
520.674	23249
520.744	26990
520.814	42379
520.885	42596
520.955	134143
521.025	367774
521.095	89305
521.165	21265
521.235	19831
521.305	15143
521.375	13390
521.445	14766
521.515	15064
521.585	18503
521.655	14984
521.725	17310
521.795	16790
521.865	14842
521.935	32243
522.005	22208
522.075	13605
522.145	16175
522.215	20962
522.285	34134
522.355	57159
522.424	107332
522.494	68825
522.564	26012
522.634	46279
522.704	76861
522.774	22665
522.843	15315
522.913	14207
522.983	15388
523.053	11829
523.122	14318
523.192	18060
523.262	51561
523.331	31295
523.401	13477
523.471	9815
523.540	11617
523.610	8663
523.680	10755
523.749	12204
523.819	21136
523.888	17516
523.958	10987
524.027	12649
524.097	14472
524.166	11789
524.236	12089
524.305	14521
524.375	12337
524.444	10500
524.514	14984
524.583	16230
524.653	21876
524.722	22356
524.791	12651
524.861	12967
524.930	10826
524.999	11072
525.069	17215
525.138	19092
525.207	24075
525.277	13519
525.346	12944
525.415	12595
525.484	14122
525.554	20447
525.623	17487
525.692	14288
525.761	14685
525.830	14685
525.900	16493
525.969	26533
526.038	31860
526.107	60353
526.176	134491
526.245	85398
526.314	46224
526.383	84889
526.452	90871
526.522	186447
526.591	147847
526.660	48296
526.729	26242
526.797	32662
526.867	81669
526.935	281472
527.004	384332
527.073	136621
527.142	21911
527.211	15536
527.280	16461
527.349	13664
527.418	9928
527.487	11388
527.555	10032
527.624	8346
527.693	8121
527.762	11058
527.831	8684
527.899	10810
527.968	10186
528.037	8713
528.106	13353
528.174	20475
528.243	21992
528.312	36747
528.380	29758
528.449	11884
528.518	10787
528.586	6304
528.655	9656
528.723	9154
528.792	9147
528.861	10483
528.929	9219
528.998	9439
529.066	8149
529.135	8160
529.203	8728
529.272	8182
529.340	9419
529.409	10749
529.477	10817
529.545	18331
529.614	19302
529.682	21999
529.751	23958
529.819	24234
529.887	13968
529.956	10214
530.024	11963
530.092	8772
530.161	10815
530.229	12681
530.297	8872
530.365	9143
530.434	9276
530.502	8188
530.570	9045
530.638	7767
530.707	9476
530.775	10717
530.843	9576
530.911	8781
530.979	8980
531.047	9308
531.115	9754
531.183	9222
531.252	10736
531.320	9862
531.388	9306
531.456	9408
531.524	7730
531.592	9512
531.660	12114
531.728	9630
531.796	8993
531.864	8810
531.932	10522
532.000	8100
532.067	9151
532.135	11055
532.203	12175
532.271	11874
532.339	21616
532.407	37257
532.475	17720
532.542	12526
532.610	14300
532.678	20318
532.746	86211
532.814	122108
532.881	26023
532.949	11900
533.017	11859
533.084	10418
533.152	10581
533.220	10478
533.287	9678
533.355	9850
533.423	10761
533.490	9731
533.558	9658
533.625	11461
533.693	12686
533.761	10035
533.828	11144
533.896	9684
533.963	17893
534.031	19088
534.098	25472
534.166	12444
534.233	8982
534.300	11804
534.368	11422
534.435	10527
534.503	11482
534.570	10079
534.637	9566
534.705	10877
534.772	13405
534.840	20633
534.907	75546
534.974	60431
535.041	16411
535.109	18854
535.176	9566
535.243	8929
535.310	10196
535.378	7568
535.445	8097
535.512	8676
535.579	9881
535.646	8725
535.714	9445
535.781	10316
535.848	11605
535.915	12595
535.982	10577
536.049	10901
536.116	11628
536.183	10279
536.250	10389
536.317	10439
536.384	12528
536.451	16200
536.518	14545
536.585	11856
536.652	17244
536.719	19496
536.786	14415
536.853	12436
536.920	23169
536.987	28074
537.053	26354
537.120	82732
537.187	42138
537.254	10129
537.321	10079
537.388	10590
537.454	8744
537.521	8738
537.588	9248
537.654	11362
537.721	11623
537.788	11243
537.855	8514
537.921	10511
537.988	9497
538.055	11930
538.121	10775
538.188	10383
538.254	16260
538.321	25462
538.388	14658
538.454	11669
538.521	10155
538.587	8605
538.654	8761
538.720	8887
538.787	9666
538.853	11744
538.920	15802
538.986	16109
539.053	12689
539.119	11964
539.185	10954
539.252	13393
539.318	15977
539.385	14080
539.451	10421
539.517	10498
539.583	16485
539.650	35824
539.716	53673
539.782	13953
539.849	9994
539.915	11585
539.981	10986
540.047	11231
540.114	11159
540.180	12114
540.246	10288
540.312	14907
540.378	27798
540.444	22579
540.510	31810
540.576	53966
540.643	15854
540.709	9982
540.775	10070
540.841	12220
540.907	21587
540.973	26795
541.039	17034
541.105	15469
541.171	10386
541.237	10200
541.303	12097
541.369	13312
541.435	15288
541.500	22905
541.566	12687
541.632	9522
541.698	9988
541.764	9552
541.830	10225
541.896	9657
541.961	11230
542.027	9816
542.093	9432
542.159	10324
542.224	11755
542.290	16418
542.356	23760
542.421	22249
542.487	12569
542.553	11470
542.618	15110
542.684	9582
542.750	10973
542.815	14224
542.881	27679
542.947	61578
543.012	25728
543.078	8714
543.143	9502
543.209	10707
543.274	10524
543.340	12585
543.405	26961
543.471	24453
543.536	11260
543.602	11250
543.667	10484
543.732	10448
543.798	9627
543.863	10388
543.928	9304
543.994	9024
544.059	10740
544.124	9021
544.190	8784
544.255	9774
544.320	9124
544.386	9799
544.451	14537
544.516	14019
544.581	16737
544.646	45995
544.712	41135
544.777	15223
544.842	17495
544.907	19915
544.972	15782
545.037	15197
545.102	17988
545.168	15774
545.233	17182
545.298	18716
545.363	20435
545.428	19517
545.493	33069
545.558	44207
545.623	20451
545.688	16252
545.753	16314
545.818	16177
545.883	17800
545.947	15181
546.012	21437
546.077	19766
546.142	17573
546.207	15826
546.272	20187
546.337	18352
546.401	17942
546.466	16880
546.531	16364
546.596	19080
546.661	17692
546.725	16160
546.790	15658
546.855	16937
546.919	16776
546.984	18982
547.049	21077
547.113	25949
547.178	21222
547.243	25344
547.307	27731
547.372	33437
547.436	34965
547.501	23464
547.565	25449
547.630	28335
547.695	29736
547.759	40067
547.823	28513
547.888	23305
547.952	22087
548.017	26854
548.081	33399
548.146	45634
548.210	33357
548.274	24977
548.339	23665
548.403	22696
548.468	21649
548.532	21563
548.596	22741
548.660	22441
548.725	25853
548.789	33447
548.853	31884
548.917	27971
548.982	45367
549.046	37048
549.110	23937
549.174	22920
549.238	22665
549.303	22469
549.367	25317
549.431	23607
549.495	22233
549.559	21841
549.623	25086
549.687	28720
549.751	32978
549.815	30899
549.879	30423
549.943	27832
550.007	31574
550.071	30430
550.135	31627
550.199	28402
550.263	28158
550.327	35364
550.391	45105
550.455	30820
550.519	31113
550.582	30719
550.646	37554
550.710	35920
550.774	33588
550.838	33994
550.901	35097
550.965	36570
551.029	38626
551.093	43979
551.156	63594
551.220	126281
551.284	103022
551.347	65706
551.411	149872
551.475	113243
551.538	38618
551.602	32340
551.666	30273
551.729	27401
551.793	28744
551.856	27642
551.920	27360
551.983	27588
552.047	28223
552.110	26569
552.174	27600
552.237	26526
552.301	25614
552.364	26382
552.428	24929
552.491	26110
552.554	25827
552.618	26731
552.681	28366
552.745	28632
552.808	34352
552.871	35289
552.934	28925
552.998	29224
553.061	30207
553.124	25231
553.187	25203
553.251	27381
553.314	28214
553.377	26434
553.440	33284
553.503	55259
553.567	52745
553.630	27241
553.693	27184
553.756	26546
553.819	24818
553.882	25400
553.945	25638
554.008	24002
554.071	23865
554.134	24811
554.197	23970
554.260	22283
554.323	25896
554.386	24422
554.449	25339
554.512	24068
554.575	23200
554.638	25620
554.701	23472
554.764	22877
554.827	23108
554.889	21143
554.952	20288
555.015	20853
555.078	21364
555.141	20895
555.203	20278
555.266	20610
555.329	22077
555.391	18914
555.454	21216
555.517	19955
555.580	19695
555.642	18806
555.705	18750
555.768	18758
555.830	18815
555.893	18044
555.955	18939
556.018	18169
556.080	17975
556.143	18317
556.206	18817
556.268	20765
556.330	19968
556.393	19809
556.455	23444
556.518	38131
556.580	30134
556.643	16838
556.705	17695
556.767	15636
556.830	17375
556.892	19400
556.955	24206
557.017	18898
557.079	16904
557.142	17023
557.204	20568
557.266	29798
557.328	23774
557.391	16830
557.453	16190
557.515	16978
557.577	19599
557.639	18472
557.701	16386
557.764	16568
557.826	18572
557.888	18865
557.950	17716
558.012	18820
558.074	26563
558.136	58004
558.198	88858
558.260	31619
558.322	22205
558.384	22055
558.446	24097
558.508	27823
558.570	33135
558.632	44998
558.694	54860
558.756	83916
558.818	290773
558.880	449154
558.942	105430
559.003	97564
559.065	39171
559.127	24545
559.189	26805
559.251	27893
559.312	45977
559.374	132608
559.436	306425
559.498	90960
559.559	25005
559.621	24596
559.683	33548
559.744	66045
559.806	187315
559.868	165368
559.929	35991
559.991	32447
560.052	52118
560.114	100509
560.176	52492
560.237	73212
560.299	76429
560.360	23759
560.422	19554
560.483	18969
560.545	19238
560.606	17842
560.667	18707
560.729	17615
560.790	17295
560.852	17955
560.913	16790
560.974	16919
561.036	17407
561.097	16502
561.158	17502
561.220	16924
561.281	17591
561.342	17612
561.403	19011
561.465	21446
561.526	41788
561.587	35682
561.648	17367
561.709	17385
561.771	16647
561.832	16660
561.893	16870
561.954	16208
562.015	16033
562.076	15211
562.137	16442
562.198	16580
562.259	16272
562.320	16088
562.381	18135
562.442	19758
562.503	16832
562.564	15811
562.625	15736
562.686	15650
562.747	16830
562.808	16069
562.869	19251
562.930	24591
562.991	23236
563.051	19917
563.112	17872
563.173	16995
563.234	16312
563.294	16807
563.355	17052
563.416	17339
563.477	17941
563.537	19111
563.598	19854
563.659	18960
563.720	18608
563.780	18542
563.841	19229
563.901	17786
563.962	16689
564.023	18494
564.083	19040
564.144	17049
564.204	18910
564.265	19487
564.325	29540
564.386	60470
564.446	38480
564.507	18677
564.567	16868
564.628	15773
564.688	16378
564.749	18269
564.809	24173
564.869	26555
564.930	17372
564.990	16547
565.050	16338
565.111	15702
565.171	16070
565.231	15656
565.292	16666
565.352	15285
565.412	17061
565.472	17984
565.532	17969
565.593	15577
565.653	15782
565.713	17268
565.773	17790
565.833	20003
565.893	21109
565.953	17593
566.013	18170
566.074	21299
566.134	31445
566.194	52509
566.254	41168
566.314	26776
566.374	19278
566.434	19744
566.494	20626
566.554	19608
566.614	20479
566.673	20225
566.733	22326
566.793	23324
566.853	24045
566.913	24554
566.973	24163
567.033	24899
567.092	23332
567.152	23051
567.212	24764
567.272	27267
567.331	29492
567.391	28636
567.451	33981
567.511	46467
567.570	39172
567.630	25573
567.690	25720
567.749	25618
567.809	27437
567.868	30646
567.928	35268
567.988	42731
568.047	45455
568.107	57905
568.166	84153
568.226	136748
568.285	164924
568.345	128448
568.404	98539
568.464	83184
568.523	76774
568.582	79851
568.642	91940
568.701	124610
568.761	202009
568.820	294395
568.879	252691
568.939	180248
568.998	124154
569.057	89986
569.116	70359
569.176	56436
569.235	49441
569.294	42042
569.353	37960
569.413	33817
569.472	32125
569.531	28481
569.590	26274
569.649	24247
569.708	22878
569.767	24352
569.827	23447
569.886	19680
569.945	19411
570.004	19708
570.063	19939
570.122	19877
570.181	21654
570.240	25165
570.299	21788
570.358	18149
570.417	16096
570.475	16474
570.534	17570
570.593	16675
570.652	17663
570.711	17418
570.770	19088
570.829	20219
570.887	17206
570.946	16190
571.005	15446
571.064	14570
571.122	17985
571.181	20428
571.240	16320
571.299	14891
571.357	18502
571.416	19260
571.475	23603
571.533	21162
571.592	17906
571.650	17905
571.709	14170
571.768	14410
571.826	14500
571.885	14541
571.943	14670
572.002	15450
572.060	15522
572.119	12856
572.177	13403
572.236	12696
572.294	12520
572.352	12370
572.411	13292
572.469	12266
572.528	12679
572.586	12318
572.644	13471
572.703	14156
572.761	13135
572.819	13314
572.877	13387
572.936	11842
572.994	12715
573.052	11984
573.110	12714
573.169	12405
573.227	11627
573.285	11892
573.343	12706
573.401	12112
573.459	12668
573.517	12542
573.576	12433
573.634	12385
573.692	11919
573.750	12090
573.808	13372
573.866	15920
573.924	22744
573.982	19059
574.040	13232
574.098	12587
574.155	11820
574.213	11411
574.271	11954
574.329	11025
574.387	11117
574.445	10986
574.503	11626
574.560	9746
574.618	10068
574.676	10187
574.734	10145
574.792	9968
574.849	10534
574.907	10471
574.965	10144
575.022	10637
575.080	10074
575.138	10461
575.195	11997
575.253	10487
575.311	11419
575.368	9631
575.426	11698
575.483	10443
575.541	11256
575.598	11017
575.656	12825
575.713	11730
575.771	10552
575.828	10553
575.886	10945
575.943	12553
576.001	13408
576.058	12796
576.115	15300
576.173	18846
576.230	19671
576.287	16627
576.345	14944
576.402	13591
576.459	14429
576.517	15367
576.574	17511
576.631	18320
576.688	14078
576.746	12954
576.803	13110
576.860	12763
576.917	13659
576.974	12800
577.031	12406
577.089	13520
577.146	14288
577.203	13215
577.260	15442
577.317	17145
577.374	20730
577.431	16752
577.488	12636
577.545	11789
577.602	12681
577.659	11708
577.716	12035
577.773	11689
577.830	11297
577.886	11357
577.943	11668
578.000	12575
578.057	13581
578.114	12735
578.171	12264
578.227	12560
578.284	12364
578.341	12869
578.398	12967
578.454	13955
578.511	19329
578.568	20879
578.625	15884
578.681	12196
578.738	12974
578.794	12407
578.851	11940
578.908	10890
578.964	11097
579.021	12060
579.077	12402
579.134	12034
579.190	11740
579.247	11624
579.303	11415
579.360	10679
579.416	11618
579.473	10359
579.529	10990
579.586	10609
579.642	11832
579.698	12371
579.755	13147
579.811	12248
579.867	12064
579.924	10887
579.980	11880
580.036	12351
580.093	12981
580.149	15164
580.205	15433
580.261	12986
580.317	14769
580.374	16201
580.430	19869
580.486	16394
580.542	13938
580.598	12281
580.619	12776
580.654	13649
580.692	12706
580.710	12258
580.765	13314
580.767	13362
580.823	12871
580.838	12695
580.879	12279
580.911	12037
580.935	11872
580.984	11880
580.991	11904
581.047	13107
581.057	13121
581.103	13194
581.130	13925
581.159	14728
581.203	14095
581.215	13934
581.270	14604
581.276	14530
581.326	14014
581.349	13910
581.382	13717
581.422	14009
581.438	14176
581.494	13034
581.494	13028
581.550	13263
581.567	13388
581.606	13604
581.640	13095
581.661	12832
581.713	13547
581.717	13617
581.773	14279
581.786	13969
581.829	12921
581.859	13248
581.885	13593
581.932	14310
581.940	14449
581.996	14753
582.004	14559
582.052	13391
582.077	13415
582.107	13523
582.150	13818
582.163	13923
582.219	14486
582.223	14432
582.274	13795
582.296	14488
582.330	15617
582.368	15030
582.386	14809
582.441	13305
582.441	13306
582.497	12962
582.514	12880
582.552	12931
582.587	13646
582.608	13980
582.659	14015
582.663	14035
582.719	14017
582.732	13948
582.774	13626
582.805	13781
582.830	14003
582.877	14462
582.885	14513
582.941	14495
582.950	14441
582.996	14335
583.023	14471
583.052	14735
583.095	14948
583.107	14920
583.162	16395
583.168	16348
583.218	16011
583.240	15073
583.273	13676
583.313	14181
583.328	14473
583.384	15388
583.385	15392
583.439	15014
583.458	14791
583.494	14469
583.531	14163
583.549	14088
583.603	14323
583.605	14326
583.660	15052
583.676	15124
583.715	15253
583.748	15634
583.770	15972
583.820	16104
583.825	16076
583.881	14685
583.893	14666
583.936	15029
583.965	15390
583.991	15548
584.038	15327
584.046	15269
584.101	15735
584.110	15649
584.156	15426
584.183	15521
584.211	15524
584.255	14868
584.266	14708
584.321	15325
584.328	15320
584.376	15589
584.400	15899
584.431	16018
584.472	15240
584.486	14990
584.541	16222
584.545	16208
584.596	15937
584.617	16082
584.651	16774
584.689	17810
584.706	18001
584.761	17275
584.762	17280
584.816	17981
584.834	18121
584.871	18442
584.906	18337
584.926	18134
584.978	17980
584.980	17991
585.035	19193
585.051	19582
585.090	20404
585.123	20347
585.145	20490
585.195	21979
585.200	22119
585.254	22090
585.267	22772
585.309	24959
585.340	25652
585.364	25967
585.412	26279
585.419	26400
585.473	28455
585.484	29173
585.528	33356
585.556	38061
585.583	46077
585.628	65419
585.637	72268
585.692	136029
585.700	142632
585.747	161067
585.772	138181
585.801	86933
585.845	41469
585.856	37274
585.910	29067
585.917	28262
585.965	27326
585.989	26588
586.019	26113
586.061	26012
586.074	25994
586.128	27059
586.133	27124
586.183	28143
586.205	28412
586.237	28852
586.277	29570
586.292	29804
586.346	29713
586.349	29763
586.401	30382
586.421	30849
586.455	32226
586.493	35331
586.509	37914
586.564	49562
586.565	50030
586.618	72600
586.637	69862
586.672	53047
586.709	41206
586.727	37818
586.781	35242
586.781	35245
586.835	34526
586.853	34443
586.889	34987
586.925	35447
586.944	35476
586.996	36350
586.998	36404
587.052	38833
587.068	39033
587.106	39526
587.140	40310
587.161	40919
587.212	42940
587.215	43044
587.269	45640
587.284	45802
587.323	46239
587.356	47879
587.377	49170
587.427	51520
587.431	51709
587.485	54651
587.499	55131
587.539	56576
587.571	58798
587.593	60747
587.643	64767
587.648	65210
587.702	69933
587.715	71258
587.755	75742
587.786	78744
587.810	80630
587.858	85119
587.864	85964
587.917	95820
587.930	98031
587.971	106228
588.001	112418
588.025	117430
588.073	126966
588.079	128441
588.133	143221
588.145	146851
588.187	162097
588.217	173440
588.241	184473
588.288	207551
588.295	211225
588.348	243259
588.360	250473
588.402	282353
588.431	306901
588.456	331355
588.503	381351
588.510	390471
588.564	469937
588.575	488685
588.617	582751
588.646	655200
588.671	742244
588.718	925147
588.725	965600
588.778	1306077
588.789	1379137
588.832	1721752
588.861	1943652
588.886	2023047
588.932	2028489
588.939	2007427
588.993	1869072
589.004	1860638
589.047	1998102
589.075	1987754
589.100	1779190
589.147	1378143
589.154	1335195
589.207	1037076
589.218	982230
589.261	905184
589.290	866448
589.314	892096
589.361	965671
589.368	997390
589.421	1288501
589.433	1355669
589.475	1692461
589.504	1898472
589.528	1924665
589.576	1888809
589.582	1878033
589.635	1809867
589.647	1767192
589.689	1358637
589.718	1080236
589.742	916597
589.790	619094
589.795	601922
589.849	454359
589.861	422339
589.902	365629
589.932	321384
589.955	293231
590.004	238770
590.009	235610
590.062	202123
590.075	194053
590.115	175949
590.146	162405
590.168	155718
590.218	140538
590.222	139679
590.275	128191
590.289	124993
590.328	117168
590.360	111022
590.381	107733
590.431	99509
590.435	99175
590.488	92212
590.503	90319
590.541	86212
590.574	82733
590.594	81209
590.645	76717
590.647	76623
590.700	72657
590.716	71311
590.753	68486
590.787	65991
590.806	64868
590.859	61303
590.859	61323
590.912	59174
590.930	58516
590.965	57476
591.001	56148
591.018	55679
591.071	54282
591.072	54210
591.124	52030
591.143	51238
591.177	50633
591.214	49863
591.230	49719
591.283	49033
591.285	48960
591.336	48579
591.356	48296
591.389	47217
591.427	45803
591.442	45359
591.495	43607
591.498	43436
591.547	42583
591.569	42137
591.600	41402
591.640	40408
591.653	40586
591.706	41090
591.711	41113
591.759	41930
591.782	42451
591.811	43502
591.853	44503
591.864	43700
591.917	39321
591.924	38688
591.969	37322
591.995	36498
592.022	36745
592.066	37084
592.075	37693
592.127	41285
592.137	41977
592.180	44308
592.208	45429
592.233	42193
592.279	36025
592.285	35871
592.338	34467
592.350	34129
592.390	33578
592.421	33079
592.443	32897
592.491	32495
592.495	32588
592.548	33531
592.562	33771
592.600	33110
592.633	32481
592.653	32045
592.704	30683
592.705	30876
592.775	31802
592.846	31484
592.916	30789
592.987	31093
593.058	30143
593.128	29464
593.199	29090
593.270	28952
593.341	28151
593.411	28557
593.482	27806
593.553	28835
593.623	27473
593.694	28645
593.764	29965
593.835	27761
593.906	27194
593.976	27261
594.047	27920
594.117	32899
594.188	33715
594.258	26653
594.329	25395
594.399	26423
594.470	26228
594.540	27250
594.611	26466
594.681	26660
594.751	27442
594.822	30444
594.892	31102
594.963	29860
595.033	29727
595.103	29697
595.174	32425
595.244	43014
595.314	51279
595.384	30827
595.455	28954
595.525	29315
595.595	28662
595.665	29988
595.736	29569
595.806	29048
595.876	28257
595.946	29183
596.016	28444
596.087	29652
596.157	29474
596.227	28959
596.297	31079
596.367	31787
596.437	35779
596.507	44217
596.577	52096
596.647	33826
596.717	33274
596.787	33084
596.857	32553
596.927	33143
596.997	32939
597.067	33901
597.137	35216
597.207	33871
597.277	32681
597.347	32815
597.417	32254
597.487	33239
597.557	32881
597.626	33716
597.696	36652
597.766	41626
597.836	51246
597.906	34676
597.975	32227
598.045	30749
598.115	31334
598.185	33310
598.254	35442
598.324	37331
598.394	38550
598.464	36736
598.533	35970
598.603	32563
598.672	34248
598.742	34205
598.812	34995
598.881	34656
598.951	32810
599.020	33835
599.090	34715
599.159	36285
599.229	34912
599.299	33328
599.368	34127
599.437	33673
599.507	32620
599.576	33556
599.646	31815
599.715	32654
599.785	32408
599.854	33696
599.924	35607
599.993	33489
600.062	31236
600.132	31280
600.201	32965
600.270	37690
600.340	37107
600.409	35959
600.478	36228
600.547	35519
600.617	35292
600.686	31408
600.755	29896
600.824	29196
600.894	29237
600.963	27736
601.032	27003
601.101	27360
601.170	26581
601.239	26345
601.308	27813
601.378	28478
601.447	26576
601.516	26262
601.585	27981
601.654	30642
601.723	28243
601.792	27873
601.861	29086
601.930	30631
601.999	30383
602.068	30539
602.137	32784
602.206	31475
602.275	30932
602.343	31357
602.412	32052
602.481	30521
602.550	29702
602.619	29764
602.688	30882
602.756	30361
602.825	29812
602.894	30380
602.963	30952
603.032	31998
603.100	30472
603.169	31385
603.238	32318
603.307	31387
603.375	32223
603.444	32915
603.513	32559
603.581	33068
603.650	32812
603.719	31063
603.787	30424
603.856	31622
603.924	33100
603.993	33054
604.061	33940
604.130	35185
604.198	35212
604.267	36042
604.335	35243
604.404	36881
604.472	37192
604.541	37281
604.609	37411
604.678	37938
604.746	36835
604.815	39094
604.883	40301
604.951	39104
605.020	40731
605.088	40344
605.156	39608
605.225	41407
605.293	40439
605.361	40093
605.429	40374
605.498	40871
605.566	42783
605.634	44560
605.702	43625
605.771	46661
605.839	46445
605.907	44056
605.975	43461
606.043	42399
606.111	42657
606.180	43943
606.248	41927
606.316	43688
606.384	43936
606.452	47168
606.520	43586
606.588	42968
606.656	40605
606.724	40157
606.792	38824
606.860	35488
606.928	31800
606.996	32635
607.064	31093
607.132	32259
607.200	32987
607.267	34579
607.335	35214
607.403	35766
607.471	34317
607.539	35135
607.607	33560
607.674	31085
607.742	31621
607.810	31182
607.878	31760
607.946	30748
608.013	32299
608.081	32323
608.149	33254
608.216	33238
608.284	35257
608.352	34394
608.419	35934
608.487	43532
608.555	36482
608.622	33990
608.690	36029
608.757	38961
608.825	39596
608.893	38608
608.960	38067
609.028	40212
609.095	46595
609.163	37157
609.230	33441
609.298	30941
609.365	30412
609.432	32842
609.500	35738
609.567	40436
609.635	45379
609.702	46824
609.769	46261
609.837	39119
609.904	34387
609.971	33664
610.039	40583
610.106	55525
610.173	109530
610.241	256338
610.308	146405
610.375	50040
610.442	35617
610.509	32919
610.577	33838
610.644	32495
610.711	34124
610.778	34399
610.845	35054
610.912	37816
610.980	40726
611.047	40845
611.114	39372
611.181	37151
611.248	36538
611.315	39219
611.382	39264
611.449	41026
611.516	42581
611.583	42537
611.650	41345
611.717	43054
611.784	43721
611.851	47135
611.918	52190
611.984	65101
612.051	104939
612.118	231855
612.185	590792
612.252	355314
612.319	78374
612.386	57207
612.452	51768
612.519	51628
612.586	58873
612.653	52168
612.719	47636
612.786	45858
612.853	42560
612.919	41701
612.986	42403
613.053	40378
613.120	37050
613.186	36674
613.253	37855
613.319	37147
613.386	37197
613.453	37725
613.519	40185
613.586	39800
613.652	46326
613.719	42172
613.785	41192
613.852	38872
613.918	36811
613.985	40189
614.051	44369
614.118	58657
614.184	54805
614.250	38928
614.317	38157
614.383	37176
614.449	38408
614.516	38637
614.582	39220
614.648	38002
614.715	37796
614.781	36618
614.847	37796
614.914	38401
614.980	37275
615.046	38090
615.112	39164
615.179	39596
615.245	43707
615.311	51523
615.377	78162
615.443	85964
615.509	55792
615.575	47967
615.642	44889
615.708	46530
615.774	51721
615.840	57896
615.906	73505
615.972	112305
616.038	215975
616.104	380037
616.170	784006
616.236	637829
616.302	132773
616.368	85176
616.434	60080
616.500	56079
616.565	60300
616.631	72762
616.697	60062
616.763	62290
616.829	94121
616.895	168946
616.961	158032
617.026	68808
617.092	45356
617.158	42409
617.224	39891
617.289	38840
617.355	36274
617.421	35469
617.487	36718
617.552	33445
617.618	33068
617.684	33817
617.749	34823
617.815	31235
617.880	31460
617.946	30707
618.012	32943
618.077	32181
618.143	31074
618.208	30615
618.274	33208
618.339	35083
618.405	27991
618.470	30342
618.536	30467
618.601	32282
618.667	28630
618.732	27719
618.798	26362
618.863	26283
618.928	25749
618.994	27742
619.059	30008
619.124	32048
619.190	28423
619.255	26416
619.320	26764
619.386	26147
619.451	25347
619.516	24810
619.581	25786
619.647	26211
619.712	26788
619.777	24768
619.842	26119
619.907	26211
619.972	25981
620.038	25550
620.103	25085
620.168	23723
620.233	26389
620.298	25360
620.363	25531
620.428	26845
620.493	26220
620.558	26062
620.623	26440
620.688	26783
620.753	26473
620.818	25905
620.883	26992
620.948	26175
621.013	26302
621.078	27267
621.143	26731
621.207	30529
621.272	28167
621.337	28466
621.402	30392
621.467	36134
621.532	37631
621.596	30611
621.661	28132
621.726	27258
621.791	27667
621.855	28399
621.920	28825
621.985	31500
622.049	35500
622.114	33004
622.179	30778
622.243	31232
622.308	30332
622.373	32485
622.437	30652
622.502	28718
622.566	29781
622.631	28860
622.695	30675
622.760	29400
622.824	29216
622.889	30062
622.953	30370
623.018	36622
623.082	35387
623.147	31230
623.211	29277
623.276	30080
623.340	27262
623.404	27406
623.469	27522
623.533	27990
623.597	26645
623.662	26241
623.726	25823
623.790	24364
623.854	24713
623.919	25293
623.983	25065
624.047	25509
624.111	25176
624.176	25738
624.240	24749
624.304	28610
624.368	25649
624.432	26173
624.496	26780
624.560	28799
624.625	29370
624.689	27650
624.753	27517
624.817	27348
624.881	26397
624.945	24379
625.009	23408
625.073	23814
625.137	24026
625.201	28740
625.265	28301
625.329	25193
625.393	26768
625.456	26507
625.520	27630
625.584	30414
625.648	37165
625.712	54325
625.776	112482
625.839	122737
625.903	50237
625.967	30363
626.031	49292
626.095	71981
626.158	32221
626.222	20527
626.286	20404
626.349	18579
626.413	18255
626.477	20124
626.540	18912
626.604	18843
626.668	19242
626.731	17738
626.795	18735
626.858	19295
626.922	18128
626.986	17795
627.049	16383
627.113	18804
627.176	16821
627.240	16955
627.303	17209
627.366	17834
627.430	17626
627.493	17251
627.557	17257
627.620	18996
627.684	17724
627.747	18041
627.810	15497
627.874	16437
627.937	15152
628.000	18293
628.064	15779
628.127	13519
628.190	15781
628.253	14790
628.317	13485
628.380	14213
628.443	13639
628.506	14077
628.569	13341
628.632	12859
628.696	13342
628.759	12804
628.822	12572
628.885	11591
628.948	12620
629.011	13079
629.074	12310
629.137	12135
629.200	11926
629.263	13814
629.326	10576
629.389	10615
629.452	13273
629.515	12002
629.578	12409
629.641	13032
629.704	11407
629.767	12655
629.830	11516
629.892	11517
629.955	11215
630.018	13503
630.081	12212
630.144	14300
630.207	11596
630.269	14382
630.332	14501
630.395	12764
630.458	11382
630.520	9752
630.583	11920
630.646	11177
630.708	10814
630.771	10026
630.834	11490
630.896	10249
630.959	10499
631.021	10174
631.084	11356
631.146	12269
631.209	15035
631.272	11039
631.334	10877
631.397	11108
631.459	9912
631.522	11626
631.584	11498
631.646	13225
631.709	13372
631.771	15417
631.834	13089
631.896	12352
631.958	9829
632.021	11090
632.083	9381
632.145	10999
632.208	10222
632.270	10984
632.332	9168
632.395	9663
632.457	11468
632.519	9641
632.581	10610
632.643	9410
632.706	10103
632.768	9452
632.830	10834
632.892	10048
632.954	9275
633.016	10550
633.078	9791
633.141	9202
633.203	8995
633.265	10023
633.327	9829
633.389	9376
633.451	10934
633.513	11957
633.575	13571
633.637	11638
633.698	9704
633.760	10296
633.822	10581
633.884	10332
633.946	10692
634.008	10291
634.070	11645
634.132	12355
634.193	11987
634.255	13096
634.317	13394
634.379	14475
634.441	11288
634.502	11688
634.564	12244
634.626	13641
634.687	14066
634.749	11218
634.811	9386
634.873	9065
634.934	8704
634.996	9411
635.057	7936
635.119	8478
635.181	10598
635.242	10043
635.304	7599
635.365	11209
635.427	8092
635.488	9490
635.550	9243
635.611	9974
635.673	7580
635.734	11337
635.796	10703
635.857	12283
635.918	10696
635.980	12326
636.041	12743
636.102	14517
636.164	14294
636.225	14186
636.286	9937
636.348	11068
636.409	10058
636.470	9377
636.531	10274
636.593	11326
636.654	10162
636.715	8082
636.776	8018
636.838	6848
636.899	8257
636.960	8107
637.021	8367
637.082	9149
637.143	10198
637.204	6444
637.265	6916
637.326	7670
637.387	7981
637.448	6214
637.509	7637
637.570	7594
637.631	7905
637.692	5833
637.753	6137
637.814	7243
637.875	6835
637.936	8683
637.997	6362
638.058	7419
638.119	8189
638.179	7333
638.240	6366
638.301	6708
638.362	6288
638.423	6957
638.483	7876
638.544	5490
638.605	7146
638.666	5699
638.726	7056
638.787	7491
638.848	6532
638.908	6694
638.969	7446
639.030	6259
639.090	5362
639.151	5563
639.211	7493
639.272	7641
639.332	11622
639.393	8073
639.453	6323
639.514	7016
639.574	6144
639.635	5752
639.695	6642
639.756	4930
639.816	6601
639.877	7365
639.937	10842
639.997	12414
640.058	5507
640.118	5450
640.178	6266
640.239	6091
640.299	5978
640.359	5772
640.420	7385
640.480	6420
640.540	7181
640.600	6572
640.661	7958
640.721	6199
640.781	8829
640.841	6365
640.901	7026
640.961	6620
641.021	6551
641.082	7323
641.142	8056
641.202	7876
641.262	4259
641.322	6270
641.382	5221
641.442	6093
641.502	5885
641.562	6745
641.622	5605
641.682	5713
641.742	6659
641.802	7183
641.861	7002
641.921	6408
641.981	7657
642.041	7069
642.101	7286
642.161	3504
642.221	4964
642.280	4868
642.340	5295
642.400	4272
642.460	5745
642.519	4894
642.579	4717
642.639	7107
642.698	3740
642.758	7785
642.818	5292
642.877	4183
642.937	6241
642.997	6439
643.056	8639
643.116	5101
643.175	6958
643.235	5640
643.294	5423
643.354	7138
643.414	7687
643.473	9992
643.532	11520
643.592	15857
643.651	27034
643.711	49521
643.770	97826
643.830	242058
643.889	510364
643.948	112597
644.008	18331
644.067	11659
644.126	8630
644.186	7350
644.245	6777
644.304	4376
644.363	7717
644.423	4581
644.482	5980
644.541	6496
644.600	3935
644.659	8415
644.719	8746
644.778	13680
644.837	22009
644.896	46495
644.955	106125
645.014	34712
645.073	9244
645.132	6613
645.191	6598
645.250	5792
645.309	6826
645.368	6532
645.427	8480
645.486	11952
645.545	20629
645.604	7783
645.663	5758
645.722	5523
645.781	7541
645.840	8226
645.898	9457
645.957	16418
646.016	22677
646.075	43642
646.134	86921
646.192	237748
646.251	341894
646.310	45842
646.369	12778
646.427	9485
646.486	7121
646.545	6727
646.603	5752
646.662	5977
646.721	6075
646.779	4631
646.838	4780
646.896	7046
646.955	9317
647.014	13995
647.072	23023
647.131	64981
647.189	29789
647.248	6072
647.306	4904
647.365	5244
647.423	3300
647.481	5020
647.540	2257
647.598	3850
647.657	4159
647.715	4894
647.773	3058
647.832	4686
647.890	3084
647.948	3231
648.007	4223
648.065	3870
648.123	3020
648.181	5958
648.240	4591
648.298	3294
648.356	4210
648.414	5185
648.472	4097
648.531	5052
648.589	3924
648.647	4000
648.705	4409
648.763	4511
648.821	4028
648.879	3947
648.937	5074
648.995	6252
649.053	6615
649.111	11586
649.169	18955
649.227	33000
649.285	69162
649.343	196607
649.401	89296
649.459	19582
649.516	13598
649.574	8633
649.632	14697
649.690	17035
649.748	9710
649.806	10947
649.863	19800
649.921	45776
649.979	29812
650.037	6224
650.094	3295
650.152	4739
650.210	3190
650.268	4207
650.325	4299
650.383	4323
650.440	2296
650.498	4012
650.556	3907
650.613	3021
650.671	3571
650.728	3737
650.786	4040
650.843	4594
650.901	2588
650.958	2862
651.016	3106
651.073	3079
651.131	2452
651.188	1759
651.246	3818
651.303	3373
651.360	3236
651.418	2608
651.475	2569
651.532	1819
651.590	3187
651.647	2978
651.704	3744
651.762	2462
651.819	3111
651.876	2682
651.933	2470
651.990	4083
652.048	1286
652.105	2922
652.162	2750
652.219	2023
652.276	3051
652.333	2954
652.390	1779
652.448	3370
652.505	2524
652.562	2758
652.619	3016
652.676	3547
652.733	4329
652.790	3040
652.847	1252
652.904	2764
652.961	1820
653.017	1004
653.074	2736
653.131	2487
653.188	1785
653.245	2731
653.302	1739
653.359	2381
653.415	2722
653.472	1730
653.529	3152
653.586	2637
653.642	1847
653.699	2410
653.756	1731
653.813	1784
653.869	2801
653.926	1874
653.983	2170
654.039	2975
654.096	2858
654.152	3098
654.209	1451
654.266	3651
654.322	2145
654.379	3932
654.435	3774
654.492	2996
654.548	4871
654.605	8295
654.661	4464
654.717	3384
654.774	2216
654.830	2634
654.887	3074
654.943	3829
655.000	4159
655.056	2738
655.112	2946
655.168	2196
655.225	3317
655.281	4809
655.337	5627
655.394	9593
655.450	7301
655.506	6254
655.562	9958
655.618	8662
655.675	3616
655.731	3676
655.787	3018
655.843	4374
655.899	2635
655.955	3844
656.011	4220
656.067	4343
656.123	5151
656.179	5782
656.235	7298
656.291	3695
656.347	5660
656.403	4346
656.459	4230
656.515	4542
656.571	4526
656.627	4251
656.683	3347
656.739	3606
656.795	3406
656.850	2882
656.906	3515
656.962	3361
657.018	1779
657.074	2531
657.129	3460
657.185	4009
657.241	6295
657.297	4109
657.352	2374
657.408	2103
657.464	3974
657.519	2733
657.575	1599
657.630	2533
657.686	2530
657.742	1515
657.797	2117
657.853	1754
657.908	3858
657.964	2557
658.019	1714
658.075	2288
658.130	2890
658.186	1400
658.241	2744
658.297	1347
658.352	1672
658.407	2825
658.463	1371
658.518	2906
658.573	2232
658.629	1965
658.684	2472
658.739	2604
658.795	1607
658.850	2742
658.905	1638
658.960	2685
659.016	1453
659.071	2573
659.126	2664
659.181	2035
659.236	4221
659.291	4437
659.346	2230
659.401	2841
659.457	2945
659.512	2326
659.567	3301
659.622	2406
659.677	2699
659.732	1195
659.787	2564
659.842	3483
659.897	4435
659.952	2983
660.007	1475
660.061	2729
660.116	2137
660.171	1827
660.226	1320
660.281	2776
660.336	1322
660.391	2823
660.445	1357
660.500	2618
660.555	1930
660.610	2543
660.664	2577
660.719	2663
660.774	2487
660.828	2372
660.883	1868
660.938	2559
660.992	1331
661.047	2219
661.101	1849
661.156	1676
661.211	1475
661.265	1921
661.320	1623
661.374	2455
661.429	1462
661.483	3406
661.538	1030
661.592	2744
661.647	2402
661.701	2399
661.755	2340
661.810	2155
661.864	2058
661.919	2166
661.973	2077
662.027	2862
662.081	1632
662.136	1755
662.190	2040
662.244	2838
662.299	1875
662.353	2262
662.407	1827
662.461	2309
662.515	1876
662.569	1647
662.624	3228
662.678	2418
662.732	1522
662.786	2191
662.840	2267
662.894	2850
662.948	1859
663.002	2184
663.056	2348
663.110	2531
663.164	2137
663.218	2145
663.272	1893
663.326	3377
663.380	1781
663.434	2571
663.488	2307
663.542	2827
663.595	2286
663.649	2163
663.703	2259
663.757	2607
663.811	2170
663.864	1595
663.918	2064
663.972	1614
664.026	3474
664.079	1715
664.133	2839
664.187	2558
664.240	1455
664.294	2061
664.348	2278
664.401	2104
664.455	2559
664.508	2161
664.562	2465
664.615	2499
664.669	1741
664.722	1813
664.776	2620
664.829	1991
664.883	2515
664.936	2130
664.990	2050
665.043	3235
665.097	2348
665.150	3479
665.203	2710
665.257	2586
665.310	2824
665.363	2551
665.417	3311
665.470	3019
665.523	2725
665.576	3020
665.630	2555
665.683	2778
665.736	2150
665.789	2363
665.842	1875
665.895	3013
665.949	2572
666.002	2427
666.055	1827
666.108	2907
666.161	2972
666.214	3353
666.267	2831
666.320	3476
666.373	3586
666.426	3051
666.479	2574
666.532	3432
666.585	2498
666.638	4360
666.691	3801
666.744	4132
666.796	4315
666.849	3732
666.902	3395
666.955	2497
667.008	2668
667.060	2656
667.113	1320
667.166	1941
667.219	1843
667.271	2218
667.324	1834
667.377	2173
667.430	2681
667.482	3227
667.535	2464
667.587	3093
667.640	2929
667.693	3723
667.745	4112
667.798	5371
667.850	3442
667.903	2283
667.955	3282
668.008	2584
668.060	2668
668.113	3219
668.165	3527
668.218	3022
668.270	3044
668.322	2972
668.375	2184
668.427	3165
668.479	2662
668.532	2945
668.584	3670
668.636	2366
668.689	2916
668.741	2619
668.793	2631
668.845	2950
668.898	2338
668.950	2133
669.002	2776
669.054	3480
669.106	2666
669.158	3219
669.211	2566
669.263	3174
669.315	3518
669.367	2477
669.419	2346
669.471	4328
669.523	3845
669.575	5492
669.627	3745
669.679	3076
669.731	2766
669.783	2861
669.835	3472
669.886	3082
669.938	3254
669.990	2711
670.042	2068
670.094	2537
670.146	2287
670.197	3071
670.249	3058
670.301	3780
670.353	4345
670.404	6579
670.456	7216
670.508	10310
670.560	16251
670.611	27761
670.663	47551
670.715	117229
670.766	177048
670.818	45176
670.869	9277
670.921	6231
670.972	4651
671.024	4005
671.075	3364
671.127	3458
671.178	2655
671.230	3124
671.281	2985
671.333	3292
671.384	2976
671.436	3922
671.487	5083
671.538	5896
671.590	8315
671.641	11432
671.692	17607
671.744	29760
671.795	20732
671.846	8283
671.897	4722
671.949	3926
672.000	3303
672.051	4190
672.102	3712
672.153	2951
672.204	2508
672.256	3058
672.307	3935
672.358	4075
672.409	3200
672.460	3194
672.511	2451
672.562	3300
672.613	2718
672.664	2297
672.715	3562
672.766	2344
672.817	2572
672.868	2992
672.919	3385
672.970	1549
673.021	2051
673.071	2033
673.122	3315
673.173	3715
673.224	1973
673.275	2193
673.326	2201
673.376	2687
673.427	2403
673.478	2698
673.528	3161
673.579	2516
673.630	2279
673.680	2983
673.731	2499
673.782	1267
673.832	2251
673.883	3549
673.934	2934
673.984	2259
674.035	2570
674.085	2168
674.136	2542
674.186	3223
674.237	4371
674.287	6475
674.338	3659
674.388	1815
674.438	2687
674.489	3249
674.539	2569
674.589	3338
674.640	3267
674.690	3248
674.740	2476
674.791	3363
674.841	3160
674.891	3199
674.942	2933
674.992	2345
675.042	1918
675.092	1599
675.142	2962
675.193	2537
675.243	1508
675.293	1982
675.343	2024
675.393	2378
675.443	2339
675.493	2129
675.543	2247
675.593	1783
675.643	1951
675.693	2378
675.743	2459
675.793	2238
675.843	1953
675.893	2185
675.943	2545
675.993	2376
676.043	2063
676.093	2678
676.142	1588
676.192	2335
676.242	2394
676.292	2114
676.341	2158
676.391	2481
676.441	1554
676.491	2059
676.540	1916
676.590	2494
676.640	1476
676.689	1913
676.739	1805
676.789	2022
676.838	2127
676.888	1832
676.937	1730
676.987	1855
677.037	1968
677.086	2274
677.136	1925
677.185	2026
677.235	947
677.284	1607
677.333	1067
677.383	1467
677.432	662
677.482	1542
677.531	2431
677.580	2262
677.630	1408
677.679	1249
677.728	1518
677.778	1334
677.827	1440
677.876	1469
677.925	1185
677.975	1768
678.024	1645
678.073	2117
678.122	2111
678.171	1779
678.220	1435
678.269	2797
678.319	2710
678.368	2387
678.417	1830
678.466	2297
678.515	2664
678.564	1246
678.613	1573
678.662	1901
678.711	1837
678.760	2319
678.809	1917
678.857	2015
678.906	1750
678.955	1354
679.004	1960
679.053	1681
679.102	1909
679.151	2047
679.199	1832
679.248	1381
679.297	2137
679.346	1685
679.394	1450
679.443	1673
679.492	2176
679.540	1736
679.589	1228
679.638	1663
679.686	1497
679.735	1796
679.784	1834
679.832	1567
679.881	1149
679.929	1695
679.978	1610
680.026	1074
680.075	1852
680.123	1078
680.172	1154
680.220	1430
680.268	1814
680.317	909
680.365	1489
680.414	1476
680.462	1654
680.510	2361
680.559	528
680.607	1171
680.655	718
680.703	1466
680.752	542
680.800	1785
680.848	1810
680.896	1469
680.945	1376
680.993	1200
681.041	1244
681.089	956
681.137	1310
681.185	989
681.233	1805
681.258	1587
681.281	1347
681.329	2120
681.377	1191
681.380	1213
681.425	1024
681.473	1517
681.502	2200
681.521	2603
681.569	1950
681.617	2326
681.624	2262
681.665	1628
681.713	2062
681.745	1944
681.761	1829
681.809	1931
681.857	2232
681.867	2252
681.904	2195
681.952	1956
681.989	2119
682.000	2126
682.048	2413
682.096	2418
682.111	2385
682.143	2217
682.191	2285
682.233	2743
682.239	2778
682.286	2092
682.334	1864
682.354	2090
682.382	2344
682.430	2984
682.476	2264
682.477	2219
682.525	2850
682.572	2227
682.598	2331
682.620	2395
682.667	3057
682.715	3024
682.720	3077
682.763	3240
682.810	3028
682.841	3188
682.857	3220
682.905	3064
682.952	3129
682.963	3150
683.000	3111
683.047	3460
683.085	4199
683.095	4371
683.142	3285
683.190	3682
683.206	3332
683.237	2668
683.284	3757
683.328	4112
683.332	4112
683.379	3899
683.426	3050
683.449	3185
683.473	3271
683.521	4002
683.568	4623
683.571	4607
683.615	4122
683.662	4559
683.693	4358
683.709	4201
683.757	3897
683.804	4100
683.814	4066
683.851	3876
683.898	4522
683.936	4871
683.945	4943
683.992	4678
684.039	5033
684.057	5183
684.086	5343
684.133	4766
684.179	4808
684.180	4789
684.227	4814
684.274	5152
684.300	4970
684.321	4794
684.368	4807
684.415	6132
684.422	5970
684.462	4867
684.509	4936
684.543	4616
684.556	4518
684.603	5092
684.649	5180
684.665	5444
684.696	5862
684.743	5620
684.786	5419
684.790	5407
684.837	6029
684.883	6786
684.908	6714
684.930	6475
684.977	7408
685.023	6511
685.029	6516
685.070	6306
685.117	6082
685.150	6259
685.164	6399
685.210	7126
685.257	7367
685.272	7175
685.303	6548
685.350	6336
685.393	7455
685.396	7540
685.443	6874
685.490	7585
685.514	7196
685.536	6803
685.583	7410
685.629	7442
685.636	7485
685.675	7647
685.722	7297
685.757	7179
685.768	7166
685.815	7545
685.861	7798
685.878	8014
685.908	8395
685.954	7601
686.000	8854
686.000	8876
686.047	9982
686.093	11181
686.121	11281
686.139	10690
686.185	10069
686.232	8844
686.242	8719
686.278	8678
686.324	8534
686.363	7924
686.370	7833
686.416	8434
686.463	8210
686.484	8146
686.509	8174
686.555	8038
686.601	7788
686.606	7881
686.647	8466
686.693	7783
686.727	8041
686.739	8166
686.785	7793
686.831	8278
686.848	8178
686.877	7891
686.923	8254
686.969	7692
686.969	7689
687.015	8173
687.061	8502
687.090	8836
687.107	8963
687.153	8519
687.199	8715
687.211	8684
687.245	8719
687.291	8894
687.332	9454
687.336	9516
687.382	9923
687.428	9528
687.453	9401
687.474	9092
687.520	8951
687.565	8676
687.574	8590
687.611	8453
687.657	9031
687.695	9005
687.702	9088
687.748	9652
687.794	10351
687.816	10332
687.839	9785
687.885	9794
687.931	9260
687.937	9186
687.976	9232
688.022	9339
688.058	9324
688.067	9332
688.113	9670
688.158	9548
688.179	9538
688.204	9562
688.249	9551
688.295	9186
688.300	9239
688.340	9827
688.386	10516
688.421	10439
688.431	10328
688.477	9961
688.522	10135
688.542	10006
688.567	10008
688.613	9666
688.658	9821
688.663	9758
688.703	9309
688.749	10532
688.784	10404
688.794	10373
688.839	10441
688.884	9952
688.905	10130
688.930	10261
688.975	9976
689.020	9995
689.026	9909
689.065	9592
689.110	9594
689.146	9899
689.155	9987
689.201	9950
689.246	9990
689.267	10225
689.291	10441
689.336	10155
689.381	9710
689.388	9727
689.426	9983
689.471	9747
689.509	9934
689.516	9951
689.561	9949
689.606	9697
689.630	9713
689.651	9896
689.696	9837
689.741	10310
689.750	10286
689.785	10264
689.830	10425
689.871	10348
689.875	10325
689.920	10996
689.965	10285
689.992	10283
690.010	10379
690.054	10354
690.099	10476
690.112	10500
690.144	10570
690.189	10547
690.233	10086
690.233	10099
690.278	10170
690.323	10536
690.354	10687
690.367	10852
690.412	10757
690.457	10824
690.474	11009
690.501	11121
690.546	11013
690.590	11137
690.595	11077
690.635	11005
690.680	11462
690.716	11501
690.724	11568
690.769	11957
690.813	12595
690.836	12706
690.857	13271
690.902	14933
690.946	15672
690.957	16119
690.991	19401
691.035	22856
691.077	26607
691.080	26673
691.124	26556
691.168	26557
691.198	26299
691.213	25171
691.257	22602
691.301	18621
691.318	17464
691.346	16741
691.390	15123
691.434	13730
691.439	13476
691.478	12789
691.522	12921
691.559	12785
691.567	12796
691.611	12639
691.655	12189
691.680	12295
691.699	12561
691.743	12479
691.787	12536
691.800	12529
691.831	12585
691.875	12655
691.919	12785
691.921	12763
691.964	13165
692.008	13630
692.041	13815
692.052	13821
692.096	14213
692.139	14142
692.162	14131
692.183	13895
692.227	13527
692.271	12925
692.282	12820
692.315	13252
692.359	13229
692.402	13590
692.403	13617
692.447	13454
692.490	13406
692.523	13392
692.534	13588
692.578	13707
692.622	14184
692.643	14347
692.666	14021
692.709	13381
692.753	12583
692.763	12442
692.797	12789
692.840	13069
692.884	13217
692.884	13244
692.928	13293
692.971	13128
693.004	13476
693.015	13624
693.059	13588
693.102	13500
693.124	13454
693.146	13498
693.189	13561
693.233	14031
693.245	14049
693.276	14539
693.320	15007
693.363	15453
693.365	15434
693.407	15790
693.450	16619
693.485	16714
693.493	16919
693.537	18475
693.580	19435
693.605	20275
693.624	21508
693.667	23670
693.710	26449
693.725	27294
693.753	33014
693.797	41934
693.840	51270
693.845	52225
693.883	51068
693.926	49410
693.966	48320
693.970	47640
694.013	39002
694.056	30921
694.086	25094
694.099	24446
694.142	22089
694.185	20084
694.206	18899
694.229	18634
694.272	18347
694.315	17931
694.326	17756
694.358	17243
694.401	16532
694.444	15970
694.446	15902
694.487	15889
694.530	15665
694.566	15558
694.573	15475
694.616	14625
694.659	14056
694.686	13354
694.702	13292
694.745	13302
694.787	13397
694.806	13407
694.830	13409
694.873	13353
694.916	13027
694.926	12991
694.959	13229
695.002	13241
695.044	13308
695.046	13286
695.087	13523
695.130	13523
695.166	13570
695.172	13665
695.215	13886
695.258	14265
695.286	14517
695.301	14461
695.343	14194
695.386	13724
695.406	13582
695.428	13713
695.471	13822
695.514	13830
695.526	13852
695.556	14069
695.599	14193
695.641	14201
695.646	14178
695.684	14173
695.726	14031
695.766	14010
695.769	14035
695.811	13951
695.854	13659
695.886	13409
695.896	13481
695.938	13660
695.981	13746
696.005	13876
696.023	13924
696.065	13823
696.108	13830
696.125	13688
696.150	13819
696.192	14428
696.235	14593
696.245	14655
696.277	14650
696.319	14484
696.361	14386
696.365	14336
696.404	14452
696.446	14604
696.485	14620
696.488	14665
696.530	14836
696.572	14866
696.604	14894
696.614	14831
696.656	14389
696.698	13991
696.724	13618
696.740	13665
696.783	13927
696.825	14178
696.844	14207
696.867	14211
696.909	14016
696.951	13844
696.964	13832
696.992	13915
697.034	13736
697.076	13602
697.083	13561
697.118	13817
697.160	13991
697.202	14210
697.203	14176
697.244	14084
697.286	13955
697.323	13783
697.327	13852
697.369	14108
697.411	14310
697.442	14596
697.453	14583
697.494	14158
697.536	13891
697.562	13579
697.578	13667
697.620	13884
697.661	14016
697.682	14097
697.703	14228
697.744	14396
697.786	14602
697.801	14588
697.828	14884
697.869	15354
697.911	15770
697.921	15861
697.952	15710
697.994	15309
698.035	15018
698.040	14937
698.077	14698
698.118	14357
698.160	14030
698.160	13990
698.201	14150
698.243	14304
698.279	14405
698.284	14453
698.325	14509
698.367	14617
698.399	14569
698.408	14545
698.449	14333
698.491	14095
698.518	13898
698.532	13973
698.573	14081
698.614	14176
698.638	14207
698.656	14331
698.697	14526
698.738	14696
698.757	14742
698.779	15033
698.820	15497
698.862	15969
698.877	16099
698.903	16326
698.944	16623
698.985	16915
698.996	16952
699.026	16542
699.067	15911
699.116	15118
699.235	14852
699.354	15170
699.474	14725
699.593	17120
699.713	16354
699.832	16171
699.951	15082
700.070	15897
700.190	14409
700.309	14828
700.428	17114
700.547	15557
700.667	14861
700.786	16781
700.905	14954
701.024	15671
701.143	15567
701.262	12991
701.381	13487
701.500	13767
701.619	13183
701.738	13203
701.857	13938
701.976	12478
702.095	12932
702.214	14213
702.333	13719
702.452	13105
702.571	12837
702.690	13512
702.809	13329
702.928	13209
703.047	12332
703.165	11959
703.284	11724
703.403	12486
703.522	14834
703.640	14655
703.759	16471
703.878	23916
703.997	13765
704.115	12501
704.234	12393
704.353	11559
704.471	11816
704.590	11296
704.708	11606
704.827	11362
704.946	11982
705.064	14338
705.183	12185
705.301	15398
705.420	22265
705.538	19557
705.656	15799
705.775	15081
705.893	21380
706.012	24027
706.130	17474
706.249	17120
706.367	16670
706.485	19319
706.604	16843
706.722	17577
706.840	20660
706.958	23865
707.077	18264
707.195	15754
707.313	14152
707.431	15493
707.549	15129
707.668	15313
707.786	14804
707.904	14725
708.022	14096
708.140	14155
708.258	12864
708.376	14279
708.494	14300
708.612	16887
708.730	24080
708.848	22511
708.966	19796
709.084	18422
709.202	17156
709.320	19154
709.438	18746
709.556	19615
709.674	18004
709.791	19127
709.909	18208
710.027	18126
710.145	18032
710.263	18922
710.380	18098
710.498	17661
710.616	18382
710.733	17732
710.851	18242
710.969	19062
711.086	16990
711.204	16816
711.322	17626
711.439	17750
711.557	18798
711.674	17523
711.792	16374
711.909	16405
712.027	15973
712.144	15796
712.262	17273
712.379	18734
712.497	26050
712.614	26621
712.732	22052
712.849	20663
712.966	22489
713.084	24304
713.201	22415
713.318	21265
713.436	20884
713.553	21821
713.670	21429
713.787	24687
713.905	23971
714.022	21699
714.139	21255
714.256	23440
714.373	27407
714.490	38124
714.608	84419
714.725	324693
714.842	320477
714.959	35012
715.076	22921
715.193	19603
715.310	19807
715.427	19122
715.544	17969
715.661	18989
715.778	18285
715.895	20101
716.011	18805
716.128	18677
716.245	17533
716.362	18914
716.479	18787
716.596	16711
716.713	17149
716.829	17980
716.946	16693
717.063	15510
717.180	16466
717.296	15379
717.413	15574
717.530	15498
717.646	14937
717.763	16123
717.880	14646
717.996	15036
718.113	15527
718.229	15853
718.346	14048
718.462	15549
718.579	16027
718.695	21597
718.812	21763
718.928	22908
719.045	16977
719.161	14285
719.277	14346
719.394	13712
719.510	15175
719.626	15464
719.743	18933
719.859	19957
719.975	28451
720.092	89447
720.208	189077
720.324	30754
720.440	16255
720.557	17194
720.673	22091
720.789	34360
720.905	79313
721.021	26525
721.137	15151
721.253	14794
721.369	15147
721.486	18524
721.602	23815
721.718	13713
721.834	12139
721.950	12894
722.066	12641
722.181	11773
722.297	11908
722.413	11675
722.529	11718
722.645	12769
722.761	11283
722.877	11644
722.993	11463
723.108	12706
723.224	12666
723.340	12076
723.456	11046
723.571	11583
723.687	11394
723.803	11864
723.918	9355
724.034	11182
724.150	11944
724.265	13829
724.381	30374
724.497	36798
724.612	10863
724.728	10263
724.843	9917
724.959	13681
725.074	27966
725.190	32114
725.305	12597
725.421	10729
725.536	8765
725.651	10038
725.767	10063
725.882	9058
725.997	8645
726.113	8688
726.228	8833
726.343	9371
726.459	8269
726.574	10451
726.689	8627
726.804	9311
726.920	9117
727.035	9775
727.150	8567
727.265	9048
727.380	10374
727.495	9633
727.610	7148
727.725	8894
727.841	8575
727.956	13294
728.071	12866
728.186	8960
728.301	7221
728.416	9092
728.531	8566
728.645	8034
728.760	8756
728.875	9981
728.990	8974
729.105	8859
729.220	7803
729.335	7641
729.449	7463
729.564	7485
729.679	6781
729.794	7856
729.908	8520
730.023	8435
730.138	6269
730.253	6579
730.367	6977
730.482	6745
730.596	7139
730.711	7192
730.826	7708
730.940	8111
731.055	7181
731.169	6754
731.284	6493
731.398	7866
731.513	8969
731.627	7956
731.742	10129
731.856	10950
731.970	7341
732.085	8787
732.199	10655
732.313	16246
732.428	35520
732.542	91855
732.656	51386
732.771	13148
732.885	9317
732.999	8183
733.113	9329
733.227	8548
733.342	6602
733.456	8009
733.570	6190
733.684	7271
733.798	6975
733.912	6848
734.026	5730
734.140	6918
734.254	8868
734.368	15948
734.482	20120
734.596	5907
734.710	6126
734.824	6706
734.938	6026
735.052	6317
735.166	7407
735.280	7433
735.393	5901
735.507	6904
735.621	10554
735.735	18818
735.849	8456
735.962	6191
736.076	6423
736.190	6770
736.303	10125
736.417	12905
736.531	5968
736.644	7170
736.758	5025
736.872	5661
736.985	5009
737.099	4878
737.212	4665
737.326	6041
737.439	5698
737.553	5098
737.666	4668
737.780	4660
737.893	4447
738.007	4964
738.120	5172
738.233	5388
738.347	5355
738.460	5286
738.573	4868
738.687	5069
738.800	4807
738.913	5605
739.026	4829
739.140	6166
739.253	4721
739.366	4854
739.479	4502
739.592	4374
739.705	5615
739.818	4803
739.932	4089
740.045	5176
740.158	4900
740.271	5651
740.384	4266
740.497	5729
740.610	6815
740.723	5804
740.836	5282
740.949	6247
741.062	6355
741.174	5611
741.287	5068
741.400	5084
741.513	5319
741.626	6324
741.739	5465
741.851	5132
741.964	4687
742.077	5200
742.189	5790
742.302	8230
742.415	6452
742.527	5580
742.640	4808
742.753	5617
742.865	3871
742.978	4254
743.090	4091
743.203	4357
743.316	4328
743.428	4399
743.541	5116
743.653	3854
743.766	3656
743.878	5506
743.990	7545
744.103	8219
744.215	6814
744.327	4524
744.440	5428
744.552	5926
744.664	4507
744.777	4126
744.889	3453
745.001	4517
745.113	3679
745.226	3124
745.338	3790
745.450	3711
745.562	3801
745.674	4145
745.786	3259
745.898	4085
746.010	4452
746.122	3601
746.234	3322
746.347	4695
746.459	4122
746.570	4074
746.682	5893
746.794	9092
746.906	4600
747.018	3773
747.130	4160
747.242	3339
747.354	3504
747.466	4331
747.577	2834
747.689	4026
747.801	2430
747.913	4235
748.024	2218
748.136	2894
748.248	3317
748.359	3409
748.471	2906
748.583	3631
748.694	3980
748.806	4968
748.918	5920
749.029	5007
749.141	3311
749.252	4523
749.364	4043
749.475	7729
749.587	5819
749.698	3248
749.809	3218
749.921	3064
750.032	4204
750.144	2769
750.255	3116
750.366	3028
750.478	2079
750.589	2375
750.700	3271
750.811	4116
750.923	4383
751.034	6733
751.145	6778
751.256	3093
751.367	2314
751.479	2970
751.590	3466
751.701	3228
751.812	2187
751.923	3591
752.034	2907
752.145	2798
752.256	3088
752.367	2538
752.478	2601
752.589	3778
752.700	3619
752.811	3079
752.922	2339
753.032	3470
753.143	3222
753.254	2458
753.365	2859
753.476	2505
753.586	2899
753.697	2731
753.808	2516
753.919	3633
754.029	2744
754.140	3355
754.251	2778
754.361	2976
754.472	3090
754.582	2402
754.693	2170
754.804	2912
754.914	1876
755.025	3015
755.135	2596
755.246	2903
755.356	2158
755.466	3474
755.577	3222
755.687	3732
755.798	2468
755.908	3672
756.018	2362
756.129	2469
756.239	2714
756.349	3827
756.460	2920
756.570	3206
756.680	2522
756.790	3763
756.900	3710
757.011	2391
757.121	1475
757.231	2385
757.341	2763
757.451	2120
757.561	3037
757.671	3078
757.781	2042
757.891	3377
758.001	3148
758.111	4297
758.221	3131
758.331	3041
758.441	3629
758.551	4466
758.661	4311
758.771	3614
758.880	3088
758.990	4099
759.100	3000
759.210	3386
759.320	4009
759.429	4386
759.539	3579
759.649	3964
759.758	4063
759.868	4882
759.978	3725
760.087	4552
760.197	4699
760.307	4847
760.416	3439
760.526	3074
760.635	3683
760.745	3224
760.854	4059
760.964	4912
761.073	4473
761.182	4636
761.292	4533
761.401	4979
761.511	4185
761.620	4343
761.729	4247
761.839	4693
761.948	4686
762.057	5204
762.166	5026
762.276	3624
762.385	4926
762.494	4642
762.603	3974
762.712	5113
762.822	4390
762.931	5320
763.040	3841
763.149	4980
763.258	4768
763.367	5240
763.476	4534
763.585	5746
763.694	5770
763.803	5785
763.912	6354
764.021	6221
764.130	6011
764.238	7023
764.347	6590
764.456	7718
764.565	8016
764.674	8595
764.783	9465
764.891	8855
765.000	11797
765.109	12108
765.217	13355
765.326	16253
765.435	19115
765.543	21875
765.652	26849
765.761	34704
765.869	50577
765.978	75767
766.086	126821
766.195	235546
766.303	507693
766.412	931994
766.520	802693
766.629	425862
766.737	186398
766.846	105276
766.954	68094
767.062	49092
767.171	36138
767.279	28824
767.387	22063
767.496	18862
767.604	16967
767.712	15649
767.820	14174
767.928	14075
768.037	11839
768.145	12084
768.253	11855
768.361	9933
768.469	10664
768.577	10658
768.685	11843
768.793	13222
768.901	13642
769.009	15048
769.117	16171
769.225	21400
769.333	31715
769.441	50227
769.549	90173
769.657	194653
769.765	506620
769.873	775331
769.981	432732
770.088	146349
770.196	68519
770.304	43673
770.412	30373
770.519	24215
770.627	17841
770.735	15075
770.842	14043
770.950	11820
771.058	10605
771.165	10003
771.273	9235
771.380	8552
771.488	7690
771.595	7983
771.703	6958
771.810	7819
771.918	6310
772.025	7419
772.133	5942
772.240	6255
772.348	6718
772.455	7098
772.562	6025
772.670	5222
772.777	5417
772.884	5391
772.991	5105
773.099	4549
773.206	4785
773.313	5264
773.420	4447
773.528	4209
773.635	4368
773.742	5196
773.849	3960
773.956	3751
774.063	3751
774.170	4278
774.277	4430
774.384	4922
774.491	4268
774.598	4884
774.705	4110
774.812	4393
774.919	4681
775.026	4425
775.133	3804
775.239	3933
775.346	4442
775.453	3655
775.560	3309
775.667	4352
775.773	3437
775.880	4163
775.987	4479
776.093	4178
776.200	4290
776.307	3790
776.413	3956
776.520	3737
776.627	3666
776.733	4466
776.840	2999
776.946	6195
777.053	8123
777.159	15314
777.266	8154
777.372	12974
777.478	9824
777.585	6143
777.691	3592
777.798	3532
777.904	4039
778.010	5723
778.117	4655
778.223	3075
778.329	2944
778.435	3272
778.542	2688
778.648	3492
778.754	3247
778.860	2768
778.966	2589
779.072	4293
779.178	2587
779.284	3274
779.391	2384
779.497	1936
779.603	4190
779.708	4062
779.815	8081
779.920	25012
780.026	52067
780.132	9029
780.238	3309
780.344	3354
780.450	3304
780.556	2843
780.661	2830
780.767	3664
780.873	2632
780.979	3639
781.085	2312
781.190	3287
781.296	2502
781.402	2179
781.507	2112
781.613	2432
781.719	1770
781.824	3346
781.930	2909
782.035	2743
782.141	2392
782.246	3215
782.352	2656
782.457	2083
782.563	2430
782.668	3106
782.773	2806
782.879	2507
782.984	2713
783.090	3649
783.195	4022
783.300	3642
783.405	2695
783.511	2814
783.616	3200
783.721	3040
783.826	3056
783.932	3761
784.037	2812
784.142	2701
784.247	2760
784.352	2516
784.457	2205
784.562	2217
784.667	3428
784.772	2480
784.877	1794
784.982	2713
785.087	2236
785.192	3564
785.297	1718
785.402	2348
785.507	1850
785.611	2716
785.716	2575
785.821	2069
785.926	495
786.031	1828
786.135	2969
786.240	1768
786.345	385
786.450	2222
786.554	1214
786.659	1851
786.763	727
786.868	2410
786.973	3031
787.077	2310
787.182	1532
787.286	2466
787.391	1817
787.495	1391
787.600	1786
787.704	1773
787.809	2393
787.913	1561
788.017	2168
788.122	2600
788.226	972
788.330	1330
788.435	1695
788.539	1880
788.643	1584
788.747	1746
788.852	1049
788.956	1967
789.060	1804
789.164	1869
789.268	877
789.372	2196
789.476	1299
789.580	1956
789.684	546
789.788	2394
789.892	1461
789.996	2785
790.100	1701
790.204	2018
790.308	1086
790.412	1788
790.516	2124
790.620	1709
790.724	2436
790.828	2275
790.931	429
791.035	3736
791.139	1556
791.242	808
791.346	2359
791.450	1729
791.554	1469
791.657	1483
791.761	2359
791.864	2718
791.968	1771
792.072	2638
792.175	1396
792.279	1918
792.382	1614
792.486	2430
792.589	2186
792.693	2748
792.796	1405
792.899	3230
793.003	2565
793.106	964
793.209	1489
793.313	3133
793.416	1272
793.519	3330
793.623	2842
793.726	4256
793.829	1530
793.932	2197
794.035	663
794.138	2860
794.242	2485
794.345	3104
794.448	3229
794.551	4618
794.654	12999
794.757	26167
794.860	6401
794.963	3349
795.066	1020
795.169	2983
795.272	348
795.375	1890
795.477	628
795.580	1489
795.683	-185
795.786	1098
795.889	280
795.991	2697
796.094	2781
796.197	1112
796.300	2652
796.402	1733
796.505	651
796.608	1266
796.710	940
796.813	1384
796.915	556
797.018	1891
797.120	1772
797.223	331
797.326	2006
797.428	1511
797.530	1296
797.633	1919
797.735	2878
797.838	5126
797.940	3724
798.042	1077
798.145	1272
798.247	1875
798.349	-24
798.452	1971
798.554	798
798.656	1045
798.758	1320
798.860	1027
798.962	1522
799.065	1290
799.167	379
799.269	2352
799.371	1341
799.473	2542
799.575	2044
799.677	2632
799.779	3486
799.881	1758
799.983	2248
800.085	709
800.187	724
800.289	440
800.390	1381
800.492	1050
800.594	1992
800.696	1312
800.798	1946
800.899	1150
801.001	1316
801.103	688
801.205	10
801.306	1663
801.408	127
801.509	1307
801.611	772
801.713	1438
801.814	55
801.916	1400
802.017	881
802.119	97
802.220	965
802.322	88
802.423	3361
802.525	1167
802.626	905
802.727	1263
802.829	1249
802.930	-472
803.031	1967
803.133	1213
803.234	599
803.335	1299
803.436	-101
803.538	796
803.639	252
803.740	1344
803.841	318
803.942	862
804.043	947
804.144	411
804.245	8
804.346	663
804.447	148
804.548	1864
804.649	2183
804.750	599
804.851	-50
804.952	381
805.053	601
805.154	284
805.255	1157
805.355	737
805.456	202
805.557	905
805.658	-511
805.758	1964
805.859	740
805.960	684
806.061	375
806.161	707
806.262	1704
806.362	1004
806.463	549
806.564	1717
806.664	80
806.765	2085
806.865	2183
806.966	618
807.066	267
807.166	1225
807.267	527
807.367	-445
807.468	1379
807.568	-75
807.668	375
807.769	1665
807.869	47
807.969	1471
808.069	672
808.170	1144
808.270	-254
808.370	1902
808.470	1457
808.570	-188
808.670	253
808.770	880
808.870	-195
808.970	2013
809.070	-697
809.170	523
809.271	1743
809.370	1113
809.470	1006
809.570	355
809.670	-165
809.770	539
809.870	1303
809.970	625
810.070	429
810.169	1267
810.269	-884
810.369	1834
810.469	588
810.568	793
810.668	-488
810.768	357
810.867	34
810.967	890
811.066	224
811.166	621
811.265	1076
811.365	107
811.464	-5
811.564	991
811.663	-4
811.763	-373
811.862	765
811.962	1842
812.061	823
812.160	1285
812.260	297
812.359	835
812.458	-134
812.557	2566
812.657	1508
812.756	1318
812.855	763
812.954	646
813.053	750
813.153	895
813.252	-10
813.351	878
813.450	11
813.549	294
813.648	1175
813.747	2188
813.846	1262
813.945	819
814.044	1583
814.143	2257
814.242	1919
814.341	287
814.439	2054
814.538	1893
814.637	930
814.736	1510
814.835	1602
814.933	1425
815.032	1684
815.131	1451
815.229	1397
815.328	2465
815.427	1661
815.525	2861
815.624	2477
815.722	1713
815.821	2008
815.919	3402
816.018	1813
816.116	3483
816.215	2970
816.313	3710
816.412	3421
816.510	4369
816.609	5798
816.707	5421
816.805	4016
816.904	5229
817.002	6824
817.100	7576
817.198	8721
817.296	8098
817.395	10575
817.493	13900
817.591	15317
817.689	21931
817.787	28473
817.885	45157
817.983	77548
818.081	149028
818.179	320821
818.277	661748
818.375	598419
818.473	257068
818.571	119533
818.669	75376
818.767	61821
818.865	60461
818.963	68484
819.061	93826
819.158	148598
819.256	272569
819.354	541075
819.452	881481
819.549	670798
819.647	323486
819.745	162676
819.842	98285
819.940	66446
820.038	46631
820.135	35408
820.233	29814
820.330	22259
820.428	19065
820.525	16874
820.623	14490
820.720	11490
820.818	11446
820.915	9664
821.012	8917
821.110	7413
821.207	7306
821.304	6158
821.402	7150
821.499	7308
821.596	9124
821.693	6624
821.791	5732
821.888	4814
821.985	6294
822.082	4735
822.179	5326
822.276	4136
822.373	3431
822.470	2355
822.567	3442
822.664	1695
822.761	3976
822.858	1192
822.955	2869
823.052	2367
823.149	1954
823.246	2560
823.343	1933
823.440	1802
823.536	1866
823.633	1445
823.730	1367
823.827	2019
823.923	1569
824.020	2285
824.117	2429
824.213	1526
824.310	2535
824.407	793
824.503	1373
824.600	1388
824.696	465
824.793	1181
824.889	1616
824.986	801
825.082	1697
825.179	854
825.275	881
825.371	990
825.468	1271
825.564	-267
825.660	1347
825.757	497
825.853	1618
825.949	452
826.045	819
826.142	891
826.238	325
826.334	216
826.430	183
826.526	527
826.622	70
826.718	1398
826.814	-225
826.910	985
827.006	771
827.102	373
827.198	857
827.294	-221
827.390	1223
827.486	308
827.582	-418
827.678	-199
827.774	1066
827.869	-517
827.965	1246
828.061	-40
828.157	491
828.252	26
828.348	450
828.444	716
828.539	479
828.635	-99
828.731	1251
828.826	-988
828.922	1477
829.017	470
829.113	582
829.208	173
829.304	237
829.399	75
829.495	741
829.590	1252
829.685	98
829.781	563
829.876	51
829.971	90
830.066	726
830.162	631
830.257	-285
830.352	209
830.447	1887
830.543	-282
830.638	-856
830.733	1088
830.828	622
830.923	1540
831.018	89
831.113	812
831.208	-35
831.303	379
831.398	1106
831.493	310
831.588	413
831.683	-764
831.778	78
831.873	-245
831.967	208
832.062	-843
832.157	-330
832.252	237
832.346	294
832.441	-282
832.536	829
832.631	2256
832.725	2190
832.820	-64
832.914	-131
833.009	-909
833.104	1430
833.198	299
833.293	370
833.387	105
833.482	-567
833.576	-740
833.670	1113
833.765	-235
833.859	-367
833.954	593
834.048	59
834.142	550
834.237	-142
834.331	-620
834.425	108
834.519	-1167
834.613	1573
834.708	-505
834.802	1011
834.896	-1150
834.990	572
835.084	520
835.178	431
835.272	-161
835.366	-582
835.460	-24
835.554	-149
835.648	-487
835.742	99
835.836	-297
835.930	-890
836.024	209
836.117	1353
836.211	30
836.305	2148
836.399	2570
836.493	-1033
836.586	560
836.680	-1100
836.774	-942
836.867	2157
836.961	-1222
837.055	-212
837.148	-340
837.242	-36
837.335	-836
837.429	553
837.522	-382
837.616	2043
837.709	3062
837.803	1892
837.896	377
837.989	226
838.083	1919
838.176	5735
838.269	3599
838.363	998
838.456	-406
838.549	992
838.642	391
838.735	3037
838.829	842
838.922	206
839.015	-19
839.108	-399
839.201	216
839.294	343
839.387	63
839.480	628
839.573	1625
839.666	2602
839.759	424
839.852	-185
839.945	-345
840.038	-897
840.131	-34
840.223	549
840.316	568
840.409	-952
840.502	-1134
840.594	568
840.687	-644
840.780	1024
840.873	-345
840.965	1316
841.058	1441
841.150	4144
841.243	1903
841.336	249
841.428	195
841.521	-387
841.613	-895
841.706	872
841.798	403
841.890	43
841.983	-194
842.075	846
842.167	-442
842.260	115
842.352	1686
842.444	2085
842.537	5398
842.629	8149
842.721	1693
842.813	-95
842.905	-1314
842.997	677
843.090	-226
843.182	2362
843.274	5058
843.366	14775
843.458	26036
843.550	15695
843.642	1685
843.734	1066
843.826	1379
843.918	1335
844.009	-79
844.101	-282
844.193	-812
844.285	880
844.377	625
844.469	1556
844.560	1240
844.652	2148
844.744	61
844.835	552
844.927	492
845.019	431
845.110	580
845.202	-623
845.293	-214
845.385	-496
845.476	-265
845.568	1066
845.659	-959
845.751	81
845.842	-255
845.934	341
846.025	-986
846.116	-198
846.208	-438
846.299	-34
846.390	-56
846.482	637
846.573	-167
846.664	1592
846.755	1440
846.846	1087
846.937	-1509
847.029	-339
847.120	-589
847.211	-590
847.302	324
847.393	-517
847.484	-227
847.575	-719
847.666	-454
847.757	509
847.847	-480
847.938	1053
848.029	-566
848.120	-20
848.211	-808
848.302	-895
848.392	-511
848.483	-248
848.574	-1184
848.664	145
848.755	-176
848.846	-35
848.936	-678
849.027	-144
849.118	287
849.208	-916
849.299	934
849.389	1207
849.480	4662
849.570	7420
849.661	15474
849.751	23967
849.841	7144
849.932	1608
850.022	-186
850.112	371
850.203	-726
850.293	-320
850.383	-184
850.474	-557
850.564	552
850.654	499
850.744	-673
850.834	-528
850.924	158
851.014	393
851.104	-681
851.194	7
851.284	-181
851.374	517
851.464	-447
851.554	547
851.644	1050
851.734	2242
851.824	589
851.914	-77
852.004	-2
852.094	406
852.183	-767
852.273	825
852.363	-916
852.452	-152
852.542	357
852.632	-994
852.721	-299
852.811	-355
852.901	-70
852.990	-949
853.080	914
853.169	474
853.259	751
853.348	797
853.438	1139
853.527	1567
853.617	1710
853.706	6040
853.795	10839
853.885	27568
853.974	50605
854.063	94966
854.152	141977
854.242	50616
854.331	9239
854.420	3488
854.509	1931
854.598	2413
854.687	1148
854.777	1305
854.866	-281
854.955	1209
855.044	-1100
855.133	17
855.222	427
855.311	-142
855.400	-220
855.488	-523
855.577	-266
855.666	436
855.755	-177
855.844	681
855.933	-148
856.021	86
856.110	-242
856.199	-576
856.288	-814
856.376	-314
856.465	-922
856.554	-65
856.642	-825
856.731	-379
856.819	167
856.908	-796
856.996	-746
857.085	713
857.173	-731
857.262	-789
857.350	430
857.438	-235
857.527	-629
857.615	-331
857.703	-535
857.792	-182
857.880	-1087
857.968	486
858.056	-1064
858.145	-55
858.233	-441
858.321	-345
858.409	-279
858.497	-962
858.585	-376
858.673	482
858.761	-871
858.849	-228
858.937	-848
859.025	211
859.113	-110
859.201	-730
859.289	816
859.377	-263
859.465	-687
859.552	-170
859.640	-1275
859.728	-282
859.816	-95
859.903	-508
859.991	-1491
860.079	29
860.166	-614
860.254	-212
860.342	-127
860.429	-648
860.517	-1224
860.604	-210
860.692	38
860.779	-881
860.867	-301
860.954	-185
861.042	-707
861.129	-527
861.216	-482
861.304	-946
861.391	-630
861.478	-505
861.565	-273
861.653	188
861.740	-650
861.827	-296
861.914	-492
862.001	-441
862.089	-839
862.176	-606
862.263	-1283
862.350	445
862.437	-1179
862.524	-446
862.611	-537
862.698	350
862.785	208
862.871	864
862.958	-731
863.045	323
863.132	-930
863.219	-124
863.306	-1658
863.392	214
863.479	-780
863.566	-159
863.652	-110
863.739	-74
863.826	-997
863.912	-166
863.999	-1212
864.086	-203
864.172	-1273
864.259	-205
864.345	-850
864.432	-90
864.518	73
864.604	-224
864.691	-1067
864.777	142
864.863	-234
864.950	-206
865.036	-143
865.122	1132
865.209	220
865.295	605
865.381	169
865.467	768
865.553	1403
865.639	2045
865.726	4233
865.812	12079
865.898	23491
865.984	36029
866.070	67366
866.156	69066
866.242	16232
866.328	3782
866.414	1213
866.499	885
866.585	144
866.671	792
866.757	-51
866.843	796
866.928	-488
867.014	213
867.100	663
867.186	587
867.271	430
867.357	2135
867.442	1319
867.528	135
867.614	356
867.699	1005
867.785	1389
867.870	1971
867.956	2332
868.041	2102
868.127	770
868.212	2503
868.297	1690
868.383	846
868.468	1417
868.553	948
868.639	1367
868.724	2749
868.809	2783
868.894	573
868.979	110
869.065	334
869.150	-750
869.235	467
869.320	-153
869.405	180
869.490	-1062
869.575	15
869.660	-1113
869.745	974
869.830	-630
869.915	212
870.000	-224
870.085	-2
870.169	347
870.254	861
870.339	-191
870.424	-509
870.509	-930
870.593	-207
870.678	-510
870.763	291
870.847	-440
870.932	-378
871.016	214
871.101	626
871.186	-470
871.270	-395
871.355	-630
871.439	-217
871.523	-762
871.608	151
871.692	-424
871.777	952
871.861	251
871.945	-301
872.030	-868
872.114	-332
872.198	-1206
872.282	-217
872.367	-694
872.451	-395
872.535	-868
872.619	-398
872.703	-662
872.787	101
872.871	-596
872.955	-267
873.039	-455
873.123	-316
873.207	569
873.291	-160
873.375	-1198
873.459	-422
873.543	-1320
873.627	-203
873.711	-29
873.794	728
873.878	-1269
873.962	8
874.045	-264
874.129	208
874.137	200
874.213	116
874.245	195
874.296	321
874.352	-535
874.380	-950
874.460	-653
874.464	-642
874.547	-1287
874.568	-999
874.631	-152
874.676	-643
874.714	-1043
874.784	72
874.798	280
874.881	-9
874.892	-119
874.965	-756
874.999	-912
875.048	-1189
875.107	-404
875.131	-83
875.215	-309
875.215	-309
875.298	-406
875.323	-509
875.381	-738
875.430	-227
875.465	148
875.538	117
875.548	109
875.631	-8
875.646	-170
875.714	-991
875.753	-922
875.798	-802
875.861	-438
875.881	-327
875.964	-433
875.968	-452
876.047	-738
876.076	-438
876.130	79
876.183	-252
876.213	-442
876.291	113
876.296	154
876.379	-502
876.398	-487
876.462	-430
876.506	-452
876.545	-531
876.613	-335
876.628	-267
876.711	-457
876.721	-461
876.794	-569
876.828	-559
876.877	-459
876.935	-267
876.960	-221
877.043	-312
877.043	-310
877.125	143
877.150	65
877.208	121
877.258	29
877.291	-152
877.365	22
877.374	55
877.456	75
877.472	-4
877.539	-348
877.579	93
877.622	570
877.687	-72
877.704	-246
877.787	73
877.794	45
877.869	-359
877.901	-297
877.952	-68
878.008	210
878.034	270
878.115	302
878.117	308
878.199	-256
878.222	-194
878.282	-214
878.329	-25
878.364	183
878.437	266
878.447	261
878.529	-686
878.544	-695
878.611	-507
878.651	-519
878.694	-632
878.758	-143
878.776	-3
878.858	-574
878.865	-582
878.941	-623
878.972	-532
879.023	-349
879.078	-328
879.105	-206
879.185	367
879.187	366
879.269	103
879.292	-202
879.351	-775
879.399	-876
879.433	-788
879.506	454
879.516	586
879.598	-294
879.613	-275
879.680	-307
879.720	-398
879.762	-330
879.827	-385
879.844	-438
879.926	132
879.933	89
880.007	-217
880.040	-135
880.089	-85
880.147	-97
880.171	-107
880.253	526
880.254	523
880.335	52
880.360	421
880.417	1414
880.467	1899
880.499	2293
880.574	3155
880.580	3106
880.662	681
880.680	369
880.744	56
880.787	68
880.825	133
880.893	548
880.907	555
880.989	-387
881.000	-366
881.070	144
881.106	-16
881.152	-225
881.213	-79
881.233	-9
881.315	123
881.319	138
881.396	250
881.426	42
881.478	-228
881.532	136
881.559	275
881.639	-164
881.641	-177
881.722	-114
881.745	-396
881.803	-593
881.852	-7
881.885	189
881.958	313
881.966	326
882.047	364
882.064	204
882.129	-142
882.171	21
882.210	283
882.277	933
882.291	994
882.372	204
882.383	176
882.454	90
882.489	128
882.535	57
882.596	-291
882.616	-370
882.697	-227
882.702	-234
882.778	282
882.808	489
882.859	392
882.914	-26
882.940	-143
883.020	105
883.021	111
883.102	15
883.127	75
883.183	111
883.233	-14
883.264	23
883.339	257
883.345	265
883.426	-277
883.445	-165
883.507	530
883.551	646
883.587	398
883.657	191
883.668	228
883.749	401
883.763	351
883.830	-346
883.869	-635
883.910	-407
883.975	520
883.991	579
884.072	-364
884.081	-398
884.152	65
884.187	198
884.233	-19
884.292	-149
884.314	-44
884.394	242
884.398	266
884.475	634
884.504	582
884.555	341
884.610	249
884.636	181
884.716	-63
884.716	-58
884.797	280
884.821	336
884.877	133
884.927	-2
884.958	90
885.033	386
885.038	365
885.118	-116
885.139	-254
885.199	168
885.244	559
885.279	619
885.350	584
885.359	528
885.439	327
885.456	136
885.520	36
885.561	219
885.600	246
885.667	247
885.680	283
885.760	501
885.773	543
885.840	812
885.878	904
885.920	816
885.984	570
886.000	530
886.080	231
886.089	205
886.160	106
886.195	198
886.240	329
886.300	171
886.320	254
886.400	936
886.406	952
886.480	1141
886.511	1306
886.560	932
886.616	336
886.640	379
886.720	586
886.722	584
886.800	-146
886.827	-385
886.879	103
886.932	651
886.959	722
887.038	940
887.039	943
887.119	515
887.143	462
887.198	692
887.248	764
887.278	882
887.354	1224
887.358	1234
887.437	1290
887.459	1333
887.517	1424
887.564	1331
887.596	1191
887.669	948
887.676	968
887.755	1202
887.774	1197
887.835	801
887.880	641
887.914	752
887.985	975
887.994	987
888.073	811
888.090	801
888.153	799
888.195	774
888.232	1018
888.300	1519
888.311	1489
888.391	1129
888.405	1057
888.470	433
888.510	40
888.549	94
888.615	288
888.628	324
888.708	356
888.720	375
888.787	872
888.825	1099
888.866	899
888.930	641
888.945	659
889.024	703
889.035	710
889.103	710
889.140	679
889.182	557
889.245	396
889.261	487
889.340	871
889.349	918
889.419	982
889.454	982
889.498	965
889.559	952
889.577	1067
889.656	1545
889.664	1588
889.735	1250
889.768	1077
889.814	1197
889.873	1351
889.978	428
890.083	1385
890.187	1107
890.292	846
890.397	1143
890.501	1180
890.606	-343
890.710	1078
890.815	567
890.919	1135
891.024	312
891.128	841
891.233	364
891.337	1628
891.442	1115
891.546	549
891.650	-56
891.755	1930
891.859	2637
891.963	427
892.068	849
892.172	995
892.276	-76
892.380	1402
892.484	436
892.589	1042
892.693	846
892.797	327
892.901	603
893.005	197
893.109	441
893.213	1184
893.317	376
893.421	528
893.525	959
893.629	484
893.733	26
893.837	833
893.941	780
894.045	1333
894.148	976
894.252	569
894.356	1223
894.460	1090
894.564	401
894.667	623
894.771	635
894.875	444
894.978	892
895.082	847
895.186	113
895.289	673
895.393	674
895.496	703
895.600	1247
895.703	1345
895.807	925
895.910	830
896.014	932
896.117	266
896.221	900
896.324	1209
896.427	589
896.531	455
896.634	288
896.737	568
896.840	750
896.944	124
897.047	839
897.150	873
897.253	611
897.356	474
897.460	-411
897.563	263
897.666	939
897.769	1102
897.872	802
897.975	979
898.078	330
898.181	579
898.284	57
898.387	73
898.490	420
898.593	671
898.695	523
898.798	1261
898.901	829
899.004	1035
899.107	435
899.209	714
899.312	-255
899.415	729
899.518	857
899.620	745
899.723	868
899.826	866
899.928	439
900.031	643
900.133	951
900.236	188
900.338	654
900.441	1233
900.543	200
900.646	571
900.748	1105
900.851	572
900.953	318
901.055	1199
901.158	318
901.260	424
901.362	902
901.465	183
901.567	586
901.669	766
901.771	-171
901.873	994
901.976	319
902.078	371
902.180	620
902.282	1107
902.384	413
902.486	857
902.588	591
902.690	1734
902.792	-66
902.894	1687
902.996	964
903.098	1026
903.200	507
903.302	1188
903.404	842
903.505	626
903.607	113
903.709	783
903.811	772
903.913	-50
904.014	606
904.116	-314
904.218	163
904.319	1034
904.421	1038
904.523	1468
904.624	394
904.726	261
904.827	506
904.929	2143
905.030	1299
905.132	878
905.233	606
905.335	288
905.436	-32
905.537	1096
905.639	348
905.740	487
905.841	-281
905.943	1031
906.044	678
906.145	785
906.247	-379
906.348	848
906.449	-161
906.550	118
906.651	416
906.752	267
906.854	-276
906.955	59
907.056	248
907.157	383
907.258	410
907.359	-528
907.460	305
907.561	825
907.662	364
907.762	792
907.863	816
907.964	369
908.065	223
908.166	679
908.267	-53
908.367	342
908.468	-268
908.569	884
908.670	672
908.770	999
908.871	680
908.971	1180
909.072	938
909.173	935
909.273	221
909.374	401
909.474	141
909.575	-86
909.675	-372
909.776	1149
909.876	-472
909.977	331
910.077	-393
910.177	-135
910.278	-557
910.378	651
910.478	96
910.579	627
910.679	-3
910.779	631
910.879	-152
910.980	-231
911.080	-678
911.180	660
911.280	-371
911.380	-231
911.480	93
911.580	343
911.680	372
911.780	913
911.880	-617
911.980	336
912.080	-260
912.180	359
912.280	6
912.380	937
912.480	22
912.580	54
912.679	1
912.779	1376
912.879	-170
912.979	421
913.078	-341
913.178	-108
913.278	283
913.377	-484
913.477	-16
913.577	-61
913.676	341
913.776	802
913.875	1237
913.975	732
914.074	-218
914.174	-752
914.273	115
914.373	1810
914.472	220
914.572	-111
914.671	31
914.770	-420
914.870	24
914.969	-116
915.068	102
915.167	184
915.267	-297
915.366	-378
915.465	-168
915.564	375
915.663	-272
915.763	-116
915.862	267
915.961	252
916.060	526
916.159	423
916.258	-634
916.357	-171
916.456	555
916.555	136
916.654	-20
916.752	754
916.851	101
916.950	818
917.049	-393
917.148	163
917.247	260
917.345	-54
917.444	-271
917.543	538
917.642	190
917.740	540
917.839	702
917.937	6
918.036	-46
918.135	532
918.233	-464
918.332	138
918.430	826
918.529	543
918.627	-60
918.726	-158
918.824	931
918.923	393
919.021	-217
919.119	444
919.218	-555
919.316	482
919.414	-472
919.512	-307
919.611	-186
919.709	464
919.807	-658
919.905	17
920.003	-142
920.102	354
920.200	568
920.298	234
920.396	180
920.494	-444
920.592	-92
920.690	413
920.788	696
920.886	748
920.984	-88
921.082	655
921.180	857
921.277	23
921.375	334
921.473	739
921.571	236
921.669	272
921.766	408
921.864	422
921.962	577
922.060	737
922.157	578
922.255	1824
922.352	785
922.450	290
922.548	460
922.645	806
922.743	1054
922.840	171
922.938	440
923.035	388
923.133	883
923.230	319
923.327	657
923.425	1017
923.522	839
923.619	326
923.717	-221
923.814	1402
923.911	-215
924.008	768
924.106	723
924.203	295
924.300	-132
924.397	385
924.494	1072
924.591	1192
924.688	616
924.786	825
924.883	220
924.979	787
925.077	846
925.173	1084
925.270	882
925.367	101
925.464	849
925.561	1582
925.658	888
925.755	1361
925.852	2368
925.948	1435
926.045	2135
926.142	1901
926.239	2181
926.335	2428
926.432	2002
926.529	2648
926.625	2561
926.722	1944
926.818	945
926.915	1163
927.011	232
927.108	513
927.204	1139
927.301	-204
927.397	1057
927.494	599
927.590	503
927.687	1088
927.783	-523
927.879	384
927.976	552
928.072	825
928.168	638
928.264	897
928.361	422
928.457	1231
928.553	329
928.649	861
928.745	547
928.841	690
928.937	663
929.033	1018
929.129	-362
929.225	650
929.321	-210
929.417	246
929.513	-156
929.609	488
929.705	359
929.801	383
929.897	292
929.993	505
930.089	642
930.184	256
930.280	210
930.376	1015
930.471	-455
930.567	897
930.663	502
930.758	-97
930.854	396
930.950	-893
931.045	-276
931.141	1563
931.236	370
931.332	67
931.427	460
931.523	626
931.618	660
931.714	668
931.809	805
931.905	581
932.000	160
932.095	272
932.191	379
932.286	-6
932.381	-305
932.476	597
932.572	379
932.667	129
932.762	53
932.857	718
932.952	27
933.047	-211
933.142	-317
933.237	425
933.332	299
933.427	755
933.522	191
933.617	32
933.712	379
933.807	650
933.902	309
933.997	907
934.092	30
934.187	577
934.282	-60
934.376	288
934.471	201
934.566	36
934.661	359
934.755	-552
934.850	156
934.945	433
935.039	-260
935.134	-74
935.228	93
935.323	1314
935.417	420
935.512	780
935.606	-156
935.701	755
935.795	-100
935.890	507
935.984	199
936.079	194
936.173	-670
936.267	574
936.362	-69
936.456	528
936.550	-92
936.644	296
936.738	-405
936.833	929
936.927	314
937.021	146
937.115	-24
937.209	136
937.303	-74
937.397	202
937.491	906
937.585	-375
937.679	372
937.773	-907
937.867	-248
937.961	755
938.055	-22
938.149	1220
938.243	-189
938.337	649
938.430	609
938.524	1476
938.618	2290
938.712	2227
938.805	-111
938.899	177
938.993	604
939.086	1289
939.180	2673
939.274	3928
939.367	820
939.461	864
939.554	498
939.648	151
939.741	-506
939.835	807
939.928	941
940.022	333
940.115	-709
940.208	1132
940.302	-174
940.395	659
940.488	-685
940.582	933
940.675	-291
940.768	618
940.861	-305
940.954	731
941.048	-377
941.141	-16
941.234	-336
941.327	1956
941.420	1303
941.513	729
941.606	-446
941.699	527
941.792	256
941.885	233
941.978	-212
942.071	-15
942.164	-858
942.257	353
942.349	161
942.442	-148
942.535	-421
942.628	263
942.721	596
942.813	-1483
942.906	220
942.999	374
943.091	-115
943.184	247
943.277	-1037
943.369	263
943.462	-339
943.554	125
943.647	-654
943.739	-46
943.832	-693
943.924	-413
944.017	-49
944.109	-517
944.201	-959
944.294	197
944.386	-366
944.478	182
944.571	-682
944.663	-44
944.755	62
944.847	-114
944.940	45
945.032	-232
945.124	-572
945.216	449
945.308	-669
945.400	-498
945.492	-118
945.584	-60
945.676	-367
945.768	-25
945.860	802
945.952	-35
946.044	409
946.136	-610
946.228	96
946.320	-688
946.412	-473
946.503	363
946.595	381
946.687	-130
946.779	-392
946.870	-454
946.962	-785
947.054	368
947.145	502
947.237	-70
947.329	-147
947.420	122
947.512	-693
947.603	-357
947.695	-271
947.786	-857
947.878	-1168
947.969	348
948.061	-1012
948.152	-886
948.243	277
948.335	-61
948.426	-881
948.517	-677
948.609	-615
948.700	-519
948.791	-921
948.882	-55
948.973	-929
949.065	794
949.156	-832
949.247	-583
949.338	-533
949.429	-892
949.520	-1059
949.611	-888
949.702	389
949.793	-154
949.884	-467
949.975	-731
950.066	-463
950.157	-170
950.247	-515
950.338	-263
950.429	-715
950.520	654
950.611	-100
950.701	502
950.792	-508
950.883	298
950.973	-172
951.064	195
951.155	-781
951.245	140
951.336	-695
951.427	-732
951.517	596
951.608	-411
951.698	-935
951.788	-279
951.879	-363
951.969	-516
952.060	-1009
952.150	-191
952.240	-1284
952.331	-1144
952.421	791
952.511	-1135
952.602	-963
952.692	-355
952.782	-796
952.872	208
952.962	-820
953.052	-105
953.143	-1197
953.233	-296
953.323	-1012
953.413	-909
953.503	-982
953.593	-620
953.683	-515
953.773	-999
953.863	-712
953.953	-53
954.042	-302
954.132	-822
954.222	-516
954.312	-271
954.402	348
954.492	1293
954.581	1647
954.671	538
954.761	-907
954.850	459
954.940	-645
955.030	-797
955.119	1
955.209	-160
955.298	-1469
955.388	318
955.477	122
955.567	-646
955.656	-170
955.746	-225
955.835	-460
955.925	-1816
956.014	-859
956.103	-416
956.193	-503
956.282	-771
956.371	-592
956.461	-935
956.550	-1410
956.639	-948
956.728	-1010
956.817	-386
956.906	-873
956.995	-364
957.085	-1544
957.174	-663
957.263	-1652
957.352	-773
957.441	-1074
957.530	-491
957.619	-1530
957.708	-689
957.796	-1142
957.885	96
957.974	-1060
958.063	94
958.152	-1669
958.241	-550
958.329	-800
958.418	-410
958.507	-449
958.596	840
958.684	-1075
958.773	130
958.861	-1341
958.950	-166
959.039	-162
959.127	-844
959.216	-634
959.304	21
959.393	-591
959.481	-193
959.570	-381
959.658	449
959.746	-677
959.835	1512
959.923	2321
960.011	308
960.100	7
960.188	-1104
960.276	-916
960.365	-1147
960.453	1
960.541	-1380
960.629	13
960.717	-755
960.805	-1057
960.893	-597
960.981	-1764
961.069	369
961.158	-482
961.245	-67
961.333	-1121
961.421	-831
961.509	-854
961.597	-748
961.685	-1442
961.773	-1219
961.861	-1208
961.949	265
962.036	-543
962.124	601
962.212	-1014
962.299	-292
962.387	-807
962.475	-830
962.562	-1130
962.650	-634
962.738	97
962.825	-502
962.913	-907
963.000	-926
963.088	-823
963.175	-627
963.263	-236
963.350	-235
963.438	843
963.525	85
963.612	3323
963.700	8815
963.787	16818
963.874	5717
963.962	-130
964.049	-257
964.136	-999
964.223	-663
964.310	-778
964.398	388
964.485	-174
964.572	-145
964.659	1897
964.746	1458
964.833	73
964.920	-633
965.007	-587
965.094	-396
965.181	-830
965.268	-986
965.355	-724
965.441	-19
965.528	-2018
965.615	746
965.702	-1349
965.789	-684
965.875	11
965.962	-675
966.049	-1000
966.136	-3
966.222	-833
966.309	-427
966.395	-859
966.482	197
966.569	-979
966.655	-566
966.742	-1628
966.828	-752
966.915	-1033
967.001	-35
967.087	-579
967.174	43
967.260	-106
967.347	1523
967.433	6290
967.519	9892
967.605	2080
967.692	-486
967.778	-741
967.864	12
967.950	-370
968.036	-426
968.123	-462
968.209	-309
968.295	-1714
968.381	1084
968.467	-280
968.553	-1241
968.639	221
968.725	-585
968.811	873
968.897	833
968.983	-827
969.069	-668
969.154	5
969.240	-138
969.326	-857
969.412	-1220
969.497	-487
969.583	-870
969.669	391
969.755	-486
969.840	-1590
969.926	-1
970.012	-528
970.097	443
970.183	-692
970.268	-6
970.354	619
970.439	2449
970.525	7109
970.610	739
970.696	118
970.781	-372
970.866	-1462
970.952	-159
971.037	-858
971.122	-551
971.208	-1371
971.293	-337
971.378	-1889
971.463	109
971.549	-673
971.634	-189
971.719	84
971.804	-26
971.889	924
971.974	-455
972.059	-1401
972.144	-214
972.229	-906
972.314	-601
972.399	-409
972.484	-272
972.569	139
972.654	475
972.739	3003
972.824	2713
972.908	62
972.993	-425
973.078	-1502
973.163	-295
973.247	-324
973.332	-1894
973.417	442
973.501	-1176
973.586	-917
973.671	-921
973.755	-879
973.840	-77
973.924	-485
974.009	340
974.093	-915
974.178	1606
974.262	2717
974.346	1708
974.431	182
974.515	-428
974.600	-1339
974.684	-202
974.768	-731
974.852	-508
974.937	-1347
975.021	-201
975.105	-1237
975.189	-548
975.273	-195
975.358	-1174
975.442	-1273
975.526	161
975.610	-1297
975.694	-1776
975.778	-718
975.862	-879
975.946	-2966
976.030	607
976.114	-1161
976.198	-381
976.281	-1532
976.365	159
976.449	-419
976.533	-140
976.617	-1783
976.700	-149
976.784	-933
976.868	-778
976.951	811
977.035	-237
977.119	-526
977.202	-87
977.286	-243
977.369	-1044
977.453	-895
977.536	-243
977.620	-1563
977.703	14
977.787	-1078
977.870	-489
977.953	48
978.037	-1011
978.120	1495
978.203	2342
978.287	2436
978.370	1528
978.453	-600
978.536	-50
978.620	895
978.703	1455
978.786	-394
978.869	-1212
978.952	-1644
979.035	444
979.118	-830
979.201	-896
979.284	-244
979.367	-1592
979.450	-779
979.533	-1417
979.616	-775
979.699	-746
979.782	-192
979.865	-805
979.948	-1512
980.030	-1702
980.113	99
980.196	-1767
980.279	-344
980.361	-1066
980.444	-821
980.526	-621
980.609	-1652
980.692	-937
980.774	-881
980.857	-1740
980.939	280
981.022	-1228
981.104	-166
981.187	-1270
981.269	-195
981.352	-229
981.434	-2137
981.516	-901
981.599	-133
981.681	-892
981.763	-1402
981.846	-544
981.928	-1048
982.010	-705
982.092	-1352
982.174	-729
982.256	-1700
982.339	-231
982.421	-1700
982.503	-718
982.585	-1310
982.667	-518
982.749	-685
982.831	-1105
982.913	-972
982.995	-282
983.077	-1343
983.158	869
983.240	-1891
983.322	-90
983.404	-1032
983.486	-1939
983.568	-647
983.649	-1081
983.731	-1302
983.813	-1231
983.894	-912
983.976	-1339
984.058	-1253
984.139	465
984.221	-1969
984.302	-202
984.384	-1099
984.465	-1596
984.547	-351
984.628	-1361
984.710	-678
984.791	-993
984.872	-302
984.954	-947
985.035	-1603
985.116	-927
985.198	-1807
985.279	682
985.360	-1825
985.441	-1181
985.522	-473
985.604	-144
985.685	-2411
985.766	-707
985.847	132
985.928	-731
986.009	-748
986.090	-1121
986.171	-120
986.252	-1177
986.333	-967
986.414	-370
986.495	-1378
986.576	-1392
986.656	-1319
986.737	-999
986.818	-374
986.899	-1803
986.980	-1026
987.060	-477
987.141	-1960
987.222	-582
987.302	-1773
987.383	-585
987.464	-918
987.544	-596
987.625	-1466
987.705	-122
987.786	-987
987.866	-1171
987.947	-1795
988.027	17
988.108	-2258
988.188	-350
988.268	-1307
988.349	-569
988.429	-1635
988.509	-399
988.589	-1346
988.670	-2160
988.750	233
988.830	-1501
988.910	-1059
988.990	-424
989.070	-1462
989.151	-767
989.231	-1564
989.311	-639
989.391	-1053
989.471	-582
989.551	-1611
989.631	-857
989.711	-963
989.791	-1748
989.870	-1245
989.950	-345
990.030	-1294
990.110	-819
990.190	-885
990.269	-1334
990.349	-1373
990.429	-1003
990.509	-398
990.588	-1555
990.668	-1025
990.747	-627
990.827	-803
990.907	-134
990.986	-1196
991.066	-1517
991.145	-1272
991.225	-888
991.304	-1320
991.383	-442
991.463	-1249
991.542	-1159
991.622	-316
991.701	-1322
991.780	-1692
991.859	-180
991.939	-1538
992.018	-698
992.097	-1458
992.176	-1234
992.256	-550
992.335	-1270
992.414	-1156
992.493	-1499
992.572	-2110
992.651	-349
992.730	-1657
992.809	-748
992.888	-1666
992.967	-1590
993.046	-1015
993.125	-1982
993.203	-1117
993.282	-577
993.361	-1290
993.440	-1019
993.519	-2161
993.597	-594
993.676	-1544
993.755	-306
993.834	-1692
993.912	-2208
993.991	-342
994.069	-1358
994.148	-2032
994.226	-1703
994.305	-1822
994.384	-915
994.462	-338
994.540	-1788
994.619	-1463
994.697	-1209
994.776	-1579
994.854	-576
994.932	-1763
995.011	-540
995.089	-830
995.167	-636
995.245	-1068
995.324	-2102
995.402	-1243
995.480	-851
995.558	-1218
995.636	-1608
995.714	-1772
995.792	-542
995.870	-1912
995.948	-511
996.026	-1100
996.104	-2033
996.182	-723
996.260	-826
996.338	-1056
996.416	-2369
996.494	-2351
996.572	-327
996.649	-1144
996.727	-1691
996.805	-1084
996.883	-1289
996.960	-1678
997.038	-752
997.116	-1235
997.193	-2313
997.271	-1012
997.348	-1819
997.426	-1401
997.504	-1854
997.581	-542
997.658	-491
997.736	-2342
997.813	-973
997.891	-530
997.968	-1946
998.046	-1553
998.123	-760
998.200	-855
998.277	-1241
998.355	-1599
998.432	-2152
998.509	-1967
998.586	-405
998.663	-1147
998.741	-1512
998.818	-1632
998.895	-1245
998.972	-1076
999.049	-1120
999.126	-1208
999.203	-1172
999.280	-723
999.357	-1136
999.434	-1974
999.511	-619
999.587	-1147
999.664	-2048
999.741	-1288
999.818	-906
999.895	-1433
999.971	-1772
1000.048	-795
1000.125	-159
1000.202	-1538
1000.278	-1456
1000.355	-1623
1000.431	-1615
1000.508	-1423
1000.584	-988
1000.661	-1048
1000.738	-1856
1000.814	-1277
1000.890	-380
1000.967	-1143
1001.043	-964
1001.120	-1424
1001.196	-648
1001.272	-1583
1001.349	-1286
1001.425	-1039
1001.501	-719
1001.577	-2001
1001.654	-1162
1001.730	-1015
1001.806	-962
1001.882	-2556
1001.958	-651
1002.034	-762
1002.110	-271
1002.186	-1441
1002.262	-1231
1002.338	-1079
1002.414	-367
1002.490	-1233
1002.566	-2014
1002.642	-1571
1002.718	-427
1002.794	-812
1002.870	-899
1002.945	-2651
1003.021	-746
1003.097	-1147
1003.173	-1032
1003.248	-1487
1003.324	-1147
1003.400	-1012
1003.475	-1315
1003.551	-1732
1003.626	-1390
1003.702	-1728
1003.777	-945
1003.853	-1608
1003.928	-1979
1004.004	-1574
1004.079	-444
1004.155	-1482
1004.230	-1827
1004.305	-300
1004.381	-998
1004.456	-814
1004.531	-838
1004.607	-962
1004.682	-1134
1004.757	-894
1004.832	-997
1004.907	-1993
1004.982	-1112
1005.057	-1384
1005.133	-1136
1005.208	-1553
1005.283	-1452
1005.358	-889
1005.433	-1571
1005.508	-1098
1005.583	-1157
1005.657	-1205
1005.732	-146
1005.807	-2455
1005.882	-1259
1005.957	-1564
1006.032	-244
1006.106	-1007
1006.181	-428
1006.256	-1178
1006.331	-1352
1006.405	-1024
1006.480	-1457
1006.554	-1213
1006.629	-922
1006.704	-1217
1006.778	-1507
1006.853	-461
1006.927	-890
1007.002	-823
1007.076	-500
1007.150	-1156
1007.225	-634
1007.299	-838
1007.373	-1020
1007.448	-1684
1007.522	-622
1007.596	-694
1007.671	-295
1007.745	-1094
1007.819	-1744
1007.893	-1480
1007.967	-559
1008.041	-2090
1008.115	-425
1008.190	-1423
1008.264	-676
1008.338	-2640
1008.412	-1136
1008.486	-539
1008.560	-1293
1008.633	-2326
1008.707	-1485
1008.781	-938
1008.855	-1515
1008.929	-1248
1009.003	-1258
1009.076	-2230
1009.150	-906
1009.224	-1170
1009.298	-1101
1009.371	-1740
1009.445	-724
1009.519	-1815
1009.592	-2199
1009.666	-556
1009.739	-1231
1009.813	-2002
1009.886	-310
1009.960	-2181
1010.033	-395
1010.107	-181
1010.180	-1929
1010.253	-930
1010.327	-2004
1010.400	-1911
1010.473	-961
1010.547	17
1010.620	-1264
1010.693	-1641
1010.766	-678
1010.840	-1246
1010.913	-1009
1010.986	-1850
1011.059	-532
1011.132	-1646
1011.205	-869
1011.278	-1098
1011.351	-1222
1011.424	-597
1011.497	-1260
1011.570	-1598
1011.643	-1141
1011.716	-1441
1011.789	-950
1011.862	-1563
1011.934	-325
1012.007	-1894
1012.080	-807
1012.153	-1297
1012.225	-301
1012.298	-1788
1012.371	-1589
1012.443	-1554
1012.516	-1578
1012.588	-736
1012.661	-656
1012.733	-2395
1012.806	-983
1012.879	-1792
1012.951	-1182
1013.023	-1680
1013.096	-786
1013.168	-1446
1013.241	-246
1013.313	-1547
1013.385	-1254
1013.458	-1940
1013.530	-40
1013.602	-1930
1013.674	-792
1013.746	-1818
1013.819	-1759
1013.891	-565
1013.963	-1564
1014.035	-1865
1014.107	-368
1014.179	-1247
1014.251	-2148
1014.323	-1385
1014.395	-1243
1014.467	-1890
1014.539	-759
1014.611	-1157
1014.683	-1184
1014.754	-1212
1014.826	-1198
1014.898	-765
1014.970	-1708
1015.042	-652
1015.113	-1385
1015.185	-1206
1015.257	-2030
1015.328	-1732
1015.400	-1211
1015.471	-1527
1015.543	-1138
1015.615	-1074
1015.686	-1653
1015.757	-1657
1015.829	-571
1015.901	-1727
1015.972	-1312
1016.043	-2324
1016.115	-862
1016.186	-1260
1016.257	-1748
1016.328	-1415
1016.400	-433
1016.471	-2783
1016.542	-1392
1016.613	-1472
1016.685	-2096
1016.756	-1384
1016.827	-1372
1016.898	-1989
1016.969	-667
1017.040	-1771
1017.111	-1132
1017.182	-1737
1017.253	-1170
1017.324	-2145
1017.395	-2159
1017.466	-1870
1017.537	-1587
1017.608	-1745
1017.678	-1223
1017.749	-1736
1017.820	-1580
1017.891	-1745
1017.961	-1707
1018.032	-2205
1018.103	-1751
1018.173	-1557
1018.244	-1177
1018.315	-2318
1018.385	-1648
1018.456	-1281
1018.526	-1875
1018.597	-1875
1018.667	-1149
1018.738	-1624
1018.808	-1561
1018.878	-1599
1018.949	-1876
1019.019	-1386
1019.089	-1932
1019.160	-1432
1019.230	-1917
1019.300	-1611
1019.371	-1581
1019.441	-1590
1019.511	-1535
1019.581	-2057
1019.651	-1730
1019.721	-1228
1019.791	-1246
1019.861	-1861
1019.931	-2231
1020.001	-2330
1020.071	-2277
1020.141	-1511
1020.211	-1678
1020.281	-1451
1020.351	-1378
1020.421	-1476
1020.491	-806
1020.560	-2203
1020.630	-1253
1020.700	-1620
1020.770	-1759
1020.839	-2241
1020.909	-1885
1020.979	-1925
1021.048	-2338
1021.118	-2322
1021.187	-2012
1021.257	-1929
1021.326	-1977
1021.396	-2171
1021.465	-1573
1021.535	-832
1021.604	-1724
1021.674	-2052
1021.743	-842
1021.812	-1614
1021.882	-1603
1021.951	-2620
1022.020	-897
1022.089	-2201
1022.159	-2371
1022.228	-1566
1022.297	-1746
1022.366	-2024
1022.435	-2325
1022.504	-1582
1022.573	-2071
1022.642	-2233
1022.711	-1693
1022.781	-1491
1022.849	-1325
1022.918	-2067
1022.987	-1740
1023.056	-1937
1023.125	-1715
1023.194	-1789
1023.263	-1616
1023.331	-1620
1023.400	-1741
1023.469	-1826
1023.538	-905
1023.606	-2288
1023.675	-869
1023.744	-2025
1023.812	-1393
1023.881	-1983
1023.949	-1923
1024.018	-1886
1024.086	-2329
1024.155	-1870
1024.223	-2285
1024.292	-1396
1024.360	-1438
1024.429	-1268
1024.497	-1429
1024.565	-1522
1024.634	-1438
1024.702	-1639
1024.770	-1421
1024.838	-2575
1024.907	-1750
1024.975	-1434
1025.043	-1789
1025.111	-2539
1025.179	-1815
1025.247	-2772
1025.315	-1701
1025.383	-2436
1025.451	-2358
1025.519	-2431
1025.587	-1702
1025.655	-1773
1025.723	-2485
1025.791	-1613
1025.859	-1536
1025.927	-2155
1025.995	-2207
1026.062	-1416
1026.130	-1222
1026.198	-2802
1026.266	-1937
1026.333	-1927
1026.401	-1143
1026.469	-2267
1026.536	-2194
1026.604	-2033
1026.671	-1797
1026.739	-1587
1026.806	-1654
1026.874	-1923
1026.941	-1610
1027.009	-1920
1027.076	-1910
1027.144	-961
1027.211	-2226
1027.278	-1793
1027.345	-1621
1027.413	-2110
1027.480	-1968
1027.547	-2274
1027.614	-1645
1027.682	-2743
1027.749	-1783
1027.816	-1913
1027.883	-1007
1027.950	-1356
1028.017	-1849
1028.084	-2152
1028.151	-2410
1028.218	-2303
1028.285	-1515
1028.352	-2676
1028.419	-2143
1028.486	-2264
1028.553	-2347
1028.619	-1647
1028.686	-1338
1028.753	-2737
1028.820	-1824
1028.886	-2246
1028.953	-1581
1029.020	-1933
1029.086	-1279
1029.153	-3011
1029.220	-2147
1029.286	-2892
1029.353	-1592
1029.419	-2097
1029.486	-1912
1029.552	-2285
1029.619	-812
1029.685	-2414
1029.751	-1779
1029.818	-1556
1029.884	-2002
1029.951	-1271
1030.017	-1909
1030.083	-2390
1030.149	-2050
1030.216	-2216
1030.282	-2345
1030.348	-2142
1030.414	-1556
1030.480	-1751
1030.546	-1435
1030.612	-1984
1030.678	-1898
1030.744	-2351
1030.810	-1433
1030.876	-2060
1030.942	-1590
1031.008	-2839
1031.074	-2177
1031.140	-1908
1031.206	-1388
1031.272	-2548
1031.337	-1454
1031.403	-1986
1031.469	-2137
1031.534	-1646
1031.600	-1525
1031.666	-1987
1031.731	-2275
1031.797	-1800
1031.863	-2038
1031.928	-2566
1031.994	-2397
1032.059	-1818
1032.125	-1267
1032.190	-2346
1032.256	-1905
1032.321	-2606
1032.386	-1989
1032.452	-1464
1032.517	-1989
1032.582	-1986
1032.647	-2075
1032.713	-2257
1032.778	-1522
1032.843	-1816
1032.908	-1915
1032.974	-1824
1033.039	-2935
1033.104	-1550
1033.169	-1891
1033.234	-2595
1033.299	-1391
1033.364	-1671
1033.429	-2211
1033.494	-1318
1033.559	-1935
1033.624	-1935
1033.688	-1073
1033.753	-2029
1033.818	-1971
1033.883	-1519
1033.948	-1893
1034.013	-2371
1034.077	-1749
1034.142	-1600
1034.207	-1368
1034.271	-1269
1034.336	-2026
1034.400	-1684
1034.465	-1871
1034.530	-2177
1034.594	-1471
1034.658	-1602
1034.723	-1913
1034.787	-984
1034.852	-1674
1034.916	-2483
1034.981	-2094
1035.045	-1670
1035.109	-2371
1035.173	-1998
1035.238	-1688
1035.302	-1694
1035.366	-2080
1035.430	-2210
1035.495	-2152
1035.559	-1709
1035.623	-1621
1035.687	-2742
1035.751	-1644
1035.815	-1988
1035.879	-2064
1035.943	-2095
1036.007	-2185
1036.071	-1767
1036.135	-2212
1036.198	-2571
1036.262	-1816
1036.326	-1210
1036.390	-2316
1036.454	-2054
1036.517	-2162
1036.581	-1718
1036.645	-1792
1036.709	-2285
1036.772	-2000
1036.836	-2052
1036.900	-1430
1036.963	-2543
1037.026	-2137
1037.090	-1898
1037.154	-2033
1037.217	-2621
1037.280	-1562
1037.344	-1825
1037.407	-1965
1037.471	-2601
1037.534	-2259
1037.597	-2568
1037.661	-591
1037.724	-1956
1037.787	-2355
1037.850	-2676
1037.913	-1766
1037.977	-1038
1038.040	-1774
1038.103	-2147
1038.166	-1578
1038.229	-1652
1038.292	-1365
1038.355	-1465
1038.418	-1927
1038.481	-1056
1038.544	-2148
1038.607	-1938
1038.670	-1706
1038.732	-1690
1038.795	-1918
1038.858	-1061
1038.921	-1866
1038.984	-1037
1039.046	-2372
1039.109	-1987
1039.172	-2081
1039.234	-1395
1039.297	-2346
1039.360	-1085
1039.422	-1734
1039.485	-1431
1039.547	-1830
1039.610	-1518
1039.672	-1610
1039.734	-1655
1039.797	-2067
1039.859	-2325
1039.922	-2085
1039.984	-1713
1040.046	-1286
1040.109	-2156
1040.171	-1924
1040.233	-2169
1040.295	-1468
1040.358	-1695
1040.420	-1755
1040.482	-2047
1040.544	-2022
1040.606	-2035
1040.668	-2341
1040.730	-1840
1040.792	-1737
1040.854	-2279
1040.916	-2209
1040.978	-2228
1041.040	-711
1041.102	-2073
1041.164	-2277
1041.225	-1111
1041.287	-1848
1041.349	-1542
1041.411	-1711
1041.472	-1745
1041.534	-1347
1041.596	-2177
1041.657	-1454
1041.719	-2013
1041.781	-1846
1041.842	-1977
1041.904	-2209
1041.965	-2656
1042.027	-908
1042.088	-1596
1042.150	-1998
1042.211	-1512
1042.272	-1183
1042.334	-2245
1042.395	-1362
1042.456	-1776
1042.518	-1077
1042.579	-1852
1042.640	-1693
1042.701	-2293
1042.763	-1330
1042.824	-1513
1042.885	-2243
1042.946	-1632
1043.007	-1311
1043.068	-1330
1043.129	-1079
1043.190	-1821
1043.251	-1688
1043.312	-2180
1043.373	-1543
1043.434	-2945
1043.495	-1352
1043.556	-1402
1043.616	-1593
1043.677	-2491
1043.738	-1546
1043.799	-2017
1043.859	-1210
1043.920	-2216
1043.981	-1843
1044.041	-1812
1044.102	-1712
1044.162	-1998
1044.223	-1874
1044.284	-1764
1044.344	-1226
1044.405	-2229
1044.465	-1745
1044.525	-2414
1044.586	-1564
1044.646	-1933
1044.707	-1126
1044.767	-1589
1044.827	-2590
1044.887	-869
1044.948	-2140
1045.008	-1737
1045.068	-1652
1045.128	-2008
1045.188	-1843
1045.249	-1668
1045.309	-1404
1045.369	-1410
1045.429	-1482
1045.489	-1577
1045.549	-1578
1045.609	-1356
1045.669	-1984
1045.729	-2003
1045.789	-1747
1045.848	-2086
1045.908	-1241
1045.968	-1146
1046.028	-1000
1046.088	-1125
1046.147	-695
1046.207	-1575
1046.267	-1475
1046.326	-1589
1046.386	-929
1046.446	-1454
1046.505	-676
1046.565	-1408
1046.624	-1146
1046.684	-1179
1046.743	-212
1046.803	-739
1046.862	10
1046.922	0
