'Start Wavelength	183.907
'End Wavelength	1046.922
'Gate Delay	5.000
'Gate Width (ms)	1.050
'Laser Output Level	0.000
'X Position	0.000
'Y Position	0.000
'Z Position	0.000
'Grid Point Number	1.000
'Shot Number	100.000
183.907	261.000
183.977	172.000
184.047	310
184.116	467
184.186	564
184.256	26
184.325	-538
184.395	-124
184.465	1124
184.534	-280
184.604	36
184.674	136
184.743	-293
184.813	240
184.883	-211
184.952	15
185.022	-346
185.092	-21
185.161	-444
185.231	129
185.301	-431
185.370	122
185.440	-355
185.509	-153
185.579	292
185.649	-472
185.718	-203
185.788	560
185.857	134
185.927	-68
185.996	313
186.066	454
186.136	-115
186.205	276
186.275	256
186.344	218
186.414	336
186.483	-44
186.553	1371
186.622	322
186.692	-52
186.761	77
186.831	285
186.900	-488
186.970	85
187.039	748
187.109	125
187.178	85
187.248	137
187.317	-192
187.387	-315
187.456	151
187.526	-94
187.595	214
187.664	250
187.734	391
187.803	-179
187.873	363
187.942	113
188.012	338
188.081	-262
188.150	-612
188.220	-123
188.289	408
188.358	-66
188.428	404
188.497	-143
188.567	705
188.636	-774
188.705	282
188.775	-54
188.844	-607
188.913	1165
188.983	238
189.052	-75
189.121	-393
189.191	298
189.260	999
189.329	128
189.399	139
189.468	125
189.537	133
189.606	-152
189.676	-665
189.745	660
189.814	878
189.883	183
189.953	351
190.022	204
190.091	163
190.161	175
190.230	1069
190.299	-332
190.368	93
190.437	-88
190.507	660
190.576	-135
190.645	106
190.714	-853
190.783	86
190.853	370
190.922	-25
190.991	285
191.060	631
191.129	-152
191.198	912
191.268	-784
191.337	-320
191.406	573
191.475	453
191.544	343
191.613	-252
191.682	319
191.752	-45
191.821	-466
191.890	148
191.959	178
192.028	-28
192.097	403
192.166	850
192.235	-654
192.304	1305
192.373	-117
192.442	742
192.511	-26
192.580	197
192.650	-138
192.719	389
192.788	676
192.857	414
192.926	-212
192.995	59
193.064	-76
193.133	747
193.202	455
193.271	684
193.340	801
193.409	933
193.478	480
193.547	922
193.615	606
193.684	1060
193.753	797
193.822	684
193.891	-14
193.960	574
194.029	-38
194.098	284
194.167	-827
194.236	731
194.305	-180
194.374	-612
194.443	-24
194.512	443
194.580	653
194.649	327
194.718	733
194.787	444
194.856	-869
194.925	-156
194.994	-305
195.062	-219
195.131	22
195.200	520
195.269	-2
195.338	182
195.407	131
195.475	175
195.544	291
195.613	-40
195.682	1018
195.751	31
195.819	-67
195.888	753
195.957	854
196.026	-51
196.094	6
196.163	143
196.232	225
196.301	835
196.369	253
196.438	699
196.507	-44
196.576	-72
196.644	-355
196.713	319
196.782	94
196.850	518
196.919	-24
196.988	459
197.056	-200
197.125	309
197.194	-210
197.262	-430
197.331	-346
197.400	-159
197.468	306
197.537	196
197.606	-220
197.674	603
197.743	901
197.812	-55
197.880	61
197.949	-46
198.017	414
198.086	425
198.155	-11
198.223	793
198.292	675
198.360	439
198.429	90
198.497	689
198.566	53
198.635	771
198.703	404
198.772	450
198.840	216
198.909	337
198.977	61
199.046	310
199.114	282
199.183	19
199.251	602
199.320	241
199.388	725
199.457	401
199.525	-576
199.594	12
199.662	-908
199.731	-5
199.799	577
199.867	-72
199.936	64
200.004	554
200.073	529
200.141	-37
200.210	1118
200.278	-29
200.346	52
200.415	781
200.483	332
200.552	552
200.620	-370
200.688	250
200.757	447
200.825	7
200.893	359
200.962	415
201.030	234
201.098	655
201.167	-432
201.235	895
201.303	-234
201.372	816
201.440	14
201.508	945
201.577	600
201.645	141
201.713	-377
201.781	-142
201.850	370
201.918	629
201.986	-118
202.055	1168
202.123	-72
202.191	216
202.259	62
202.327	499
202.396	182
202.464	288
202.532	-422
202.600	1066
202.669	60
202.737	-63
202.805	-374
202.873	284
202.941	84
203.009	739
203.078	657
203.146	387
203.214	-449
203.282	106
203.350	1082
203.418	152
203.487	719
203.555	-38
203.623	1004
203.691	362
203.759	293
203.827	489
203.895	207
203.963	-326
204.031	-342
204.099	698
204.168	171
204.236	283
204.304	95
204.372	180
204.440	694
204.508	81
204.576	-40
204.644	43
204.712	103
204.780	633
204.848	296
204.916	779
204.984	424
205.052	778
205.120	717
205.188	295
205.256	294
205.324	43
205.392	104
205.460	503
205.528	300
205.596	323
205.664	360
205.732	7
205.799	422
205.867	829
205.935	-48
206.003	724
206.071	757
206.139	217
206.207	1271
206.275	555
206.343	-42
206.411	522
206.478	218
206.546	110
206.614	-167
206.682	691
206.750	213
206.818	520
206.885	612
206.953	205
207.021	504
207.089	825
207.157	-304
207.225	469
207.292	1246
207.360	281
207.428	270
207.496	886
207.563	77
207.631	371
207.699	-148
207.767	396
207.834	-382
207.902	167
207.970	92
208.038	668
208.105	140
208.173	379
208.241	208
208.309	785
208.376	474
208.444	390
208.512	421
208.579	-111
208.647	154
208.715	1661
208.782	-126
208.850	39
208.918	516
208.985	966
209.053	763
209.120	575
209.188	203
209.256	881
209.323	-192
209.391	455
209.459	1179
209.526	332
209.594	-4
209.661	407
209.729	895
209.796	719
209.864	422
209.932	-274
209.999	1583
210.067	1297
210.134	-149
210.202	1114
210.269	1468
210.337	1215
210.404	104
210.472	558
210.539	337
210.607	-125
210.674	520
210.742	956
210.809	-340
210.877	316
210.944	671
211.012	-36
211.079	1382
211.146	486
211.214	46
211.281	429
211.349	990
211.416	913
211.484	453
211.551	257
211.618	642
211.686	1319
211.753	454
211.821	832
211.888	581
211.955	654
212.023	493
212.090	755
212.157	645
212.225	53
212.292	1516
212.359	1920
212.427	3338
212.494	2352
212.561	1547
212.629	403
212.696	867
212.763	1057
212.831	-41
212.898	1375
212.965	467
213.032	921
213.100	536
213.167	204
213.234	498
213.301	1452
213.369	809
213.436	208
213.503	482
213.570	734
213.638	1144
213.705	200
213.772	-128
213.839	171
213.906	1616
213.973	1022
214.041	324
214.108	1241
214.175	968
214.242	152
214.309	405
214.376	104
214.444	231
214.511	1000
214.578	48
214.645	1361
214.712	790
214.779	332
214.846	654
214.913	1704
214.980	1033
215.048	781
215.115	1373
215.182	1012
215.249	541
215.316	1001
215.383	1189
215.450	404
215.517	1014
215.584	475
215.651	279
215.718	1134
215.785	273
215.852	108
215.919	1358
215.986	729
216.053	-245
216.120	810
216.187	645
216.254	1280
216.321	198
216.388	1310
216.455	238
216.522	641
216.589	808
216.656	1169
216.722	755
216.789	1036
216.856	734
216.923	1173
216.990	934
217.057	1820
217.124	1472
217.191	532
217.258	1717
217.324	1951
217.391	1947
217.458	882
217.525	684
217.592	896
217.659	-253
217.725	2133
217.792	565
217.859	1447
217.926	-303
217.993	1613
218.059	697
218.126	529
218.193	309
218.260	806
218.327	-172
218.393	628
218.460	181
218.527	-182
218.594	774
218.660	994
218.727	1288
218.794	225
218.860	770
218.927	283
218.994	-122
219.061	383
219.127	552
219.194	731
219.261	882
219.327	646
219.394	1009
219.461	-410
219.527	87
219.594	942
219.661	-369
219.727	305
219.794	836
219.860	-93
219.927	496
219.994	1652
220.060	1603
220.127	1721
220.193	1657
220.260	1139
220.326	1541
220.393	2451
220.460	2724
220.526	2101
220.593	890
220.659	2207
220.726	1352
220.792	3252
220.859	2987
220.925	4558
220.992	5004
221.058	4233
221.125	3174
221.191	2316
221.258	729
221.324	2092
221.391	70
221.457	1068
221.524	1089
221.590	1445
221.657	2490
221.723	1206
221.789	905
221.856	2118
221.922	310
221.989	1876
222.055	186
222.121	-627
222.188	2116
222.254	1264
222.321	-19
222.387	-246
222.453	259
222.520	538
222.586	-5
222.652	1370
222.719	-105
222.785	764
222.851	19
222.918	531
222.984	368
223.050	-25
223.116	-621
223.183	1369
223.249	-77
223.315	312
223.382	769
223.448	601
223.514	113
223.580	441
223.647	-101
223.713	-58
223.779	849
223.845	324
223.911	370
223.978	-67
224.044	296
224.110	463
224.176	-178
224.242	135
224.309	-764
224.375	812
224.441	173
224.507	6
224.573	-271
224.639	713
224.705	63
224.772	-67
224.838	73
224.904	1010
224.970	360
225.036	348
225.102	-629
225.168	1199
225.234	359
225.300	1053
225.366	219
225.432	964
225.499	553
225.565	565
225.631	72
225.697	317
225.763	924
225.829	1300
225.895	841
225.961	1472
226.027	1034
226.093	530
226.159	1960
226.225	3174
226.291	4615
226.357	7235
226.423	4164
226.489	2895
226.554	1484
226.620	2159
226.686	2180
226.752	2962
226.818	5035
226.884	8645
226.950	8501
227.016	4788
227.082	3395
227.148	1608
227.214	1228
227.279	1508
227.345	503
227.411	1500
227.477	1287
227.543	3135
227.609	2537
227.674	2284
227.740	958
227.806	731
227.872	279
227.938	460
228.003	1448
228.069	-65
228.135	-36
228.201	734
228.267	-233
228.332	-277
228.398	-470
228.464	997
228.530	-99
228.595	371
228.661	111
228.727	297
228.792	854
228.858	968
228.924	-1102
228.990	1828
229.055	-660
229.121	511
229.187	604
229.252	1192
229.318	-206
229.384	514
229.449	570
229.515	-956
229.581	-537
229.646	1688
229.712	995
229.777	15
229.843	449
229.909	1262
229.974	997
230.040	959
230.105	1099
230.171	272
230.236	1630
230.302	1719
230.368	972
230.433	-76
230.499	255
230.564	2027
230.630	-277
230.695	366
230.761	1106
230.826	-552
230.892	1269
230.957	458
231.023	-258
231.088	32
231.154	394
231.219	1188
231.284	572
231.350	1303
231.415	-79
231.481	1014
231.546	-642
231.612	279
231.677	-278
231.742	-440
231.808	1641
231.873	68
231.939	-1473
232.004	1517
232.069	782
232.135	583
232.200	486
232.265	1287
232.331	372
232.396	416
232.461	211
232.527	-15
232.592	-339
232.657	852
232.723	945
232.788	127
232.853	234
232.918	-190
232.984	-110
233.049	532
233.114	29
233.179	212
233.245	809
233.310	1426
233.375	-1220
233.440	652
233.506	-3
233.571	-98
233.636	-518
233.701	475
233.766	114
233.832	604
233.897	-381
233.962	-121
234.027	808
234.092	1089
234.157	-311
234.222	440
234.288	515
234.353	1315
234.418	1604
234.483	1234
234.548	672
234.613	1102
234.678	1182
234.743	335
234.808	2237
234.873	497
234.938	1592
235.004	336
235.069	369
235.134	58
235.199	783
235.264	526
235.329	-479
235.394	1329
235.459	1731
235.524	-8
235.589	1311
235.654	410
235.719	-809
235.784	698
235.849	55
235.913	1421
235.978	484
236.043	958
236.108	61
236.173	-723
236.238	720
236.303	357
236.368	-100
236.433	971
236.498	1253
236.563	1092
236.627	3504
236.692	10893
236.757	10772
236.822	4332
236.887	2168
236.952	3381
237.017	939
237.081	3345
237.146	2234
237.211	7057
237.276	11310
237.341	14664
237.405	8989
237.470	4911
237.535	2497
237.600	1807
237.664	1133
237.729	824
237.794	742
237.859	4035
237.923	2411
237.988	1234
238.053	1818
238.118	1322
238.182	2959
238.247	3322
238.312	508
238.376	1625
238.441	-664
238.506	1607
238.570	-736
238.635	1398
238.700	1088
238.764	-50
238.829	713
238.893	537
238.958	1704
239.023	1076
239.087	165
239.152	1049
239.216	36
239.281	234
239.346	580
239.410	-242
239.475	-6
239.539	2011
239.604	740
239.668	1570
239.733	599
239.797	2022
239.862	4219
239.926	3897
239.991	2098
240.055	1308
240.120	-16
240.184	742
240.249	-598
240.313	145
240.378	-381
240.442	657
240.507	2159
240.571	535
240.635	-833
240.700	1575
240.764	754
240.829	-734
240.893	-399
240.957	645
241.022	1943
241.086	2254
241.151	-255
241.215	-94
241.279	1096
241.344	82
241.408	1537
241.472	-361
241.537	1742
241.601	1844
241.665	-513
241.730	529
241.794	1492
241.858	913
241.922	1019
241.987	1166
242.051	37
242.115	-250
242.179	1464
242.244	187
242.308	1291
242.372	751
242.436	662
242.501	1243
242.565	131
242.629	-377
242.693	1209
242.757	239
242.822	492
242.886	1325
242.950	1943
243.014	481
243.078	1297
243.142	639
243.206	-189
243.271	1322
243.335	235
243.399	1742
243.463	3961
243.527	11587
243.591	3405
243.655	1564
243.719	-696
243.783	1399
243.847	1718
243.911	2626
243.975	2477
244.040	1999
244.104	2015
244.168	246
244.232	896
244.296	2202
244.360	2719
244.424	-179
244.488	681
244.552	832
244.615	-1069
244.679	679
244.743	-319
244.807	811
244.871	448
244.935	1010
244.999	-558
245.063	453
245.127	1242
245.191	2010
245.255	57
245.319	1264
245.383	-459
245.446	1753
245.510	-928
245.574	541
245.638	1152
245.702	-669
245.766	2906
245.829	1637
245.893	-414
245.957	341
246.021	961
246.085	544
246.149	624
246.212	2806
246.276	4466
246.340	1273
246.404	1588
246.467	1919
246.531	323
246.595	2132
246.659	2035
246.722	-34
246.786	1950
246.850	2520
246.913	1951
246.977	-362
247.041	972
247.104	781
247.168	744
247.232	2443
247.295	5510
247.359	2599
247.423	107
247.486	2410
247.550	1494
247.614	617
247.677	2071
247.741	925
247.804	293
247.868	1429
247.932	2537
247.995	6488
248.059	2117
248.122	51
248.186	2159
248.249	3231
248.313	8152
248.376	9574
248.440	5525
248.503	1238
248.567	3237
248.630	2271
248.694	3892
248.757	5979
248.821	10119
248.884	7976
248.948	5122
249.011	8266
249.075	10356
249.138	10421
249.202	3179
249.265	2968
249.328	2451
249.392	1103
249.455	2363
249.519	718
249.582	1574
249.645	2970
249.709	2680
249.772	1649
249.835	1403
249.899	954
249.962	1644
250.025	1556
250.089	3331
250.152	5218
250.215	2525
250.279	1470
250.342	2424
250.405	2415
250.468	1655
250.532	1903
250.595	4176
250.658	9844
250.721	18225
250.785	7080
250.848	4718
250.911	2241
250.974	3046
251.038	2925
251.101	6541
251.164	2997
251.227	3776
251.290	2808
251.354	4644
251.417	14957
251.480	16054
251.543	12080
251.606	25980
251.669	21867
251.732	9633
251.795	8872
251.859	8998
251.922	18379
251.985	12008
252.048	5955
252.111	4063
252.174	3092
252.237	5643
252.300	12106
252.363	12015
252.426	22779
252.489	9657
252.552	5779
252.615	2404
252.678	5151
252.741	8530
252.804	10785
252.867	23183
252.930	14844
252.993	8234
253.056	4767
253.119	3432
253.182	2562
253.245	4184
253.308	3812
253.371	3101
253.434	2839
253.497	3435
253.559	5556
253.622	3263
253.685	4935
253.748	4328
253.811	2164
253.874	2740
253.937	2146
254.000	1958
254.062	3386
254.125	5826
254.188	7137
254.251	5291
254.314	1946
254.376	3618
254.439	4876
254.502	4313
254.565	4160
254.628	7568
254.690	4012
254.753	2310
254.816	2259
254.878	1272
254.941	3683
255.004	3427
255.067	1598
255.129	859
255.192	1415
255.255	504
255.317	1604
255.380	947
255.443	812
255.505	369
255.568	-87
255.631	646
255.693	1706
255.756	-196
255.819	943
255.881	172
255.944	242
256.006	-283
256.069	317
256.132	-535
256.194	613
256.257	1387
256.319	1189
256.382	503
256.444	2526
256.507	1175
256.569	1148
256.632	1465
256.694	1491
256.757	6635
256.819	21290
256.882	8886
256.944	3624
257.007	2837
257.069	1909
257.132	1720
257.194	1813
257.257	1215
257.319	2132
257.381	1807
257.444	6623
257.506	21338
257.569	27884
257.631	13651
257.693	6458
257.756	2831
257.818	1059
257.880	1229
257.943	1957
258.005	1278
258.067	980
258.130	1972
258.192	1393
258.254	2114
258.317	1323
258.379	1664
258.441	4267
258.503	3767
258.566	2884
258.628	4137
258.690	828
258.753	1713
258.815	2484
258.877	1285
258.939	1099
259.001	905
259.064	1070
259.126	-2
259.188	1222
259.250	1564
259.312	1926
259.375	5440
259.437	3057
259.499	936
259.561	1749
259.623	1771
259.685	1017
259.747	1328
259.809	2663
259.872	4861
259.934	7696
259.996	10119
260.058	3845
260.120	282
260.182	1047
260.244	848
260.306	1180
260.368	720
260.430	643
260.492	3104
260.554	7097
260.616	3335
260.678	4566
260.740	5313
260.802	897
260.864	1397
260.926	-349
260.988	1615
261.050	1009
261.112	3354
261.174	9946
261.236	4469
261.298	1526
261.359	2441
261.421	3354
261.483	489
261.545	1784
261.607	50
261.669	250
261.731	1570
261.793	4215
261.854	1207
261.916	2189
261.978	1569
262.040	1612
262.102	1405
262.164	1338
262.225	376
262.287	856
262.349	2549
262.411	2626
262.472	1588
262.534	419
262.596	1541
262.658	2030
262.719	6
262.781	1055
262.843	1302
262.904	1405
262.966	1359
263.028	977
263.090	5665
263.151	17541
263.213	6840
263.275	3585
263.336	1071
263.398	1485
263.459	-725
263.521	597
263.583	3257
263.644	2127
263.706	574
263.767	-18
263.829	917
263.891	-118
263.952	404
264.014	586
264.075	1960
264.137	6558
264.198	2797
264.260	319
264.321	157
264.383	2767
264.444	9417
264.506	2682
264.567	1026
264.629	3582
264.690	7659
264.752	2411
264.813	1231
264.875	-336
264.936	1129
264.998	1270
265.059	1062
265.120	1603
265.182	799
265.243	11090
265.305	13543
265.366	3317
265.427	1353
265.489	2176
265.550	-424
265.611	863
265.673	472
265.734	1830
265.795	623
265.857	143
265.918	120
265.979	2903
266.040	17352
266.102	17651
266.163	4840
266.224	3579
266.286	911
266.347	287
266.408	841
266.469	1440
266.530	596
266.592	862
266.653	1387
266.714	3334
266.775	1156
266.836	925
266.898	-206
266.959	1930
267.020	1245
267.081	756
267.142	891
267.203	319
267.264	-675
267.326	1140
267.387	414
267.448	287
267.509	-244
267.570	775
267.631	-373
267.692	-973
267.753	-253
267.814	-257
267.875	664
267.936	4161
267.997	2962
268.058	2050
268.119	27
268.180	844
268.241	383
268.302	500
268.363	139
268.424	602
268.485	186
268.546	0
268.607	-190
268.668	-759
268.729	-720
268.790	304
268.851	699
268.912	2507
268.972	3239
269.033	1319
269.094	-707
269.155	1276
269.216	324
269.277	62
269.338	244
269.398	1118
269.459	-397
269.520	966
269.581	1028
269.642	1463
269.702	976
269.763	375
269.824	655
269.885	1275
269.945	1951
270.006	263
270.067	347
270.128	294
270.188	167
270.249	171
270.310	-470
270.370	550
270.431	-239
270.492	-567
270.553	-2
270.613	1743
270.674	4195
270.734	1730
270.795	44
270.856	1624
270.916	535
270.977	-342
271.038	1009
271.098	437
271.159	1767
271.219	1735
271.280	359
271.340	716
271.401	199
271.462	1007
271.522	413
271.583	-300
271.643	275
271.704	267
271.764	623
271.825	2733
271.885	9191
271.946	12560
272.006	4071
272.066	4506
272.127	9930
272.187	4115
272.248	500
272.308	1250
272.369	6734
272.429	3562
272.489	2522
272.550	2950
272.610	4059
272.671	2365
272.731	707
272.791	1934
272.852	2138
272.912	1751
272.972	-113
273.033	982
273.093	1562
273.153	1948
273.214	731
273.274	561
273.334	4915
273.394	10437
273.455	3427
273.515	3914
273.575	9381
273.635	4500
273.696	3860
273.756	8898
273.816	3417
273.876	1932
273.936	2474
273.997	6761
274.057	1796
274.117	-53
274.177	2066
274.237	12114
274.297	10712
274.358	5704
274.418	5568
274.478	6163
274.538	1972
274.598	609
274.658	3270
274.718	5162
274.778	2843
274.838	1497
274.898	1809
274.958	6823
275.018	7135
275.078	4991
275.138	2764
275.198	716
275.258	477
275.318	1250
275.378	3129
275.438	3653
275.498	1886
275.558	2996
275.618	8192
275.678	6562
275.738	4119
275.798	4665
275.858	1989
275.918	173
275.978	872
276.038	1072
276.098	233
276.157	2467
276.217	8102
276.277	3656
276.337	1637
276.397	612
276.457	1518
276.517	453
276.576	355
276.636	330
276.696	1174
276.756	4176
276.815	3211
276.875	849
276.935	770
276.995	1176
277.055	394
277.114	1499
277.174	722
277.234	5690
277.293	1738
277.353	913
277.413	-9
277.472	15
277.532	201
277.592	1147
277.651	3569
277.711	7478
277.771	2187
277.830	9430
277.890	8236
277.950	4656
278.009	15158
278.069	5951
278.128	5482
278.188	7937
278.248	3007
278.307	8131
278.367	5356
278.426	1387
278.486	791
278.545	1168
278.605	620
278.664	707
278.724	400
278.783	2635
278.843	9213
278.902	2244
278.962	1283
279.021	1615
279.081	2013
279.140	1323
279.199	989
279.259	1917
279.318	1789
279.378	2213
279.437	4633
279.496	17715
279.556	34459
279.615	26031
279.675	7332
279.734	4188
279.793	7233
279.853	16504
279.912	7266
279.971	3442
280.031	2845
280.090	6567
280.149	12753
280.208	5908
280.268	22283
280.327	24372
280.386	4542
280.445	4838
280.505	4277
280.564	2768
280.623	1275
280.682	2320
280.742	5221
280.801	1634
280.860	543
280.919	840
280.978	842
281.037	663
281.097	229
281.156	1292
281.215	359
281.274	645
281.333	5730
281.392	4877
281.451	1092
281.510	755
281.569	379
281.628	115
281.688	569
281.747	1503
281.806	400
281.865	932
281.924	296
281.983	1011
282.042	-670
282.101	-501
282.160	60
282.219	-155
282.278	427
282.337	3222
282.396	2634
282.454	428
282.513	1281
282.572	6396
282.631	3479
282.690	886
282.749	160
282.808	1543
282.867	551
282.926	1201
282.985	61
283.043	122
283.102	-332
283.161	797
283.220	2216
283.279	6747
283.338	1963
283.396	667
283.455	224
283.514	1461
283.573	959
283.631	1264
283.690	-26
283.749	277
283.808	1506
283.866	3278
283.925	918
283.984	147
284.043	959
284.101	1638
284.160	306
284.219	1425
284.277	1143
284.336	1151
284.395	7958
284.453	7008
284.512	1117
284.570	3107
284.629	2841
284.688	2607
284.746	1246
284.805	3020
284.863	3305
284.922	5018
284.981	5394
285.039	8138
285.098	12905
285.156	30676
285.215	49672
285.273	50067
285.332	35248
285.390	18082
285.449	10980
285.507	7216
285.566	4922
285.624	3917
285.683	3584
285.741	2239
285.799	1405
285.858	2687
285.916	1286
285.975	1146
286.033	658
286.091	1679
286.150	391
286.208	858
286.267	1503
286.325	793
286.383	1978
286.442	1958
286.500	-181
286.558	538
286.616	253
286.675	630
286.733	296
286.791	448
286.850	557
286.908	1251
286.966	3387
287.024	1155
287.083	181
287.141	-311
287.199	290
287.257	1221
287.315	1242
287.374	373
287.432	3566
287.490	2186
287.548	599
287.606	442
287.664	261
287.723	377
287.781	2593
287.839	816
287.897	1050
287.955	2293
288.013	2587
288.071	6321
288.129	22640
288.187	64923
288.245	33730
288.303	10548
288.361	4993
288.419	3362
288.477	2694
288.535	1510
288.593	1606
288.651	805
288.709	290
288.767	700
288.825	93
288.883	-252
288.941	18
288.999	170
289.057	614
289.115	-241
289.173	158
289.231	806
289.289	82
289.346	483
289.404	468
289.462	2454
289.520	2036
289.578	488
289.636	557
289.694	372
289.751	79
289.809	515
289.867	229
289.925	363
289.983	751
290.040	-112
290.098	617
290.156	372
290.214	955
290.271	-77
290.329	-47
290.387	-209
290.444	-573
290.502	206
290.560	180
290.617	-169
290.675	437
290.733	-48
290.790	364
290.848	628
290.906	-24
290.963	884
291.021	582
291.078	350
291.136	20
291.194	3328
291.251	10321
291.309	2723
291.366	411
291.424	1017
291.481	660
291.539	658
291.596	516
291.654	-182
291.711	-333
291.769	-385
291.826	1480
291.884	810
291.941	446
291.999	746
292.056	164
292.114	761
292.171	-293
292.228	1376
292.286	431
292.343	1636
292.401	2033
292.458	1980
292.515	-90
292.573	1459
292.630	1194
292.687	1052
292.745	632
292.802	727
292.859	5796
292.917	7892
292.974	4546
293.031	1385
293.089	-477
293.146	327
293.203	306
293.260	602
293.318	663
293.375	3755
293.432	900
293.489	868
293.546	-71
293.604	1075
293.661	3028
293.718	12273
293.775	7721
293.832	2938
293.889	1665
293.947	2990
294.004	1970
294.061	2109
294.118	3473
294.175	9454
294.232	14656
294.289	6331
294.346	2160
294.403	2163
294.460	1108
294.517	1261
294.574	621
294.631	533
294.688	1017
294.745	2749
294.802	13953
294.859	21675
294.916	8713
294.973	4384
295.030	2791
295.087	2092
295.144	1349
295.201	1359
295.258	775
295.315	1118
295.372	4558
295.429	10236
295.486	4336
295.542	3142
295.599	8351
295.656	17955
295.713	10516
295.770	10227
295.827	4265
295.883	3005
295.940	965
295.997	3816
296.054	2185
296.111	1434
296.167	1303
296.224	681
296.281	295
296.338	455
296.394	-22
296.451	892
296.508	3526
296.564	10117
296.621	7270
296.678	10371
296.734	17359
296.791	7278
296.848	3824
296.904	2861
296.961	7447
297.018	11432
297.074	8975
297.131	3885
297.187	2823
297.244	2575
297.301	8777
297.357	18271
297.414	6662
297.470	2968
297.527	1476
297.583	1380
297.640	870
297.696	1419
297.753	948
297.809	-79
297.866	1021
297.922	487
297.979	-41
298.035	-78
298.092	1544
298.148	6508
298.204	6784
298.261	2956
298.317	4651
298.374	14330
298.430	7742
298.486	3126
298.543	2259
298.599	2606
298.656	3114
298.712	3873
298.768	11290
298.824	8068
298.881	3033
298.937	2411
298.993	1505
299.050	1927
299.106	1983
299.162	1179
299.218	1167
299.275	1251
299.331	1838
299.387	2505
299.443	10103
299.500	16464
299.556	8090
299.612	3582
299.668	2477
299.724	5191
299.780	6566
299.837	2562
299.893	3321
299.949	11620
300.005	16127
300.061	11772
300.117	19471
300.173	10017
300.229	3834
300.285	4956
300.341	6229
300.397	3602
300.453	1527
300.510	2040
300.566	2040
300.622	2804
300.678	9817
300.734	18130
300.790	12650
300.845	12319
300.901	9886
300.957	14617
301.013	10313
301.069	3983
301.125	2511
301.181	2264
301.237	2272
301.293	939
301.349	1140
301.405	1488
301.461	1405
301.516	2005
301.572	2333
301.628	2952
301.684	3102
301.740	4355
301.796	8029
301.851	5731
301.907	9348
301.963	9254
302.019	10707
302.074	30796
302.130	32353
302.186	16831
302.242	7407
302.297	5219
302.353	3803
302.409	6715
302.464	6166
302.520	5022
302.576	12503
302.631	14470
302.687	8995
302.743	4119
302.798	1736
302.854	1509
302.910	2430
302.965	1940
303.021	4252
303.076	4799
303.132	5314
303.187	7357
303.243	3597
303.299	2362
303.354	1142
303.410	1868
303.465	968
303.521	824
303.576	1443
303.632	1420
303.687	2388
303.743	9827
303.798	9067
303.853	3914
303.909	2406
303.964	1496
304.020	2351
304.075	5432
304.130	4040
304.186	8346
304.241	9616
304.297	8053
304.352	3647
304.358	3538
304.407	2654
304.449	2973
304.463	3078
304.518	3489
304.539	2872
304.573	1904
304.629	2779
304.630	2781
304.684	2976
304.720	6138
304.739	7702
304.794	12469
304.811	10629
304.850	6236
304.902	2594
304.905	2364
304.960	2366
304.992	2530
305.015	2625
305.071	2354
305.083	2210
305.126	1687
305.173	1194
305.181	1119
305.236	1050
305.264	1326
305.292	1634
305.347	1390
305.354	1460
305.402	1888
305.445	2776
305.457	3000
305.512	3855
305.535	3610
305.567	3365
305.622	3632
305.626	3674
305.678	5180
305.716	10661
305.733	12511
305.788	14541
305.807	12486
305.843	9201
305.897	10388
305.898	10390
305.953	11371
305.988	7769
306.008	5824
306.063	3891
306.078	3503
306.118	2595
306.168	1823
306.173	1757
306.228	1314
306.259	1485
306.283	1639
306.338	1327
306.349	1465
306.393	1992
306.440	2160
306.448	2217
306.503	2008
306.530	2351
306.558	3303
306.613	7487
306.620	8060
306.668	11108
306.711	12970
306.723	12984
306.778	10556
306.801	8017
306.833	5296
306.888	3021
306.892	2928
306.943	2243
306.982	1912
306.997	1751
307.052	2263
307.072	1982
307.107	1860
307.162	3434
307.163	3442
307.217	4602
307.253	5716
307.272	5939
307.327	6455
307.343	5966
307.381	4892
307.434	3629
307.436	3714
307.491	7922
307.524	12185
307.546	13143
307.600	12305
307.614	10858
307.655	6880
307.704	3700
307.710	3588
307.765	4464
307.795	5550
307.819	6721
307.874	12010
307.885	12073
307.929	10181
307.975	8518
307.984	8714
308.038	11902
308.065	14072
308.093	22620
308.148	45217
308.156	50245
308.202	71522
308.246	83896
308.257	82301
308.312	50601
308.336	37449
308.366	28478
308.421	17723
308.426	16775
308.475	10830
308.517	7705
308.530	7178
308.585	6259
308.607	6093
308.639	6095
308.694	6106
308.697	6175
308.748	10113
308.787	14612
308.803	14752
308.857	11751
308.877	10209
308.912	9041
308.967	8544
308.967	8550
309.021	11789
309.058	14659
309.076	18495
309.130	31896
309.148	37349
309.185	59137
309.238	96427
309.239	96659
309.293	100392
309.328	93477
309.348	83324
309.402	47048
309.418	37380
309.457	26544
309.508	16435
309.511	16092
309.566	13167
309.598	11834
309.620	12060
309.674	13641
309.688	14196
309.729	13376
309.778	11538
309.783	11386
309.837	9404
309.868	8100
309.892	9888
309.946	15659
309.959	17485
310.001	21310
310.049	24116
310.055	23345
310.109	14116
310.139	8494
310.163	6657
310.218	4506
310.229	4087
310.272	3458
310.319	3294
310.326	3280
310.381	3132
310.409	3119
310.435	2875
310.489	2284
310.499	2214
310.543	2657
310.589	2854
310.598	2862
310.652	3228
310.679	3344
310.706	2918
310.760	1898
310.769	1749
310.814	1691
310.859	1591
310.868	1642
310.923	2070
310.948	2204
310.977	2335
311.031	2668
311.038	2729
311.085	2731
311.128	2487
311.139	2473
311.193	2537
311.218	2511
311.247	2651
311.301	2994
311.308	3021
311.356	2488
311.398	2049
311.410	2118
311.464	2396
311.488	2509
311.518	2363
311.572	2079
311.578	2046
311.626	3119
311.668	4097
311.680	4197
311.734	4570
311.758	4689
311.788	4353
311.842	3768
311.847	3700
311.896	5677
311.937	7407
311.950	7078
312.004	5554
312.027	4856
312.058	4040
312.112	2602
312.117	2458
312.165	2658
312.207	2830
312.297	5502
312.386	3893
312.476	3374
312.566	6072
312.656	3068
312.745	2646
312.835	3690
312.925	3509
313.015	2169
313.104	3006
313.194	3034
313.284	2742
313.374	4230
313.463	3655
313.553	2783
313.643	3237
313.732	3395
313.822	2345
313.912	3261
314.001	4057
314.091	4259
314.180	5837
314.270	4847
314.360	4924
314.449	3187
314.539	1915
314.628	3258
314.718	3639
314.808	3857
314.897	1984
314.987	2804
315.076	3217
315.166	4324
315.255	4060
315.345	4413
315.434	3236
315.524	3512
315.613	4334
315.703	4441
315.792	6745
315.881	13871
315.971	5587
316.060	7285
316.150	10161
316.239	9621
316.328	3898
316.418	3735
316.507	3007
316.597	4069
316.686	4653
316.775	5421
316.865	9927
316.954	2592
317.043	2209
317.133	2691
317.222	2315
317.311	2365
317.400	1049
317.490	4531
317.579	2758
317.668	2618
317.757	4414
317.847	9218
317.936	24499
318.025	10615
318.114	6333
318.203	4951
318.293	7954
318.382	14073
318.471	10181
318.560	16248
318.649	31725
318.738	7047
318.828	4323
318.917	4118
319.006	5387
319.095	12213
319.184	39276
319.273	17417
319.362	8655
319.451	3017
319.540	3366
319.629	7086
319.718	11516
319.807	6059
319.896	12322
319.985	45206
320.074	13466
320.163	5105
320.252	6686
320.341	7787
320.430	6229
320.519	7519
320.608	4381
320.697	4375
320.786	4008
320.875	4734
320.964	5387
321.053	7913
321.142	11085
321.230	11519
321.319	11405
321.408	22804
321.497	9228
321.586	9158
321.675	11224
321.764	10442
321.852	8083
321.941	13607
322.030	8556
322.119	11842
322.207	21493
322.296	17028
322.385	10495
322.474	10702
322.562	27081
322.651	13855
322.740	11868
322.829	16030
322.917	13201
323.006	7978
323.095	8980
323.183	5457
323.272	8053
323.361	14260
323.449	34964
323.538	11358
323.626	28095
323.715	15283
323.804	7670
323.892	24244
323.981	11913
324.069	5600
324.158	14537
324.246	11519
324.335	6320
324.424	7708
324.512	3450
324.601	4295
324.689	5833
324.778	10490
324.866	10875
324.954	3855
325.043	3235
325.131	6177
325.220	11084
325.308	11761
325.397	9108
325.485	5132
325.574	2204
325.662	3350
325.750	2423
325.839	3870
325.927	2411
326.015	3935
326.104	4668
326.192	5591
326.280	2433
326.369	2930
326.457	4444
326.545	6802
326.634	3332
326.722	2447
326.810	2367
326.898	2989
326.987	3366
327.075	5679
327.163	5850
327.251	3301
327.340	4066
327.428	4855
327.516	2814
327.604	2963
327.692	2292
327.781	3515
327.869	4386
327.957	3399
328.045	3313
328.133	2881
328.221	2799
328.309	2661
328.397	2670
328.485	3516
328.574	4673
328.662	13608
328.750	6584
328.838	3276
328.926	2650
329.014	3243
329.102	3640
329.190	12086
329.278	6114
329.366	2132
329.454	2120
329.542	2804
329.630	1338
329.718	3468
329.806	3396
329.893	3992
329.981	4175
330.069	6326
330.157	24107
330.245	53887
330.333	28226
330.421	6768
330.509	6209
330.597	15991
330.684	10623
330.772	5822
330.860	8043
330.948	11540
331.036	3591
331.123	1975
331.211	2712
331.299	3549
331.387	11351
331.475	15113
331.562	5153
331.650	2967
331.738	3013
331.825	4735
331.913	2082
332.001	1907
332.089	3796
332.176	6669
332.264	13221
332.352	9306
332.439	3595
332.527	3390
332.614	2692
332.702	2744
332.790	2703
332.877	5770
332.965	11226
333.052	3013
333.140	2709
333.228	5583
333.315	2001
333.403	3010
333.490	8409
333.578	5713
333.665	5971
333.753	3665
333.840	1722
333.928	4055
334.015	9082
334.103	15166
334.190	43709
334.278	11291
334.365	7071
334.452	4914
334.540	3719
334.627	4352
334.715	6298
334.802	11155
334.889	45751
334.977	37621
335.064	9168
335.151	4910
335.239	5439
335.326	6558
335.413	26253
335.501	27847
335.588	5112
335.675	4541
335.762	6716
335.850	11955
335.937	8484
336.024	18619
336.111	55565
336.199	23636
336.286	8046
336.373	5020
336.460	2745
336.547	2984
336.635	4139
336.722	3265
336.809	3950
336.896	5234
336.983	16736
337.070	36142
337.157	44313
337.245	28907
337.332	16162
337.419	3375
337.506	2897
337.593	4049
337.680	14766
337.767	39974
337.854	10018
337.941	13128
338.028	11201
338.115	3551
338.202	7794
338.289	9830
338.376	27364
338.463	9231
338.550	25996
338.637	21925
338.724	7169
338.811	9692
338.898	2702
338.984	2465
339.071	4030
339.158	3618
339.245	8335
339.332	5629
339.419	7185
339.506	6204
339.593	1060
339.679	2692
339.766	2392
339.853	3339
339.940	5892
340.027	1320
340.113	2305
340.200	3146
340.287	2366
340.374	3178
340.460	5789
340.547	1294
340.634	4947
340.720	14443
340.807	6450
340.894	1795
340.980	1865
341.067	2195
341.154	2581
341.240	3610
341.327	7620
341.414	3690
341.500	2382
341.587	2978
341.674	2767
341.760	4862
341.847	5791
341.933	1679
342.020	43
342.106	2513
342.193	1923
342.279	4438
342.366	2998
342.452	5369
342.539	2518
342.625	6533
342.712	14309
342.798	5811
342.885	2371
342.971	1196
343.058	1155
343.144	1330
343.230	1138
343.317	1746
343.403	1329
343.490	1711
343.576	1084
343.662	1883
343.749	2284
343.835	2443
343.921	5030
344.008	23509
344.094	44325
344.180	10210
344.267	5352
344.353	15837
344.439	14653
344.525	7512
344.612	5197
344.698	4850
344.784	3247
344.870	1978
344.957	2245
345.043	3126
345.129	2275
345.215	5114
345.301	2906
345.387	1828
345.474	1381
345.560	1551
345.646	2346
345.732	2538
345.818	2350
345.904	1448
345.990	2391
346.076	3251
346.162	4108
346.249	2737
346.335	1430
346.421	2325
346.507	6441
346.593	18636
346.679	4418
346.765	3056
346.851	2310
346.937	1822
347.023	2842
347.108	2254
347.194	1903
347.280	1802
347.366	2764
347.452	8184
347.538	23115
347.624	18934
347.710	14272
347.796	3059
347.882	2200
347.967	2836
348.053	4129
348.139	2635
348.225	1162
348.311	1958
348.397	1505
348.482	2351
348.568	2754
348.654	1744
348.740	3141
348.825	3361
348.911	4623
348.997	12221
349.083	19694
349.168	3651
349.254	3003
349.340	1778
349.425	1550
349.511	2169
349.597	2475
349.682	4023
349.768	15307
349.854	6605
349.939	2227
350.025	1376
350.110	2103
350.196	2086
350.282	695
350.367	1918
350.453	3845
350.538	2770
350.624	2285
350.709	3144
350.795	1858
350.880	929
350.966	2562
351.051	3253
351.137	2533
351.222	1757
351.308	5892
351.393	14635
351.479	3146
351.564	1722
351.649	449
351.735	1309
351.820	1703
351.906	1648
351.991	2601
352.076	10338
352.162	14112
352.247	3352
352.332	2682
352.418	3466
352.503	5714
352.588	22252
352.673	15767
352.759	4741
352.844	1619
352.929	3016
353.014	3065
353.100	4794
353.185	9950
353.270	7757
353.355	5742
353.441	2841
353.526	2439
353.611	5432
353.696	5062
353.781	4604
353.866	1149
353.952	2440
354.037	4615
354.122	11738
354.207	9873
354.292	4333
354.377	1797
354.462	1867
354.547	2460
354.632	2590
354.717	7634
354.802	11844
354.887	3415
354.972	1174
355.057	1693
355.142	1365
355.227	2541
355.312	3186
355.397	7951
355.482	16263
355.567	6908
355.652	7292
355.737	6160
355.822	18599
355.907	12796
355.991	3942
356.076	1122
356.161	2253
356.246	1076
356.331	2111
356.416	4590
356.501	27216
356.585	24660
356.670	4243
356.755	4526
356.840	6177
356.924	29312
357.009	65065
357.094	22556
357.179	5462
357.263	3803
357.348	4981
357.433	4553
357.517	3912
357.602	3170
357.687	2968
357.771	7959
357.856	14761
357.941	8608
358.025	17320
358.110	58497
358.195	26654
358.279	5400
358.364	4517
358.448	14500
358.533	35992
358.617	25101
358.702	24882
358.787	8878
358.871	5864
358.956	5304
359.040	2041
359.125	1947
359.209	2454
359.294	7190
359.378	10654
359.462	5914
359.547	3556
359.631	2378
359.716	1050
359.800	2161
359.885	4808
359.969	1495
360.053	2635
360.138	3021
360.222	3631
360.306	4639
360.391	4515
360.475	8547
360.559	15533
360.644	14317
360.728	10272
360.812	17813
360.896	38036
360.981	20230
361.065	11541
361.149	3582
361.233	3446
361.318	2057
361.402	2881
361.486	2855
361.570	2289
361.654	2872
361.739	6843
361.823	26254
361.907	35773
361.991	7278
362.075	5725
362.159	10833
362.243	10155
362.327	14215
362.411	18089
362.495	7195
362.580	4494
362.664	3311
362.748	4020
362.832	5621
362.916	11221
363.000	33217
363.084	57493
363.168	49085
363.252	13530
363.336	7284
363.420	9397
363.503	34530
363.587	35143
363.671	6678
363.755	4252
363.839	7654
363.923	3360
364.007	7831
364.091	9062
364.175	15789
364.258	57901
364.342	52383
364.426	64328
364.510	31359
364.594	16038
364.677	13278
364.761	34101
364.845	23596
364.929	10203
365.013	7927
365.096	7370
365.180	7568
365.264	15137
365.347	49545
365.431	22132
365.515	7102
365.598	1903
365.682	3568
365.766	7187
365.849	9170
365.933	3373
366.017	6832
366.100	4437
366.184	1384
366.267	3014
366.351	1999
366.435	2026
366.518	385
366.602	991
366.685	1729
366.769	2488
366.852	6543
366.936	9005
367.019	3750
367.103	4667
367.186	11782
367.270	2481
367.353	894
367.436	3043
367.520	759
367.603	2682
367.687	2914
367.770	6220
367.853	3674
367.937	11952
368.020	16548
368.104	3171
368.187	5343
368.270	7393
368.353	7134
368.437	8383
368.520	18170
368.603	12348
368.687	14219
368.770	23965
368.853	6973
368.936	9829
369.020	8814
369.103	3056
369.186	2246
369.269	1734
369.352	5133
369.436	6299
369.519	3532
369.602	936
369.685	3391
369.768	1931
369.851	3275
369.934	610
370.018	2194
370.101	4674
370.184	5974
370.267	4887
370.350	6682
370.433	9841
370.516	18023
370.599	21312
370.682	7432
370.765	16395
370.848	18148
370.931	28644
371.014	14744
371.097	2571
371.180	2356
371.263	2234
371.346	531
371.429	2150
371.511	741
371.594	3792
371.677	8004
371.760	11582
371.843	6138
371.926	24284
372.009	47057
372.091	18392
372.174	11979
372.257	24540
372.340	10459
372.423	12433
372.505	16850
372.588	5879
372.671	10597
372.754	26895
372.836	13862
372.919	18012
373.002	30531
373.085	8487
373.167	6461
373.250	12723
373.332	24300
373.415	36730
373.498	63053
373.580	26390
373.663	34901
373.746	40959
373.828	10196
373.911	6599
373.993	7440
374.076	32262
374.159	26474
374.241	10415
374.324	25075
374.406	16827
374.489	21495
374.571	52088
374.654	20574
374.736	13572
374.819	32863
374.901	49546
374.983	44554
375.066	9701
375.148	5548
375.231	26210
375.313	46107
375.395	16829
375.478	4416
375.560	3611
375.643	4221
375.725	13293
375.807	40890
375.890	34713
375.972	15386
376.054	10434
376.136	15650
376.219	6504
376.301	15345
376.383	34176
376.465	12940
376.548	9292
376.630	12088
376.712	30781
376.794	13125
376.877	1925
376.959	1663
377.041	2981
377.123	8879
377.205	10220
377.287	1587
377.369	2651
377.452	1449
377.534	2018
377.616	2214
377.698	1853
377.780	756
377.862	1277
377.944	3142
378.026	1311
378.108	2196
378.190	1029
378.272	2299
378.354	1284
378.436	509
378.518	4678
378.600	15542
378.682	11310
378.764	17737
378.846	13969
378.928	5479
379.010	6030
379.091	3563
379.173	1993
379.255	714
379.337	2472
379.419	9830
379.501	24751
379.583	9561
379.664	3844
379.746	6214
379.828	20432
379.910	23938
379.991	20128
380.073	3307
380.155	2367
380.237	1455
380.318	1810
380.400	1741
380.482	4280
380.564	6620
380.645	9836
380.727	8246
380.809	4550
380.890	2869
380.972	2515
381.053	1609
381.135	3364
381.217	6522
381.298	19588
381.380	9260
381.461	8271
381.543	32648
381.624	36026
381.706	8083
381.787	5497
381.869	5556
381.951	15102
382.032	47074
382.113	32344
382.195	7471
382.276	9130
382.358	15013
382.439	27540
382.521	32291
382.602	43805
382.684	23414
382.765	42478
382.846	40690
382.928	42422
383.009	23280
383.090	20500
383.172	67097
383.253	87566
383.334	37545
383.416	43837
383.497	22557
383.578	11022
383.659	18995
383.741	63292
383.822	136464
383.903	65431
383.984	31838
384.066	55801
384.147	33348
384.228	9178
384.309	6104
384.390	5369
384.471	4205
384.553	4194
384.634	6582
384.715	6389
384.796	2455
384.877	3963
384.958	16826
385.039	18791
385.120	7240
385.201	5025
385.282	6626
385.363	7846
385.444	4583
385.525	8616
385.606	22273
385.687	17831
385.768	7659
385.849	8768
385.930	27412
386.011	39911
386.092	11470
386.173	4460
386.254	4466
386.335	5605
386.416	4974
386.496	13687
386.577	19020
386.658	9030
386.739	5868
386.820	7807
386.901	5482
386.981	5922
387.062	3876
387.143	5987
387.224	19145
387.304	18621
387.385	8370
387.466	5979
387.547	8352
387.627	4548
387.708	9266
387.789	31631
387.869	33053
387.950	10451
388.031	4256
388.111	4150
388.192	13433
388.273	18220
388.353	9964
388.434	5117
388.514	6414
388.595	24732
388.676	32777
388.756	19521
388.837	17920
388.917	10512
388.998	1578
389.078	3544
389.159	3720
389.239	1241
389.320	4894
389.400	3843
389.480	9346
389.561	18558
389.641	9304
389.722	4238
389.802	6186
389.883	9688
389.963	20603
390.043	14635
390.124	5675
390.204	8707
390.284	20199
390.365	13221
390.445	23127
390.525	38942
390.605	28157
390.686	10188
390.766	5116
390.846	3759
390.927	2263
391.007	1616
391.087	3253
391.167	3918
391.247	2006
391.328	5169
391.408	9608
391.488	7213
391.568	1045
391.648	3225
391.728	4236
391.808	4862
391.888	5032
391.969	11571
392.049	16629
392.129	10751
392.209	10581
392.289	19914
392.369	14351
392.449	17498
392.529	10341
392.609	7613
392.689	8424
392.769	19903
392.849	17775
392.929	20236
393.009	37369
393.089	27893
393.169	33255
393.248	93786
393.328	245367
393.408	243298
393.488	87088
393.568	29332
393.648	14920
393.728	10326
393.807	5994
393.887	7236
393.967	5991
394.047	6886
394.127	7505
394.206	13544
394.286	46226
394.366	147095
394.446	152623
394.525	43465
394.605	13099
394.685	11451
394.764	24921
394.844	39135
394.924	26312
395.003	8054
395.083	4965
395.163	4668
395.242	3861
395.322	4670
395.402	2449
395.481	6399
395.561	16385
395.640	42337
395.720	36162
395.799	43897
395.879	34388
395.958	22500
396.038	68083
396.117	187855
396.197	196880
396.276	81058
396.356	31243
396.435	23507
396.515	15413
396.594	16235
396.673	29590
396.753	94134
396.832	221293
396.912	165593
396.991	47140
397.070	15584
397.150	7976
397.229	8323
397.308	11846
397.388	21839
397.467	11186
397.546	4667
397.625	1330
397.705	5147
397.784	3765
397.863	2326
397.942	1953
398.022	3096
398.101	12837
398.180	37370
398.259	19556
398.338	6335
398.417	2238
398.497	1446
398.576	3513
398.655	1404
398.734	1769
398.813	3252
398.892	12836
398.971	37388
399.050	17197
399.129	1706
399.208	1446
399.287	2404
399.366	510
399.445	1646
399.524	1701
399.603	-77
399.682	3167
399.761	11130
399.840	37210
399.919	28648
399.998	3613
400.077	189
400.156	-213
400.235	3899
400.313	1783
400.392	2511
400.471	10670
400.550	16096
400.629	3967
400.708	3312
400.786	2580
400.865	10773
400.944	10641
401.023	5456
401.102	569
401.180	1241
401.259	1804
401.338	2148
401.416	2900
401.495	1764
401.574	2620
401.652	1906
401.731	3826
401.810	2994
401.888	1718
401.967	607
402.046	1801
402.124	3997
402.203	3002
402.281	2010
402.360	4319
402.438	13631
402.517	8617
402.596	2371
402.674	3134
402.753	1499
402.831	947
402.910	2959
402.988	10527
403.066	29616
403.145	17528
403.223	13487
403.302	27683
403.380	24145
403.459	23511
403.537	10355
403.615	4657
403.694	726
403.772	1230
403.850	608
403.929	360
404.007	1472
404.085	7623
404.164	8508
404.242	2110
404.320	7459
404.398	19392
404.477	21773
404.555	41747
404.633	35874
404.711	16327
404.789	10128
404.868	4440
404.946	1731
405.024	956
405.102	834
405.180	-1
405.258	-805
405.336	1009
405.415	1536
405.493	5142
405.571	5558
405.649	1407
405.727	701
405.805	3560
405.883	3601
405.961	4089
406.039	3905
406.117	199
406.195	2484
406.273	9555
406.351	35989
406.429	22441
406.507	4862
406.585	1237
406.663	1819
406.740	1135
406.818	1271
406.896	777
406.974	2672
407.052	2518
407.130	21752
407.208	27236
407.285	5908
407.363	1092
407.441	1274
407.519	189
407.596	1497
407.674	6801
407.752	23162
407.830	22135
407.907	10174
407.985	2971
408.063	1663
408.141	706
408.218	4466
408.296	4439
408.373	2959
408.451	2322
408.529	1351
408.606	-371
408.684	216
408.762	54
408.839	502
408.917	213
408.994	685
409.072	729
409.149	1005
409.227	1816
409.304	3596
409.382	3760
409.459	3274
409.537	4165
409.614	5042
409.692	4046
409.769	3511
409.846	4413
409.924	7938
410.001	4057
410.079	3400
410.156	3161
410.233	3335
410.311	1357
410.388	1867
410.465	2508
410.543	1490
410.620	1432
410.697	1830
410.775	1112
410.852	-835
410.929	2526
411.006	2974
411.083	520
411.161	3363
411.238	5520
411.315	3155
411.392	1035
411.469	2181
411.547	2118
411.624	117
411.701	391
411.778	996
411.855	2178
411.932	753
412.009	758
412.086	1079
412.163	1406
412.240	1670
412.317	1932
412.394	1887
412.471	1107
412.548	480
412.625	507
412.702	1647
412.779	3568
412.856	2822
412.933	141
413.010	496
413.087	1889
413.164	8222
413.241	12692
413.318	2103
413.395	2479
413.471	2603
413.548	1004
413.625	1087
413.702	593
413.779	906
413.855	-82
413.932	-801
414.009	-448
414.086	250
414.162	516
414.239	2241
414.316	9905
414.393	20475
414.469	6309
414.546	982
414.623	197
414.699	219
414.776	336
414.853	98
414.929	703
415.006	967
415.082	1948
415.159	836
415.236	434
415.312	981
415.389	1367
415.465	2069
415.542	268
415.618	-101
415.695	1069
415.771	1159
415.848	940
415.924	918
416.000	974
416.077	1258
416.153	-781
416.230	-878
416.306	-199
416.383	473
416.459	549
416.535	-756
416.612	1069
416.688	290
416.764	43
416.841	-610
416.917	-154
416.993	436
417.069	666
417.146	1730
417.222	2120
417.298	237
417.374	-829
417.451	1218
417.527	1152
417.603	386
417.679	162
417.755	1215
417.831	228
417.908	-613
417.984	-154
418.060	-713
418.136	1950
418.212	2820
418.288	85
418.364	1552
418.440	-660
418.516	1960
418.592	2983
418.668	4862
418.744	5937
418.820	3909
418.896	1423
418.972	-1070
419.048	-4
419.124	2873
419.200	844
419.276	246
419.352	-1335
419.428	362
419.504	-205
419.579	836
419.655	140
419.731	1242
419.807	3986
419.883	6835
419.959	4277
420.034	1025
420.110	3973
420.186	13004
420.262	8948
420.337	2057
420.413	1354
420.489	299
420.565	996
420.640	408
420.716	1006
420.792	167
420.867	1101
420.943	-201
421.019	1773
421.094	1579
421.170	1090
421.245	534
421.321	1841
421.397	1154
421.472	5611
421.548	11114
421.623	7846
421.699	3464
421.774	3089
421.850	2904
421.925	4590
422.001	4947
422.076	5599
422.152	6820
422.227	10472
422.302	14385
422.378	22986
422.453	39922
422.529	85576
422.604	148942
422.679	158041
422.755	150673
422.830	88988
422.905	43048
422.981	24365
423.056	15455
423.131	11136
423.207	8266
423.282	6601
423.357	7956
423.432	5308
423.508	7035
423.583	8647
423.658	6493
423.733	3602
423.808	4127
423.883	3680
423.959	2879
424.034	1809
424.109	2309
424.184	1406
424.259	621
424.334	472
424.409	140
424.484	739
424.559	1262
424.634	921
424.709	580
424.784	1511
424.859	762
424.934	2399
425.009	7879
425.084	13909
425.159	4519
425.234	934
425.309	500
425.384	3558
425.459	5177
425.534	1806
425.609	298
425.683	387
425.758	1054
425.833	834
425.908	1121
425.983	4732
426.058	15469
426.132	5901
426.207	1533
426.282	4014
426.357	2430
426.431	824
426.506	810
426.581	1298
426.655	827
426.730	182
426.805	63
426.879	404
426.954	792
427.029	2156
427.103	14878
427.178	29509
427.253	12621
427.327	1837
427.402	4057
427.476	8585
427.551	2855
427.625	1103
427.700	1642
427.774	73
427.849	2090
427.923	582
427.998	564
428.072	1122
428.147	5823
428.221	19223
428.296	50054
428.370	25133
428.444	4222
428.519	5406
428.593	9533
428.667	9210
428.742	10949
428.816	11500
428.890	38630
428.965	52474
429.039	17495
429.113	11131
429.188	3719
429.262	401
429.336	1440
429.410	6205
429.485	5546
429.559	7861
429.633	6556
429.707	2387
429.781	8436
429.855	42256
429.930	55631
430.004	30413
430.078	45170
430.152	41441
430.226	63061
430.300	59431
430.374	10172
430.448	3848
430.522	15595
430.596	36742
430.670	25082
430.744	48864
430.818	58304
430.892	10869
430.966	1446
431.040	853
431.114	54
431.188	-342
431.262	346
431.336	238
431.410	4706
431.484	11615
431.557	7061
431.631	1208
431.705	1575
431.779	11019
431.853	44807
431.927	29538
432.000	3628
432.074	740
432.148	1715
432.222	1393
432.295	575
432.369	-106
432.443	1493
432.516	13796
432.590	29197
432.664	11222
432.737	1250
432.811	-143
432.885	-172
432.958	763
433.032	-511
433.106	-864
433.179	-602
433.253	-159
433.326	457
433.400	-583
433.473	-108
433.547	-534
433.620	170
433.694	-72
433.767	1240
433.841	-446
433.914	92
433.988	-78
434.061	-459
434.134	-450
434.208	-452
434.281	-984
434.355	-75
434.428	-177
434.501	-591
434.575	-310
434.648	201
434.721	-183
434.795	-292
434.868	-767
434.941	-40
435.014	-1122
435.088	-842
435.161	378
435.234	426
435.307	913
435.381	293
435.454	-215
435.527	1735
435.600	1033
435.673	2290
435.746	303
435.819	247
435.892	-368
435.966	-440
436.039	62
436.112	184
436.185	-526
436.258	-99
436.331	-811
436.404	-39
436.477	23
436.550	-780
436.623	-87
436.696	-1020
436.769	-439
436.842	-365
436.915	-316
436.987	1192
437.060	-334
437.133	35
437.206	-659
437.279	-162
437.352	-587
437.425	-579
437.498	-103
437.570	1822
437.643	1128
437.716	-559
437.789	-461
437.861	1118
437.934	4690
438.007	1900
438.080	-597
438.152	-248
438.225	1691
438.298	16460
438.370	38150
438.443	14853
438.516	3625
438.588	-6
438.661	-900
438.734	164
438.806	508
438.879	1033
438.951	271
439.024	2231
439.096	-280
439.169	-248
439.241	-532
439.314	-905
439.386	462
439.459	2109
439.531	1798
439.604	-252
439.676	-582
439.749	-173
439.821	-1550
439.893	-240
439.966	-53
440.038	341
440.110	50
440.183	-677
440.255	-1050
440.327	1402
440.400	8125
440.472	28384
440.544	14860
440.617	840
440.689	2026
440.761	1598
440.833	2266
440.905	1830
440.978	-655
441.050	6
441.122	-856
441.194	-551
441.266	692
441.338	-524
441.411	961
441.483	9783
441.555	12395
441.627	2212
441.699	1993
441.771	1891
441.843	-194
441.915	-217
441.987	-773
442.059	329
442.131	715
442.203	1566
442.275	2275
442.347	2477
442.419	5835
442.491	30787
442.563	62936
442.635	26843
442.706	13071
442.778	8131
442.850	867
442.922	785
442.994	529
443.066	2024
443.137	2010
443.209	2158
443.281	3015
443.353	8763
443.425	37545
443.496	110825
443.568	102847
443.640	37318
443.711	7203
443.783	2994
443.855	1221
443.926	401
443.998	1038
444.070	1787
444.141	758
444.213	1163
444.285	1909
444.356	1988
444.428	1525
444.499	-75
444.571	-787
444.642	398
444.714	650
444.785	1170
444.857	3482
444.928	8706
445.000	4432
445.071	6383
445.143	7379
445.214	5740
445.285	9089
445.357	28242
445.428	77954
445.500	143167
445.571	98823
445.642	54903
445.714	21056
445.785	15926
445.856	4337
445.928	1959
445.999	2259
446.070	995
446.141	1972
446.213	3238
446.284	1102
446.355	1642
446.426	411
446.497	779
446.569	1581
446.640	2874
446.711	428
446.782	139
446.853	315
446.924	204
446.995	-271
447.066	583
447.138	2366
447.209	1234
447.280	-272
447.351	-848
447.422	-545
447.493	754
447.564	-446
447.635	731
447.706	-802
447.777	-662
447.847	154
447.918	-909
447.989	234
448.060	1688
448.131	5836
448.202	3996
448.273	1032
448.344	401
448.414	-1072
448.485	-529
448.556	-687
448.627	-543
448.698	-65
448.768	-716
448.839	-394
448.910	1679
448.981	1596
449.051	29
449.122	-131
449.193	-445
449.263	-69
449.334	-695
449.405	472
449.475	1136
449.546	1109
449.616	3061
449.687	2326
449.758	147
449.828	249
449.899	-774
449.969	-917
450.040	-190
450.110	-99
450.181	806
450.251	-525
450.322	-416
450.392	38
450.463	199
450.533	-765
450.604	-266
450.674	-1109
450.744	-384
450.815	-921
450.885	-265
450.955	-102
451.026	-1170
451.096	-1223
451.166	802
451.237	4277
451.307	9449
451.377	1707
451.447	-367
451.518	-421
451.588	-654
451.658	850
451.728	1024
451.799	11270
451.869	9654
451.939	823
452.009	-617
452.079	238
452.149	-103
452.219	2123
452.289	12414
452.360	6104
452.430	699
452.500	277
452.570	2060
452.640	2649
452.710	10177
452.780	14550
452.850	7353
452.920	3862
452.990	981
453.060	727
453.129	1846
453.199	2022
453.269	12808
453.339	22671
453.409	32585
453.479	39902
453.549	57408
453.619	59147
453.688	18179
453.758	2087
453.828	911
453.898	252
453.968	237
454.037	32
454.087	56
454.107	51
454.168	55
454.177	40
454.247	5
454.249	11
454.316	-366
454.330	-82
454.386	725
454.411	2713
454.456	5759
454.492	6624
454.525	7412
454.574	3224
454.595	1440
454.655	497
454.665	366
454.734	1220
454.736	1353
454.804	3568
454.817	5251
454.873	11139
454.898	10745
454.943	9957
454.979	6026
455.013	2782
455.060	1944
455.082	1710
455.141	2623
455.152	2701
455.221	10085
455.222	10279
455.291	15617
455.303	15151
455.360	13028
455.384	16369
455.430	20544
455.465	15485
455.499	11096
455.546	11449
455.569	11234
455.627	5588
455.638	4713
455.707	316
455.708	333
455.777	419
455.789	509
455.846	732
455.869	551
455.916	277
455.950	403
455.985	401
456.031	451
456.054	483
456.112	779
456.124	868
456.193	1059
456.193	1041
456.262	1584
456.274	1611
456.332	1406
456.355	1217
456.401	707
456.436	670
456.470	717
456.516	509
456.540	327
456.597	297
456.609	328
456.678	366
456.678	352
456.747	83
456.759	94
456.817	322
456.840	586
456.886	844
456.920	591
456.955	522
457.001	762
457.024	842
457.082	796
457.093	806
457.162	1804
457.163	1829
457.232	1916
457.243	1670
457.301	720
457.324	530
457.370	292
457.405	814
457.439	1466
457.485	1452
457.508	1423
457.566	1814
457.577	1916
457.646	2691
457.647	2721
457.715	5364
457.727	6000
457.784	9616
457.808	11986
457.853	13944
457.889	15679
457.922	15974
457.969	11870
457.991	12126
458.050	14969
458.060	15547
458.129	25243
458.130	25544
458.198	22060
458.211	19296
458.267	10790
458.292	7814
458.336	5822
458.372	5783
458.405	8636
458.453	13631
458.474	16384
458.533	27172
458.543	27736
458.611	38675
458.614	38806
458.680	21827
458.694	16561
458.749	7458
458.775	5573
458.818	3400
458.855	2825
458.887	2674
458.936	2280
458.955	2064
459.016	1726
459.024	1745
459.093	2642
459.097	2644
459.162	1880
459.177	1884
459.230	2762
459.257	3169
459.299	3070
459.338	2892
459.368	3071
459.418	3517
459.437	3243
459.499	2137
459.505	2129
459.574	2310
459.579	2334
459.643	2208
459.659	2115
459.711	2173
459.740	2149
459.780	2086
459.820	2731
459.849	3208
459.900	3399
459.917	3313
459.981	3344
459.986	3335
460.054	2217
460.061	2228
460.123	2749
460.141	2792
460.191	3157
460.222	3539
460.260	3891
460.302	4226
460.328	4039
460.382	3285
460.397	3350
460.462	3923
460.465	4145
460.534	10593
460.543	11184
460.602	22696
460.623	27930
460.671	43717
460.703	57465
460.739	47545
460.783	29317
460.808	25088
460.864	7447
460.876	5638
460.944	3877
460.945	3853
461.013	3698
461.024	3534
461.081	2736
461.104	2876
461.150	3246
461.184	3304
461.218	3078
461.264	2477
461.286	2553
461.345	3057
461.355	3002
461.423	2730
461.425	2715
461.491	3771
461.505	4189
461.559	10070
461.585	12416
461.628	17010
461.665	22047
461.696	22254
461.745	23987
461.764	20963
461.825	5559
461.832	5222
461.901	3420
461.905	3440
461.969	2851
461.985	2601
462.037	3856
462.065	4460
462.105	5272
462.145	6134
462.173	8158
462.225	12454
462.241	13437
462.305	18277
462.310	17707
462.378	7362
462.385	6037
462.446	3930
462.465	3666
462.514	3527
462.545	3368
462.582	3559
462.625	4081
462.650	4179
462.705	4176
462.718	4419
462.785	5841
462.786	5874
462.854	7212
462.865	7556
462.922	9161
462.945	9784
462.990	7115
463.025	4474
463.058	4044
463.104	3708
463.126	3654
463.184	3741
463.194	3852
463.262	4298
463.264	4322
463.330	4243
463.344	4220
463.398	5257
463.424	5652
463.466	4970
463.504	4661
463.533	5081
463.583	5216
463.601	5144
463.663	5303
463.669	5544
463.737	8531
463.743	8735
463.805	14561
463.823	16361
463.873	23953
463.903	28973
463.940	27997
463.982	26935
464.008	21379
464.062	7605
464.076	7067
464.142	4762
464.144	4752
464.211	4878
464.221	4947
464.279	4713
464.301	4595
464.347	5572
464.381	6341
464.414	6970
464.461	7680
464.482	7523
464.540	7482
464.550	7292
464.617	5182
464.620	5107
464.685	6464
464.699	6777
464.753	6975
464.779	7151
464.820	8214
464.859	9173
464.888	9436
464.938	9768
464.956	9882
465.018	10206
465.023	10009
465.091	7111
465.098	6806
465.158	6662
465.177	6672
465.226	6857
465.257	6821
465.293	7122
465.336	7586
465.361	8356
465.416	10048
465.428	11210
465.495	17435
465.496	17536
465.563	28588
465.575	30603
465.631	33424
465.654	34572
465.698	21185
465.734	9205
465.765	8069
465.813	6810
465.833	6909
465.893	7418
465.900	7368
465.968	6926
465.972	6877
466.035	6689
466.052	6628
466.102	7080
466.131	7320
466.170	7459
466.210	7571
466.237	7738
466.290	8080
466.304	8237
466.369	8786
466.372	8797
466.439	8698
466.449	8646
466.506	10213
466.528	10834
466.573	17459
466.607	22360
466.641	30439
466.687	41618
466.708	43810
466.766	49829
466.775	45747
466.842	14076
466.845	12549
466.909	10519
466.925	10080
466.977	9712
467.004	9532
467.044	10701
467.083	11820
467.111	12319
467.163	13206
467.178	13380
467.242	13972
467.245	13917
467.312	12259
467.321	12019
467.379	12464
467.400	12591
467.446	14553
467.480	15929
467.559	12337
467.638	10394
467.717	11014
467.796	11998
467.875	13218
467.955	12979
468.034	27212
468.113	49155
468.192	64689
468.271	13592
468.350	13699
468.429	14598
468.508	13966
468.588	11822
468.667	11286
468.746	11844
468.825	10910
468.904	9622
468.983	12469
469.062	19166
469.141	22050
469.220	9018
469.299	10102
469.378	9845
469.456	12749
469.535	10016
469.614	10076
469.693	11592
469.772	15806
469.851	22076
469.930	11436
470.009	9225
470.088	9006
470.166	9648
470.245	11778
470.324	10510
470.403	9782
470.482	8575
470.560	10028
470.639	8991
470.718	10503
470.797	9319
470.875	13908
470.954	17084
471.033	17572
471.111	6992
471.190	8009
471.269	7231
471.347	7119
471.426	9002
471.505	10590
471.583	9223
471.662	9380
471.740	8674
471.819	9080
471.898	8291
471.976	8247
472.055	7985
472.133	10900
472.212	15508
472.290	13372
472.369	8664
472.447	8316
472.526	8034
472.604	9539
472.683	9554
472.761	9475
472.839	8259
472.918	8447
472.996	9044
473.075	10901
473.153	9640
473.231	9467
473.310	10069
473.388	9448
473.466	9123
473.545	9341
473.623	10958
473.701	11143
473.780	9508
473.858	8235
473.936	10296
474.014	8607
474.093	10699
474.171	16720
474.249	20723
474.327	10775
474.405	7407
474.484	7433
474.562	6961
474.640	7489
474.718	8132
474.796	8268
474.874	7406
474.952	6393
475.030	7279
475.108	7762
475.187	9219
475.265	14454
475.343	20485
475.421	20662
475.499	9072
475.577	9811
475.655	14308
475.733	27381
475.811	44085
475.889	40276
475.966	20119
476.044	11306
476.122	15308
476.200	20008
476.278	12441
476.356	8486
476.434	9544
476.512	14105
476.590	19428
476.667	13069
476.745	7216
476.823	8964
476.901	7877
476.979	8561
477.056	7942
477.134	8523
477.212	8501
477.290	8952
477.367	6663
477.445	7701
477.523	6699
477.601	7602
477.678	8051
477.756	10731
477.834	9959
477.911	7645
477.989	7844
478.066	8168
478.144	11299
478.222	15580
478.299	25851
478.377	18867
478.454	7940
478.532	7220
478.609	6927
478.687	9057
478.764	6705
478.842	7716
478.919	7771
478.997	7546
479.074	6601
479.152	10226
479.229	12724
479.307	5939
479.384	6385
479.461	7236
479.539	6884
479.616	8966
479.694	7240
479.771	8007
479.848	9207
479.926	12674
480.003	11936
480.080	7200
480.157	7225
480.235	5955
480.312	6473
480.389	9237
480.467	14822
480.544	17571
480.621	8715
480.698	8671
480.775	9646
480.853	9691
480.930	8489
481.007	9138
481.084	10992
481.161	13200
481.238	9246
481.315	7503
481.392	6381
481.470	7981
481.547	7680
481.624	7626
481.701	7096
481.778	8283
481.855	9956
481.932	16441
482.009	25984
482.086	14136
482.163	10164
482.240	20084
482.317	35403
482.393	18815
482.470	8776
482.547	8934
482.624	8229
482.701	8900
482.778	7726
482.855	7145
482.932	6905
483.009	7555
483.085	8708
483.162	10599
483.239	9300
483.316	6583
483.393	7692
483.469	8125
483.546	9541
483.623	9493
483.699	7118
483.776	7870
483.853	9386
483.930	17640
484.006	41198
484.083	62235
484.160	24137
484.236	32971
484.313	23751
484.389	19286
484.466	17663
484.543	18628
484.619	18418
484.696	19805
484.772	20226
484.849	21218
484.925	15882
485.002	16589
485.078	18070
485.155	16749
485.231	14699
485.308	15295
485.384	16844
485.461	23601
485.537	37576
485.614	38732
485.690	15407
485.766	14747
485.843	16070
485.919	20735
485.995	18267
486.072	14435
486.148	13953
486.224	14291
486.301	15401
486.377	18014
486.453	16139
486.530	17184
486.606	21702
486.682	24249
486.758	31401
486.835	34253
486.911	29209
486.987	48365
487.063	36912
487.139	38714
487.215	29650
487.292	18964
487.368	16943
487.444	19987
487.520	23279
487.596	25682
487.672	48751
487.748	109005
487.824	140483
487.900	44758
487.976	22377
488.052	20823
488.128	22291
488.204	17399
488.280	15907
488.356	23358
488.432	47302
488.508	60305
488.584	16755
488.660	13270
488.736	13134
488.812	14937
488.888	17162
488.964	23140
489.039	40810
489.115	52659
489.191	27038
489.267	14865
489.343	13507
489.418	11656
489.494	11976
489.570	10645
489.646	12331
489.722	12790
489.797	13944
489.873	26854
489.949	51535
490.024	31563
490.100	10522
490.176	12352
490.251	13594
490.327	16108
490.403	10690
490.478	10896
490.554	9707
490.629	10558
490.705	9710
490.781	11049
490.856	10501
490.932	11731
491.007	11131
491.083	10992
491.158	11406
491.234	19812
491.309	39060
491.385	30740
491.460	11060
491.536	13943
491.611	9292
491.686	11903
491.762	14541
491.837	26607
491.913	43202
491.988	58954
492.063	56485
492.139	25462
492.214	14922
492.289	9038
492.365	8297
492.440	11120
492.515	11614
492.590	10701
492.666	9161
492.741	15203
492.816	21678
492.891	10125
492.967	9069
493.042	9284
493.117	8323
493.192	11017
493.267	22571
493.342	59879
493.418	62535
493.493	10673
493.568	7878
493.643	8759
493.718	12391
493.793	17404
493.868	14531
493.943	9181
494.018	9372
494.093	8386
494.168	8343
494.243	6662
494.318	7160
494.393	6919
494.468	6478
494.543	6970
494.618	7999
494.693	7424
494.768	7625
494.842	8096
494.917	6982
494.992	7600
495.067	6165
495.142	6838
495.217	7518
495.292	7476
495.366	8989
495.441	11300
495.516	13165
495.591	19512
495.665	58195
495.740	103579
495.815	30705
495.890	11628
495.964	8859
496.039	12830
496.114	10685
496.188	13378
496.263	12259
496.338	9554
496.412	11550
496.487	13955
496.561	12863
496.636	12637
496.710	10888
496.785	13682
496.860	15203
496.934	11093
497.009	10578
497.083	10994
497.158	11390
497.232	14489
497.307	16696
497.381	14638
497.455	19234
497.530	24007
497.604	16255
497.679	19407
497.753	28554
497.827	32217
497.902	25410
497.976	35499
498.050	104527
498.125	295350
498.199	197450
498.273	34771
498.348	28856
498.422	25773
498.496	24557
498.570	20913
498.645	18781
498.719	18525
498.793	23076
498.867	32679
498.941	47505
499.016	147510
499.090	285888
499.164	59839
499.238	13980
499.312	13857
499.386	15978
499.460	14316
499.534	13786
499.609	16921
499.683	25613
499.757	24678
499.831	73600
499.905	225280
499.979	136897
500.053	31405
500.127	27011
500.201	15887
500.275	13375
500.349	13204
500.422	14486
500.496	20190
500.570	48213
500.644	136516
500.718	193916
500.792	28472
500.866	16575
500.940	20937
501.013	14740
501.087	15238
501.161	23854
501.235	34153
501.309	95928
501.382	223992
501.456	125586
501.530	43165
501.603	66886
501.677	18629
501.751	10760
501.825	15050
501.898	37275
501.972	88665
502.046	35532
502.119	15449
502.193	45946
502.266	91148
502.340	33671
502.413	49879
502.487	75648
502.561	37159
502.634	12139
502.708	9613
502.781	8756
502.855	9209
502.928	7353
503.002	9124
503.075	7832
503.149	9587
503.222	9469
503.295	10673
503.369	13328
503.442	22054
503.516	81715
503.589	159595
503.662	77767
503.736	35826
503.809	80604
503.882	56386
503.956	98915
504.029	67641
504.102	63421
504.175	69640
504.249	26233
504.322	18495
504.395	12982
504.468	9608
504.542	9361
504.615	7152
504.688	7018
504.761	6418
504.834	8814
504.907	9621
504.980	12086
505.053	8825
505.127	8307
505.200	14025
505.273	13672
505.346	7059
505.419	5462
505.492	6869
505.565	5258
505.638	5675
505.711	6238
505.784	6379
505.857	4905
505.930	7644
506.003	5033
506.076	8749
506.149	9969
506.221	10450
506.294	13339
506.367	44313
506.440	116083
506.513	37777
506.586	12975
506.659	6455
506.731	5585
506.804	8443
506.877	9000
506.950	7870
507.022	7416
507.095	9703
507.168	9800
507.241	5569
507.313	4286
507.386	5313
507.459	7595
507.531	5286
507.604	3799
507.677	5936
507.749	3090
507.822	8535
507.894	12751
507.967	13874
508.040	7986
508.112	9440
508.185	7067
508.257	6578
508.330	11365
508.402	7530
508.475	7638
508.547	9307
508.620	8690
508.692	14973
508.765	7503
508.837	5891
508.909	6618
508.982	6105
509.054	6791
509.127	5594
509.199	5229
509.271	5341
509.344	5141
509.416	5568
509.488	6506
509.560	6450
509.633	6102
509.705	6183
509.777	7608
509.849	9886
509.922	5550
509.994	5151
510.066	7499
510.138	6802
510.210	14925
510.283	11789
510.355	9321
510.427	8893
510.499	8304
510.571	8226
510.643	7387
510.715	13420
510.787	7413
510.859	10076
510.931	9458
511.003	11779
511.076	10318
511.148	7193
511.219	8863
511.291	16607
511.363	14837
511.435	6796
511.507	6020
511.579	7235
511.651	7532
511.723	6744
511.795	5845
511.867	6628
511.939	11450
512.010	21682
512.082	13016
512.154	7199
512.226	6963
512.298	12386
512.369	13542
512.441	10959
512.513	10481
512.585	7650
512.656	9039
512.728	9005
512.800	7069
512.871	8635
512.943	8427
513.015	6185
513.086	7754
513.158	8314
513.230	6861
513.301	11056
513.373	10357
513.444	7278
513.516	6933
513.588	6635
513.659	8065
513.731	8859
513.802	7844
513.874	17690
513.945	20152
514.016	7776
514.088	6996
514.159	7492
514.231	10597
514.302	12410
514.374	9574
514.445	11514
514.516	25855
514.588	13364
514.659	12474
514.730	22409
514.802	12383
514.873	10082
514.944	12660
515.016	10013
515.087	10584
515.158	17492
515.229	19896
515.301	11482
515.372	14082
515.443	9269
515.514	7608
515.585	6534
515.656	7455
515.728	6752
515.799	5878
515.870	7550
515.941	7207
516.012	6749
516.083	10450
516.154	9906
516.225	11099
516.296	11432
516.367	8884
516.438	9492
516.509	11244
516.580	19100
516.651	58229
516.722	141136
516.793	43962
516.864	17868
516.935	16423
517.006	19221
517.077	25569
517.148	56246
517.219	170519
517.289	183602
517.360	112839
517.431	28787
517.502	11398
517.573	11777
517.643	11897
517.714	12155
517.785	12623
517.856	12000
517.926	15175
517.997	15735
518.068	15065
518.138	20684
518.209	33560
518.280	131946
518.350	315657
518.421	73325
518.492	19868
518.562	18973
518.633	19134
518.703	22339
518.774	49821
518.845	101247
518.915	71648
518.986	27092
519.056	20593
519.127	28966
519.197	51443
519.268	125443
519.338	50165
519.408	17391
519.479	16779
519.549	10792
519.620	10678
519.690	9151
519.760	8430
519.831	8357
519.901	8986
519.971	8229
520.042	9329
520.112	10454
520.182	11346
520.253	11159
520.323	8675
520.393	12583
520.463	15872
520.534	13441
520.604	23085
520.674	13030
520.744	12634
520.814	24980
520.885	21598
520.955	54420
521.025	139085
521.095	30277
521.165	10334
521.235	8268
521.305	6931
521.375	7449
521.445	9256
521.515	8359
521.585	11425
521.655	7534
521.725	9622
521.795	8192
521.865	6362
521.935	17049
522.005	10920
522.075	6402
522.145	8323
522.215	9710
522.285	13682
522.355	22307
522.424	39073
522.494	25538
522.564	12310
522.634	25419
522.704	51781
522.774	13347
522.843	7327
522.913	8193
522.983	7761
523.053	6800
523.122	8791
523.192	11376
523.262	32428
523.331	18627
523.401	7071
523.471	6259
523.540	6923
523.610	4676
523.680	6591
523.749	7606
523.819	10317
523.888	7814
523.958	5904
524.027	7026
524.097	7262
524.166	6934
524.236	5556
524.305	8635
524.375	5737
524.444	5524
524.514	8475
524.583	7171
524.653	8681
524.722	10683
524.791	5783
524.861	7890
524.930	5482
524.999	6831
525.069	10029
525.138	9543
525.207	10859
525.277	7689
525.346	6870
525.415	8349
525.484	8577
525.554	10347
525.623	9915
525.692	10800
525.761	11003
525.830	12789
525.900	14118
525.969	23656
526.038	36599
526.107	89086
526.176	201764
526.245	119574
526.314	50377
526.383	118849
526.452	128376
526.522	250234
526.591	158420
526.660	40519
526.729	21605
526.797	29222
526.867	70374
526.935	246688
527.004	432397
527.073	153471
527.142	20815
527.211	12273
527.280	12003
527.349	9898
527.418	6503
527.487	7341
527.555	5055
527.624	5154
527.693	4413
527.762	7545
527.831	4718
527.899	6247
527.968	5075
528.037	4613
528.106	8176
528.174	10743
528.243	10972
528.312	16644
528.380	14092
528.449	6463
528.518	6852
528.586	3519
528.655	6022
528.723	4110
528.792	3979
528.861	5431
528.929	4391
528.998	6486
529.066	5174
529.135	6609
529.203	5701
529.272	6920
529.340	8469
529.409	8668
529.477	6499
529.545	10335
529.614	11910
529.682	12716
529.751	12794
529.819	15902
529.887	10250
529.956	8967
530.024	10013
530.092	8531
530.161	10088
530.229	12346
530.297	8653
530.365	10519
530.434	9580
530.502	9677
530.570	8612
530.638	6908
530.707	8372
530.775	9606
530.843	7683
530.911	8875
530.979	8872
531.047	8938
531.115	9423
531.183	9139
531.252	9346
531.320	9072
531.388	7033
531.456	9651
531.524	7116
531.592	10863
531.660	12214
531.728	8925
531.796	8481
531.864	9697
531.932	8677
532.000	9290
532.067	11004
532.135	11856
532.203	12202
532.271	13388
532.339	18310
532.407	27785
532.475	15827
532.542	12883
532.610	13783
532.678	19793
532.746	65357
532.814	90195
532.881	21987
532.949	11557
533.017	11021
533.084	9994
533.152	9702
533.220	9521
533.287	9259
533.355	9391
533.423	11123
533.490	10063
533.558	8808
533.625	10305
533.693	9053
533.761	10014
533.828	10317
533.896	9181
533.963	15862
534.031	17675
534.098	22979
534.166	11996
534.233	9867
534.300	11498
534.368	11221
534.435	9372
534.503	9801
534.570	12695
534.637	10506
534.705	11694
534.772	14910
534.840	28611
534.907	112767
534.974	81346
535.041	14736
535.109	12202
535.176	8359
535.243	9496
535.310	8851
535.378	8664
535.445	7617
535.512	7286
535.579	8633
535.646	7372
535.714	7893
535.781	9123
535.848	9594
535.915	10725
535.982	9348
536.049	9812
536.116	10243
536.183	8349
536.250	8076
536.317	7443
536.384	9334
536.451	11768
536.518	10168
536.585	8877
536.652	11468
536.719	14210
536.786	8586
536.853	9585
536.920	15216
536.987	16677
537.053	18936
537.120	63689
537.187	31058
537.254	8412
537.321	7503
537.388	9194
537.454	6778
537.521	7742
537.588	7085
537.654	9277
537.721	8931
537.788	9694
537.855	6140
537.921	8274
537.988	7922
538.055	8637
538.121	6895
538.188	7438
538.254	10906
538.321	15217
538.388	10425
538.454	8183
538.521	7340
538.587	7425
538.654	6924
538.720	6598
538.787	6865
538.853	8018
538.920	8813
538.986	9763
539.053	7908
539.119	8739
539.185	7854
539.252	10759
539.318	10054
539.385	11051
539.451	8641
539.517	9279
539.583	11866
539.650	25742
539.716	36960
539.782	10980
539.849	7338
539.915	8997
539.981	7878
540.047	8600
540.114	6996
540.180	9540
540.246	7239
540.312	10652
540.378	16664
540.444	15150
540.510	25107
540.576	41474
540.643	11184
540.709	6141
540.775	7080
540.841	7801
540.907	11299
540.973	14187
541.039	10728
541.105	10255
541.171	7544
541.237	6558
541.303	7279
541.369	10291
541.435	9977
541.500	14232
541.566	7832
541.632	6576
541.698	6308
541.764	7770
541.830	6291
541.896	5815
541.961	8314
542.027	8330
542.093	7715
542.159	7354
542.224	7611
542.290	10887
542.356	14657
542.421	14167
542.487	9708
542.553	8026
542.618	8858
542.684	7204
542.750	7365
542.815	10031
542.881	17872
542.947	45375
543.012	19534
543.078	7141
543.143	7119
543.209	7504
543.274	6980
543.340	9527
543.405	21147
543.471	19593
543.536	8453
543.602	7878
543.667	6608
543.732	7674
543.798	6634
543.863	8034
543.928	7484
543.994	6319
544.059	7146
544.124	6754
544.190	6816
544.255	7765
544.320	7255
544.386	7694
544.451	10000
544.516	10205
544.581	11387
544.646	32804
544.712	30782
544.777	9656
544.842	9790
544.907	10683
544.972	7939
545.037	9711
545.102	10948
545.168	9261
545.233	9483
545.298	11310
545.363	11897
545.428	12059
545.493	21439
545.558	31194
545.623	12248
545.688	10259
545.753	9696
545.818	10498
545.883	11396
545.947	9486
546.012	11988
546.077	11842
546.142	11712
546.207	10093
546.272	13215
546.337	11709
546.401	11852
546.466	11549
546.531	10344
546.596	12840
546.661	12617
546.725	13212
546.790	11405
546.855	13540
546.919	11812
546.984	15973
547.049	16118
547.113	19860
547.178	17449
547.243	20968
547.307	23858
547.372	26744
547.436	25049
547.501	24866
547.565	26025
547.630	24683
547.695	25076
547.759	28489
547.823	24374
547.888	24032
547.952	24028
548.017	26524
548.081	31137
548.146	32370
548.210	29074
548.274	28029
548.339	25775
548.403	24954
548.468	23145
548.532	22348
548.596	23667
548.660	23638
548.725	26373
548.789	29477
548.853	28998
548.917	27032
548.982	31292
549.046	26728
549.110	21135
549.174	22794
549.238	26140
549.303	26136
549.367	27938
549.431	25646
549.495	25482
549.559	25584
549.623	30025
549.687	32402
549.751	34510
549.815	36350
549.879	35473
549.943	33505
550.007	36980
550.071	36139
550.135	35278
550.199	31748
550.263	31439
550.327	33005
550.391	36762
550.455	34126
550.519	34398
550.582	38192
550.646	44359
550.710	42841
550.774	41863
550.838	41128
550.901	43167
550.965	46362
551.029	47840
551.093	54200
551.156	66275
551.220	92485
551.284	81020
551.347	60579
551.411	84647
551.475	66972
551.538	46016
551.602	41270
551.666	37613
551.729	36123
551.793	36253
551.856	37335
551.920	35208
551.983	36626
552.047	35212
552.110	35195
552.174	36598
552.237	35283
552.301	33905
552.364	33171
552.428	32619
552.491	33483
552.554	33688
552.618	33911
552.681	34761
552.745	34624
552.808	38977
552.871	39390
552.934	35800
552.998	35037
553.061	35590
553.124	33439
553.187	33586
553.251	34936
553.314	35742
553.377	38083
553.440	49876
553.503	100843
553.567	95537
553.630	40753
553.693	37101
553.756	37445
553.819	35561
553.882	35202
553.945	35568
554.008	34608
554.071	34735
554.134	34140
554.197	32841
554.260	32651
554.323	33695
554.386	35004
554.449	35603
554.512	36243
554.575	33698
554.638	34116
554.701	34242
554.764	32853
554.827	32533
554.889	31353
554.952	28183
555.015	29259
555.078	28973
555.141	29870
555.203	28719
555.266	29749
555.329	30004
555.391	28333
555.454	27784
555.517	27860
555.580	26346
555.642	25434
555.705	25000
555.768	24205
555.830	24777
555.893	23202
555.955	23597
556.018	22745
556.080	21974
556.143	23105
556.206	23000
556.268	22177
556.330	22745
556.393	23180
556.455	23125
556.518	28109
556.580	23133
556.643	20208
556.705	19309
556.767	19172
556.830	19226
556.892	20288
556.955	21872
557.017	19860
557.079	17829
557.142	18989
557.204	20050
557.266	25304
557.328	20551
557.391	16628
557.453	15187
557.515	17324
557.577	18312
557.639	18295
557.701	16653
557.764	15790
557.826	18003
557.888	18802
557.950	17430
558.012	21275
558.074	30687
558.136	79199
558.198	123707
558.260	34739
558.322	20535
558.384	21850
558.446	23408
558.508	25945
558.570	30691
558.632	39287
558.694	52579
558.756	91354
558.818	297736
558.880	432447
558.942	130465
559.003	137746
559.065	47706
559.127	27264
559.189	26699
559.251	31531
559.312	54659
559.374	159910
559.436	344784
559.498	102097
559.559	29007
559.621	27450
559.683	34847
559.744	68403
559.806	218756
559.868	191562
559.929	36198
559.991	32321
560.052	62119
560.114	134867
560.176	63838
560.237	95158
560.299	96796
560.360	20296
560.422	13828
560.483	13447
560.545	13320
560.606	12467
560.667	12094
560.729	11403
560.790	11028
560.852	11802
560.913	11194
560.974	11512
561.036	10169
561.097	10436
561.158	10389
561.220	11593
561.281	9662
561.342	11163
561.403	11746
561.465	13767
561.526	25900
561.587	22585
561.648	10758
561.709	10624
561.771	10309
561.832	10641
561.893	10021
561.954	9459
562.015	9684
562.076	10349
562.137	9616
562.198	9326
562.259	9618
562.320	10502
562.381	10958
562.442	12186
562.503	10198
562.564	9378
562.625	9783
562.686	10436
562.747	10242
562.808	10433
562.869	10128
562.930	12967
562.991	11342
563.051	11328
563.112	9545
563.173	10193
563.234	9530
563.294	9894
563.355	9234
563.416	9808
563.477	9828
563.537	10230
563.598	10282
563.659	10288
563.720	10113
563.780	10954
563.841	10061
563.901	10378
563.962	9836
564.023	10048
564.083	10555
564.144	10146
564.204	9637
564.265	11029
564.325	13736
564.386	23508
564.446	14489
564.507	9567
564.567	8911
564.628	9671
564.688	9254
564.749	10342
564.809	11855
564.869	13660
564.930	9173
564.990	9500
565.050	8946
565.111	9692
565.171	8972
565.231	9223
565.292	10481
565.352	8709
565.412	9282
565.472	10018
565.532	9966
565.593	9192
565.653	9113
565.713	10441
565.773	9885
565.833	11291
565.893	13144
565.953	9822
566.013	9856
566.074	10909
566.134	15057
566.194	20188
566.254	18058
566.314	13437
566.374	11071
566.434	11579
566.494	11155
566.554	10943
566.614	10610
566.673	11407
566.733	12320
566.793	13157
566.853	13082
566.913	12830
566.973	13236
567.033	13495
567.092	12980
567.152	13072
567.212	12966
567.272	14689
567.331	14568
567.391	14539
567.451	16412
567.511	20978
567.570	17494
567.630	14476
567.690	13660
567.749	13877
567.809	14213
567.868	16298
567.928	17512
567.988	20224
568.047	21948
568.107	25805
568.166	32788
568.226	49114
568.285	60050
568.345	51485
568.404	43637
568.464	39306
568.523	36064
568.582	36805
568.642	41185
568.701	51077
568.761	73512
568.820	100308
568.879	95920
568.939	75564
568.998	56459
569.057	44855
569.116	35524
569.176	29312
569.235	25078
569.294	22051
569.353	20289
569.413	19091
569.472	16745
569.531	15882
569.590	13812
569.649	14063
569.708	12970
569.767	14624
569.827	13062
569.886	11750
569.945	10884
570.004	11865
570.063	10744
570.122	12309
570.181	11852
570.240	13102
570.299	11732
570.358	11419
570.417	9911
570.475	9951
570.534	11346
570.593	10209
570.652	10298
570.711	10277
570.770	10425
570.829	11327
570.887	9306
570.946	9744
571.005	8765
571.064	9856
571.122	10640
571.181	10640
571.240	9063
571.299	9489
571.357	10385
571.416	10581
571.475	12002
571.533	10500
571.592	9410
571.650	10099
571.709	8616
571.768	9671
571.826	8710
571.885	9340
571.943	8966
572.002	9619
572.060	9159
572.119	9155
572.177	8238
572.236	8777
572.294	7615
572.352	9448
572.411	8997
572.469	9391
572.528	7904
572.586	8517
572.644	9926
572.703	10452
572.761	9368
572.819	8537
572.877	8496
572.936	8871
572.994	7429
573.052	8731
573.110	7846
573.169	8472
573.227	7828
573.285	7963
573.343	9244
573.401	9171
573.459	8656
573.517	8098
573.576	7073
573.634	8896
573.692	8113
573.750	8644
573.808	7957
573.866	9544
573.924	11020
573.982	10094
574.040	7208
574.098	8495
574.155	7567
574.213	6985
574.271	7691
574.329	8631
574.387	7364
574.445	7305
574.503	6638
574.560	7375
574.618	6903
574.676	7409
574.734	7432
574.792	7252
574.849	7099
574.907	6294
574.965	6172
575.022	6853
575.080	6476
575.138	7657
575.195	6781
575.253	8005
575.311	6977
575.368	7325
575.426	7086
575.483	7075
575.541	6203
575.598	7122
575.656	7950
575.713	7580
575.771	7580
575.828	7411
575.886	6913
575.943	9165
576.001	7442
576.058	7781
576.115	7989
576.173	9786
576.230	9607
576.287	9390
576.345	7993
576.402	8391
576.459	7917
576.517	8363
576.574	8707
576.631	9294
576.688	8070
576.746	8102
576.803	8175
576.860	8126
576.917	9264
576.974	7657
577.031	8151
577.089	8363
577.146	7914
577.203	8347
577.260	8612
577.317	8832
577.374	9447
577.431	8264
577.488	7419
577.545	7653
577.602	8472
577.659	8882
577.716	8224
577.773	9952
577.830	7257
577.886	8597
577.943	6954
578.000	7823
578.057	8742
578.114	8564
578.171	9273
578.227	10010
578.284	9760
578.341	9711
578.398	8640
578.454	9328
578.511	9544
578.568	9620
578.625	7867
578.681	9286
578.738	8350
578.794	8636
578.851	8267
578.908	8695
578.964	9020
579.021	7820
579.077	7634
579.134	8317
579.190	8109
579.247	7868
579.303	7310
579.360	7798
579.416	7647
579.473	8294
579.529	7697
579.586	7874
579.642	8233
579.698	8206
579.755	8348
579.811	8706
579.867	8264
579.924	8100
579.980	8957
580.036	10557
580.093	11138
580.149	14009
580.205	12855
580.261	11253
580.317	9936
580.374	9689
580.430	10832
580.486	10548
580.542	9710
580.598	9185
580.619	9363
580.654	9673
580.692	9233
580.710	9021
580.765	8484
580.767	8466
580.823	9771
580.838	9395
580.879	8401
580.911	9245
580.935	9871
580.984	8807
580.991	8663
581.047	9945
581.057	9847
581.103	9409
581.130	10230
581.159	11073
581.203	10792
581.215	10716
581.270	11034
581.276	10957
581.326	10192
581.349	10134
581.382	10064
581.422	10489
581.438	10664
581.494	11037
581.494	11020
581.550	8942
581.567	9731
581.606	11438
581.640	11146
581.661	10953
581.713	11911
581.717	11985
581.773	10675
581.786	10755
581.829	11035
581.859	11114
581.885	11153
581.932	11015
581.940	10994
581.996	11729
582.004	11824
582.052	12296
582.077	11825
582.107	11323
582.150	11712
582.163	11814
582.219	11635
582.223	11637
582.274	11535
582.296	11639
582.330	11860
582.368	12533
582.386	12831
582.441	12622
582.441	12617
582.497	12559
582.514	12941
582.552	14049
582.587	14147
582.608	14025
582.659	13273
582.663	13220
582.719	13335
582.732	13205
582.774	12967
582.805	13567
582.830	13966
582.877	14037
582.885	14075
582.941	15187
582.950	15336
582.996	16050
583.023	16697
583.052	17646
583.095	18020
583.107	17985
583.162	19489
583.168	19337
583.218	17730
583.240	17522
583.273	17033
583.313	15833
583.328	15513
583.384	16352
583.385	16345
583.439	15839
583.458	15943
583.494	16163
583.531	15280
583.549	15071
583.603	15394
583.605	15382
583.660	14597
583.676	14792
583.715	15742
583.748	15973
583.770	16073
583.820	16968
583.825	17044
583.881	16119
583.893	16222
583.936	16792
583.965	16942
583.991	17003
584.038	17238
584.046	17308
584.101	17448
584.110	17546
584.156	17979
584.183	18132
584.211	18342
584.255	19053
584.266	19295
584.321	17987
584.328	18128
584.376	19231
584.400	19365
584.431	19589
584.472	19918
584.486	19960
584.541	20417
584.545	20394
584.596	20694
584.617	20986
584.651	21709
584.689	22770
584.706	23020
584.761	22581
584.762	22561
584.816	22980
584.834	23367
584.871	24128
584.906	24292
584.926	24314
584.978	24703
584.980	24758
585.035	25993
585.051	26214
585.090	26988
585.123	27470
585.145	27768
585.195	28723
585.200	28867
585.254	29630
585.267	30189
585.309	32331
585.340	33414
585.364	34273
585.412	35089
585.419	35253
585.473	39202
585.484	40108
585.528	46023
585.556	52321
585.583	63802
585.628	92877
585.637	102771
585.692	190954
585.700	200352
585.747	229431
585.772	200653
585.801	130730
585.845	63773
585.856	56818
585.910	42320
585.917	40694
585.965	38183
585.989	37557
586.019	37636
586.061	37287
586.074	37302
586.128	37978
586.133	37970
586.183	38390
586.205	38305
586.237	38590
586.277	39041
586.292	39195
586.346	38876
586.349	38829
586.401	39971
586.421	40591
586.455	41691
586.493	42776
586.509	44240
586.564	49950
586.565	50076
586.618	62514
586.637	63078
586.672	55709
586.709	49685
586.727	48842
586.781	49306
586.781	49406
586.835	49480
586.853	49434
586.889	49018
586.925	48841
586.944	49589
586.996	51313
586.998	51472
587.052	53542
587.068	54079
587.106	55947
587.140	56771
587.161	57587
587.212	60567
587.215	60816
587.269	62247
587.284	62662
587.323	65806
587.356	68070
587.377	69308
587.427	71822
587.431	72181
587.485	74874
587.499	75507
587.539	79344
587.571	81793
587.593	83827
587.643	88453
587.648	89209
587.702	95376
587.715	96647
587.755	101627
587.786	105115
587.810	108597
587.858	115324
587.864	116524
587.917	125882
587.930	127814
587.971	137624
588.001	144499
588.025	150196
588.073	160481
588.079	162715
588.133	179930
588.145	183463
588.187	199840
588.217	210933
588.241	222716
588.288	245060
588.295	249454
588.348	282653
588.360	289204
588.402	322676
588.431	345762
588.456	372280
588.503	422517
588.510	433058
588.564	513785
588.575	530108
588.617	616682
588.646	676821
588.671	741812
588.718	863397
588.725	881658
588.778	1012503
588.789	1035705
588.832	1032213
588.861	1011218
588.886	910581
588.932	671742
588.939	659545
588.993	606307
589.004	607689
589.047	873771
589.075	1021255
589.100	1069156
589.147	1126730
589.154	1116514
589.207	1017156
589.218	996183
589.261	941661
589.290	906771
589.314	920139
589.361	947772
589.368	958723
589.421	1035985
589.433	1049702
589.475	1012157
589.504	961842
589.528	866863
589.576	670354
589.582	690763
589.635	914406
589.647	951174
589.689	1000872
589.718	1022765
589.742	943460
589.790	782840
589.795	769433
589.849	626833
589.861	592792
589.902	520758
589.932	464243
589.955	434853
590.004	371170
590.009	368206
590.062	323718
590.075	311853
590.115	286960
590.146	266201
590.168	256596
590.218	233022
590.222	232453
590.275	214505
590.289	209237
590.328	199114
590.360	189575
590.381	184967
590.431	172027
590.435	171987
590.488	161040
590.503	157521
590.541	152417
590.574	146920
590.594	144863
590.645	138001
590.647	138285
590.700	132519
590.716	130350
590.753	127091
590.787	123345
590.806	121929
590.859	116285
590.859	116634
590.912	112125
590.930	110318
590.965	108765
591.001	106443
591.018	105809
591.071	102621
591.072	102214
591.124	100813
591.143	99871
591.177	98760
591.214	96642
591.230	96635
591.283	95612
591.285	95210
591.336	93126
591.356	91889
591.389	90890
591.427	88704
591.442	88424
591.495	86333
591.498	85857
591.547	83886
591.569	82520
591.600	82529
591.640	81813
591.653	82180
591.706	82444
591.711	82167
591.759	82158
591.782	81668
591.811	82653
591.853	83272
591.864	82990
591.917	79982
591.924	79235
591.969	78325
591.995	77408
592.022	77531
592.066	76851
592.075	77469
592.127	79543
592.137	79636
592.180	81776
592.208	82609
592.233	80489
592.279	75565
592.285	75750
592.338	74940
592.350	74471
592.390	73842
592.421	72889
592.443	73304
592.491	73300
592.495	73564
592.548	73327
592.562	72977
592.600	72589
592.633	71746
592.653	71835
592.704	70955
592.705	71365
592.775	71308
592.846	69710
592.916	70529
592.987	70416
593.058	69928
593.128	68181
593.199	66471
593.270	67428
593.341	66114
593.411	66899
593.482	67204
593.553	67044
593.623	66694
593.694	68644
593.764	68317
593.835	66992
593.906	65786
593.976	65910
594.047	66647
594.117	73708
594.188	72918
594.258	67991
594.329	67801
594.399	67870
594.470	69006
594.540	68086
594.611	69405
594.681	68104
594.751	67610
594.822	70694
594.892	71122
594.963	72958
595.033	72803
595.103	74272
595.174	75180
595.244	83372
595.314	90814
595.384	77926
595.455	76031
595.525	77843
595.595	79294
595.665	80990
595.736	78213
595.806	79336
595.876	80264
595.946	79808
596.016	80250
596.087	83055
596.157	82554
596.227	82110
596.297	86119
596.367	89889
596.437	94461
596.507	100898
596.577	104716
596.647	95706
596.717	96575
596.787	97975
596.857	97893
596.927	97696
596.997	98230
597.067	100515
597.137	103645
597.207	105031
597.277	103911
597.347	100380
597.417	99275
597.487	100785
597.557	102939
597.626	103253
597.696	105825
597.766	110320
597.836	111969
597.906	101641
597.975	96788
598.045	97449
598.115	100958
598.185	105687
598.254	114026
598.324	120385
598.394	122222
598.464	119787
598.533	120128
598.603	113118
598.672	112680
598.742	114361
598.812	114839
598.881	117415
598.951	119233
599.020	117182
599.090	121332
599.159	124466
599.229	120501
599.299	120383
599.368	123211
599.437	123366
599.507	120133
599.576	118548
599.646	120144
599.715	119983
599.785	117390
599.854	118719
599.924	119660
599.993	120299
600.062	120466
600.132	124596
600.201	127824
600.270	140991
600.340	146796
600.409	144003
600.478	145051
600.547	148855
600.617	142902
600.686	131383
600.755	125948
600.824	125265
600.894	126194
600.963	127063
601.032	129679
601.101	128507
601.170	129571
601.239	130504
601.308	134651
601.378	137035
601.447	136284
601.516	138799
601.585	141750
601.654	150194
601.723	149642
601.792	152123
601.861	155761
601.930	166625
601.999	169033
602.068	168097
602.137	171028
602.206	170378
602.275	169396
602.343	172917
602.412	172588
602.481	172953
602.550	174305
602.619	178999
602.688	177273
602.756	181999
602.825	179567
602.894	185146
602.963	184595
603.032	185854
603.100	187382
603.169	183318
603.238	190742
603.307	182703
603.375	181744
603.444	193295
603.513	178587
603.581	183356
603.650	193450
603.719	162079
603.787	155898
603.856	159539
603.924	161599
603.993	165863
604.061	170647
604.130	174913
604.198	177385
604.267	180928
604.335	184795
604.404	185679
604.472	190597
604.541	190433
604.609	195697
604.678	202193
604.746	203799
604.815	214873
604.883	208091
604.951	200537
605.020	208743
605.088	196138
605.156	187068
605.225	186628
605.293	186121
605.361	187455
605.429	183175
605.498	190141
605.566	188335
605.634	197422
605.702	196723
605.771	200917
605.839	205771
605.907	193360
605.975	196774
606.043	190720
606.111	185707
606.180	203028
606.248	186419
606.316	183938
606.384	197553
606.452	165202
606.520	142967
606.588	144561
606.656	141310
606.724	140969
606.792	134686
606.860	122485
606.928	113296
606.996	110894
607.064	108641
607.132	110759
607.200	116779
607.267	120340
607.335	120524
607.403	123583
607.471	119652
607.539	118519
607.607	118938
607.674	106054
607.742	109196
607.810	106063
607.878	105714
607.946	107599
608.013	110750
608.081	112920
608.149	113117
608.216	115582
608.284	119310
608.352	117363
608.419	117684
608.487	123058
608.555	113623
608.622	115737
608.690	119314
608.757	130107
608.825	131824
608.893	129152
608.960	125891
609.028	122683
609.095	126706
609.163	120186
609.230	107376
609.298	101059
609.365	104765
609.432	110425
609.500	120132
609.567	134674
609.635	153809
609.702	159410
609.769	153401
609.837	125224
609.904	108643
609.971	110938
610.039	119503
610.106	144891
610.173	238145
610.241	485886
610.308	341594
610.375	166548
610.442	123103
610.509	114559
610.577	113561
610.644	113213
610.711	116668
610.778	119493
610.845	123860
610.912	130199
610.980	135322
611.047	141023
611.114	134557
611.181	127066
611.248	126140
611.315	135267
611.382	137288
611.449	139851
611.516	142034
611.583	140098
611.650	141958
611.717	143791
611.784	146108
611.851	150593
611.918	157698
611.984	175801
612.051	228128
612.118	400058
612.185	838700
612.252	587912
612.319	216764
612.386	183339
612.452	167690
612.519	164663
612.586	166117
612.653	166172
612.719	166566
612.786	160788
612.853	151047
612.919	147797
612.986	150230
613.053	142210
613.120	135242
613.186	131777
613.253	134495
613.319	133411
613.386	132456
613.453	135411
613.519	137310
613.586	137186
613.652	141814
613.719	140232
613.785	139713
613.852	139661
613.918	135855
613.985	139821
614.051	148773
614.118	161120
614.184	154980
614.250	138603
614.317	141440
614.383	137839
614.449	140143
614.516	138343
614.582	141898
614.648	138749
614.715	139490
614.781	136419
614.847	137758
614.914	137350
614.980	133574
615.046	134124
615.112	136390
615.179	140462
615.245	144242
615.311	147799
615.377	170068
615.443	178310
615.509	154961
615.575	148807
615.642	146812
615.708	150868
615.774	157669
615.840	167385
615.906	179291
615.972	215153
616.038	319448
616.104	530044
616.170	976214
616.236	852131
616.302	298334
616.368	226298
616.434	183954
616.500	172314
616.565	178697
616.631	202270
616.697	184751
616.763	185037
616.829	236061
616.895	358134
616.961	354761
617.026	203195
617.092	158695
617.158	152709
617.224	150037
617.289	141119
617.355	138012
617.421	136632
617.487	138870
617.552	133033
617.618	129034
617.684	130595
617.749	133333
617.815	128448
617.880	125274
617.946	125026
618.012	130038
618.077	130686
618.143	127492
618.208	129370
618.274	135404
618.339	137887
618.405	119591
618.470	121310
618.536	120628
618.601	124072
618.667	115049
618.732	113882
618.798	110880
618.863	111145
618.928	110004
618.994	112129
619.059	112561
619.124	115799
619.190	111591
619.255	110596
619.320	112010
619.386	112521
619.451	109819
619.516	108828
619.581	111633
619.647	113262
619.712	113835
619.777	110823
619.842	112264
619.907	113282
619.972	114514
620.038	113283
620.103	111562
620.168	110290
620.233	112351
620.298	112906
620.363	113175
620.428	116101
620.493	119747
620.558	121147
620.623	120077
620.688	120231
620.753	117986
620.818	119630
620.883	121302
620.948	122392
621.013	120383
621.078	120723
621.143	120978
621.207	124438
621.272	122817
621.337	119605
621.402	123152
621.467	126961
621.532	127885
621.596	124622
621.661	120967
621.726	118222
621.791	120758
621.855	122602
621.920	122218
621.985	123824
622.049	128755
622.114	125486
622.179	127178
622.243	129477
622.308	128908
622.373	132860
622.437	131680
622.502	126359
622.566	126031
622.631	124855
622.695	127265
622.760	126363
622.824	127177
622.889	126996
622.953	129103
623.018	135702
623.082	136847
623.147	131295
623.211	127787
623.276	128855
623.340	123589
623.404	123866
623.469	121930
623.533	123926
623.597	121223
623.662	119916
623.726	115135
623.790	111710
623.854	110366
623.919	112115
623.983	110928
624.047	113219
624.111	111605
624.176	112766
624.240	114577
624.304	118889
624.368	112829
624.432	111169
624.496	113286
624.560	117482
624.625	117324
624.689	116324
624.753	119197
624.817	113333
624.881	111528
624.945	105695
625.009	105608
625.073	104418
625.137	108256
625.201	112467
625.265	110203
625.329	106074
625.393	107733
625.456	105311
625.520	107251
625.584	109176
625.648	115589
625.712	128362
625.776	168842
625.839	172870
625.903	110664
625.967	93671
626.031	111008
626.095	135936
626.158	100098
626.222	84647
626.286	81329
626.349	79496
626.413	75762
626.477	76134
626.540	74922
626.604	74053
626.668	74122
626.731	73138
626.795	73251
626.858	71602
626.922	69108
626.986	69413
627.049	68129
627.113	70799
627.176	69219
627.240	66555
627.303	66727
627.366	65639
627.430	66837
627.493	67222
627.557	65952
627.620	67881
627.684	66818
627.747	66188
627.810	60382
627.874	58901
627.937	56903
628.000	61127
628.064	57959
628.127	51544
628.190	52915
628.253	52808
628.317	50167
628.380	49048
628.443	48840
628.506	49555
628.569	46823
628.632	46048
628.696	45601
628.759	45164
628.822	42969
628.885	42737
628.948	42402
629.011	43210
629.074	41173
629.137	40656
629.200	40220
629.263	41929
629.326	38048
629.389	39497
629.452	37841
629.515	39309
629.578	37797
629.641	39393
629.704	37146
629.767	37287
629.830	37919
629.892	36228
629.955	35318
630.018	38032
630.081	35661
630.144	36951
630.207	36074
630.269	37554
630.332	35619
630.395	35295
630.458	34733
630.520	32284
630.583	34265
630.646	34526
630.708	32529
630.771	32457
630.834	34759
630.896	33381
630.959	33103
631.021	31440
631.084	32880
631.146	33462
631.209	34445
631.272	32164
631.334	32234
631.397	31971
631.459	30608
631.522	32853
631.584	32001
631.646	33587
631.709	34319
631.771	35931
631.834	33808
631.896	32681
631.958	29993
632.021	31673
632.083	30714
632.145	32202
632.208	30928
632.270	30734
632.332	29749
632.395	29851
632.457	31120
632.519	30097
632.581	31478
632.643	28790
632.706	30567
632.768	28812
632.830	29747
632.892	29207
632.954	28983
633.016	30541
633.078	28185
633.141	28382
633.203	28236
633.265	29394
633.327	28585
633.389	28789
633.451	30390
633.513	30357
633.575	33024
633.637	30440
633.698	30206
633.760	30379
633.822	30853
633.884	30446
633.946	29504
634.008	30752
634.070	30891
634.132	32226
634.193	32076
634.255	33448
634.317	32382
634.379	33088
634.441	30667
634.502	30153
634.564	29322
634.626	29629
634.687	27870
634.749	27829
634.811	28677
634.873	26790
634.934	27440
634.996	27848
635.057	26858
635.119	27071
635.181	27568
635.242	27836
635.304	26586
635.365	30073
635.427	26836
635.488	26580
635.550	26347
635.611	27473
635.673	26749
635.734	29956
635.796	28788
635.857	31525
635.918	28779
635.980	32380
636.041	31870
636.102	33401
636.164	32983
636.225	32868
636.286	30194
636.348	30637
636.409	27773
636.470	26815
636.531	28223
636.593	27076
636.654	27870
636.715	25967
636.776	25297
636.838	24220
636.899	26025
636.960	25601
637.021	24590
637.082	24769
637.143	24990
637.204	23754
637.265	24136
637.326	23748
637.387	24994
637.448	24550
637.509	25882
637.570	25302
637.631	25784
637.692	23286
637.753	23002
637.814	23961
637.875	22907
637.936	24831
637.997	24280
638.058	23666
638.119	25582
638.179	24368
638.240	23557
638.301	24264
638.362	23423
638.423	22966
638.483	24106
638.544	23348
638.605	24560
638.666	23120
638.726	23223
638.787	24032
638.848	23179
638.908	22800
638.969	23417
639.030	22272
639.090	22175
639.151	21801
639.211	23714
639.272	24815
639.332	26702
639.393	24689
639.453	22688
639.514	23130
639.574	21694
639.635	21622
639.695	22982
639.756	20947
639.816	21871
639.877	22469
639.937	25907
639.997	27510
640.058	20656
640.118	20420
640.178	22748
640.239	20975
640.299	20246
640.359	21381
640.420	21266
640.480	22480
640.540	21773
640.600	23394
640.661	23160
640.721	21695
640.781	25660
640.841	24034
640.901	22236
640.961	22204
641.021	21683
641.082	21983
641.142	23898
641.202	23109
641.262	19785
641.322	21515
641.382	19360
641.442	21431
641.502	19955
641.562	21705
641.622	20347
641.682	22153
641.742	22496
641.802	22204
641.861	21339
641.921	21026
641.981	20925
642.041	21406
642.101	22073
642.161	19020
642.221	19404
642.280	19688
642.340	18538
642.400	18727
642.460	20649
642.519	20004
642.579	19781
642.639	20515
642.698	17742
642.758	22930
642.818	20025
642.877	19699
642.937	20077
642.997	21430
643.056	23906
643.116	19595
643.175	22203
643.235	20190
643.294	20856
643.354	21207
643.414	21766
643.473	24717
643.532	25471
643.592	29463
643.651	41309
643.711	64443
643.770	114232
643.830	260910
643.889	498429
643.948	135844
644.008	37169
644.067	26471
644.126	21953
644.186	21833
644.245	21108
644.304	18717
644.363	21126
644.423	17394
644.482	19140
644.541	20332
644.600	18322
644.659	23092
644.719	23235
644.778	31947
644.837	44641
644.896	82477
644.955	173957
645.014	62576
645.073	26024
645.132	21837
645.191	20315
645.250	19162
645.309	21228
645.368	20568
645.427	23822
645.486	30506
645.545	45840
645.604	20974
645.663	19522
645.722	18502
645.781	19182
645.840	20224
645.898	22999
645.957	29100
646.016	36580
646.075	59879
646.134	108840
646.192	274972
646.251	375755
646.310	68077
646.369	28368
646.427	24344
646.486	19692
646.545	18880
646.603	18652
646.662	18355
646.721	15889
646.779	15822
646.838	15805
646.896	18648
646.955	21135
647.014	30586
647.072	48979
647.131	115706
647.189	56424
647.248	17554
647.306	16889
647.365	16672
647.423	13567
647.481	15872
647.540	13059
647.598	15139
647.657	13675
647.715	15025
647.773	13408
647.832	14710
647.890	12467
647.948	12961
648.007	13636
648.065	12534
648.123	12635
648.181	14903
648.240	14794
648.298	14495
648.356	11870
648.414	14117
648.472	14041
648.531	12963
648.589	12858
648.647	12374
648.705	12240
648.763	12961
648.821	12848
648.879	12620
648.937	12900
648.995	15168
649.053	16402
649.111	20465
649.169	30695
649.227	49103
649.285	96743
649.343	259113
649.401	121897
649.459	30567
649.516	21699
649.574	16800
649.632	24006
649.690	27259
649.748	20359
649.806	26393
649.863	43146
649.921	83121
649.979	53888
650.037	14973
650.094	11063
650.152	11918
650.210	10976
650.268	11492
650.325	11859
650.383	12441
650.440	9672
650.498	10919
650.556	10961
650.613	9788
650.671	9719
650.728	10306
650.786	11431
650.843	11911
650.901	9828
650.958	10040
651.016	9408
651.073	8067
651.131	8886
651.188	8696
651.246	9464
651.303	7795
651.360	8487
651.418	8908
651.475	8844
651.532	7769
651.590	9074
651.647	7699
651.704	9107
651.762	8702
651.819	9483
651.876	8250
651.933	8225
651.990	8707
652.048	7208
652.105	7532
652.162	8443
652.219	7775
652.276	8494
652.333	8753
652.390	7209
652.448	8458
652.505	8210
652.562	8119
652.619	8718
652.676	11998
652.733	11378
652.790	8006
652.847	6205
652.904	8169
652.961	7269
653.017	7204
653.074	7483
653.131	7879
653.188	6292
653.245	7720
653.302	7863
653.359	7541
653.415	8135
653.472	7131
653.529	7299
653.586	6618
653.642	6823
653.699	7830
653.756	6476
653.813	6948
653.869	7181
653.926	6552
653.983	6704
654.039	7892
654.096	7078
654.152	8691
654.209	5838
654.266	8207
654.322	5935
654.379	8366
654.435	8995
654.492	8295
654.548	9159
654.605	11869
654.661	8654
654.717	7522
654.774	7487
654.830	7862
654.887	8279
654.943	7443
655.000	8709
655.056	8213
655.112	8544
655.168	7362
655.225	8013
655.281	8663
655.337	9587
655.394	13193
655.450	9169
655.506	9373
655.562	12813
655.618	11044
655.675	6465
655.731	6808
655.787	6546
655.843	8566
655.899	6636
655.955	6999
656.011	7611
656.067	6845
656.123	7430
656.179	7322
656.235	8409
656.291	5778
656.347	7698
656.403	6709
656.459	7599
656.515	7699
656.571	7496
656.627	7830
656.683	7881
656.739	7896
656.795	7501
656.850	7051
656.906	8469
656.962	8605
657.018	6931
657.074	7225
657.129	8969
657.185	11447
657.241	17276
657.297	11947
657.352	7848
657.408	6753
657.464	8235
657.519	7084
657.575	6063
657.630	7138
657.686	7202
657.742	6439
657.797	6464
657.853	7353
657.908	8481
657.964	6060
658.019	7044
658.075	7256
658.130	7694
658.186	5750
658.241	6481
658.297	5878
658.352	7031
658.407	6750
658.463	6348
658.518	7300
658.573	6800
658.629	5697
658.684	6307
658.739	7280
658.795	5997
658.850	5693
658.905	6419
658.960	6994
659.016	5935
659.071	7229
659.126	6599
659.181	7158
659.236	8532
659.291	9593
659.346	6995
659.401	8680
659.457	8442
659.512	9064
659.567	8306
659.622	6471
659.677	6597
659.732	5779
659.787	6375
659.842	6447
659.897	8552
659.952	7284
660.007	6255
660.061	6178
660.116	6694
660.171	6075
660.226	6583
660.281	7130
660.336	6752
660.391	7309
660.445	5180
660.500	7434
660.555	6844
660.610	6784
660.664	6652
660.719	6927
660.774	6927
660.828	6703
660.883	6584
660.938	6841
660.992	5897
661.047	7346
661.101	5452
661.156	6653
661.211	5319
661.265	6686
661.320	6561
661.374	7058
661.429	6082
661.483	6782
661.538	5844
661.592	5978
661.647	6409
661.701	6986
661.755	6232
661.810	6928
661.864	6081
661.919	5655
661.973	6140
662.027	6965
662.081	5806
662.136	6354
662.190	7089
662.244	7194
662.299	6130
662.353	5898
662.407	5458
662.461	6616
662.515	6531
662.569	6163
662.624	6905
662.678	5321
662.732	6051
662.786	6050
662.840	6082
662.894	6858
662.948	5861
663.002	5985
663.056	6408
663.110	5575
663.164	5897
663.218	5960
663.272	6056
663.326	6640
663.380	6183
663.434	6446
663.488	5741
663.542	6503
663.595	5573
663.649	6114
663.703	6480
663.757	6231
663.811	5456
663.864	5910
663.918	6699
663.972	6317
664.026	5656
664.079	5873
664.133	6252
664.187	6025
664.240	5629
664.294	5128
664.348	6061
664.401	5952
664.455	5120
664.508	4799
664.562	6154
664.615	6142
664.669	5390
664.722	5986
664.776	5108
664.829	5765
664.883	5622
664.936	6116
664.990	5417
665.043	6340
665.097	6855
665.150	7473
665.203	5645
665.257	5932
665.310	6150
665.363	6009
665.417	7667
665.470	5596
665.523	6063
665.576	6099
665.630	5411
665.683	6198
665.736	5821
665.789	6626
665.842	5596
665.895	6764
665.949	5577
666.002	5927
666.055	5641
666.108	6130
666.161	5695
666.214	5614
666.267	6578
666.320	7132
666.373	5792
666.426	6967
666.479	6262
666.532	6646
666.585	6464
666.638	6344
666.691	6461
666.744	6988
666.796	6518
666.849	6607
666.902	6469
666.955	6175
667.008	6287
667.060	5817
667.113	5542
667.166	5923
667.219	5812
667.271	6339
667.324	5587
667.377	5435
667.430	6291
667.482	7109
667.535	6857
667.587	6807
667.640	5881
667.693	6806
667.745	7294
667.798	7072
667.850	5712
667.903	6284
667.955	5491
668.008	6318
668.060	6712
668.113	7419
668.165	6797
668.218	7440
668.270	7264
668.322	6576
668.375	6162
668.427	7027
668.479	5209
668.532	6685
668.584	5959
668.636	5440
668.689	6277
668.741	6072
668.793	6563
668.845	5673
668.898	5762
668.950	6143
669.002	6551
669.054	6212
669.106	5934
669.158	6968
669.211	6405
669.263	5720
669.315	6948
669.367	7440
669.419	6050
669.471	6947
669.523	6515
669.575	8091
669.627	6962
669.679	5897
669.731	6383
669.783	6293
669.835	7143
669.886	7149
669.938	6244
669.990	6266
670.042	5221
670.094	6216
670.146	6713
670.197	6642
670.249	7648
670.301	7757
670.353	10298
670.404	12954
670.456	17851
670.508	25871
670.560	41631
670.611	71725
670.663	123224
670.715	282715
670.766	391406
670.818	127738
670.869	30703
670.921	18101
670.972	12575
671.024	10852
671.075	9372
671.127	8607
671.178	7429
671.230	7872
671.281	7802
671.333	7281
671.384	7893
671.436	8012
671.487	9487
671.538	10994
671.590	13707
671.641	19375
671.692	28440
671.744	48684
671.795	37420
671.846	17168
671.897	10790
671.949	9172
672.000	7541
672.051	7293
672.102	7638
672.153	6065
672.204	6346
672.256	6762
672.307	7396
672.358	6036
672.409	5838
672.460	6282
672.511	5362
672.562	5760
672.613	5221
672.664	5791
672.715	6428
672.766	5636
672.817	5603
672.868	5225
672.919	5362
672.970	5304
673.021	5479
673.071	5444
673.122	5500
673.173	5719
673.224	4619
673.275	5958
673.326	5068
673.376	5838
673.427	4700
673.478	5852
673.528	5585
673.579	5766
673.630	5131
673.680	7140
673.731	4658
673.782	5287
673.832	5503
673.883	4921
673.934	4543
673.984	5329
674.035	3675
674.085	5273
674.136	5517
674.186	5254
674.237	6291
674.287	7762
674.338	5686
674.388	5812
674.438	3994
674.489	4817
674.539	5081
674.589	5974
674.640	4978
674.690	5484
674.740	5174
674.791	5307
674.841	5231
674.891	5286
674.942	5006
674.992	4973
675.042	4039
675.092	3468
675.142	4037
675.193	4502
675.243	4033
675.293	4575
675.343	4411
675.393	4649
675.443	5421
675.493	4551
675.543	4477
675.593	5033
675.643	4280
675.693	4656
675.743	4738
675.793	4639
675.843	3519
675.893	4393
675.943	3734
675.993	4072
676.043	4284
676.093	4828
676.142	3040
676.192	4956
676.242	4515
676.292	4257
676.341	3606
676.391	5214
676.441	3742
676.491	4130
676.540	3561
676.590	4148
676.640	3049
676.689	3774
676.739	3486
676.789	4047
676.838	3168
676.888	4231
676.937	3292
676.987	3511
677.037	3608
677.086	3183
677.136	3824
677.185	4746
677.235	3991
677.284	3692
677.333	3102
677.383	3375
677.432	2991
677.482	3139
677.531	3522
677.580	3332
677.630	3512
677.679	3750
677.728	3496
677.778	3739
677.827	3261
677.876	3170
677.925	2679
677.975	3461
678.024	3556
678.073	3653
678.122	3988
678.171	4091
678.220	3688
678.269	4116
678.319	4075
678.368	4312
678.417	4045
678.466	4582
678.515	4308
678.564	3811
678.613	2962
678.662	3069
678.711	4106
678.760	3632
678.809	3917
678.857	4005
678.906	3922
678.955	3550
679.004	4475
679.053	3646
679.102	4257
679.151	3416
679.199	3512
679.248	3921
679.297	3444
679.346	3656
679.394	2773
679.443	3202
679.492	2948
679.540	3493
679.589	3561
679.638	4020
679.686	3337
679.735	3311
679.784	3902
679.832	3084
679.881	3211
679.929	3183
679.978	2203
680.026	3735
680.075	2843
680.123	2156
680.172	2420
680.220	2579
680.268	3341
680.317	2274
680.365	2287
680.414	2356
680.462	2715
680.510	4326
680.559	2259
680.607	2570
680.655	3212
680.703	2972
680.752	2955
680.800	2614
680.848	2467
680.896	2289
680.945	2577
680.993	2933
681.041	3064
681.089	3322
681.137	2755
681.185	2613
681.233	1854
681.258	2469
681.281	3018
681.329	2588
681.377	2491
681.380	2576
681.425	3489
681.473	4332
681.502	3504
681.521	2865
681.569	3787
681.617	3787
681.624	3772
681.665	3424
681.713	3929
681.745	3848
681.761	3765
681.809	2549
681.857	3632
681.867	3558
681.904	3160
681.952	4268
681.989	3500
682.000	3229
682.048	3660
682.096	3094
682.111	3551
682.143	4424
682.191	3318
682.233	4280
682.239	4392
682.286	4768
682.334	4311
682.354	3998
682.382	3474
682.430	4075
682.476	4332
682.477	4308
682.525	3507
682.572	3524
682.598	4060
682.620	4475
682.667	4870
682.715	5758
682.720	5650
682.763	4331
682.810	4776
682.841	4950
682.857	5010
682.905	4657
682.952	4846
682.963	4762
683.000	4285
683.047	4333
683.085	5347
683.095	5611
683.142	4695
683.190	5885
683.206	5679
683.237	5180
683.284	5683
683.328	5609
683.332	5578
683.379	5821
683.426	5562
683.449	5565
683.473	5530
683.521	5138
683.568	6068
683.571	6086
683.615	5944
683.662	6391
683.693	6060
683.709	5827
683.757	5721
683.804	6183
683.814	6163
683.851	6055
683.898	5802
683.936	5740
683.945	5695
683.992	5967
684.039	6190
684.057	6293
684.086	6398
684.133	6805
684.179	6776
684.180	6754
684.227	6614
684.274	7212
684.300	7484
684.321	7645
684.368	6507
684.415	7620
684.422	7533
684.462	6916
684.509	6804
684.543	7163
684.556	7293
684.603	7228
684.649	7266
684.665	7213
684.696	7015
684.743	7320
684.786	7850
684.790	7880
684.837	7051
684.883	8327
684.908	8202
684.930	8030
684.977	9234
685.023	8121
685.029	8185
685.070	8458
685.117	8930
685.150	8504
685.164	8368
685.210	8981
685.257	9356
685.272	9170
685.303	8575
685.350	8544
685.393	8956
685.396	8989
685.443	9405
685.490	9537
685.514	9398
685.536	9158
685.583	9604
685.629	8685
685.636	8749
685.675	9268
685.722	9211
685.757	9473
685.768	9539
685.815	9561
685.861	9621
685.878	9615
685.908	9462
685.954	9178
686.000	9748
686.000	9752
686.047	9394
686.093	10530
686.121	10036
686.139	9659
686.185	10500
686.232	10411
686.242	10341
686.278	10028
686.324	9842
686.363	10346
686.370	10425
686.416	9611
686.463	10339
686.484	10411
686.509	10523
686.555	9860
686.601	9588
686.606	9700
686.647	10739
686.693	10679
686.727	10800
686.739	10792
686.785	11013
686.831	10503
686.848	10572
686.877	10744
686.923	10224
686.969	10261
686.969	10260
687.015	10753
687.061	10952
687.090	11189
687.107	11215
687.153	11336
687.199	10620
687.211	10653
687.245	10821
687.291	11533
687.332	10966
687.336	10924
687.382	11963
687.428	11455
687.453	11486
687.474	11478
687.520	11488
687.565	11552
687.574	11522
687.611	11437
687.657	11875
687.695	11787
687.702	11830
687.748	13202
687.794	14042
687.816	13841
687.839	13167
687.885	12238
687.931	12105
687.937	11965
687.976	11702
688.022	12202
688.058	12331
688.067	12350
688.113	11608
688.158	11539
688.179	11680
688.204	11920
688.249	12148
688.295	12373
688.300	12353
688.340	12262
688.386	12808
688.421	12699
688.431	12642
688.477	12444
688.522	12886
688.542	12913
688.567	13000
688.613	12277
688.658	12646
688.663	12619
688.703	12567
688.749	12628
688.784	12978
688.794	13048
688.839	12243
688.884	12614
688.905	12445
688.930	12377
688.975	13029
689.020	12692
689.026	12718
689.065	12977
689.110	12740
689.146	12852
689.155	12892
689.201	13194
689.246	13147
689.267	13345
689.291	13534
689.336	13385
689.381	13370
689.388	13312
689.426	13148
689.471	13167
689.509	13532
689.516	13606
689.561	13422
689.606	13379
689.630	13377
689.651	13427
689.696	13503
689.741	13359
689.750	13396
689.785	13398
689.830	13310
689.871	12896
689.875	12901
689.920	12790
689.965	13317
689.992	13025
690.010	12935
690.054	13412
690.099	13988
690.112	14035
690.144	13905
690.189	13911
690.233	13543
690.233	13560
690.278	13695
690.323	13733
690.354	13948
690.367	14086
690.412	13648
690.457	14187
690.474	14032
690.501	13934
690.546	14093
690.590	14504
690.595	14487
690.635	14387
690.680	14242
690.716	14285
690.724	14477
690.769	15745
690.813	16911
690.836	17016
690.857	17715
690.902	20350
690.946	22681
690.957	23414
690.991	28671
691.035	35350
691.077	42135
691.080	42141
691.124	37489
691.168	33999
691.198	31804
691.213	30017
691.257	25204
691.301	19760
691.318	17982
691.346	17729
691.390	16955
691.434	15914
691.439	15795
691.478	15624
691.522	16085
691.559	15446
691.567	15415
691.611	15823
691.655	15951
691.680	15994
691.699	16021
691.743	16268
691.787	16338
691.800	16231
691.831	16084
691.875	16304
691.919	16818
691.921	16779
691.964	16219
692.008	16521
692.041	15852
692.052	15778
692.096	16052
692.139	16682
692.162	16628
692.183	16482
692.227	16585
692.271	16500
692.282	16388
692.315	16150
692.359	16260
692.402	15939
692.403	15968
692.447	15898
692.490	16173
692.523	16268
692.534	16320
692.578	16563
692.622	16420
692.643	16480
692.666	16680
692.709	16457
692.753	16403
692.763	16474
692.797	16661
692.840	16693
692.884	16425
692.884	16457
692.928	16610
692.971	16522
693.004	16648
693.015	16779
693.059	16907
693.102	16822
693.124	16797
693.146	16904
693.189	17339
693.233	17767
693.245	17777
693.276	18020
693.320	18548
693.363	18985
693.365	18963
693.407	19629
693.450	20436
693.485	20686
693.493	20945
693.537	22525
693.580	23722
693.605	24743
693.624	26864
693.667	31420
693.710	36336
693.725	38068
693.753	47925
693.797	64311
693.840	80315
693.845	81714
693.883	73787
693.926	64960
693.966	57656
693.970	56573
694.013	45024
694.056	32857
694.086	24612
694.099	24106
694.142	22327
694.185	20908
694.206	20027
694.229	19934
694.272	19691
694.315	19614
694.326	19470
694.358	19217
694.401	19071
694.444	19069
694.446	19004
694.487	18586
694.530	18563
694.566	18273
694.573	18243
694.616	17844
694.659	17486
694.686	17150
694.702	17181
694.745	17391
694.787	17374
694.806	17453
694.830	17672
694.873	17850
694.916	17867
694.926	17858
694.959	17965
695.002	17956
695.044	18048
695.046	18014
695.087	18310
695.130	18314
695.166	18412
695.172	18483
695.215	18658
695.258	18740
695.286	18784
695.301	18801
695.343	18880
695.386	18872
695.406	18724
695.428	18737
695.471	18852
695.514	18989
695.526	18959
695.556	19292
695.599	19873
695.641	20230
695.646	20216
695.684	19828
695.726	19585
695.766	19178
695.769	19228
695.811	19424
695.854	19274
695.886	19366
695.896	19428
695.938	19309
695.981	19204
696.005	19117
696.023	19335
696.065	19833
696.108	20299
696.125	20408
696.150	20500
696.192	20665
696.235	20938
696.245	20877
696.277	20726
696.319	20593
696.361	20539
696.365	20465
696.404	20587
696.446	20933
696.485	21118
696.488	21152
696.530	20905
696.572	20594
696.604	20366
696.614	20437
696.656	20509
696.698	20612
696.724	20534
696.740	20441
696.783	20216
696.825	19977
696.844	19807
696.867	19940
696.909	20067
696.951	20130
696.964	20089
696.992	19955
697.034	19826
697.076	19629
697.083	19569
697.118	20091
697.160	20427
697.202	20944
697.203	20902
697.244	20804
697.286	20706
697.323	20430
697.327	20499
697.369	20774
697.411	20993
697.442	21107
697.453	21085
697.494	20813
697.536	20492
697.562	20224
697.578	20262
697.620	20332
697.661	20283
697.682	20178
697.703	20359
697.744	20739
697.786	21193
697.801	21269
697.828	21679
697.869	22153
697.911	22678
697.921	22756
697.952	22394
697.994	21848
698.035	21261
698.040	21131
698.077	21134
698.118	21112
698.160	21095
698.160	21039
698.201	21080
698.243	21038
698.279	21003
698.284	21124
698.325	21687
698.367	22279
698.399	22670
698.408	22669
698.449	22402
698.491	22124
698.518	21917
698.532	22018
698.573	22064
698.614	22171
698.638	22155
698.656	22270
698.697	22426
698.738	22580
698.757	22588
698.779	22614
698.820	22557
698.862	22498
698.877	22413
698.903	22767
698.944	23250
698.985	23733
698.996	23805
699.026	23731
699.067	23544
699.116	23262
699.235	22119
699.354	22713
699.474	21824
699.593	22095
699.713	22080
699.832	23310
699.951	21218
700.070	21501
700.190	21729
700.309	21340
700.428	20580
700.547	21735
700.667	21610
700.786	21247
700.905	20936
701.024	20995
701.143	20319
701.262	19926
701.381	19580
701.500	20596
701.619	20918
701.738	20785
701.857	20390
701.976	20403
702.095	19689
702.214	20632
702.333	19776
702.452	20202
702.571	20206
702.690	20673
702.809	19212
702.928	19958
703.047	20110
703.165	19128
703.284	19537
703.403	19015
703.522	19684
703.640	19683
703.759	19113
703.878	21150
703.997	19126
704.115	18979
704.234	17673
704.353	18319
704.471	17941
704.590	17979
704.708	16933
704.827	18142
704.946	18096
705.064	18685
705.183	17973
705.301	20081
705.420	24097
705.538	22058
705.656	20468
705.775	20832
705.893	25700
706.012	29631
706.130	20189
706.249	22000
706.367	19817
706.485	20708
706.604	19856
706.722	20074
706.840	21288
706.958	23115
707.077	21351
707.195	19408
707.313	19043
707.431	18527
707.549	18390
707.668	18340
707.786	19576
707.904	19177
708.022	18849
708.140	18259
708.258	17954
708.376	19201
708.494	18897
708.612	20759
708.730	23114
708.848	22416
708.966	20631
709.084	20621
709.202	19427
709.320	20441
709.438	20311
709.556	20999
709.674	20072
709.791	20686
709.909	20293
710.027	19580
710.145	19241
710.263	19861
710.380	18926
710.498	19723
710.616	19538
710.733	18219
710.851	19244
710.969	19810
711.086	18651
711.204	18527
711.322	18910
711.439	18471
711.557	18823
711.674	18647
711.792	18318
711.909	20020
712.027	18845
712.144	18354
712.262	17434
712.379	17941
712.497	24133
712.614	23398
712.732	21842
712.849	20320
712.966	20045
713.084	21792
713.201	20550
713.318	22315
713.436	20544
713.553	21516
713.670	20513
713.787	20823
713.905	20027
714.022	20232
714.139	19855
714.256	22057
714.373	22816
714.490	27851
714.608	50835
714.725	163894
714.842	159697
714.959	26406
715.076	20664
715.193	19848
715.310	19300
715.427	19113
715.544	17944
715.661	18070
715.778	19027
715.895	19532
716.011	18303
716.128	18970
716.245	18119
716.362	18413
716.479	18352
716.596	17945
716.713	18733
716.829	18566
716.946	16831
717.063	17386
717.180	16833
717.296	16482
717.413	16573
717.530	17021
717.646	16035
717.763	17297
717.880	15811
717.996	16495
718.113	16105
718.229	15904
718.346	15053
718.462	15656
718.579	16790
718.695	16825
718.812	16592
718.928	18648
719.045	15435
719.161	15240
719.277	14821
719.394	15398
719.510	15531
719.626	15741
719.743	18484
719.859	19177
719.975	24430
720.092	57748
720.208	112332
720.324	24656
720.440	15679
720.557	15842
720.673	16707
720.789	19493
720.905	26941
721.021	17207
721.137	13911
721.253	14154
721.369	14431
721.486	15324
721.602	16579
721.718	15278
721.834	13952
721.950	14221
722.066	14342
722.181	13700
722.297	14581
722.413	14008
722.529	13168
722.645	13702
722.761	12818
722.877	13388
722.993	13134
723.108	14242
723.224	13916
723.340	13506
723.456	13260
723.571	13690
723.687	12469
723.803	13343
723.918	12985
724.034	12621
724.150	12836
724.265	12609
724.381	16259
724.497	17810
724.612	12669
724.728	12592
724.843	12075
724.959	12726
725.074	15655
725.190	16463
725.305	11659
725.421	12040
725.536	11455
725.651	11924
725.767	12453
725.882	12266
725.997	11609
726.113	12344
726.228	11244
726.343	11677
726.459	10998
726.574	11788
726.689	11038
726.804	11654
726.920	11917
727.035	11466
727.150	10911
727.265	11083
727.380	11448
727.495	12167
727.610	10894
727.725	11564
727.841	11584
727.956	15929
728.071	13759
728.186	11505
728.301	10354
728.416	12437
728.531	10570
728.645	10589
728.760	10977
728.875	10560
728.990	10145
729.105	10882
729.220	10350
729.335	10486
729.449	9946
729.564	10352
729.679	10136
729.794	10388
729.908	10231
730.023	11176
730.138	10364
730.253	10638
730.367	9870
730.482	11249
730.596	10078
730.711	10713
730.826	10828
730.940	11016
731.055	11320
731.169	11013
731.284	10705
731.398	10184
731.513	10265
731.627	11045
731.742	11627
731.856	12735
731.970	10723
732.085	11110
732.199	12889
732.313	16008
732.428	27256
732.542	65714
732.656	39133
732.771	14807
732.885	13051
732.999	11969
733.113	11677
733.227	12389
733.342	11190
733.456	10902
733.570	10870
733.684	12335
733.798	11434
733.912	10878
734.026	10145
734.140	11410
734.254	11240
734.368	12620
734.482	13489
734.596	11345
734.710	10373
734.824	10775
734.938	10451
735.052	10843
735.166	11344
735.280	10207
735.393	10608
735.507	10746
735.621	11315
735.735	12924
735.849	11256
735.962	10679
736.076	11134
736.190	10443
736.303	10131
736.417	11872
736.531	9449
736.644	9264
736.758	9493
736.872	9205
736.985	10064
737.099	9937
737.212	9966
737.326	9554
737.439	10695
737.553	9414
737.666	9244
737.780	9766
737.893	9786
738.007	9522
738.120	8835
738.233	10008
738.347	8823
738.460	10360
738.573	10073
738.687	9125
738.800	9747
738.913	9996
739.026	9147
739.140	9115
739.253	8874
739.366	9614
739.479	9209
739.592	8944
739.705	8588
739.818	9924
739.932	9149
740.045	8968
740.158	8753
740.271	9369
740.384	9091
740.497	8706
740.610	9158
740.723	9360
740.836	9438
740.949	9787
741.062	9656
741.174	10148
741.287	8762
741.400	8393
741.513	8595
741.626	7834
741.739	8439
741.851	8565
741.964	8639
742.077	9034
742.189	8037
742.302	8439
742.415	7760
742.527	8186
742.640	8196
742.753	8906
742.865	8850
742.978	9099
743.090	8104
743.203	9069
743.316	7373
743.428	8851
743.541	7465
743.653	7936
743.766	8152
743.878	8659
743.990	7760
744.103	9110
744.215	8437
744.327	8234
744.440	8968
744.552	8655
744.664	8125
744.777	8236
744.889	7631
745.001	8213
745.113	7772
745.226	7562
745.338	8195
745.450	8453
745.562	8187
745.674	8083
745.786	8389
745.898	8145
746.010	7261
746.122	7123
746.234	7940
746.347	7604
746.459	7953
746.570	6996
746.682	8843
746.794	8034
746.906	7459
747.018	8184
747.130	7896
747.242	8744
747.354	7617
747.466	8842
747.577	7211
747.689	8147
747.801	8229
747.913	7071
748.024	7154
748.136	8192
748.248	6691
748.359	7712
748.471	7889
748.583	7798
748.694	7370
748.806	9271
748.918	7753
749.029	8076
749.141	7598
749.252	8339
749.364	7148
749.475	9029
749.587	8495
749.698	7747
749.809	6932
749.921	7154
750.032	6758
750.144	6764
750.255	7252
750.366	7590
750.478	7254
750.589	7727
750.700	7445
750.811	7884
750.923	8290
751.034	8119
751.145	8029
751.256	7186
751.367	6878
751.479	7832
751.590	6190
751.701	7046
751.812	6825
751.923	6969
752.034	7445
752.145	7377
752.256	7296
752.367	7563
752.478	7190
752.589	8178
752.700	6763
752.811	7722
752.922	6717
753.032	7279
753.143	7158
753.254	7004
753.365	8106
753.476	6836
753.586	7598
753.697	7006
753.808	7066
753.919	7271
754.029	7055
754.140	7032
754.251	6390
754.361	6955
754.472	7684
754.582	7178
754.693	6806
754.804	8204
754.914	6964
755.025	7676
755.135	7467
755.246	7460
755.356	6850
755.466	7396
755.577	7105
755.687	7097
755.798	6360
755.908	6982
756.018	6397
756.129	7382
756.239	6963
756.349	7211
756.460	6858
756.570	8060
756.680	6888
756.790	7072
756.900	7049
757.011	6974
757.121	7054
757.231	7880
757.341	7841
757.451	8226
757.561	7410
757.671	7394
757.781	7277
757.891	8549
758.001	7450
758.111	7583
758.221	8379
758.331	8203
758.441	8345
758.551	7822
758.661	7430
758.771	8716
758.880	6939
758.990	8477
759.100	7540
759.210	8246
759.320	7664
759.429	7816
759.539	7659
759.649	8357
759.758	8782
759.868	9088
759.978	7787
760.087	8699
760.197	8640
760.307	9201
760.416	8407
760.526	8076
760.635	9623
760.745	9053
760.854	8773
760.964	9171
761.073	9464
761.182	9413
761.292	10120
761.401	10537
761.511	9645
761.620	10301
761.729	9434
761.839	9690
761.948	10258
762.057	10481
762.166	9763
762.276	9413
762.385	11119
762.494	10567
762.603	10723
762.712	10740
762.822	10575
762.931	11864
763.040	11449
763.149	11652
763.258	12632
763.367	13342
763.476	13818
763.585	14710
763.694	13468
763.803	15051
763.912	15323
764.021	16609
764.130	16722
764.238	18157
764.347	17924
764.456	19393
764.565	19952
764.674	22341
764.783	24399
764.891	25830
765.000	29389
765.109	32583
765.217	36231
765.326	42341
765.435	48946
765.543	60331
765.652	73805
765.761	95007
765.869	127467
765.978	179798
766.086	266967
766.195	401857
766.303	553790
766.412	470069
766.520	454232
766.629	493908
766.737	358828
766.846	244109
766.954	169046
767.062	125561
767.171	96579
767.279	77930
767.387	62307
767.496	53606
767.604	46708
767.712	41026
767.820	37332
767.928	34650
768.037	31589
768.145	30041
768.253	29877
768.361	28073
768.469	28393
768.577	28260
768.685	30017
768.793	30748
768.901	34296
769.009	38426
769.117	45288
769.225	57461
769.333	78193
769.441	116561
769.549	187945
769.657	332006
769.765	497321
769.873	427103
769.981	431579
770.088	291107
770.196	175367
770.304	116204
770.412	83760
770.519	64153
770.627	52112
770.735	43474
770.842	35941
770.950	31697
771.058	28217
771.165	26217
771.273	23603
771.380	22281
771.488	20857
771.595	19667
771.703	18824
771.810	18623
771.918	16545
772.025	16353
772.133	16039
772.240	14490
772.348	14972
772.455	14702
772.562	13989
772.670	12999
772.777	12388
772.884	12746
772.991	11481
773.099	12402
773.206	10359
773.313	11753
773.420	11520
773.528	10580
773.635	10715
773.742	11172
773.849	10287
773.956	10348
774.063	9744
774.170	9962
774.277	9469
774.384	9405
774.491	9275
774.598	10365
774.705	8902
774.812	10421
774.919	9288
775.026	10013
775.133	9727
775.239	9271
775.346	8637
775.453	8912
775.560	8260
775.667	9088
775.773	8211
775.880	9563
775.987	8279
776.093	9120
776.200	7942
776.307	8105
776.413	7983
776.520	7961
776.627	8620
776.733	7855
776.840	6482
776.946	8632
777.053	7612
777.159	7466
777.266	5194
777.372	8133
777.478	7161
777.585	7895
777.691	6923
777.798	6831
777.904	7636
778.010	8791
778.117	7382
778.223	7055
778.329	6796
778.435	6861
778.542	8124
778.648	6526
778.754	6554
778.860	6697
778.966	6414
779.072	6630
779.178	7252
779.284	6552
779.391	7196
779.497	6734
779.603	10817
779.708	11763
779.815	23874
779.920	76185
780.026	124849
780.132	23464
780.238	9248
780.344	8212
780.450	8234
780.556	7579
780.661	6156
780.767	6419
780.873	6534
780.979	7938
781.085	5800
781.190	6253
781.296	5351
781.402	6800
781.507	5866
781.613	6220
781.719	5313
781.824	6560
781.930	5976
782.035	5763
782.141	5209
782.246	5422
782.352	5299
782.457	6268
782.563	5226
782.668	5725
782.773	5385
782.879	4981
782.984	5987
783.090	5607
783.195	5724
783.300	5692
783.405	5952
783.511	5713
783.616	5898
783.721	4650
783.826	5150
783.932	5601
784.037	5478
784.142	4988
784.247	5097
784.352	5940
784.457	4580
784.562	5328
784.667	4631
784.772	5321
784.877	3519
784.982	5704
785.087	4824
785.192	5533
785.297	5243
785.402	5100
785.507	4440
785.611	5801
785.716	5384
785.821	4929
785.926	4899
786.031	5448
786.135	4924
786.240	5243
786.345	3855
786.450	4906
786.554	5067
786.659	5056
786.763	3783
786.868	5859
786.973	5408
787.077	4125
787.182	5152
787.286	5473
787.391	4444
787.495	4630
787.600	5456
787.704	4000
787.809	4766
787.913	4562
788.017	4897
788.122	4619
788.226	5117
788.330	3874
788.435	4094
788.539	4786
788.643	3778
788.747	4196
788.852	4321
788.956	4547
789.060	4382
789.164	4744
789.268	4333
789.372	4710
789.476	4828
789.580	3615
789.684	3710
789.788	4664
789.892	3854
789.996	5482
790.100	4409
790.204	4042
790.308	4196
790.412	4299
790.516	5054
790.620	4157
790.724	4880
790.828	4363
790.931	3693
791.035	5532
791.139	3626
791.242	4063
791.346	5071
791.450	3889
791.554	3347
791.657	3764
791.761	4747
791.864	3722
791.968	4357
792.072	4742
792.175	4096
792.279	3626
792.382	3388
792.486	4326
792.589	3713
792.693	4394
792.796	2999
792.899	5533
793.003	4464
793.106	2061
793.209	3519
793.313	4742
793.416	1758
793.519	4754
793.623	3822
793.726	3759
793.829	4119
793.932	4349
794.035	2575
794.138	4735
794.242	5134
794.345	4895
794.448	6963
794.551	12339
794.654	43587
794.757	80100
794.860	15896
794.963	5720
795.066	3684
795.169	5412
795.272	3449
795.375	4994
795.477	3533
795.580	4362
795.683	2596
795.786	4213
795.889	2461
795.991	4347
796.094	4454
796.197	2801
796.300	4327
796.402	3536
796.505	3428
796.608	3478
796.710	3987
796.813	3891
796.915	3699
797.018	3965
797.120	3764
797.223	2775
797.326	4567
797.428	3258
797.530	2972
797.633	3156
797.735	4394
797.838	4371
797.940	4675
798.042	3074
798.145	3642
798.247	3959
798.349	2580
798.452	4274
798.554	3329
798.656	2706
798.758	4056
798.860	3821
798.962	3506
799.065	3293
799.167	2414
799.269	4532
799.371	2842
799.473	3200
799.575	2293
799.677	3540
799.779	4120
799.881	1917
799.983	4325
800.085	3235
800.187	3180
800.289	2076
800.390	3100
800.492	3602
800.594	4371
800.696	2770
800.798	3095
800.899	3084
801.001	3619
801.103	4050
801.205	2547
801.306	3649
801.408	1664
801.509	2832
801.611	4020
801.713	2992
801.814	3176
801.916	3962
802.017	2969
802.119	2886
802.220	3076
802.322	1439
802.423	5442
802.525	2277
802.626	2978
802.727	3782
802.829	3236
802.930	1018
803.031	3060
803.133	3219
803.234	1920
803.335	2797
803.436	2302
803.538	3468
803.639	2085
803.740	3935
803.841	2434
803.942	3204
804.043	3233
804.144	2580
804.245	3132
804.346	2830
804.447	1831
804.548	2780
804.649	3459
804.750	2375
804.851	1618
804.952	2892
805.053	2470
805.154	2482
805.255	3635
805.355	3219
805.456	1357
805.557	2363
805.658	1774
805.758	3476
805.859	2545
805.960	2563
806.061	1999
806.161	2953
806.262	2281
806.362	2570
806.463	1809
806.564	3749
806.664	2938
806.765	3500
806.865	2666
806.966	2560
807.066	2625
807.166	3685
807.267	3636
807.367	2254
807.468	2412
807.568	1949
807.668	3468
807.769	2972
807.869	2206
807.969	3011
808.069	3217
808.170	2715
808.270	2200
808.370	3734
808.470	2247
808.570	1159
808.670	3181
808.770	2348
808.870	1797
808.970	2773
809.070	2648
809.170	2212
809.271	2602
809.370	2551
809.470	2981
809.570	1889
809.670	1364
809.770	2455
809.870	2631
809.970	2960
810.070	2796
810.169	3057
810.269	1214
810.369	3613
810.469	2722
810.568	2149
810.668	2581
810.768	2757
810.867	2474
810.967	1999
811.066	1913
811.166	2566
811.265	2029
811.365	2683
811.464	2208
811.564	2741
811.663	2558
811.763	1861
811.862	3260
811.962	3388
812.061	2189
812.160	1626
812.260	2310
812.359	2746
812.458	2251
812.557	4507
812.657	4088
812.756	3047
812.855	2205
812.954	2173
813.053	2278
813.153	2452
813.252	1721
813.351	2760
813.450	2355
813.549	2850
813.648	2533
813.747	2656
813.846	2348
813.945	3009
814.044	1958
814.143	3184
814.242	3101
814.341	2176
814.439	3111
814.538	2789
814.637	2702
814.736	2351
814.835	2261
814.933	2568
815.032	2387
815.131	2657
815.229	2796
815.328	3585
815.427	3657
815.525	4096
815.624	3378
815.722	3253
815.821	3958
815.919	3535
816.018	3427
816.116	4418
816.215	2701
816.313	3940
816.412	3761
816.510	4994
816.609	5486
816.707	4712
816.805	4049
816.904	4054
817.002	4469
817.100	4438
817.198	5499
817.296	5248
817.395	5567
817.493	6738
817.591	5627
817.689	8488
817.787	9568
817.885	13278
817.983	21775
818.081	41689
818.179	90017
818.277	185168
818.375	149015
818.473	55873
818.571	25162
818.669	18351
818.767	14843
818.865	14825
818.963	16796
819.061	24074
819.158	37982
819.256	72515
819.354	145502
819.452	237533
819.549	160394
819.647	72405
819.745	35856
819.842	22631
819.940	15823
820.038	11565
820.135	9770
820.233	9035
820.330	7308
820.428	6139
820.525	6749
820.623	5782
820.720	5201
820.818	5112
820.915	4279
821.012	4719
821.110	3164
821.207	4615
821.304	3510
821.402	4057
821.499	4405
821.596	4029
821.693	3588
821.791	3961
821.888	4080
821.985	4631
822.082	2785
822.179	5373
822.276	3174
822.373	3796
822.470	3600
822.567	3915
822.664	2865
822.761	3812
822.858	2193
822.955	3973
823.052	2718
823.149	2970
823.246	2983
823.343	2854
823.440	2290
823.536	3445
823.633	2665
823.730	3093
823.827	2416
823.923	2444
824.020	3064
824.117	2591
824.213	1717
824.310	2925
824.407	2458
824.503	3403
824.600	2426
824.696	2949
824.793	3396
824.889	2570
824.986	3343
825.082	1934
825.179	3029
825.275	2523
825.371	2181
825.468	3242
825.564	1109
825.660	2978
825.757	2446
825.853	3015
825.949	1758
826.045	2451
826.142	1526
826.238	2437
826.334	2286
826.430	2099
826.526	2590
826.622	2578
826.718	1998
826.814	2679
826.910	2780
827.006	1890
827.102	1973
827.198	3236
827.294	2822
827.390	2684
827.486	2484
827.582	2063
827.678	1831
827.774	3331
827.869	1635
827.965	3772
828.061	2117
828.157	2025
828.252	2266
828.348	1871
828.444	2866
828.539	1219
828.635	1794
828.731	3146
828.826	1940
828.922	2579
829.017	1835
829.113	2060
829.208	843
829.304	1352
829.399	3421
829.495	2343
829.590	2169
829.685	1299
829.781	2746
829.876	1545
829.971	1605
830.066	1953
830.162	1537
830.257	2276
830.352	1713
830.447	3184
830.543	2482
830.638	923
830.733	3332
830.828	2272
830.923	3072
831.018	2365
831.113	1856
831.208	2158
831.303	1379
831.398	1793
831.493	1722
831.588	2064
831.683	1694
831.778	2124
831.873	926
831.967	2444
832.062	1345
832.157	777
832.252	2773
832.346	1617
832.441	1627
832.536	1947
832.631	2569
832.725	3246
832.820	1571
832.914	2176
833.009	1458
833.104	2657
833.198	2201
833.293	1698
833.387	2027
833.482	2387
833.576	1673
833.670	1899
833.765	1056
833.859	292
833.954	1569
834.048	1640
834.142	1008
834.237	1361
834.331	2058
834.425	2026
834.519	119
834.613	2202
834.708	1327
834.802	2267
834.896	897
834.990	2011
835.084	2145
835.178	1990
835.272	1802
835.366	1650
835.460	2163
835.554	1884
835.648	1976
835.742	2338
835.836	1182
835.930	1507
836.024	1919
836.117	2514
836.211	1581
836.305	2810
836.399	3149
836.493	1368
836.586	2045
836.680	1038
836.774	1822
836.867	3222
836.961	306
837.055	848
837.148	1491
837.242	1735
837.335	1372
837.429	1635
837.522	1020
837.616	1782
837.709	1789
837.803	2017
837.896	2467
837.989	431
838.083	1902
838.176	2326
838.269	1461
838.363	2113
838.456	1290
838.549	2391
838.642	1450
838.735	2867
838.829	2451
838.922	1581
839.015	1549
839.108	1360
839.201	2128
839.294	1529
839.387	1571
839.480	1296
839.573	1856
839.666	2446
839.759	1651
839.852	735
839.945	1432
840.038	1158
840.131	2020
840.223	957
840.316	1255
840.409	1865
840.502	1151
840.594	2930
840.687	1042
840.780	2259
840.873	867
840.965	1555
841.058	1215
841.150	2993
841.243	1410
841.336	1580
841.428	1850
841.521	1648
841.613	846
841.706	2279
841.798	1608
841.890	1361
841.983	873
842.075	3019
842.167	1038
842.260	1255
842.352	1788
842.444	1589
842.537	2289
842.629	2715
842.721	990
842.813	1718
842.905	1232
842.997	1117
843.090	1075
843.182	2010
843.274	1628
843.366	4601
843.458	6342
843.550	5380
843.642	1375
843.734	1395
843.826	1543
843.918	1893
844.009	2239
844.101	949
844.193	1122
844.285	1358
844.377	1686
844.469	2465
844.560	161
844.652	1163
844.744	1056
844.835	1865
844.927	1660
845.019	1353
845.110	1172
845.202	1196
845.293	2004
845.385	988
845.476	1459
845.568	2018
845.659	1055
845.751	1551
845.842	682
845.934	1092
846.025	1309
846.116	1464
846.208	1602
846.299	1183
846.390	824
846.482	1239
846.573	1118
846.664	1905
846.755	834
846.846	2170
846.937	312
847.029	1583
847.120	796
847.211	760
847.302	2250
847.393	680
847.484	1554
847.575	1304
847.666	842
847.757	1034
847.847	1587
847.938	2261
848.029	487
848.120	1446
848.211	713
848.302	1188
848.392	617
848.483	1679
848.574	838
848.664	931
848.755	1410
848.846	858
848.936	752
849.027	1647
849.118	641
849.208	1202
849.299	1108
849.389	1710
849.480	2515
849.570	3090
849.661	4361
849.751	7062
849.841	2866
849.932	955
850.022	1484
850.112	1153
850.203	903
850.293	1133
850.383	1342
850.474	642
850.564	635
850.654	1902
850.744	1290
850.834	1474
850.924	590
851.014	2147
851.104	1060
851.194	1074
851.284	482
851.374	1593
851.464	1320
851.554	1818
851.644	1284
851.734	2957
851.824	1879
851.914	3024
852.004	6767
852.094	6139
852.183	1313
852.273	1405
852.363	974
852.452	1933
852.542	985
852.632	972
852.721	1011
852.811	831
852.901	1037
852.990	1303
853.080	1773
853.169	1056
853.259	542
853.348	887
853.438	1221
853.527	1672
853.617	386
853.706	2155
853.795	3778
853.885	8258
853.974	12921
854.063	24088
854.152	34028
854.242	12450
854.331	2732
854.420	1312
854.509	907
854.598	2164
854.687	1417
854.777	1700
854.866	808
854.955	2010
855.044	653
855.133	1003
855.222	976
855.311	1196
855.400	1352
855.488	1388
855.577	258
855.666	2480
855.755	885
855.844	1406
855.933	1097
856.021	1678
856.110	1031
856.199	759
856.288	785
856.376	1704
856.465	780
856.554	1334
856.642	956
856.731	2093
856.819	637
856.908	447
856.996	734
857.085	773
857.173	1521
857.262	943
857.350	1690
857.438	1330
857.527	689
857.615	1560
857.703	1372
857.792	1066
857.880	820
857.968	1113
858.056	674
858.145	1322
858.233	794
858.321	929
858.409	1434
858.497	903
858.585	1029
858.673	1557
858.761	810
858.849	491
858.937	816
859.025	796
859.113	467
859.201	99
859.289	1848
859.377	963
859.465	731
859.552	864
859.640	187
859.728	1089
859.816	889
859.903	1439
859.991	199
860.079	910
860.166	186
860.254	1071
860.342	785
860.429	465
860.517	265
860.604	1069
860.692	766
860.779	114
860.867	98
860.954	1948
861.042	497
861.129	1209
861.216	663
861.304	332
861.391	533
861.478	1432
861.565	1265
861.653	1926
861.740	-44
861.827	498
861.914	1047
862.001	309
862.089	400
862.176	374
862.263	484
862.350	439
862.437	687
862.524	208
862.611	240
862.698	1047
862.785	910
862.871	942
862.958	652
863.045	513
863.132	684
863.219	27
863.306	-669
863.392	1857
863.479	-10
863.566	1335
863.652	299
863.739	1235
863.826	896
863.912	1299
863.999	143
864.086	931
864.172	962
864.259	1687
864.345	1006
864.432	1138
864.518	900
864.604	384
864.691	601
864.777	1416
864.863	1424
864.950	2245
865.036	1529
865.122	2373
865.209	3143
865.295	2399
865.381	2008
865.467	2606
865.553	2551
865.639	1941
865.726	2740
865.812	5338
865.898	7719
865.984	11045
866.070	17512
866.156	19152
866.242	6100
866.328	3052
866.414	1386
866.499	1782
866.585	1612
866.671	1930
866.757	1589
866.843	2236
866.928	1376
867.014	1293
867.100	2375
867.186	1678
867.271	2104
867.357	2647
867.442	2163
867.528	1151
867.614	935
867.699	2483
867.785	1611
867.870	863
867.956	2377
868.041	2131
868.127	1480
868.212	2224
868.297	1501
868.383	1832
868.468	2027
868.553	2148
868.639	2192
868.724	2818
868.809	2601
868.894	2356
868.979	2208
869.065	1804
869.150	612
869.235	1706
869.320	988
869.405	1631
869.490	1437
869.575	1296
869.660	1633
869.745	1932
869.830	505
869.915	878
870.000	668
870.085	1207
870.169	1487
870.254	1524
870.339	1242
870.424	709
870.509	1933
870.593	1687
870.678	868
870.763	1274
870.847	1993
870.932	805
871.016	1719
871.101	1488
871.186	1565
871.270	1719
871.355	948
871.439	2286
871.523	1069
871.608	1433
871.692	1184
871.777	1807
871.861	1159
871.945	1332
872.030	1106
872.114	1198
872.198	1114
872.282	1498
872.367	672
872.451	1877
872.535	936
872.619	2031
872.703	851
872.787	2089
872.871	1082
872.955	1277
873.039	101
873.123	670
873.207	1577
873.291	1329
873.375	935
873.459	1619
873.543	1107
873.627	1518
873.711	1273
873.794	984
873.878	698
873.962	1035
874.045	819
874.129	1250
874.137	1180
874.213	484
874.245	633
874.296	879
874.352	502
874.380	312
874.460	619
874.464	633
874.547	-357
874.568	94
874.631	1415
874.676	1209
874.714	1036
874.784	1559
874.798	1662
874.881	2641
874.892	2378
874.965	606
874.999	933
875.048	1320
875.107	892
875.131	744
875.215	1173
875.215	1173
875.298	812
875.323	737
875.381	649
875.430	793
875.465	825
875.538	414
875.548	370
875.631	784
875.646	831
875.714	1069
875.753	896
875.798	709
875.861	669
875.881	637
875.964	796
875.968	790
876.047	787
876.076	1023
876.130	1354
876.183	1268
876.213	1281
876.291	1523
876.296	1538
876.379	209
876.398	516
876.462	1408
876.506	1098
876.545	817
876.613	579
876.628	554
876.711	418
876.721	445
876.794	760
876.828	979
876.877	1119
876.935	856
876.960	818
877.043	801
877.043	803
877.125	1138
877.150	1123
877.208	1042
877.258	603
877.291	359
877.365	799
877.374	835
877.456	935
877.472	753
877.539	94
877.579	709
877.622	1250
877.687	982
877.704	970
877.787	866
877.794	910
877.869	1210
877.901	1327
877.952	1583
878.008	1234
878.034	1019
878.115	821
878.117	819
878.199	931
878.222	787
878.282	595
878.329	895
878.364	921
878.437	1201
878.447	1265
878.529	-27
878.544	95
878.611	770
878.651	570
878.694	298
878.758	719
878.776	831
878.858	1198
878.865	1190
878.941	835
878.972	559
879.023	341
879.078	118
879.105	134
879.185	822
879.187	825
879.269	1041
879.292	861
879.351	429
879.399	418
879.433	508
879.506	833
879.516	865
879.598	208
879.613	184
879.680	120
879.720	400
879.762	687
879.827	208
879.844	25
879.926	351
879.933	339
880.007	686
880.040	588
880.089	400
880.147	721
880.171	762
880.253	1081
880.254	1078
880.335	857
880.360	1204
880.417	1699
880.467	1279
880.499	1274
880.574	2138
880.580	2129
880.662	1229
880.680	1030
880.744	690
880.787	519
880.825	404
880.893	888
880.907	948
880.989	616
881.000	606
881.070	683
881.106	499
881.152	402
881.213	784
881.233	861
881.315	787
881.319	797
881.396	1027
881.426	845
881.478	328
881.532	589
881.559	991
881.639	1042
881.641	1019
881.722	845
881.745	601
881.803	635
881.852	792
881.885	640
881.958	431
881.966	465
882.047	1077
882.064	1038
882.129	509
882.171	471
882.210	804
882.277	1372
882.291	1309
882.372	608
882.383	578
882.454	1110
882.489	1029
882.535	686
882.596	658
882.616	670
882.697	794
882.702	781
882.778	503
882.808	370
882.859	437
882.914	884
882.940	840
883.020	392
883.021	393
883.102	664
883.127	672
883.183	676
883.233	593
883.264	607
883.339	958
883.345	949
883.426	467
883.445	475
883.507	801
883.551	859
883.587	906
883.657	925
883.668	916
883.749	918
883.763	887
883.830	624
883.869	618
883.910	684
883.975	491
883.991	421
884.072	310
884.081	292
884.152	292
884.187	439
884.233	587
884.292	455
884.314	487
884.394	821
884.398	829
884.475	954
884.504	958
884.555	772
884.610	758
884.636	695
884.716	529
884.716	532
884.797	804
884.821	962
884.877	860
884.927	462
884.958	426
885.033	759
885.038	754
885.118	358
885.139	253
885.199	454
885.244	1009
885.279	964
885.350	-16
885.359	21
885.439	1190
885.456	1271
885.520	720
885.561	514
885.600	432
885.667	482
885.680	529
885.760	646
885.773	661
885.840	613
885.878	552
885.920	553
885.984	586
886.000	635
886.080	1103
886.089	1106
886.160	655
886.195	596
886.240	996
886.300	1261
886.320	1217
886.400	1383
886.406	1366
886.480	666
886.511	461
886.560	627
886.616	813
886.640	882
886.720	1109
886.722	1112
886.800	841
886.827	687
886.879	808
886.932	992
886.959	839
887.038	544
887.039	542
887.119	197
887.143	115
887.198	527
887.248	1033
887.278	1098
887.354	916
887.358	910
887.437	882
887.459	911
887.517	1069
887.564	1069
887.596	902
887.669	543
887.676	567
887.755	953
887.774	1036
887.835	865
887.880	701
887.914	703
887.985	721
887.994	695
888.073	437
888.090	408
888.153	896
888.195	1104
888.232	1050
888.300	1129
888.311	1086
888.391	609
888.405	541
888.470	490
888.510	413
888.549	743
888.615	1421
888.628	1288
888.708	388
888.720	248
888.787	1038
888.825	1474
888.866	1112
888.930	610
888.945	709
889.024	1205
889.035	1271
889.103	1041
889.140	910
889.182	1125
889.245	1465
889.261	1340
889.340	726
889.349	658
889.419	728
889.454	758
889.498	647
889.559	498
889.577	494
889.656	499
889.664	504
889.735	557
889.768	586
889.814	492
889.873	372
889.978	-365
890.083	1428
890.187	998
890.292	1184
890.397	377
890.501	1069
890.606	184
890.710	1532
890.815	1067
890.919	433
891.024	247
891.128	1921
891.233	1480
891.337	1444
891.442	265
891.546	468
891.650	352
891.755	693
891.859	1937
891.963	280
892.068	700
892.172	1037
892.276	-11
892.380	1389
892.484	383
892.589	1029
892.693	508
892.797	925
892.901	743
893.005	861
893.109	603
893.213	917
893.317	774
893.421	1846
893.525	124
893.629	1295
893.733	1027
893.837	568
893.941	911
894.045	1538
894.148	1174
894.252	2128
894.356	606
894.460	1228
894.564	886
894.667	865
894.771	-637
894.875	232
894.978	930
895.082	1258
895.186	999
895.289	1603
895.393	371
895.496	1126
895.600	-14
895.703	407
895.807	530
895.910	239
896.014	240
896.117	884
896.221	1293
896.324	1109
896.427	869
896.531	979
896.634	1143
896.737	494
896.840	417
896.944	1093
897.047	666
897.150	1178
897.253	1176
897.356	881
897.460	586
897.563	563
897.666	590
897.769	1105
897.872	550
897.975	630
898.078	327
898.181	359
898.284	134
898.387	1588
898.490	1333
898.593	1217
898.695	978
898.798	696
898.901	555
899.004	1361
899.107	583
899.209	756
899.312	1417
899.415	619
899.518	1252
899.620	793
899.723	861
899.826	795
899.928	1126
900.031	903
900.133	350
900.236	1108
900.338	333
900.441	43
900.543	-507
900.646	687
900.748	167
900.851	771
900.953	351
901.055	659
901.158	789
901.260	1563
901.362	426
901.465	1395
901.567	-207
901.669	978
901.771	455
901.873	682
901.976	911
902.078	751
902.180	866
902.282	258
902.384	768
902.486	578
902.588	381
902.690	1009
902.792	642
902.894	956
902.996	-69
903.098	664
903.200	379
903.302	934
903.404	115
903.505	300
903.607	60
903.709	1444
903.811	715
903.913	400
904.014	275
904.116	765
904.218	1014
904.319	1546
904.421	527
904.523	755
904.624	-120
904.726	352
904.827	-356
904.929	827
905.030	673
905.132	849
905.233	-13
905.335	636
905.436	-236
905.537	535
905.639	740
905.740	337
905.841	-491
905.943	927
906.044	514
906.145	80
906.247	388
906.348	712
906.449	539
906.550	1099
906.651	261
906.752	1051
906.854	-375
906.955	431
907.056	458
907.157	1089
907.258	444
907.359	851
907.460	357
907.561	781
907.662	662
907.762	340
907.863	-67
907.964	397
908.065	219
908.166	623
908.267	922
908.367	255
908.468	-104
908.569	524
908.670	1056
908.770	961
908.871	936
908.971	1198
909.072	911
909.173	758
909.273	132
909.374	318
909.474	-86
909.575	879
909.675	-49
909.776	333
909.876	198
909.977	307
910.077	171
910.177	165
910.278	556
910.378	764
910.478	240
910.579	52
910.679	260
910.779	770
910.879	228
910.980	259
911.080	-27
911.180	558
911.280	221
911.380	652
911.480	71
911.580	415
911.680	223
911.780	479
911.880	312
911.980	201
912.080	-6
912.180	228
912.280	397
912.380	371
912.480	-58
912.580	1075
912.679	72
912.779	134
912.879	107
912.979	286
913.078	-219
913.178	1211
913.278	-930
913.377	1100
913.477	685
913.577	451
913.676	-50
913.776	44
913.875	158
913.975	618
914.074	336
914.174	164
914.273	-146
914.373	1066
914.472	413
914.572	357
914.671	257
914.770	518
914.870	-70
914.969	-160
915.068	391
915.167	944
915.267	-236
915.366	348
915.465	313
915.564	269
915.663	107
915.763	299
915.862	-567
915.961	1677
916.060	174
916.159	938
916.258	179
916.357	250
916.456	11
916.555	270
916.654	-376
916.752	741
916.851	-42
916.950	955
917.049	-102
917.148	985
917.247	-112
917.345	-270
917.444	-401
917.543	79
917.642	-322
917.740	417
917.839	-74
917.937	1170
918.036	405
918.135	328
918.233	-40
918.332	9
918.430	117
918.529	-506
918.627	-38
918.726	289
918.824	-107
918.923	374
919.021	-53
919.119	251
919.218	-342
919.316	629
919.414	184
919.512	-34
919.611	289
919.709	-187
919.807	731
919.905	36
920.003	456
920.102	1172
920.200	-65
920.298	-38
920.396	1137
920.494	1528
920.592	-486
920.690	1512
920.788	202
920.886	164
920.984	298
921.082	832
921.180	1153
921.277	106
921.375	617
921.473	626
921.571	-200
921.669	572
921.766	561
921.864	1387
921.962	-2
922.060	983
922.157	80
922.255	1113
922.352	-16
922.450	762
922.548	-266
922.645	995
922.743	375
922.840	513
922.938	1599
923.035	1598
923.133	909
923.230	1698
923.327	1290
923.425	1650
923.522	1296
923.619	1567
923.717	915
923.814	1499
923.911	1422
924.008	1435
924.106	989
924.203	1478
924.300	1518
924.397	763
924.494	858
924.591	1478
924.688	1176
924.786	609
924.883	1516
924.979	1535
925.077	491
925.173	1663
925.270	1975
925.367	1003
925.464	1037
925.561	1843
925.658	1105
925.755	659
925.852	1878
925.948	1205
926.045	1626
926.142	1414
926.239	667
926.335	750
926.432	684
926.529	1154
926.625	1231
926.722	1476
926.818	1452
926.915	1327
927.011	971
927.108	1925
927.204	701
927.301	971
927.397	907
927.494	896
927.590	1333
927.687	1302
927.783	1569
927.879	1276
927.976	860
928.072	1642
928.168	976
928.264	1804
928.361	625
928.457	1488
928.553	439
928.649	959
928.745	1656
928.841	780
928.937	839
929.033	1204
929.129	900
929.225	593
929.321	1743
929.417	762
929.513	239
929.609	1911
929.705	971
929.801	1159
929.897	556
929.993	589
930.089	699
930.184	1225
930.280	209
930.376	1114
930.471	256
930.567	1604
930.663	830
930.758	960
930.854	455
930.950	657
931.045	1151
931.141	712
931.236	813
931.332	1104
931.427	932
931.523	1270
931.618	689
931.714	588
931.809	1278
931.905	742
932.000	1018
932.095	600
932.191	939
932.286	737
932.381	787
932.476	231
932.572	896
932.667	837
932.762	1115
932.857	952
932.952	376
933.047	1007
933.142	792
933.237	611
933.332	457
933.427	1313
933.522	1265
933.617	715
933.712	1074
933.807	824
933.902	1209
933.997	1313
934.092	17
934.187	702
934.282	1278
934.376	1387
934.471	1160
934.566	472
934.661	184
934.755	1038
934.850	153
934.945	1758
935.039	460
935.134	1274
935.228	441
935.323	1263
935.417	1135
935.512	745
935.606	467
935.701	468
935.795	452
935.890	353
935.984	321
936.079	529
936.173	574
936.267	1025
936.362	796
936.456	1056
936.550	769
936.644	660
936.738	-242
936.833	510
936.927	368
937.021	1412
937.115	381
937.209	999
937.303	1082
937.397	649
937.491	-112
937.585	774
937.679	11
937.773	613
937.867	600
937.961	744
938.055	628
938.149	589
938.243	28
938.337	1818
938.430	344
938.524	1078
938.618	241
938.712	1448
938.805	-39
938.899	1085
938.993	1085
939.086	1006
939.180	842
939.274	1195
939.367	639
939.461	206
939.554	92
939.648	1010
939.741	205
939.835	135
939.928	1573
940.022	1239
940.115	-300
940.208	653
940.302	853
940.395	908
940.488	-126
940.582	1084
940.675	-50
940.768	384
940.861	492
940.954	1248
941.048	122
941.141	-503
941.234	450
941.327	1218
941.420	896
941.513	744
941.606	258
941.699	1783
941.792	706
941.885	829
941.978	-188
942.071	512
942.164	-24
942.257	1142
942.349	677
942.442	522
942.535	642
942.628	1215
942.721	647
942.813	-34
942.906	503
942.999	702
943.091	215
943.184	-145
943.277	-609
943.369	512
943.462	-100
943.554	984
943.647	407
943.739	789
943.832	915
943.924	-413
944.017	-500
944.109	-546
944.201	402
944.294	120
944.386	576
944.478	468
944.571	-455
944.663	650
944.755	-276
944.847	840
944.940	1023
945.032	-285
945.124	-20
945.216	1166
945.308	602
945.400	789
945.492	430
945.584	-19
945.676	64
945.768	27
945.860	-14
945.952	496
946.044	346
946.136	-7
946.228	344
946.320	322
946.412	-333
946.503	126
946.595	1204
946.687	102
946.779	-603
946.870	359
946.962	-32
947.054	371
947.145	881
947.237	1145
947.329	-114
947.420	405
947.512	163
947.603	-71
947.695	622
947.786	-545
947.878	-586
947.969	446
948.061	-586
948.152	29
948.243	259
948.335	1262
948.426	-337
948.517	642
948.609	147
948.700	657
948.791	-706
948.882	709
948.973	429
949.065	134
949.156	467
949.247	141
949.338	500
949.429	76
949.520	41
949.611	511
949.702	746
949.793	484
949.884	764
949.975	-292
950.066	-376
950.157	69
950.247	116
950.338	710
950.429	613
950.520	955
950.611	496
950.701	-46
950.792	275
950.883	1076
950.973	1093
951.064	480
951.155	211
951.245	558
951.336	577
951.427	255
951.517	303
951.608	535
951.698	-361
951.788	207
951.879	166
951.969	490
952.060	-127
952.150	655
952.240	393
952.331	-970
952.421	1803
952.511	667
952.602	167
952.692	-25
952.782	231
952.872	-276
952.962	232
953.052	-25
953.143	-264
953.233	235
953.323	248
953.413	158
953.503	612
953.593	470
953.683	-619
953.773	-1156
953.863	292
953.953	-311
954.042	159
954.132	287
954.222	144
954.312	-197
954.402	-367
954.492	812
954.581	484
954.671	-210
954.761	-331
954.850	1229
954.940	270
955.030	430
955.119	91
955.209	251
955.298	-922
955.388	616
955.477	646
955.567	306
955.656	586
955.746	-6
955.835	-713
955.925	450
956.014	-196
956.103	157
956.193	338
956.282	-300
956.371	-163
956.461	864
956.550	266
956.639	443
956.728	-278
956.817	55
956.906	-589
956.995	1095
957.085	-153
957.174	501
957.263	-51
957.352	377
957.441	-892
957.530	350
957.619	7
957.708	526
957.796	558
957.885	1532
957.974	197
958.063	712
958.152	-1505
958.241	160
958.329	-373
958.418	-352
958.507	-475
958.596	628
958.684	-469
958.773	-75
958.861	-487
958.950	563
959.039	29
959.127	136
959.216	-17
959.304	594
959.393	10
959.481	869
959.570	-29
959.658	334
959.746	341
959.835	875
959.923	566
960.011	916
960.100	970
960.188	845
960.276	-266
960.365	183
960.453	4
960.541	-643
960.629	360
960.717	-536
960.805	-634
960.893	838
960.981	-707
961.069	981
961.158	-147
961.245	779
961.333	109
961.421	918
961.509	358
961.597	88
961.685	-667
961.773	66
961.861	-881
961.949	945
962.036	-348
962.124	155
962.212	-671
962.299	-479
962.387	-560
962.475	727
962.562	-624
962.650	1128
962.738	580
962.825	-172
962.913	-256
963.000	-1061
963.088	-76
963.175	452
963.263	341
963.350	-333
963.438	-306
963.525	-249
963.612	1420
963.700	2338
963.787	5682
963.874	2454
963.962	133
964.049	270
964.136	63
964.223	-415
964.310	246
964.398	1004
964.485	-510
964.572	546
964.659	434
964.746	212
964.833	-261
964.920	-23
965.007	-695
965.094	254
965.181	-305
965.268	49
965.355	-801
965.441	-1034
965.528	-1086
965.615	314
965.702	-422
965.789	8
965.875	-404
965.962	-34
966.049	-658
966.136	706
966.222	-759
966.309	779
966.395	-600
966.482	700
966.569	-501
966.655	540
966.742	-180
966.828	729
966.915	-520
967.001	-977
967.087	-131
967.174	586
967.260	104
967.347	167
967.433	1516
967.519	4585
967.605	733
967.692	-312
967.778	191
967.864	380
967.950	-315
968.036	-954
968.123	-58
968.209	-315
968.295	-1789
968.381	439
968.467	-219
968.553	-1306
968.639	507
968.725	-304
968.811	183
968.897	995
968.983	141
969.069	-360
969.154	-540
969.240	928
969.326	-787
969.412	71
969.497	-699
969.583	118
969.669	461
969.755	-363
969.840	-606
969.926	751
970.012	241
970.097	1072
970.183	68
970.268	633
970.354	-71
970.439	275
970.525	2365
970.610	221
970.696	4
970.781	-136
970.866	-1176
970.952	505
971.037	-718
971.122	-173
971.208	-74
971.293	593
971.378	-1110
971.463	255
971.549	697
971.634	-624
971.719	231
971.804	590
971.889	1393
971.974	392
972.059	-446
972.144	704
972.229	-274
972.314	-207
972.399	73
972.484	-234
972.569	-264
972.654	-7
972.739	1132
972.824	1247
972.908	-795
972.993	-839
973.078	-1400
973.163	-161
973.247	-216
973.332	-667
973.417	597
973.501	-732
973.586	-395
973.671	-63
973.755	-724
973.840	667
973.924	247
974.009	797
974.093	-937
974.178	1425
974.262	252
974.346	762
974.431	64
974.515	-178
974.600	-337
974.684	577
974.768	-259
974.852	223
974.937	-1664
975.021	588
975.105	-440
975.189	-115
975.273	-301
975.358	-1288
975.442	-1159
975.526	80
975.610	-995
975.694	-522
975.778	573
975.862	-351
975.946	-2021
976.030	1120
976.114	-646
976.198	-415
976.281	-84
976.365	356
976.449	-366
976.533	-47
976.617	-596
976.700	60
976.784	-250
976.868	-457
976.951	112
977.035	153
977.119	-52
977.202	-580
977.286	307
977.369	17
977.453	-244
977.536	-425
977.620	-760
977.703	130
977.787	-814
977.870	157
977.953	378
978.037	-1192
978.120	447
978.203	-132
978.287	382
978.370	599
978.453	-549
978.536	254
978.620	778
978.703	205
978.786	-221
978.869	-499
978.952	-1280
979.035	554
979.118	-147
979.201	103
979.284	-661
979.367	-332
979.450	76
979.533	-386
979.616	-760
979.699	-337
979.782	-61
979.865	-280
979.948	125
980.030	-344
980.113	-333
980.196	-812
980.279	-286
980.361	-1256
980.444	90
980.526	-162
980.609	-316
980.692	7
980.774	-346
980.857	-1127
980.939	287
981.022	125
981.104	-490
981.187	-1035
981.269	-318
981.352	-639
981.434	-1045
981.516	-447
981.599	174
981.681	-164
981.763	-355
981.846	-883
981.928	-678
982.010	-1039
982.092	-1187
982.174	-141
982.256	-1205
982.339	-164
982.421	-199
982.503	715
982.585	-963
982.667	-685
982.749	-705
982.831	233
982.913	-1484
982.995	-806
983.077	-460
983.158	327
983.240	-1191
983.322	-111
983.404	-204
983.486	-25
983.568	-87
983.649	-889
983.731	-467
983.813	-208
983.894	-541
983.976	-723
984.058	-105
984.139	565
984.221	-1715
984.302	236
984.384	-794
984.465	-1040
984.547	-567
984.628	-868
984.710	-394
984.791	-567
984.872	-1178
984.954	-195
985.035	-514
985.116	-1243
985.198	-534
985.279	1082
985.360	-1169
985.441	-527
985.522	-197
985.604	-959
985.685	-2153
985.766	398
985.847	154
985.928	-1210
986.009	-717
986.090	-1101
986.171	-592
986.252	-969
986.333	-386
986.414	-558
986.495	-361
986.576	-186
986.656	-1199
986.737	233
986.818	-1104
986.899	-1043
986.980	-638
987.060	168
987.141	-1131
987.222	433
987.302	-1304
987.383	208
987.464	-1325
987.544	-475
987.625	-550
987.705	177
987.786	-536
987.866	-661
987.947	-827
988.027	194
988.108	-1144
988.188	-544
988.268	-835
988.349	60
988.429	-1114
988.509	-410
988.589	-777
988.670	-1452
988.750	926
988.830	-1168
988.910	-287
988.990	173
989.070	-669
989.151	-73
989.231	-747
989.311	-219
989.391	-5
989.471	-412
989.551	-1280
989.631	-1197
989.711	-357
989.791	-1068
989.870	-1342
989.950	375
990.030	-1332
990.110	-1194
990.190	-949
990.269	-327
990.349	-460
990.429	-1090
990.509	-575
990.588	-1197
990.668	-18
990.747	-785
990.827	-992
990.907	-280
990.986	-1107
991.066	-300
991.145	-1157
991.225	-601
991.304	-1718
991.383	-84
991.463	-1918
991.542	442
991.622	-1396
991.701	-1368
991.780	-1359
991.859	-602
991.939	-457
992.018	-583
992.097	-107
992.176	-293
992.256	-759
992.335	-835
992.414	-377
992.493	-704
992.572	-1334
992.651	70
992.730	-599
992.809	-390
992.888	-2270
992.967	-794
993.046	109
993.125	-1445
993.203	-822
993.282	-114
993.361	-727
993.440	-1402
993.519	-1062
993.597	-584
993.676	-1514
993.755	224
993.834	-978
993.912	-1708
993.991	-889
994.069	-1340
994.148	-647
994.226	-977
994.305	-780
994.384	-1347
994.462	-168
994.540	-860
994.619	-1833
994.697	49
994.776	-1432
994.854	-729
994.932	-1453
995.011	-183
995.089	-1737
995.167	-1278
995.245	-723
995.324	-799
995.402	197
995.480	-870
995.558	-643
995.636	-1390
995.714	-1608
995.792	882
995.870	-1962
995.948	-872
996.026	-879
996.104	-1766
996.182	-588
996.260	-1084
996.338	-939
996.416	-1781
996.494	-1579
996.572	-506
996.649	-1505
996.727	-1257
996.805	-1041
996.883	-599
996.960	-769
997.038	-124
997.116	-1268
997.193	-1713
997.271	-1107
997.348	-1465
997.426	-835
997.504	-875
997.581	-981
997.658	-432
997.736	-1676
997.813	-1110
997.891	-279
997.968	-971
998.046	-254
998.123	-1209
998.200	-1610
998.277	-1339
998.355	-947
998.432	-1530
998.509	-1192
998.586	-776
998.663	-975
998.741	-661
998.818	-1326
998.895	-966
998.972	-1820
999.049	-727
999.126	-1873
999.203	-680
999.280	-609
999.357	-1281
999.434	-924
999.511	-695
999.587	-720
999.664	-915
999.741	-521
999.818	-208
999.895	-1384
999.971	-1163
1000.048	-1417
1000.125	-192
1000.202	-1310
1000.278	-889
1000.355	-68
1000.431	-1231
1000.508	-1587
1000.584	-1471
1000.661	-832
1000.738	-1335
1000.814	-1068
1000.890	-322
1000.967	-1657
1001.043	-1272
1001.120	-1979
1001.196	-786
1001.272	-1422
1001.349	-229
1001.425	-917
1001.501	-440
1001.577	-1554
1001.654	-738
1001.730	-1344
1001.806	-1330
1001.882	-1288
1001.958	-1350
1002.034	-963
1002.110	-625
1002.186	-1843
1002.262	-1561
1002.338	-2086
1002.414	380
1002.490	-778
1002.566	-1178
1002.642	-1981
1002.718	-264
1002.794	-1108
1002.870	-1203
1002.945	-1951
1003.021	-954
1003.097	-2048
1003.173	-1196
1003.248	-1156
1003.324	-367
1003.400	-1461
1003.475	-1436
1003.551	-1513
1003.626	-800
1003.702	-1696
1003.777	-1267
1003.853	-1598
1003.928	-700
1004.004	-1352
1004.079	-771
1004.155	-2018
1004.230	-1196
1004.305	-134
1004.381	-1604
1004.456	-1347
1004.531	-1018
1004.607	-944
1004.682	-1268
1004.757	-900
1004.832	-733
1004.907	-559
1004.982	-1011
1005.057	-526
1005.133	-1616
1005.208	-1441
1005.283	-1519
1005.358	-409
1005.433	-1698
1005.508	-1191
1005.583	-1718
1005.657	-1300
1005.732	-337
1005.807	-1721
1005.882	-1078
1005.957	-1286
1006.032	-262
1006.106	-1164
1006.181	-78
1006.256	-717
1006.331	-1437
1006.405	-2325
1006.480	-725
1006.554	-1558
1006.629	-1181
1006.704	-1822
1006.778	-815
1006.853	-99
1006.927	-711
1007.002	-1868
1007.076	-739
1007.150	-1335
1007.225	-213
1007.299	-1653
1007.373	-1616
1007.448	-966
1007.522	334
1007.596	-1016
1007.671	-1609
1007.745	-887
1007.819	-1736
1007.893	-2056
1007.967	-741
1008.041	-2110
1008.115	-308
1008.190	-2732
1008.264	-1504
1008.338	-2224
1008.412	-1713
1008.486	-1551
1008.560	-599
1008.633	-1478
1008.707	-2058
1008.781	-1187
1008.855	-1613
1008.929	-1327
1009.003	-1695
1009.076	-1272
1009.150	-701
1009.224	-1481
1009.298	-837
1009.371	-1566
1009.445	-1200
1009.519	-1420
1009.592	-1452
1009.666	-1643
1009.739	-1276
1009.813	-2588
1009.886	-52
1009.960	-2719
1010.033	-1551
1010.107	-1782
1010.180	-903
1010.253	-816
1010.327	-1809
1010.400	-2277
1010.473	-357
1010.547	-910
1010.620	-1246
1010.693	-892
1010.766	-1670
1010.840	-1369
1010.913	-1649
1010.986	-2760
1011.059	-1465
1011.132	-1230
1011.205	-650
1011.278	-2308
1011.351	-810
1011.424	-1827
1011.497	-1161
1011.570	-1248
1011.643	-611
1011.716	-1849
1011.789	-1330
1011.862	-1182
1011.934	-1261
1012.007	-2537
1012.080	-1769
1012.153	-1694
1012.225	-803
1012.298	-1922
1012.371	-1126
1012.443	-1610
1012.516	-1603
1012.588	-2013
1012.661	-1576
1012.733	-1642
1012.806	-930
1012.879	-2008
1012.951	-438
1013.023	-1758
1013.096	-625
1013.168	-2319
1013.241	244
1013.313	-1637
1013.385	-708
1013.458	-1686
1013.530	-930
1013.602	-1682
1013.674	-1241
1013.746	-2530
1013.819	-1490
1013.891	-1188
1013.963	-2000
1014.035	-1768
1014.107	-717
1014.179	-962
1014.251	-1710
1014.323	-1414
1014.395	-1117
1014.467	-2107
1014.539	-516
1014.611	-1587
1014.683	-1071
1014.754	-1360
1014.826	-1402
1014.898	-1131
1014.970	-2449
1015.042	-817
1015.113	-1315
1015.185	-1173
1015.257	-1831
1015.328	-1129
1015.400	-2050
1015.471	-1590
1015.543	-1674
1015.615	-1523
1015.686	-1375
1015.757	-1347
1015.829	-1438
1015.901	-2062
1015.972	-1379
1016.043	-760
1016.115	-938
1016.186	-1793
1016.257	-1760
1016.328	-773
1016.400	-1095
1016.471	-3011
1016.542	-1087
1016.613	-1592
1016.685	-594
1016.756	-1757
1016.827	-2116
1016.898	-2031
1016.969	-1537
1017.040	-1604
1017.111	-1351
1017.182	-2260
1017.253	-1173
1017.324	-1590
1017.395	-1951
1017.466	-1712
1017.537	-1368
1017.608	-1555
1017.678	-1456
1017.749	-1347
1017.820	-1620
1017.891	-2010
1017.961	-1392
1018.032	-2266
1018.103	-1342
1018.173	-1978
1018.244	-1885
1018.315	-1753
1018.385	-1396
1018.456	-1502
1018.526	-1722
1018.597	-2277
1018.667	-1402
1018.738	-1338
1018.808	-1549
1018.878	-1710
1018.949	-809
1019.019	-1664
1019.089	-2070
1019.160	-1585
1019.230	-1484
1019.300	-2220
1019.371	-1293
1019.441	-1845
1019.511	-1671
1019.581	-2233
1019.651	-1658
1019.721	-1941
1019.791	-1317
1019.861	-2172
1019.931	-1060
1020.001	-2694
1020.071	-1627
1020.141	-1122
1020.211	-1074
1020.281	-1715
1020.351	-1526
1020.421	-1415
1020.491	-1367
1020.560	-2494
1020.630	-1032
1020.700	-1275
1020.770	-1782
1020.839	-1929
1020.909	-1916
1020.979	-1596
1021.048	-1863
1021.118	-2393
1021.187	-1991
1021.257	-1739
1021.326	-892
1021.396	-1941
1021.465	-1617
1021.535	-2192
1021.604	-1839
1021.674	-1667
1021.743	-1292
1021.812	-1845
1021.882	-1848
1021.951	-1414
1022.020	-1862
1022.089	-1655
1022.159	-1491
1022.228	-2259
1022.297	-982
1022.366	-1162
1022.435	-1491
1022.504	-2085
1022.573	-1646
1022.642	-1776
1022.711	-1557
1022.781	-2183
1022.849	-1791
1022.918	-1699
1022.987	-2296
1023.056	-2893
1023.125	-1064
1023.194	-1963
1023.263	-2194
1023.331	-1743
1023.400	-1705
1023.469	-1637
1023.538	-1057
1023.606	-2668
1023.675	-2351
1023.744	-2290
1023.812	-2041
1023.881	-1764
1023.949	-1832
1024.018	-1938
1024.086	-1744
1024.155	-1810
1024.223	-2034
1024.292	-1794
1024.360	-1881
1024.429	-1859
1024.497	-2359
1024.565	-1835
1024.634	-821
1024.702	-1962
1024.770	-1439
1024.838	-3074
1024.907	-920
1024.975	-1920
1025.043	-1494
1025.111	-1580
1025.179	-1236
1025.247	-1636
1025.315	-1591
1025.383	-2356
1025.451	-1588
1025.519	-2374
1025.587	-2344
1025.655	-1797
1025.723	-1548
1025.791	-2177
1025.859	-1401
1025.927	-844
1025.995	-1551
1026.062	-2109
1026.130	-1640
1026.198	-2280
1026.266	-2184
1026.333	-2046
1026.401	-1266
1026.469	-2328
1026.536	-1314
1026.604	-2367
1026.671	-2360
1026.739	-1877
1026.806	-1857
1026.874	-2439
1026.941	-910
1027.009	-1734
1027.076	-2282
1027.144	-1456
1027.211	-2386
1027.278	-2248
1027.345	-1078
1027.413	-2565
1027.480	-1882
1027.547	-2227
1027.614	-2636
1027.682	-1168
1027.749	-1503
1027.816	-1829
1027.883	-1288
1027.950	-1623
1028.017	-1778
1028.084	-1962
1028.151	-2320
1028.218	-1776
1028.285	-1820
1028.352	-1814
1028.419	-1365
1028.486	-2158
1028.553	-1983
1028.619	-2789
1028.686	-1520
1028.753	-2291
1028.820	-1864
1028.886	-1950
1028.953	-1206
1029.020	-1492
1029.086	-2347
1029.153	-2007
1029.220	-2126
1029.286	-1530
1029.353	-1368
1029.419	-1335
1029.486	-1983
1029.552	-1887
1029.619	-959
1029.685	-1695
1029.751	-1590
1029.818	-1143
1029.884	-1973
1029.951	-1415
1030.017	-1981
1030.083	-1885
1030.149	-1180
1030.216	-2691
1030.282	-1467
1030.348	-1829
1030.414	-2211
1030.480	-2327
1030.546	-1767
1030.612	-2242
1030.678	-2450
1030.744	-1450
1030.810	-1449
1030.876	-2156
1030.942	-1085
1031.008	-2196
1031.074	-1270
1031.140	-2347
1031.206	-1167
1031.272	-2109
1031.337	-1288
1031.403	-1472
1031.469	-2388
1031.534	-2167
1031.600	-1727
1031.666	-2169
1031.731	-762
1031.797	-2276
1031.863	-1596
1031.928	-1929
1031.994	-2320
1032.059	-2074
1032.125	-2027
1032.190	-2474
1032.256	-1357
1032.321	-2025
1032.386	-1961
1032.452	-1934
1032.517	-2500
1032.582	-2107
1032.647	-2143
1032.713	-2536
1032.778	-1351
1032.843	-1918
1032.908	-1429
1032.974	-2032
1033.039	-1469
1033.104	-2618
1033.169	-2553
1033.234	-1744
1033.299	-1337
1033.364	-1440
1033.429	-1774
1033.494	-1717
1033.559	-1708
1033.624	-1911
1033.688	-1869
1033.753	-2273
1033.818	-2027
1033.883	-1564
1033.948	-1425
1034.013	-2299
1034.077	-1413
1034.142	-1283
1034.207	-1772
1034.271	-1282
1034.336	-763
1034.400	-1150
1034.465	-2053
1034.530	-2054
1034.594	-981
1034.658	-2798
1034.723	-2117
1034.787	-2088
1034.852	-1508
1034.916	-2153
1034.981	-1886
1035.045	-1740
1035.109	-1684
1035.173	-1000
1035.238	-1874
1035.302	-998
1035.366	-1358
1035.430	-1621
1035.495	-1621
1035.559	-2189
1035.623	-785
1035.687	-2162
1035.751	-1904
1035.815	-1871
1035.879	-2089
1035.943	-2096
1036.007	-2397
1036.071	-2214
1036.135	-1703
1036.198	-1480
1036.262	-2046
1036.326	-1391
1036.390	-1446
1036.454	-1699
1036.517	-1505
1036.581	-2021
1036.645	-1080
1036.709	-1933
1036.772	-1604
1036.836	-1660
1036.900	-983
1036.963	-2670
1037.026	-1348
1037.090	-2336
1037.154	-1543
1037.217	-2241
1037.280	-1631
1037.344	-2069
1037.407	-2150
1037.471	-1934
1037.534	-1239
1037.597	-1722
1037.661	-1580
1037.724	-2519
1037.787	-1878
1037.850	-2538
1037.913	-1962
1037.977	-1660
1038.040	-1517
1038.103	-2109
1038.166	-2029
1038.229	-1727
1038.292	-1052
1038.355	-1359
1038.418	-2212
1038.481	-1228
1038.544	-1679
1038.607	-2302
1038.670	-1367
1038.732	-2091
1038.795	-2011
1038.858	-2232
1038.921	-2328
1038.984	-1733
1039.046	-2544
1039.109	-2099
1039.172	-1136
1039.234	-3103
1039.297	-1597
1039.360	-1637
1039.422	-2215
1039.485	-2116
1039.547	-1775
1039.610	-2397
1039.672	-2129
1039.734	-2421
1039.797	-2763
1039.859	-1953
1039.922	-2016
1039.984	-2371
1040.046	-1453
1040.109	-2215
1040.171	-1075
1040.233	-2070
1040.295	-2253
1040.358	-2453
1040.420	-1972
1040.482	-2096
1040.544	-1557
1040.606	-2440
1040.668	-2184
1040.730	-2030
1040.792	-1862
1040.854	-2510
1040.916	-2262
1040.978	-2031
1041.040	-1445
1041.102	-2003
1041.164	-1990
1041.225	-1701
1041.287	-2145
1041.349	-1569
1041.411	-1294
1041.472	-1972
1041.534	-1912
1041.596	-2124
1041.657	-2388
1041.719	-2547
1041.781	-2718
1041.842	-3064
1041.904	-2258
1041.965	-2585
1042.027	-2732
1042.088	-2834
1042.150	-2134
1042.211	-2069
1042.272	-966
1042.334	-2718
1042.395	-1971
1042.456	-2572
1042.518	-2133
1042.579	-1725
1042.640	-1758
1042.701	-2146
1042.763	-1421
1042.824	-3078
1042.885	-2859
1042.946	-1925
1043.007	-2746
1043.068	-2470
1043.129	-1178
1043.190	-2183
1043.251	-1961
1043.312	-1948
1043.373	-1542
1043.434	-2175
1043.495	-2345
1043.556	-1750
1043.616	-1982
1043.677	-2039
1043.738	-1038
1043.799	-2093
1043.859	-765
1043.920	-2139
1043.981	-2158
1044.041	-1656
1044.102	-2086
1044.162	-1993
1044.223	-1739
1044.284	-2173
1044.344	-1328
1044.405	-2636
1044.465	-1433
1044.525	-3244
1044.586	-915
1044.646	-2273
1044.707	-1959
1044.767	-1805
1044.827	-1935
1044.887	-1847
1044.948	-1537
1045.008	-1975
1045.068	-1766
1045.128	-2082
1045.188	-2566
1045.249	-1628
1045.309	-2049
1045.369	-2514
1045.429	-1607
1045.489	-2650
1045.549	-1507
1045.609	-2790
1045.669	-1943
1045.729	-2282
1045.789	-2162
1045.848	-2125
1045.908	-1849
1045.968	-1719
1046.028	-2269
1046.088	-1607
1046.147	-1194
1046.207	-1707
1046.267	-1668
1046.326	-2467
1046.386	-1997
1046.446	-1204
1046.505	-1507
1046.565	-997
1046.624	-835
1046.684	-807
1046.743	-1299
1046.803	-1340
1046.862	-593
1046.922	0
