'Start Wavelength	183.907
'End Wavelength	1046.922
'Gate Delay	5.000
'Gate Width (ms)	1.050
'Laser Output Level	0.000
'X Position	0.000
'Y Position	0.000
'Z Position	0.000
'Grid Point Number	1.000
'Shot Number	100.000
183.907	7.000
183.977	-300.000
184.047	218
184.116	688
184.186	114
184.256	329
184.325	-640
184.395	8
184.465	-26
184.534	521
184.604	-114
184.674	583
184.743	-220
184.813	-205
184.883	68
184.952	970
185.022	-40
185.092	622
185.161	-142
185.231	825
185.301	-72
185.370	883
185.440	-241
185.509	873
185.579	-62
185.649	627
185.718	38
185.788	711
185.857	-250
185.927	496
185.996	-483
186.066	579
186.136	-654
186.205	967
186.275	41
186.344	763
186.414	205
186.483	386
186.553	163
186.622	1582
186.692	532
186.761	789
186.831	102
186.900	-49
186.970	512
187.039	473
187.109	601
187.178	50
187.248	-151
187.317	439
187.387	-23
187.456	526
187.526	-318
187.595	69
187.664	278
187.734	616
187.803	242
187.873	737
187.942	1016
188.012	761
188.081	606
188.150	543
188.220	-454
188.289	680
188.358	804
188.428	537
188.497	-213
188.567	251
188.636	-80
188.705	210
188.775	-86
188.844	648
188.913	165
188.983	83
189.052	23
189.121	114
189.191	-292
189.260	144
189.329	871
189.399	401
189.468	-36
189.537	411
189.606	61
189.676	423
189.745	49
189.814	410
189.883	41
189.953	825
190.022	479
190.091	1145
190.161	541
190.230	127
190.299	129
190.368	670
190.437	-317
190.507	473
190.576	97
190.645	615
190.714	-183
190.783	391
190.853	835
190.922	741
190.991	-814
191.060	1396
191.129	288
191.198	373
191.268	-272
191.337	-477
191.406	470
191.475	588
191.544	615
191.613	254
191.682	960
191.752	94
191.821	-40
191.890	1021
191.959	-492
192.028	662
192.097	189
192.166	194
192.235	442
192.304	772
192.373	202
192.442	440
192.511	-137
192.580	831
192.650	519
192.719	519
192.788	590
192.857	1307
192.926	-129
192.995	966
193.064	410
193.133	1510
193.202	1090
193.271	1203
193.340	400
193.409	1647
193.478	810
193.547	592
193.615	1300
193.684	1692
193.753	1350
193.822	1885
193.891	204
193.960	712
194.029	319
194.098	829
194.167	661
194.236	1130
194.305	943
194.374	416
194.443	262
194.512	560
194.580	401
194.649	1185
194.718	548
194.787	735
194.856	524
194.925	931
194.994	783
195.062	240
195.131	645
195.200	596
195.269	770
195.338	1213
195.407	206
195.475	422
195.544	480
195.613	1247
195.682	961
195.751	1229
195.819	900
195.888	1383
195.957	844
196.026	1727
196.094	661
196.163	515
196.232	614
196.301	-98
196.369	1081
196.438	851
196.507	524
196.576	666
196.644	658
196.713	989
196.782	-46
196.850	1480
196.919	396
196.988	778
197.056	713
197.125	805
197.194	365
197.262	1103
197.331	495
197.400	568
197.468	-127
197.537	309
197.606	328
197.674	1435
197.743	709
197.812	955
197.880	988
197.949	1217
198.017	774
198.086	1257
198.155	155
198.223	1717
198.292	1360
198.360	988
198.429	777
198.497	-446
198.566	1351
198.635	1569
198.703	421
198.772	666
198.840	1502
198.909	1973
198.977	370
199.046	1052
199.114	-272
199.183	1534
199.251	1008
199.320	1033
199.388	609
199.457	778
199.525	583
199.594	615
199.662	-148
199.731	899
199.799	687
199.867	1159
199.936	394
200.004	1006
200.073	623
200.141	490
200.210	639
200.278	967
200.346	1081
200.415	1996
200.483	732
200.552	1202
200.620	279
200.688	1110
200.757	446
200.825	1243
200.893	277
200.962	958
201.030	852
201.098	872
201.167	1508
201.235	1050
201.303	312
201.372	1239
201.440	-47
201.508	1501
201.577	538
201.645	1618
201.713	161
201.781	1280
201.850	1501
201.918	617
201.986	1531
202.055	795
202.123	111
202.191	872
202.259	932
202.327	1238
202.396	1381
202.464	448
202.532	517
202.600	2013
202.669	1360
202.737	1564
202.805	822
202.873	1031
202.941	595
203.009	1171
203.078	1367
203.146	1369
203.214	816
203.282	1078
203.350	-59
203.418	656
203.487	419
203.555	1368
203.623	138
203.691	645
203.759	269
203.827	1039
203.895	941
203.963	890
204.031	897
204.099	1412
204.168	-60
204.236	1473
204.304	1749
204.372	1617
204.440	521
204.508	859
204.576	264
204.644	1080
204.712	307
204.780	503
204.848	406
204.916	1436
204.984	1085
205.052	1353
205.120	324
205.188	858
205.256	909
205.324	1655
205.392	492
205.460	1115
205.528	954
205.596	1399
205.664	1386
205.732	1194
205.799	2533
205.867	2565
205.935	1104
206.003	1742
206.071	685
206.139	959
206.207	510
206.275	1157
206.343	620
206.411	1505
206.478	470
206.546	777
206.614	688
206.682	1707
206.750	886
206.818	1197
206.885	860
206.953	868
207.021	965
207.089	1167
207.157	765
207.225	1358
207.292	-112
207.360	1295
207.428	634
207.496	1279
207.563	1032
207.631	1897
207.699	1056
207.767	1198
207.834	887
207.902	1689
207.970	847
208.038	807
208.105	1229
208.173	1331
208.241	941
208.309	2319
208.376	661
208.444	1508
208.512	972
208.579	1189
208.647	1257
208.715	1291
208.782	911
208.850	1126
208.918	550
208.985	1459
209.053	1259
209.120	1541
209.188	711
209.256	1312
209.323	920
209.391	1355
209.459	1909
209.526	412
209.594	1538
209.661	1194
209.729	1814
209.796	1498
209.864	644
209.932	1115
209.999	1803
210.067	1622
210.134	1291
210.202	1615
210.269	1848
210.337	2117
210.404	611
210.472	1798
210.539	1159
210.607	1523
210.674	1196
210.742	2449
210.809	1377
210.877	1980
210.944	2047
211.012	1140
211.079	1963
211.146	1897
211.214	1292
211.281	2290
211.349	1436
211.416	1829
211.484	1167
211.551	1940
211.618	1858
211.686	1750
211.753	2002
211.821	1576
211.888	1238
211.955	2288
212.023	1948
212.090	1244
212.157	1804
212.225	1202
212.292	2602
212.359	3812
212.427	6022
212.494	3681
212.561	1881
212.629	2074
212.696	2220
212.763	2201
212.831	929
212.898	2095
212.965	1811
213.032	1408
213.100	1799
213.167	2127
213.234	1682
213.301	1932
213.369	2106
213.436	1590
213.503	1926
213.570	2132
213.638	1350
213.705	2322
213.772	1774
213.839	1880
213.906	1124
213.973	2461
214.041	1075
214.108	2440
214.175	1863
214.242	2482
214.309	1453
214.376	2557
214.444	1756
214.511	2461
214.578	1318
214.645	2242
214.712	1854
214.779	1773
214.846	1839
214.913	2534
214.980	2472
215.048	2482
215.115	2442
215.182	1956
215.249	1378
215.316	1688
215.383	2044
215.450	2079
215.517	1189
215.584	1864
215.651	1158
215.718	1443
215.785	1883
215.852	2226
215.919	2850
215.986	1488
216.053	1707
216.120	2028
216.187	1741
216.254	2233
216.321	1743
216.388	2128
216.455	1985
216.522	2229
216.589	2698
216.656	3674
216.722	2478
216.789	2356
216.856	2956
216.923	2793
216.990	2401
217.057	3390
217.124	2685
217.191	3540
217.258	3507
217.324	4138
217.391	3657
217.458	3313
217.525	2587
217.592	2926
217.659	1735
217.725	3220
217.792	2319
217.859	2251
217.926	1128
217.993	2472
218.059	1896
218.126	2365
218.193	1533
218.260	1948
218.327	730
218.393	1561
218.460	767
218.527	1894
218.594	2048
218.660	2333
218.727	2471
218.794	1045
218.860	1503
218.927	2340
218.994	1543
219.061	1629
219.127	1022
219.194	3097
219.261	1915
219.327	2268
219.394	1534
219.461	1061
219.527	1979
219.594	2165
219.661	1423
219.727	1760
219.794	2131
219.860	1768
219.927	1499
219.994	2746
220.060	3237
220.127	3340
220.193	1995
220.260	2965
220.326	3902
220.393	6025
220.460	5374
220.526	4616
220.593	3228
220.659	2984
220.726	3740
220.792	6384
220.859	6161
220.925	8954
220.992	9143
221.058	8323
221.125	5762
221.191	4491
221.258	3248
221.324	3147
221.391	2605
221.457	2631
221.524	1661
221.590	3077
221.657	4481
221.723	3372
221.789	3228
221.856	3122
221.922	1809
221.989	2208
222.055	2093
222.121	2252
222.188	3598
222.254	1834
222.321	1615
222.387	1574
222.453	1761
222.520	1426
222.586	1226
222.652	1594
222.719	967
222.785	1819
222.851	1424
222.918	2181
222.984	1484
223.050	1758
223.116	792
223.183	1427
223.249	929
223.315	1179
223.382	669
223.448	1508
223.514	709
223.580	1141
223.647	802
223.713	485
223.779	813
223.845	1546
223.911	1231
223.978	653
224.044	1274
224.110	1399
224.176	1829
224.242	1245
224.309	782
224.375	1864
224.441	1255
224.507	1262
224.573	1107
224.639	1583
224.705	809
224.772	1777
224.838	1198
224.904	1923
224.970	1172
225.036	1594
225.102	320
225.168	1136
225.234	1300
225.300	1350
225.366	1252
225.432	1920
225.499	642
225.565	2380
225.631	1654
225.697	2367
225.763	1851
225.829	3153
225.895	2118
225.961	3432
226.027	2647
226.093	3122
226.159	3585
226.225	7156
226.291	11353
226.357	13576
226.423	8469
226.489	5910
226.554	3363
226.620	4074
226.686	4298
226.752	6634
226.818	10982
226.884	15454
226.950	12568
227.016	7374
227.082	5116
227.148	4505
227.214	3765
227.279	3129
227.345	2261
227.411	2465
227.477	3082
227.543	6206
227.609	4253
227.674	3473
227.740	2205
227.806	2137
227.872	2089
227.938	2701
228.003	2669
228.069	1687
228.135	1696
228.201	1227
228.267	1424
228.332	3164
228.398	2056
228.464	2224
228.530	622
228.595	1665
228.661	1327
228.727	2811
228.792	1590
228.858	1490
228.924	1281
228.990	2389
229.055	1588
229.121	1643
229.187	1115
229.252	2450
229.318	464
229.384	1768
229.449	1466
229.515	1462
229.581	251
229.646	2936
229.712	1769
229.777	3158
229.843	1961
229.909	3060
229.974	2964
230.040	3183
230.105	2031
230.171	2977
230.236	2953
230.302	3969
230.368	2142
230.433	2857
230.499	1782
230.564	3054
230.630	2282
230.695	1670
230.761	1629
230.826	1433
230.892	2308
230.957	1796
231.023	1977
231.088	2370
231.154	1937
231.219	2073
231.284	2707
231.350	2495
231.415	1604
231.481	2260
231.546	1933
231.612	2685
231.677	928
231.742	934
231.808	1391
231.873	1654
231.939	1115
232.004	2766
232.069	1547
232.135	1986
232.200	1757
232.265	1469
232.331	1680
232.396	1287
232.461	860
232.527	1142
232.592	829
232.657	1948
232.723	1537
232.788	1232
232.853	963
232.918	1797
232.984	1178
233.049	917
233.114	1300
233.179	1617
233.245	2054
233.310	2186
233.375	897
233.440	1033
233.506	1327
233.571	1831
233.636	1217
233.701	1680
233.766	1222
233.832	1568
233.897	2209
233.962	864
234.027	2080
234.092	1410
234.157	1397
234.222	2369
234.288	2349
234.353	4428
234.418	3410
234.483	3462
234.548	2855
234.613	2677
234.678	2511
234.743	2616
234.808	5096
234.873	3401
234.938	2657
235.004	2428
235.069	2414
235.134	2169
235.199	2011
235.264	3075
235.329	1931
235.394	3200
235.459	2488
235.524	2081
235.589	2363
235.654	2343
235.719	1399
235.784	2879
235.849	1769
235.913	3007
235.978	3199
236.043	3015
236.108	2589
236.173	2531
236.238	1929
236.303	2134
236.368	2013
236.433	4296
236.498	3911
236.563	4656
236.627	11309
236.692	20863
236.757	15662
236.822	8399
236.887	5645
236.952	5950
237.017	4659
237.081	5741
237.146	7506
237.211	15140
237.276	21912
237.341	23476
237.405	14088
237.470	8294
237.535	5402
237.600	3268
237.664	4278
237.729	3201
237.794	5180
237.859	8569
237.923	4247
237.988	3151
238.053	2997
238.118	3592
238.182	6314
238.247	5114
238.312	2310
238.376	3048
238.441	1146
238.506	2712
238.570	1136
238.635	2387
238.700	2017
238.764	1570
238.829	2902
238.893	3332
238.958	2758
239.023	2834
239.087	2018
239.152	2701
239.216	1132
239.281	2133
239.346	1960
239.410	2033
239.475	1302
239.539	5827
239.604	2573
239.668	2631
239.733	2062
239.797	4516
239.862	8144
239.926	5754
239.991	2370
240.055	1983
240.120	2331
240.184	2214
240.249	1251
240.313	1883
240.378	1800
240.442	3894
240.507	3846
240.571	2183
240.635	2464
240.700	3141
240.764	1731
240.829	1585
240.893	903
240.957	1757
241.022	4318
241.086	4169
241.151	1527
241.215	1287
241.279	1851
241.344	3094
241.408	2352
241.472	2729
241.537	2967
241.601	3438
241.665	2056
241.730	2994
241.794	3192
241.858	3465
241.922	1897
241.987	2777
242.051	2364
242.115	3523
242.179	2242
242.244	1663
242.308	3368
242.372	2892
242.436	2687
242.501	3214
242.565	1872
242.629	2007
242.693	1978
242.757	1923
242.822	1953
242.886	2520
242.950	1685
243.014	2930
243.078	2873
243.142	3495
243.206	1656
243.271	3131
243.335	3013
243.399	3653
243.463	12675
243.527	21620
243.591	6553
243.655	4051
243.719	2255
243.783	4192
243.847	5574
243.911	5678
243.975	7154
244.040	3094
244.104	3222
244.168	2835
244.232	3714
244.296	5642
244.360	4558
244.424	3047
244.488	2587
244.552	1786
244.615	968
244.679	1774
244.743	2190
244.807	2347
244.871	1416
244.935	2369
244.999	1078
245.063	2622
245.127	1737
245.191	4695
245.255	3241
245.319	3459
245.383	2180
245.446	3820
245.510	1424
245.574	2075
245.638	2748
245.702	2790
245.766	4745
245.829	3211
245.893	1593
245.957	2726
246.021	2559
246.085	3391
246.149	3488
246.212	7657
246.276	7294
246.340	4175
246.404	3453
246.467	4682
246.531	4712
246.595	3429
246.659	3393
246.722	2804
246.786	3957
246.850	4047
246.913	4109
246.977	2215
247.041	2394
247.104	2220
247.168	2914
247.232	8149
247.295	10941
247.359	5525
247.423	3514
247.486	6418
247.550	3460
247.614	3876
247.677	3669
247.741	2767
247.804	2136
247.868	3354
247.932	7429
247.995	10758
248.059	3787
248.122	2748
248.186	4268
248.249	8654
248.313	18335
248.376	18006
248.440	10551
248.503	4973
248.567	5431
248.630	7257
248.694	9331
248.757	13145
248.821	18265
248.884	12421
248.948	13445
249.011	16864
249.075	21521
249.138	16083
249.202	8804
249.265	5607
249.328	5890
249.392	5840
249.455	4633
249.519	4767
249.582	5346
249.645	8025
249.709	4825
249.772	4550
249.835	3999
249.899	4140
249.962	4173
250.025	3946
250.089	9636
250.152	9160
250.215	6046
250.279	4576
250.342	3858
250.405	5117
250.468	3596
250.532	6032
250.595	8564
250.658	27806
250.721	30949
250.785	13328
250.848	8764
250.911	5171
250.974	5522
251.038	9000
251.101	12830
251.164	6368
251.227	8322
251.290	7329
251.354	12281
251.417	35859
251.480	26102
251.543	27753
251.606	52356
251.669	35116
251.732	17572
251.795	18363
251.859	20488
251.922	37096
251.985	17245
252.048	9200
252.111	6895
252.174	7614
252.237	13912
252.300	22722
252.363	29118
252.426	39030
252.489	15993
252.552	8884
252.615	6678
252.678	9675
252.741	18649
252.804	27213
252.867	43667
252.930	25696
252.993	13745
253.056	10134
253.119	7257
253.182	5591
253.245	8868
253.308	6420
253.371	6056
253.434	5656
253.497	6831
253.559	11323
253.622	6674
253.685	10469
253.748	8758
253.811	4754
253.874	5597
253.937	4904
254.000	4816
254.062	9402
254.125	10301
254.188	12683
254.251	6806
254.314	4931
254.376	8940
254.439	9203
254.502	7391
254.565	9294
254.628	12966
254.690	7919
254.753	4243
254.816	4192
254.878	4355
254.941	10003
255.004	6896
255.067	3638
255.129	3913
255.192	3278
255.255	2568
255.317	3342
255.380	2128
255.443	1931
255.505	1671
255.568	1911
255.631	2390
255.693	2170
255.756	1129
255.819	2449
255.881	2004
255.944	1798
256.006	1153
256.069	2236
256.132	1963
256.194	2542
256.257	3888
256.319	3096
256.382	3148
256.444	3541
256.507	3160
256.569	3366
256.632	3342
256.694	5423
256.757	20192
256.819	36465
256.882	14271
256.944	7861
257.007	5817
257.069	6027
257.132	3874
257.194	3487
257.257	3818
257.319	4239
257.381	5604
257.444	15704
257.506	46533
257.569	42811
257.631	21690
257.693	11661
257.756	5626
257.818	4751
257.880	3216
257.943	4048
258.005	3239
258.067	3123
258.130	2574
258.192	4259
258.254	5574
258.317	3397
258.379	4380
258.441	10384
258.503	5831
258.566	7182
258.628	6323
258.690	2957
258.753	3679
258.815	6906
258.877	3404
258.939	3749
259.001	3230
259.064	2752
259.126	3095
259.188	3595
259.250	4487
259.312	5966
259.375	11456
259.437	5889
259.499	2606
259.561	3972
259.623	3739
259.685	3325
259.747	3357
259.809	7166
259.872	8584
259.934	17948
259.996	13283
260.058	4750
260.120	3005
260.182	2841
260.244	2061
260.306	2676
260.368	2400
260.430	2484
260.492	5756
260.554	11383
260.616	5789
260.678	11371
260.740	7867
260.802	3172
260.864	3352
260.926	2992
260.988	2832
261.050	3503
261.112	8979
261.174	13277
261.236	6141
261.298	3853
261.359	4721
261.421	5192
261.483	2643
261.545	2836
261.607	2073
261.669	2549
261.731	3757
261.793	7351
261.854	4140
261.916	4107
261.978	3017
262.040	3371
262.102	2466
262.164	2699
262.225	1817
262.287	3747
262.349	6680
262.411	4239
262.472	3361
262.534	3389
262.596	3664
262.658	3470
262.719	604
262.781	3979
262.843	3260
262.904	2791
262.966	2483
263.028	3392
263.090	17075
263.151	28206
263.213	10679
263.275	7064
263.336	3126
263.398	2669
263.459	1031
263.521	2828
263.583	6972
263.644	3529
263.706	1631
263.767	1398
263.829	1988
263.891	1483
263.952	725
264.014	1001
264.075	4241
264.137	8951
264.198	3546
264.260	1731
264.321	1462
264.383	7808
264.444	12776
264.506	3661
264.567	2309
264.629	8451
264.690	9760
264.752	5354
264.813	2337
264.875	1900
264.936	2169
264.998	1894
265.059	1829
265.120	2120
265.182	5877
265.243	31078
265.305	19945
265.366	6287
265.427	3318
265.489	3902
265.550	1709
265.611	3032
265.673	1855
265.734	2308
265.795	1849
265.857	1641
265.918	2771
265.979	10509
266.040	40821
266.102	25181
266.163	8060
266.224	6544
266.286	3351
266.347	2669
266.408	2773
266.469	2147
266.530	1867
266.592	1645
266.653	5211
266.714	6376
266.775	2864
266.836	1999
266.898	2052
266.959	4040
267.020	2113
267.081	2197
267.142	1679
267.203	1476
267.264	979
267.326	2904
267.387	1238
267.448	1826
267.509	2391
267.570	1711
267.631	1906
267.692	1533
267.753	1505
267.814	2196
267.875	5658
267.936	8760
267.997	7044
268.058	5877
268.119	3167
268.180	2876
268.241	1364
268.302	2456
268.363	948
268.424	2639
268.485	2187
268.546	1819
268.607	470
268.668	1401
268.729	1138
268.790	1533
268.851	2283
268.912	7363
268.972	5722
269.033	3158
269.094	1230
269.155	2362
269.216	1419
269.277	1475
269.338	1964
269.398	2445
269.459	1245
269.520	4334
269.581	4231
269.642	4265
269.702	2660
269.763	3257
269.824	1767
269.885	3967
269.945	4369
270.006	2378
270.067	1301
270.128	1105
270.188	1652
270.249	1369
270.310	979
270.370	1899
270.431	1965
270.492	1518
270.553	2079
270.613	5821
270.674	7578
270.734	2640
270.795	1714
270.856	3818
270.916	1942
270.977	2660
271.038	2220
271.098	2602
271.159	4344
271.219	2931
271.280	1300
271.340	2117
271.401	1500
271.462	3296
271.522	2536
271.583	1912
271.643	2314
271.704	2351
271.764	3312
271.825	9105
271.885	23148
271.946	21146
272.006	7820
272.066	14499
272.127	16141
272.187	5580
272.248	3878
272.308	5148
272.369	13044
272.429	6170
272.489	7032
272.550	5219
272.610	6914
272.671	4297
272.731	3973
272.791	5828
272.852	4131
272.912	3692
272.972	1580
273.033	2277
273.093	2602
273.153	3933
273.214	1783
273.274	3184
273.334	12415
273.394	16469
273.455	6827
273.515	9088
273.575	15039
273.635	6203
273.696	9634
273.756	15062
273.816	5348
273.876	4685
273.936	6950
273.997	7115
274.057	2356
274.117	3576
274.177	7408
274.237	26505
274.297	12928
274.358	9644
274.418	14660
274.478	9751
274.538	3544
274.598	3604
274.658	7320
274.718	8032
274.778	3535
274.838	1781
274.898	4308
274.958	10828
275.018	16276
275.078	9649
275.138	3235
275.198	2335
275.258	1658
275.318	3433
275.378	6751
275.438	5712
275.498	4201
275.558	7929
275.618	14578
275.678	9646
275.738	9867
275.798	5851
275.858	2794
275.918	2112
275.978	3767
276.038	3244
276.098	2705
276.157	7099
276.217	13916
276.277	6255
276.337	4717
276.397	2737
276.457	3123
276.517	1491
276.576	1731
276.636	2280
276.696	3700
276.756	10760
276.815	4746
276.875	1858
276.935	2892
276.995	3097
277.055	1902
277.114	3091
277.174	5176
277.234	11429
277.293	3472
277.353	2900
277.413	2179
277.472	3400
277.532	1410
277.592	3260
277.651	9712
277.711	10945
277.771	5190
277.830	21014
277.890	10504
277.950	12357
278.009	24111
278.069	8527
278.128	12172
278.188	11672
278.248	6452
278.307	16793
278.367	7340
278.426	4417
278.486	1821
278.545	2841
278.605	2203
278.664	2476
278.724	1812
278.783	10432
278.843	15564
278.902	4315
278.962	4080
279.021	4341
279.081	3688
279.140	5086
279.199	3713
279.259	4525
279.318	3731
279.378	6421
279.437	14037
279.496	39609
279.556	61891
279.615	29343
279.675	10410
279.734	9931
279.793	20254
279.853	30421
279.912	11470
279.971	7287
280.031	7619
280.090	17745
280.149	20126
280.208	13037
280.268	44412
280.327	26625
280.386	7487
280.445	10640
280.505	7734
280.564	4373
280.623	4201
280.682	8492
280.742	7878
280.801	3542
280.860	1802
280.919	2896
280.978	1811
281.037	1726
281.097	1301
281.156	2289
281.215	687
281.274	3381
281.333	13726
281.392	6697
281.451	2545
281.510	2226
281.569	999
281.628	2231
281.688	1022
281.747	3144
281.806	2007
281.865	2250
281.924	1411
281.983	1530
282.042	1151
282.101	1561
282.160	1614
282.219	1704
282.278	2327
282.337	8794
282.396	3629
282.454	3156
282.513	3505
282.572	13262
282.631	5123
282.690	2408
282.749	1354
282.808	2918
282.867	2452
282.926	2304
282.985	878
283.043	1163
283.102	2160
283.161	1762
283.220	6433
283.279	10397
283.338	2691
283.396	2300
283.455	1902
283.514	2811
283.573	4178
283.631	3258
283.690	1341
283.749	2281
283.808	6151
283.866	5365
283.925	1889
283.984	2845
284.043	3886
284.101	3133
284.160	1474
284.219	2192
284.277	2948
284.336	6055
284.395	16284
284.453	9430
284.512	4594
284.570	7167
284.629	4501
284.688	3889
284.746	3647
284.805	6270
284.863	7258
284.922	8226
284.981	10268
285.039	17445
285.098	29929
285.156	65972
285.215	77196
285.273	79310
285.332	53713
285.390	31386
285.449	19567
285.507	14580
285.566	9531
285.624	8461
285.683	5954
285.741	5074
285.799	4409
285.858	3809
285.916	3513
285.975	3021
286.033	2914
286.091	2269
286.150	1213
286.208	2073
286.267	1916
286.325	2717
286.383	5123
286.442	3852
286.500	1821
286.558	1575
286.616	1379
286.675	3138
286.733	1579
286.791	1783
286.850	2361
286.908	4884
286.966	5460
287.024	1651
287.083	1674
287.141	1745
287.199	2651
287.257	4572
287.315	1471
287.374	3084
287.432	8066
287.490	4113
287.548	2543
287.606	1272
287.664	1758
287.723	3518
287.781	3274
287.839	2814
287.897	2763
287.955	3423
288.013	5994
288.071	16622
288.129	64553
288.187	109939
288.245	44195
288.303	17394
288.361	10052
288.419	7053
288.477	4732
288.535	3470
288.593	2940
288.651	3207
288.709	1614
288.767	1682
288.825	967
288.883	1404
288.941	791
288.999	1275
289.057	756
289.115	1156
289.173	663
289.231	1307
289.289	1150
289.346	1223
289.404	2170
289.462	4251
289.520	3885
289.578	2051
289.636	569
289.694	1198
289.751	64
289.809	1706
289.867	673
289.925	2507
289.983	1294
290.040	1846
290.098	1528
290.156	2760
290.214	2447
290.271	1400
290.329	894
290.387	725
290.444	1058
290.502	705
290.560	692
290.617	1350
290.675	1139
290.733	1445
290.790	1304
290.848	1613
290.906	1064
290.963	1857
291.021	1023
291.078	1777
291.136	1461
291.194	9023
291.251	11384
291.309	2739
291.366	1313
291.424	1938
291.481	2143
291.539	874
291.596	1180
291.654	818
291.711	790
291.769	2057
291.826	3635
291.884	2338
291.941	872
291.999	1147
292.056	1712
292.114	1640
292.171	935
292.228	1557
292.286	2028
292.343	4145
292.401	4836
292.458	2494
292.515	2021
292.573	3686
292.630	2298
292.687	1498
292.745	1510
292.802	3949
292.859	8850
292.917	14027
292.974	5954
293.031	2251
293.089	1647
293.146	924
293.203	1671
293.260	2224
293.318	3024
293.375	4354
293.432	1790
293.489	1125
293.546	1390
293.604	3010
293.661	10353
293.718	20388
293.775	8898
293.832	4764
293.889	3276
293.947	4681
294.004	3216
294.061	4211
294.118	9508
294.175	15971
294.232	16625
294.289	5347
294.346	3774
294.403	3760
294.460	2190
294.517	2389
294.574	1474
294.631	1891
294.688	3116
294.745	9347
294.802	27418
294.859	23604
294.916	9456
294.973	6214
295.030	4324
295.087	3797
295.144	2774
295.201	2569
295.258	1982
295.315	3585
295.372	10571
295.429	14559
295.486	5878
295.542	4977
295.599	15901
295.656	19145
295.713	13567
295.770	14519
295.827	5324
295.883	4377
295.940	2759
295.997	6579
296.054	3725
296.111	2324
296.167	2317
296.224	1838
296.281	1254
296.338	2403
296.394	1796
296.451	2911
296.508	9869
296.564	13349
296.621	10132
296.678	24159
296.734	23865
296.791	8968
296.848	5232
296.904	6515
296.961	14660
297.018	19546
297.074	10319
297.131	4682
297.187	4256
297.244	6423
297.301	20842
297.357	25095
297.414	8764
297.470	4697
297.527	3202
297.583	2832
297.640	3196
297.696	1703
297.753	2352
297.809	1095
297.866	1385
297.922	2106
297.979	1408
298.035	2274
298.092	4481
298.148	12464
298.204	8416
298.261	4982
298.317	11294
298.374	22772
298.430	10520
298.486	5054
298.543	3284
298.599	4361
298.656	5033
298.712	10583
298.768	20613
298.824	10234
298.881	3655
298.937	2559
298.993	2416
299.050	4173
299.106	3554
299.162	3234
299.218	3297
299.275	1571
299.331	2647
299.387	8052
299.443	23206
299.500	19341
299.556	7618
299.612	5184
299.668	4822
299.724	7026
299.780	6028
299.837	3495
299.893	5251
299.949	21023
300.005	18232
300.061	20589
300.117	25404
300.173	10698
300.229	5874
300.285	8144
300.341	7739
300.397	4138
300.453	2544
300.510	2935
300.566	2857
300.622	5305
300.678	15987
300.734	22406
300.790	17818
300.845	19302
300.901	14787
300.957	20712
301.013	11290
301.069	4831
301.125	3623
301.181	4593
301.237	2563
301.293	2362
301.349	2129
301.405	1830
301.461	2247
301.516	3466
301.572	2777
301.628	6882
301.684	4502
301.740	9260
301.796	11185
301.851	8701
301.907	15408
301.963	13033
302.019	25679
302.074	54441
302.130	45893
302.186	21124
302.242	9594
302.297	7048
302.353	8079
302.409	13487
302.464	9638
302.520	10539
302.576	22162
302.631	21621
302.687	12121
302.743	5501
302.798	3657
302.854	3159
302.910	3006
302.965	4641
303.021	7505
303.076	5849
303.132	9672
303.187	9818
303.243	4466
303.299	3565
303.354	2824
303.410	3173
303.465	2507
303.521	2619
303.576	2583
303.632	3769
303.687	7432
303.743	19418
303.798	12141
303.853	4985
303.909	3258
303.964	3401
304.020	7228
304.075	8516
304.130	8355
304.186	15758
304.241	13828
304.297	11347
304.352	5619
304.358	5503
304.407	4567
304.449	5314
304.463	5569
304.518	5675
304.539	5023
304.573	3983
304.629	4029
304.630	4076
304.684	6303
304.720	13584
304.739	17333
304.794	18769
304.811	16061
304.850	9308
304.902	3913
304.905	3578
304.960	3608
304.992	3702
305.015	3762
305.071	3086
305.083	2953
305.126	2455
305.173	1998
305.181	1934
305.236	1609
305.264	1979
305.292	2340
305.347	3103
305.354	3232
305.402	4114
305.445	4370
305.457	4427
305.512	4632
305.535	4363
305.567	4002
305.622	4383
305.626	4600
305.678	9088
305.716	17788
305.733	21125
305.788	18621
305.807	16681
305.843	12948
305.897	17581
305.898	17641
305.953	15651
305.988	10995
306.008	8231
306.063	5891
306.078	5158
306.118	3616
306.168	2735
306.173	2676
306.228	2712
306.259	2548
306.283	2335
306.338	1332
306.349	1447
306.393	2258
306.440	2508
306.448	2472
306.503	2999
306.530	3090
306.558	3844
306.613	7818
306.620	8429
306.668	12569
306.711	17571
306.723	18397
306.778	13014
306.801	10543
306.833	7153
306.888	3583
306.892	3456
306.943	2934
306.982	2825
306.997	2851
307.052	2946
307.072	2930
307.107	2940
307.162	3227
307.163	3232
307.217	4010
307.253	4662
307.272	4853
307.327	4891
307.343	4905
307.381	4812
307.434	4208
307.436	4280
307.491	8289
307.524	12254
307.546	14236
307.600	15736
307.614	14412
307.655	8167
307.704	4945
307.710	4886
307.765	5204
307.795	6045
307.819	7344
307.874	10878
307.885	11057
307.929	9473
307.975	8830
307.984	9253
308.038	14845
308.065	19238
308.093	29190
308.148	59823
308.156	65728
308.202	106192
308.246	125919
308.257	120805
308.312	70600
308.336	51529
308.366	39944
308.421	23543
308.426	22294
308.475	14927
308.517	10398
308.530	9629
308.585	8200
308.607	7675
308.639	7171
308.694	6826
308.697	6884
308.748	9970
308.787	12799
308.803	12942
308.857	10869
308.877	10305
308.912	9614
308.967	9249
308.967	9280
309.021	13883
309.058	17415
309.076	21332
309.130	37983
309.148	45357
309.185	76745
309.238	126694
309.239	127325
309.293	145924
309.328	147819
309.348	129079
309.402	66960
309.418	51132
309.457	35933
309.508	20533
309.511	20089
309.566	15852
309.598	14028
309.620	14127
309.674	15722
309.688	16194
309.729	15800
309.778	13988
309.783	13706
309.837	10740
309.868	9780
309.892	11264
309.946	16230
309.959	17972
310.001	25718
310.049	31549
310.055	30537
310.109	18085
310.139	11631
310.163	8898
310.218	4852
310.229	4138
310.272	3656
310.319	3508
310.326	3425
310.381	2552
310.409	2330
310.435	2275
310.489	2019
310.499	2028
310.543	2428
310.589	2717
310.598	2638
310.652	2199
310.679	2029
310.706	2153
310.760	2184
310.769	2210
310.814	2011
310.859	1920
310.868	1984
310.923	2047
310.948	2219
310.977	2228
311.031	2142
311.038	2155
311.085	2553
311.128	2629
311.139	2523
311.193	2211
311.218	2100
311.247	2120
311.301	1957
311.308	1946
311.356	1923
311.398	1960
311.410	1956
311.464	1807
311.488	1811
311.518	1781
311.572	1665
311.578	1663
311.626	2304
311.668	2861
311.680	2839
311.734	2657
311.758	2572
311.788	2543
311.842	2562
311.847	2564
311.896	2974
311.937	3379
311.950	3474
312.004	3852
312.027	4019
312.058	3062
312.112	1362
312.117	1200
312.165	1631
312.207	2016
312.297	2307
312.386	2579
312.476	2217
312.566	4481
312.656	3279
312.745	1730
312.835	1074
312.925	2442
313.015	2044
313.104	2044
313.194	1840
313.284	2002
313.374	2206
313.463	2373
313.553	1871
313.643	1812
313.732	1701
313.822	775
313.912	2053
314.001	1764
314.091	1590
314.180	3202
314.270	2729
314.360	3116
314.449	3137
314.539	1725
314.628	1528
314.718	1854
314.808	2159
314.897	1532
314.987	1908
315.076	2053
315.166	3450
315.255	2775
315.345	2000
315.434	2822
315.524	2165
315.613	2107
315.703	3002
315.792	4047
315.881	5937
315.971	4654
316.060	4445
316.150	6708
316.239	5805
316.328	3425
316.418	1967
316.507	1837
316.597	2442
316.686	2322
316.775	3106
316.865	6869
316.954	2620
317.043	1663
317.133	2030
317.222	1450
317.311	1227
317.400	1037
317.490	2280
317.579	2822
317.668	1904
317.757	2585
317.847	4916
317.936	12311
318.025	8224
318.114	4648
318.203	3533
318.293	4587
318.382	7913
318.471	8035
318.560	8849
318.649	21318
318.738	6229
318.828	2588
318.917	3234
319.006	3312
319.095	8883
319.184	25541
319.273	18158
319.362	8760
319.451	2470
319.540	2612
319.629	4989
319.718	10740
319.807	4210
319.896	9122
319.985	32961
320.074	16795
320.163	3470
320.252	3762
320.341	3371
320.430	3301
320.519	4164
320.608	3040
320.697	2840
320.786	2222
320.875	3434
320.964	3724
321.053	5801
321.142	8858
321.230	10932
321.319	7864
321.408	16511
321.497	8139
321.586	6473
321.675	6163
321.764	7806
321.852	5488
321.941	8247
322.030	7646
322.119	5748
322.207	16468
322.296	11794
322.385	6112
322.474	7082
322.562	19562
322.651	13949
322.740	8197
322.829	13192
322.917	9525
323.006	6907
323.095	6141
323.183	3852
323.272	5406
323.361	8945
323.449	28538
323.538	13917
323.626	17973
323.715	17697
323.804	4604
323.892	14812
323.981	12687
324.069	3754
324.158	7962
324.246	10516
324.335	4107
324.424	6902
324.512	3407
324.601	3191
324.689	6954
324.778	15344
324.866	8223
324.954	3532
325.043	2360
325.131	3529
325.220	6164
325.308	7634
325.397	6207
325.485	5423
325.574	2099
325.662	2457
325.750	2360
325.839	1865
325.927	1797
326.015	2846
326.104	2313
326.192	4921
326.280	1882
326.369	1660
326.457	3678
326.545	5474
326.634	2671
326.722	955
326.810	1969
326.898	1820
326.987	1847
327.075	3684
327.163	4923
327.251	2104
327.340	5101
327.428	8171
327.516	2272
327.604	2094
327.692	1854
327.781	1374
327.869	3637
327.957	2614
328.045	2719
328.133	1716
328.221	2341
328.309	1719
328.397	1374
328.485	2112
328.574	3368
328.662	10013
328.750	6874
328.838	2501
328.926	1597
329.014	1565
329.102	3034
329.190	6055
329.278	5078
329.366	1662
329.454	1753
329.542	1645
329.630	1558
329.718	2620
329.806	2896
329.893	3618
329.981	5206
330.069	10499
330.157	36518
330.245	94280
330.333	57819
330.421	10577
330.509	5774
330.597	13301
330.684	11265
330.772	3855
330.860	4075
330.948	5069
331.036	3178
331.123	1200
331.211	1170
331.299	1956
331.387	4367
331.475	7885
331.562	2653
331.650	1517
331.738	1834
331.825	2674
331.913	1963
332.001	1541
332.089	1329
332.176	3768
332.264	7093
332.352	7965
332.439	2695
332.527	1664
332.614	1525
332.702	1487
332.790	1787
332.877	3224
332.965	8416
333.052	2393
333.140	2186
333.228	5034
333.315	1474
333.403	1729
333.490	3852
333.578	4894
333.665	5684
333.753	3619
333.840	1229
333.928	1731
334.015	4546
334.103	8441
334.190	32285
334.278	11598
334.365	3860
334.452	2319
334.540	2375
334.627	3072
334.715	3174
334.802	5123
334.889	25648
334.977	42280
335.064	6547
335.151	3214
335.239	3332
335.326	3633
335.413	14753
335.501	27894
335.588	4070
335.675	2709
335.762	3028
335.850	5383
335.937	4346
336.024	7472
336.111	33747
336.199	20034
336.286	4150
336.373	2628
336.460	1650
336.547	2016
336.635	1880
336.722	2020
336.809	1497
336.896	2134
336.983	9231
337.070	23188
337.157	38335
337.245	21836
337.332	20156
337.419	2328
337.506	2258
337.593	2048
337.680	7067
337.767	22289
337.854	8492
337.941	6074
338.028	6703
338.115	3106
338.202	3275
338.289	4447
338.376	19615
338.463	9486
338.550	11555
338.637	16694
338.724	4598
338.811	6750
338.898	1894
338.984	1309
339.071	2562
339.158	2451
339.245	6575
339.332	4695
339.419	4131
339.506	4590
339.593	956
339.679	1179
339.766	2451
339.853	1823
339.940	5105
340.027	1742
340.113	1910
340.200	2722
340.287	1740
340.374	1705
340.460	4613
340.547	1813
340.634	2949
340.720	12281
340.807	9909
340.894	1615
340.980	1529
341.067	1729
341.154	2215
341.240	2257
341.327	6669
341.414	2865
341.500	1688
341.587	1882
341.674	2062
341.760	4187
341.847	5405
341.933	2427
342.020	1022
342.106	1313
342.193	1423
342.279	3935
342.366	2812
342.452	4483
342.539	2793
342.625	5256
342.712	15157
342.798	7518
342.885	2823
342.971	1092
343.058	2021
343.144	1468
343.230	1391
343.317	1918
343.403	1564
343.490	665
343.576	1458
343.662	1391
343.749	1664
343.835	2785
343.921	4682
344.008	26532
344.094	77915
344.180	22081
344.267	5884
344.353	16266
344.439	21523
344.525	8932
344.612	6477
344.698	5163
344.784	3868
344.870	1389
344.957	990
345.043	2467
345.129	2264
345.215	4445
345.301	2313
345.387	1166
345.474	519
345.560	1003
345.646	1640
345.732	1357
345.818	1574
345.904	1050
345.990	2297
346.076	2493
346.162	3027
346.249	1949
346.335	1543
346.421	2092
346.507	6230
346.593	28890
346.679	9481
346.765	2646
346.851	1416
346.937	1381
347.023	1654
347.108	2253
347.194	865
347.280	1334
347.366	1913
347.452	7360
347.538	33539
347.624	26362
347.710	20672
347.796	3606
347.882	2001
347.967	1975
348.053	2100
348.139	1954
348.225	1531
348.311	1443
348.397	1704
348.482	2045
348.568	2542
348.654	1504
348.740	1881
348.825	2204
348.911	3095
348.997	12457
349.083	33983
349.168	6356
349.254	1865
349.340	1669
349.425	1498
349.511	1283
349.597	2729
349.682	4791
349.768	18264
349.854	11079
349.939	2321
350.025	919
350.110	1827
350.196	1215
350.282	1221
350.367	1866
350.453	1748
350.538	2614
350.624	1791
350.709	1760
350.795	1364
350.880	982
350.966	2122
351.051	2023
351.137	1435
351.222	1184
351.308	5453
351.393	16764
351.479	5593
351.564	419
351.649	2100
351.735	1036
351.820	1401
351.906	1141
351.991	2103
352.076	8784
352.162	16595
352.247	4225
352.332	2404
352.418	2933
352.503	5292
352.588	20040
352.673	20739
352.759	4127
352.844	2181
352.929	2211
353.014	3528
353.100	2768
353.185	8441
353.270	8251
353.355	6340
353.441	1760
353.526	2221
353.611	3653
353.696	6121
353.781	3177
353.866	1178
353.952	2171
354.037	4203
354.122	10030
354.207	9445
354.292	4698
354.377	1726
354.462	1478
354.547	1899
354.632	1871
354.717	5012
354.802	10740
354.887	4844
354.972	1505
355.057	1275
355.142	1403
355.227	1889
355.312	2733
355.397	6193
355.482	15279
355.567	9454
355.652	5794
355.737	7502
355.822	19920
355.907	22171
355.991	3064
356.076	2161
356.161	1663
356.246	1931
356.331	2045
356.416	4106
356.501	31045
356.585	46587
356.670	6813
356.755	4030
356.840	5209
356.924	23646
357.009	90995
357.094	43885
357.179	7326
357.263	4343
357.348	4236
357.433	4130
357.517	3201
357.602	3878
357.687	3196
357.771	6106
357.856	13318
357.941	8868
358.025	15398
358.110	79944
358.195	51128
358.279	6898
358.364	3980
358.448	11959
358.533	38681
358.617	32500
358.702	29218
358.787	12768
358.871	5507
358.956	6101
359.040	2434
359.125	1773
359.209	2029
359.294	5537
359.378	9624
359.462	5089
359.547	3338
359.631	1554
359.716	458
359.800	2085
359.885	2728
359.969	2523
360.053	2342
360.138	2459
360.222	2258
360.306	4696
360.391	5007
360.475	6797
360.559	14819
360.644	13582
360.728	12831
360.812	16882
360.896	58654
360.981	25591
361.065	11930
361.149	3218
361.233	2607
361.318	2463
361.402	2381
361.486	1999
361.570	1855
361.654	2280
361.739	6688
361.823	28856
361.907	62445
361.991	13538
362.075	4705
362.159	9859
362.243	7996
362.327	6996
362.411	7721
362.495	5148
362.580	3536
362.664	2848
362.748	1936
362.832	2663
362.916	4632
363.000	13051
363.084	34806
363.168	70800
363.252	19679
363.336	5393
363.420	5956
363.503	20228
363.587	34523
363.671	6278
363.755	2971
363.839	5123
363.923	2953
364.007	5255
364.091	6756
364.175	8058
364.258	40102
364.342	33919
364.426	25998
364.510	15252
364.594	7898
364.677	9778
364.761	44668
364.845	43908
364.929	10811
365.013	8431
365.096	4904
365.180	8536
365.264	7996
365.347	40354
365.431	22704
365.515	5799
365.598	1893
365.682	3645
365.766	3107
365.849	4515
365.933	2541
366.017	3274
366.100	3061
366.184	1182
366.267	1966
366.351	1923
366.435	1593
366.518	1579
366.602	1538
366.685	1289
366.769	2049
366.852	3102
366.936	5606
367.019	4238
367.103	2905
367.186	5153
367.270	1764
367.353	910
367.436	1291
367.520	660
367.603	1536
367.687	2639
367.770	5646
367.853	4486
367.937	12120
368.020	26254
368.104	6274
368.187	4185
368.270	7117
368.353	6266
368.437	5581
368.520	11849
368.603	10598
368.687	13461
368.770	32169
368.853	8826
368.936	5311
369.020	5918
369.103	2404
369.186	1766
369.269	1924
369.352	4103
369.436	6236
369.519	4187
369.602	1710
369.685	1493
369.768	1999
369.851	2297
369.934	1380
370.018	1704
370.101	4759
370.184	4835
370.267	2978
370.350	4841
370.433	7620
370.516	22531
370.599	33812
370.682	8987
370.765	14846
370.848	18984
370.931	38802
371.014	17646
371.097	3230
371.180	2464
371.263	1374
371.346	988
371.429	1947
371.511	1162
371.594	3272
371.677	6052
371.760	6629
371.843	5618
371.926	27038
372.009	77482
372.091	28784
372.174	13477
372.257	37205
372.340	17682
372.423	7959
372.505	10422
372.588	4459
372.671	9239
372.754	35671
372.836	24097
372.919	9808
373.002	23775
373.085	8930
373.167	5189
373.250	13697
373.332	35301
373.415	42832
373.498	98676
373.580	43817
373.663	38027
373.746	68764
373.828	17230
373.911	5718
373.993	5352
374.076	19217
374.159	24563
374.241	9008
374.324	28810
374.406	23623
374.489	23755
374.571	83445
374.654	41585
374.736	14559
374.819	46611
374.901	66615
374.983	81386
375.066	17450
375.148	4322
375.231	14465
375.313	37646
375.395	15244
375.478	4160
375.560	2176
375.643	3870
375.725	10079
375.807	56357
375.890	52313
375.972	15714
376.054	7720
376.136	10770
376.219	5908
376.301	13162
376.383	53999
376.465	25837
376.548	9592
376.630	12119
376.712	42964
376.794	26770
376.877	2987
376.959	1368
377.041	1137
377.123	4117
377.205	5672
377.287	1334
377.369	836
377.452	1547
377.534	2093
377.616	1722
377.698	1451
377.780	622
377.862	1241
377.944	1666
378.026	854
378.108	1373
378.190	781
378.272	1604
378.354	1064
378.436	801
378.518	1943
378.600	8305
378.682	8186
378.764	19817
378.846	19611
378.928	4965
379.010	6722
379.091	4374
379.173	2191
379.255	1516
379.337	2315
379.419	7871
379.501	30138
379.583	15652
379.664	2483
379.746	6106
379.828	18936
379.910	29619
379.991	28639
380.073	5189
380.155	2147
380.237	1813
380.318	545
380.400	1118
380.482	3171
380.564	6743
380.645	8622
380.727	9242
380.809	3885
380.890	2096
380.972	2640
381.053	2191
381.135	1637
381.217	6485
381.298	21830
381.380	12084
381.461	7176
381.543	35895
381.624	62138
381.706	13685
381.787	4401
381.869	5570
381.951	14086
382.032	70971
382.113	55976
382.195	9948
382.276	6268
382.358	15297
382.439	41334
382.521	44064
382.602	74110
382.684	35317
382.765	47526
382.846	50219
382.928	44075
383.009	28864
383.090	16645
383.172	54044
383.253	109157
383.334	46342
383.416	60836
383.497	39350
383.578	9130
383.659	14659
383.741	46993
383.822	152517
383.903	101956
383.984	35199
384.066	70279
384.147	53010
384.228	10936
384.309	5173
384.390	5741
384.471	3484
384.553	3438
384.634	4416
384.715	4652
384.796	2855
384.877	3660
384.958	16366
385.039	25827
385.120	9218
385.201	3336
385.282	4190
385.363	4308
385.444	3146
385.525	6055
385.606	28358
385.687	31983
385.768	6839
385.849	6776
385.930	29307
386.011	67995
386.092	21375
386.173	4051
386.254	1785
386.335	3129
386.416	3106
386.496	10612
386.577	21582
386.658	8558
386.739	3895
386.820	3358
386.901	2757
386.981	3278
387.062	2486
387.143	4516
387.224	18681
387.304	21297
387.385	6895
387.466	3197
387.547	4521
387.627	2208
387.708	6505
387.789	33640
387.869	52594
387.950	16758
388.031	3129
388.111	1230
388.192	5446
388.273	7711
388.353	5606
388.434	2694
388.514	6260
388.595	32988
388.676	53014
388.756	24839
388.837	17789
388.917	14161
388.998	2674
389.078	2687
389.159	1404
389.239	2212
389.320	4093
389.400	3065
389.480	7313
389.561	23065
389.641	13537
389.722	2999
389.802	5390
389.883	8304
389.963	28105
390.043	19748
390.124	4875
390.204	5580
390.284	21722
390.365	16490
390.445	12249
390.525	40385
390.605	51432
390.686	16337
390.766	5340
390.846	2070
390.927	1720
391.007	1446
391.087	2019
391.167	2067
391.247	1444
391.328	2492
391.408	4047
391.488	4106
391.568	1000
391.648	2539
391.728	3455
391.808	4388
391.888	3898
391.969	10751
392.049	21433
392.129	9835
392.209	9012
392.289	27929
392.369	16499
392.449	10108
392.529	6706
392.609	5268
392.689	6750
392.769	23922
392.849	25746
392.929	12207
393.009	33023
393.089	29269
393.169	15083
393.248	37336
393.328	191877
393.408	294334
393.488	80516
393.568	16816
393.648	9068
393.728	5182
393.807	4792
393.887	4589
393.967	4412
394.047	5936
394.127	7669
394.206	12596
394.286	40346
394.366	176953
394.446	249393
394.525	74060
394.605	16645
394.685	10045
394.764	14080
394.844	22573
394.924	20247
395.003	7047
395.083	5183
395.163	4335
395.242	3665
395.322	4311
395.402	2377
395.481	4638
395.561	8471
395.640	26905
395.720	23799
395.799	28500
395.879	31209
395.958	20906
396.038	60863
396.117	230878
396.197	327024
396.276	115804
396.356	32031
396.435	18958
396.515	12833
396.594	10298
396.673	15713
396.753	43137
396.832	200409
396.912	202680
396.991	47885
397.070	11220
397.150	5483
397.229	4005
397.308	6205
397.388	9916
397.467	5914
397.546	2517
397.625	1143
397.705	2623
397.784	3844
397.863	2177
397.942	1803
398.022	1283
398.101	6450
398.180	24382
398.259	14356
398.338	4069
398.417	2528
398.497	1808
398.576	2300
398.655	711
398.734	1229
398.813	1445
398.892	5978
398.971	24614
399.050	17374
399.129	1589
399.208	1398
399.287	1026
399.366	920
399.445	989
399.524	1090
399.603	848
399.682	2021
399.761	6019
399.840	24770
399.919	27791
399.998	3952
400.077	1113
400.156	551
400.235	2482
400.313	800
400.392	767
400.471	8818
400.550	18239
400.629	5696
400.708	1277
400.786	1392
400.865	4149
400.944	5217
401.023	3692
401.102	972
401.180	-61
401.259	789
401.338	532
401.416	2073
401.495	1291
401.574	1579
401.652	306
401.731	2326
401.810	2831
401.888	931
401.967	380
402.046	1066
402.124	1966
402.203	1905
402.281	1541
402.360	1360
402.438	5713
402.517	5088
402.596	1509
402.674	1419
402.753	1242
402.831	1348
402.910	1730
402.988	11114
403.066	50692
403.145	36015
403.223	14942
403.302	45466
403.380	39151
403.459	38368
403.537	16194
403.615	5248
403.694	1132
403.772	1400
403.850	1119
403.929	1588
404.007	327
404.085	5287
404.164	9292
404.242	4298
404.320	11479
404.398	36489
404.477	30796
404.555	53936
404.633	67733
404.711	33669
404.789	14280
404.868	4674
404.946	1608
405.024	517
405.102	120
405.180	89
405.258	190
405.336	1442
405.415	118
405.493	3331
405.571	5227
405.649	1627
405.727	251
405.805	2313
405.883	2642
405.961	2646
406.039	1832
406.117	440
406.195	2300
406.273	7958
406.351	45302
406.429	35736
406.507	4978
406.585	796
406.663	1549
406.740	1720
406.818	1366
406.896	828
406.974	1089
407.052	2681
407.130	21159
407.208	43540
407.285	10239
407.363	1216
407.441	796
407.519	757
407.596	1007
407.674	2492
407.752	13633
407.830	16969
407.907	6548
407.985	2789
408.063	1142
408.141	-149
408.218	1948
408.296	3531
408.373	2421
408.451	2235
408.529	918
408.606	744
408.684	575
408.762	836
408.839	85
408.917	610
408.994	384
409.072	-240
409.149	70
409.227	899
409.304	1259
409.382	1627
409.459	480
409.537	2179
409.614	1824
409.692	1677
409.769	609
409.846	1950
409.924	3005
410.001	1594
410.079	1520
410.156	1488
410.233	1403
410.311	1300
410.388	708
410.465	665
410.543	71
410.620	1186
410.697	934
410.775	1280
410.852	176
410.929	1360
411.006	1911
411.083	436
411.161	1487
411.238	2837
411.315	1483
411.392	594
411.469	488
411.547	1301
411.624	-270
411.701	306
411.778	496
411.855	2096
411.932	1265
412.009	133
412.086	648
412.163	669
412.240	57
412.317	1413
412.394	801
412.471	736
412.548	-246
412.625	341
412.702	297
412.779	1539
412.856	1427
412.933	355
413.010	415
413.087	1202
413.164	7957
413.241	15157
413.318	3230
413.395	2181
413.471	2109
413.548	955
413.625	107
413.702	622
413.779	42
413.855	297
413.932	-576
414.009	-214
414.086	434
414.162	688
414.239	1189
414.316	6583
414.393	22121
414.469	10496
414.546	618
414.623	-65
414.699	-70
414.776	454
414.853	-164
414.929	1157
415.006	-168
415.082	543
415.159	292
415.236	640
415.312	-138
415.389	1530
415.465	1965
415.542	1441
415.618	-132
415.695	1539
415.771	827
415.848	511
415.924	457
416.000	838
416.077	919
416.153	158
416.230	-297
416.306	-387
416.383	-308
416.459	213
416.535	-597
416.612	220
416.688	204
416.764	600
416.841	-623
416.917	799
416.993	-43
417.069	711
417.146	627
417.222	1800
417.298	902
417.374	123
417.451	74
417.527	550
417.603	406
417.679	1558
417.755	1160
417.831	-866
417.908	-127
417.984	-491
418.060	-806
418.136	1011
418.212	3210
418.288	697
418.364	-191
418.440	56
418.516	981
418.592	1848
418.668	3223
418.744	5643
418.820	4940
418.896	408
418.972	321
419.048	249
419.124	1962
419.200	1957
419.276	569
419.352	-489
419.428	186
419.504	-9
419.579	343
419.655	976
419.731	658
419.807	2355
419.883	5883
419.959	4798
420.034	1672
420.110	2405
420.186	12070
420.262	12890
420.337	2049
420.413	563
420.489	312
420.565	1048
420.640	704
420.716	306
420.792	-492
420.867	537
420.943	38
421.019	1150
421.094	1755
421.170	1289
421.245	-14
421.321	843
421.397	-119
421.472	2423
421.548	6731
421.623	8353
421.699	2231
421.774	1773
421.850	2040
421.925	3579
422.001	3838
422.076	3062
422.152	3450
422.227	6500
422.302	8433
422.378	11259
422.453	21398
422.529	49154
422.604	131004
422.679	237271
422.755	185104
422.830	63882
422.905	24482
422.981	13269
423.056	9046
423.131	6112
423.207	4570
423.282	3323
423.357	5216
423.432	4755
423.508	4517
423.583	7439
423.658	6207
423.733	2299
423.808	2627
423.883	2231
423.959	2029
424.034	1866
424.109	1442
424.184	734
424.259	871
424.334	612
424.409	216
424.484	543
424.559	731
424.634	530
424.709	1108
424.784	1895
424.859	445
424.934	500
425.009	6962
425.084	15734
425.159	7108
425.234	1464
425.309	408
425.384	2305
425.459	5342
425.534	1361
425.609	890
425.683	126
425.758	861
425.833	508
425.908	1475
425.983	3101
426.058	13974
426.132	8743
426.207	1037
426.282	1875
426.357	933
426.431	813
426.506	909
426.581	523
426.655	1109
426.730	460
426.805	252
426.879	551
426.954	926
427.029	1550
427.103	10762
427.178	40558
427.253	24313
427.327	3387
427.402	1610
427.476	6085
427.551	2697
427.625	905
427.700	750
427.774	147
427.849	516
427.923	-304
427.998	-604
428.072	1037
428.147	2446
428.221	9701
428.296	36576
428.370	23316
428.444	3061
428.519	1679
428.593	4164
428.667	3937
428.742	4469
428.816	5501
428.890	17927
428.965	38120
429.039	12232
429.113	5873
429.188	2276
429.262	940
429.336	1643
429.410	7025
429.485	4565
429.559	3517
429.633	3513
429.707	914
429.781	3122
429.855	17976
429.930	37163
430.004	16539
430.078	21166
430.152	24888
430.226	46606
430.300	63717
430.374	11948
430.448	2764
430.522	5388
430.596	21322
430.670	18311
430.744	34087
430.818	68050
430.892	18487
430.966	1248
431.040	968
431.114	405
431.188	213
431.262	626
431.336	508
431.410	1293
431.484	5128
431.557	5147
431.631	418
431.705	116
431.779	4614
431.853	29829
431.927	27178
432.000	3774
432.074	897
432.148	1213
432.222	627
432.295	65
432.369	-200
432.443	216
432.516	10591
432.590	40539
432.664	21773
432.737	2068
432.811	34
432.885	-500
432.958	-78
433.032	756
433.106	47
433.179	-731
433.253	-162
433.326	-776
433.400	-266
433.473	95
433.547	-559
433.620	-262
433.694	685
433.767	1219
433.841	-828
433.914	98
433.988	-218
434.061	381
434.134	-129
434.208	-543
434.281	-280
434.355	-795
434.428	414
434.501	-233
434.575	29
434.648	-576
434.721	244
434.795	-519
434.868	-19
434.941	-319
435.014	-392
435.088	349
435.161	-62
435.234	358
435.307	1503
435.381	496
435.454	93
435.527	349
435.600	596
435.673	283
435.746	1128
435.819	-513
435.892	-346
435.966	230
436.039	-78
436.112	339
436.185	-807
436.258	-84
436.331	-1146
436.404	-476
436.477	-190
436.550	-463
436.623	-78
436.696	-28
436.769	198
436.842	-68
436.915	73
436.987	-36
437.060	472
437.133	-448
437.206	-945
437.279	-648
437.352	222
437.425	-839
437.498	920
437.570	2350
437.643	1698
437.716	635
437.789	-152
437.861	526
437.934	3246
438.007	1691
438.080	-199
438.152	1275
438.225	1939
438.298	12764
438.370	59356
438.443	34122
438.516	4936
438.588	886
438.661	-79
438.734	-119
438.806	162
438.879	250
438.951	1061
439.024	1286
439.096	971
439.169	-388
439.241	64
439.314	-487
439.386	867
439.459	1164
439.531	1954
439.604	357
439.676	324
439.749	-283
439.821	117
439.893	291
439.966	-336
440.038	-267
440.110	767
440.183	134
440.255	-734
440.327	1221
440.400	4463
440.472	29807
440.544	29741
440.617	3770
440.689	1652
440.761	1281
440.833	1955
440.905	1608
440.978	78
441.050	-36
441.122	84
441.194	-102
441.266	493
441.338	-555
441.411	737
441.483	7591
441.555	16614
441.627	4030
441.699	877
441.771	406
441.843	-2
441.915	-588
441.987	206
442.059	-265
442.131	691
442.203	409
442.275	1304
442.347	1594
442.419	1992
442.491	10092
442.563	32108
442.635	17469
442.706	7169
442.778	6012
442.850	1806
442.922	81
442.994	1220
443.066	784
443.137	1958
443.209	363
443.281	1249
443.353	3648
443.425	13757
443.496	58691
443.568	67381
443.640	26065
443.711	4524
443.783	1101
443.855	532
443.926	41
443.998	438
444.070	556
444.141	919
444.213	867
444.285	1784
444.356	1080
444.428	980
444.499	134
444.571	-169
444.642	138
444.714	822
444.785	1041
444.857	1554
444.928	2564
445.000	2355
445.071	2040
445.143	3624
445.214	3790
445.285	3436
445.357	9878
445.428	34446
445.500	101309
445.571	72572
445.642	33442
445.714	11037
445.785	8663
445.856	3161
445.928	1727
445.999	1546
446.070	1120
446.141	2446
446.213	2734
446.284	1923
446.355	720
446.426	371
446.497	496
446.569	1261
446.640	1176
446.711	1327
446.782	319
446.853	-105
446.924	890
446.995	903
447.066	977
447.138	1241
447.209	114
447.280	147
447.351	253
447.422	-82
447.493	-92
447.564	652
447.635	807
447.706	74
447.777	198
447.847	64
447.918	-568
447.989	732
448.060	-31
448.131	2002
448.202	2153
448.273	1816
448.344	566
448.414	-202
448.485	-33
448.556	461
448.627	-1118
448.698	134
448.768	-827
448.839	-629
448.910	502
448.981	1229
449.051	449
449.122	164
449.193	-681
449.263	-607
449.334	-298
449.405	612
449.475	2468
449.546	1583
449.616	1659
449.687	1929
449.758	865
449.828	158
449.899	56
449.969	564
450.040	7
450.110	406
450.181	560
450.251	740
450.322	426
450.392	486
450.463	-184
450.533	227
450.604	-406
450.674	-277
450.744	252
450.815	145
450.885	-354
450.955	302
451.026	111
451.096	-426
451.166	-165
451.237	522
451.307	3584
451.377	2116
451.447	-101
451.518	348
451.588	-277
451.658	173
451.728	854
451.799	2540
451.869	5188
451.939	645
452.009	-528
452.079	-18
452.149	-104
452.219	632
452.289	3459
452.360	4090
452.430	-11
452.500	393
452.570	-34
452.640	757
452.710	2543
452.780	5914
452.850	4532
452.920	4434
452.990	1061
453.060	697
453.129	801
453.199	853
453.269	2758
453.339	13465
453.409	24217
453.479	16242
453.549	25998
453.619	29625
453.688	14893
453.758	2953
453.828	977
453.898	131
453.968	581
454.037	215
454.087	189
454.107	161
454.168	308
454.177	309
454.247	-70
454.249	-55
454.316	-78
454.330	-42
454.386	18
454.411	539
454.456	1164
454.492	2512
454.525	3627
454.574	2429
454.595	1919
454.655	753
454.665	567
454.734	786
454.736	826
454.804	1250
454.817	1909
454.873	3923
454.898	4518
454.943	5298
454.979	3367
455.013	1729
455.060	1316
455.082	1283
455.141	1654
455.152	1702
455.221	3522
455.222	3655
455.291	8984
455.303	9082
455.360	8759
455.384	12882
455.430	18359
455.465	16448
455.499	14712
455.546	8320
455.569	5327
455.627	4382
455.638	4283
455.707	1364
455.708	1379
455.777	750
455.789	783
455.846	865
455.869	750
455.916	622
455.950	934
455.985	1151
456.031	1005
456.054	864
456.112	1189
456.124	1248
456.193	-91
456.193	-110
456.262	1273
456.274	1303
456.332	1204
456.355	1103
456.401	767
456.436	978
456.470	1170
456.516	878
456.540	762
456.597	389
456.609	262
456.678	386
456.678	373
456.747	1105
456.759	1092
456.817	757
456.840	714
456.886	735
456.920	1167
456.955	1540
457.001	877
457.024	473
457.082	947
457.093	1070
457.162	864
457.163	883
457.232	1823
457.243	1831
457.301	1478
457.324	1311
457.370	1457
457.405	1588
457.439	1406
457.485	1478
457.508	1545
457.566	1567
457.577	1593
457.646	2466
457.647	2481
457.715	3239
457.727	3647
457.784	6543
457.808	7769
457.853	9216
457.889	11029
457.922	10470
457.969	7985
457.991	8215
458.050	9498
458.060	10151
458.129	15646
458.130	15873
458.198	15567
458.211	14894
458.267	9297
458.292	6482
458.336	4823
458.372	4277
458.405	5159
458.453	7019
458.474	9408
458.533	16461
458.543	17218
458.611	26523
458.614	26870
458.680	17033
458.694	14169
458.749	8124
458.775	5616
458.818	4006
458.855	3398
458.887	2934
458.936	2391
458.955	2318
459.016	2255
459.024	2252
459.093	2291
459.097	2314
459.162	2599
459.177	2842
459.230	3785
459.257	3761
459.299	3513
459.338	3523
459.368	3434
459.418	3542
459.437	3554
459.499	3408
459.505	3382
459.574	3195
459.579	3195
459.643	2914
459.659	2866
459.711	3022
459.740	3264
459.780	3675
459.820	3508
459.849	3278
459.900	3396
459.917	3427
459.981	3459
459.986	3462
460.054	3559
460.061	3590
460.123	3579
460.141	3532
460.191	4009
460.222	4413
460.260	4740
460.302	5236
460.328	5001
460.382	4759
460.397	4932
460.462	4638
460.465	4720
460.534	7607
460.543	7984
460.602	23522
460.623	29157
460.671	50144
460.703	67677
460.739	62631
460.783	53940
460.808	43562
460.864	9590
460.876	7872
460.944	4526
460.945	4488
461.013	4091
461.024	3996
461.081	4087
461.104	4291
461.150	4052
461.184	3816
461.218	3716
461.264	3322
461.286	3334
461.345	3616
461.355	3588
461.423	3661
461.425	3660
461.491	4327
461.505	4487
461.559	5662
461.585	6217
461.628	9254
461.665	11857
461.696	13140
461.745	16134
461.764	14065
461.825	6015
461.832	5938
461.901	4342
461.905	4333
461.969	4266
461.985	4195
462.037	4405
462.065	4249
462.105	4141
462.145	4595
462.173	5722
462.225	7430
462.241	8113
462.305	11372
462.310	11108
462.378	7097
462.385	6543
462.446	5191
462.465	4815
462.514	5165
462.545	5497
462.582	5492
462.625	5446
462.650	5095
462.705	4144
462.718	4147
462.785	4530
462.786	4546
462.854	5395
462.865	5481
462.922	6705
462.945	7445
462.990	6525
463.025	5381
463.058	5028
463.104	4627
463.126	4633
463.184	4723
463.194	4788
463.262	4969
463.264	4974
463.330	5100
463.344	5218
463.398	5438
463.424	5349
463.466	4953
463.504	4706
463.533	4968
463.583	5223
463.601	5230
463.663	5342
463.669	5393
463.737	5992
463.743	6050
463.805	8069
463.823	8631
463.873	12544
463.903	15024
463.940	16436
463.982	17933
464.008	15074
464.062	8821
464.076	8356
464.142	5522
464.144	5531
464.211	6224
464.221	6279
464.279	5926
464.301	5809
464.347	6067
464.381	6364
464.414	6590
464.461	6836
464.482	7185
464.540	8175
464.550	8075
464.617	7147
464.620	7100
464.685	7886
464.699	8043
464.753	9308
464.779	10099
464.820	11596
464.859	12957
464.888	12506
464.938	11357
464.956	11335
465.018	11190
465.023	11109
465.091	9977
465.098	9831
465.158	9805
465.177	9800
465.226	9891
465.257	9987
465.293	10519
465.336	10953
465.361	10937
465.416	11012
465.428	11484
465.495	13868
465.496	13927
465.563	19599
465.575	20566
465.631	25633
465.654	27836
465.698	19728
465.734	12663
465.765	11820
465.813	10594
465.833	10746
465.893	11261
465.900	11188
465.968	10294
465.972	10218
466.035	11095
466.052	11309
466.102	11519
466.131	11600
466.170	11871
466.210	12149
466.237	12470
466.290	12942
466.304	13151
466.369	14008
466.372	14058
466.439	14798
466.449	14859
466.506	15163
466.528	15241
466.573	17359
466.607	18937
466.641	23619
466.687	29989
466.708	33186
466.766	41933
466.775	39758
466.842	22787
466.845	21935
466.909	17916
466.925	16917
466.977	17139
467.004	17240
467.044	17887
467.083	18463
467.111	19406
467.163	21078
467.178	21607
467.242	23601
467.245	23494
467.312	20320
467.321	19859
467.379	18833
467.400	18404
467.446	18653
467.480	18767
467.559	18208
467.638	16362
467.717	15876
467.796	17525
467.875	17350
467.955	17206
468.034	19791
468.113	33003
468.192	48729
468.271	21399
468.350	15126
468.429	16410
468.508	16315
468.588	14555
468.667	13369
468.746	13599
468.825	12953
468.904	12524
468.983	12608
469.062	16153
469.141	19146
469.220	12898
469.299	12088
469.378	13408
469.456	16537
469.535	15160
469.614	14178
469.693	13843
469.772	14826
469.851	18446
469.930	16507
470.009	12681
470.088	12205
470.166	12364
470.245	12768
470.324	15160
470.403	13515
470.482	12663
470.560	12040
470.639	13200
470.718	14221
470.797	12467
470.875	14098
470.954	16907
471.033	17229
471.111	11157
471.190	11079
471.269	9915
471.347	10030
471.426	10905
471.505	12454
471.583	13745
471.662	13558
471.740	11602
471.819	12479
471.898	11282
471.976	11683
472.055	12094
472.133	12547
472.212	14282
472.290	14534
472.369	11996
472.447	10538
472.526	10728
472.604	11916
472.683	12177
472.761	13408
472.839	11474
472.918	10584
472.996	11225
473.075	10539
473.153	11369
473.231	10445
473.310	11204
473.388	12093
473.466	11095
473.545	12278
473.623	15197
473.701	13925
473.780	11274
473.858	11523
473.936	13232
474.014	11188
474.093	12090
474.171	13292
474.249	17675
474.327	13812
474.405	10316
474.484	11402
474.562	11657
474.640	9913
474.718	12192
474.796	12409
474.874	11912
474.952	11858
475.030	11330
475.108	13164
475.187	15007
475.265	17712
475.343	25275
475.421	32526
475.499	14471
475.577	11978
475.655	12180
475.733	17948
475.811	27662
475.889	26244
475.966	21374
476.044	12378
476.122	16771
476.200	22929
476.278	19996
476.356	10469
476.434	11485
476.512	13930
476.590	20830
476.667	18892
476.745	9368
476.823	10088
476.901	10346
476.979	9612
477.056	9400
477.134	10491
477.212	10300
477.290	9743
477.367	9381
477.445	8465
477.523	9937
477.601	9204
477.678	8685
477.756	10800
477.834	10816
477.911	9139
477.989	8971
478.066	9600
478.144	10409
478.222	14412
478.299	29522
478.377	32191
478.454	11907
478.532	9074
478.609	8821
478.687	10094
478.764	8723
478.842	9189
478.919	9813
478.997	8849
479.074	7977
479.152	9023
479.229	11485
479.307	8927
479.384	7987
479.461	8359
479.539	7901
479.616	9124
479.694	8518
479.771	9038
479.848	9585
479.926	10287
480.003	12027
480.080	8420
480.157	7672
480.235	8142
480.312	8071
480.389	8265
480.467	10666
480.544	13566
480.621	10630
480.698	9002
480.775	9211
480.853	9506
480.930	8793
481.007	8394
481.084	10911
481.161	13940
481.238	12137
481.315	8017
481.392	8508
481.470	7693
481.547	8126
481.624	9167
481.701	8570
481.778	9363
481.855	8794
481.932	11495
482.009	16954
482.086	14753
482.163	9919
482.240	16913
482.317	37976
482.393	33906
482.470	10172
482.547	9240
482.624	9528
482.701	8409
482.778	8884
482.855	8317
482.932	8320
483.009	7980
483.085	8149
483.162	10968
483.239	11434
483.316	7759
483.393	8026
483.469	8071
483.546	8590
483.623	9347
483.699	8376
483.776	8935
483.853	9591
483.930	11509
484.006	22124
484.083	40531
484.160	30506
484.236	47858
484.313	39827
484.389	28693
484.466	26089
484.543	24297
484.619	24892
484.696	24488
484.772	24177
484.849	25366
484.925	23785
485.002	21972
485.078	23715
485.155	23457
485.231	21760
485.308	21517
485.384	22304
485.461	23397
485.537	30341
485.614	35853
485.690	22642
485.766	19646
485.843	20758
485.919	25160
485.995	27049
486.072	19377
486.148	20518
486.224	19792
486.301	19174
486.377	21207
486.453	21493
486.530	21852
486.606	28194
486.682	32123
486.758	32066
486.835	34222
486.911	28941
486.987	36568
487.063	40452
487.139	47231
487.215	40729
487.292	26973
487.368	22480
487.444	24789
487.520	28172
487.596	30590
487.672	36236
487.748	71045
487.824	124151
487.900	66463
487.976	31526
488.052	25415
488.128	26610
488.204	23464
488.280	20030
488.356	21314
488.432	30269
488.508	46980
488.584	25025
488.660	18264
488.736	18817
488.812	18860
488.888	22084
488.964	25699
489.039	39016
489.115	60716
489.191	47276
489.267	20504
489.343	18526
489.418	16777
489.494	16640
489.570	15119
489.646	16992
489.722	15910
489.797	16342
489.873	19688
489.949	33698
490.024	34902
490.100	16196
490.176	16870
490.251	16896
490.327	21871
490.403	15310
490.478	15009
490.554	12891
490.629	14732
490.705	14235
490.781	15048
490.856	13590
490.932	15860
491.007	15945
491.083	16027
491.158	14443
491.234	16481
491.309	25950
491.385	31484
491.460	15448
491.536	15732
491.611	14415
491.686	14956
491.762	17807
491.837	24630
491.913	42373
491.988	50645
492.063	75573
492.139	29117
492.214	18375
492.289	13354
492.365	11543
492.440	14007
492.515	13809
492.590	14095
492.666	11844
492.741	14491
492.816	18448
492.891	13776
492.967	12254
493.042	11639
493.117	13082
493.192	12466
493.267	19354
493.342	52206
493.418	90168
493.493	24901
493.568	11584
493.643	10762
493.718	12790
493.793	14308
493.868	18407
493.943	13459
494.018	12409
494.093	10998
494.168	10954
494.243	11104
494.318	9442
494.393	9610
494.468	10756
494.543	10488
494.618	10704
494.693	11377
494.768	10321
494.842	11682
494.917	10346
494.992	11210
495.067	10567
495.142	10385
495.217	11295
495.292	10710
495.366	11484
495.441	13292
495.516	15408
495.591	18699
495.665	41416
495.740	111501
495.815	69614
495.890	17023
495.964	13335
496.039	14758
496.114	13909
496.188	16686
496.263	17397
496.338	14795
496.412	14592
496.487	17794
496.561	17792
496.636	18831
496.710	17030
496.785	17053
496.860	18924
496.934	17437
497.009	17026
497.083	18239
497.158	19293
497.232	20773
497.307	23685
497.381	24361
497.455	26616
497.530	30875
497.604	29299
497.679	28984
497.753	37187
497.827	46481
497.902	48942
497.976	53720
498.050	70477
498.125	195067
498.199	268930
498.273	75047
498.348	60263
498.422	52831
498.496	48798
498.570	44415
498.645	38210
498.719	36469
498.793	34833
498.867	38883
498.941	43661
499.016	73898
499.090	221984
499.164	121748
499.238	23913
499.312	20396
499.386	23231
499.460	21572
499.534	17673
499.609	18299
499.683	24455
499.757	25041
499.831	33977
499.905	125310
499.979	167071
500.053	30161
500.127	25184
500.201	20120
500.275	15026
500.349	14205
500.422	15723
500.496	18697
500.570	31865
500.644	66465
500.718	152080
500.792	52763
500.866	14176
500.940	16676
501.013	15356
501.087	12875
501.161	21054
501.235	26882
501.309	39324
501.382	111550
501.456	134203
501.530	28363
501.603	42405
501.677	24018
501.751	10729
501.825	12753
501.898	16680
501.972	47147
502.046	42138
502.119	13019
502.193	21391
502.266	53526
502.340	36816
502.413	21690
502.487	47362
502.561	31092
502.634	13884
502.708	11291
502.781	10125
502.855	8632
502.928	7742
503.002	8476
503.075	8086
503.149	8399
503.222	8828
503.295	9783
503.369	11445
503.442	12534
503.516	28211
503.589	84150
503.662	71866
503.736	23123
503.809	39481
503.882	41304
503.956	50080
504.029	62469
504.102	42951
504.175	60022
504.249	33581
504.322	17615
504.395	13888
504.468	9894
504.542	9612
504.615	8879
504.688	7501
504.761	7811
504.834	8961
504.907	10229
504.980	15591
505.053	10866
505.127	10403
505.200	13423
505.273	10287
505.346	9618
505.419	7222
505.492	7996
505.565	6518
505.638	7050
505.711	6526
505.784	6334
505.857	5975
505.930	6444
506.003	6529
506.076	7385
506.149	8012
506.221	9853
506.294	9528
506.367	17009
506.440	63871
506.513	49544
506.586	12631
506.659	8223
506.731	7553
506.804	7242
506.877	10226
506.950	8861
507.022	6710
507.095	7019
507.168	8887
507.241	6992
507.313	6033
507.386	6342
507.459	8888
507.531	6734
507.604	6678
507.677	6966
507.749	6463
507.822	7848
507.894	14664
507.967	21921
508.040	14419
508.112	11498
508.185	11129
508.257	9836
508.330	12890
508.402	10811
508.475	10738
508.547	10492
508.620	10457
508.692	13605
508.765	11197
508.837	8482
508.909	8367
508.982	8803
509.054	9031
509.127	8511
509.199	7789
509.271	8632
509.344	7716
509.416	8086
509.488	8355
509.560	8700
509.633	9040
509.705	10422
509.777	9179
509.849	11809
509.922	10879
509.994	9792
510.066	9363
510.138	10500
510.210	18281
510.283	19031
510.355	15480
510.427	13213
510.499	12643
510.571	11576
510.643	11770
510.715	14534
510.787	15633
510.859	12231
510.931	12872
511.003	14911
511.076	16116
511.148	11106
511.219	11719
511.291	14301
511.363	16816
511.435	11499
511.507	9458
511.579	9993
511.651	9509
511.723	9313
511.795	10430
511.867	9748
511.939	9537
512.010	14618
512.082	15613
512.154	9652
512.226	9730
512.298	14353
512.369	22260
512.441	16861
512.513	14685
512.585	13438
512.656	12478
512.728	13236
512.800	11025
512.871	11041
512.943	10681
513.015	10608
513.086	11718
513.158	11279
513.230	11871
513.301	13301
513.373	14798
513.444	10811
513.516	10393
513.588	10302
513.659	10736
513.731	11525
513.802	11427
513.874	16064
513.945	27989
514.016	15689
514.088	9865
514.159	11260
514.231	12744
514.302	19429
514.374	15920
514.445	13991
514.516	19266
514.588	18363
514.659	13296
514.730	19158
514.802	19458
514.873	19559
514.944	24812
515.016	19444
515.087	18471
515.158	18608
515.229	24156
515.301	21696
515.372	31766
515.443	27326
515.514	19693
515.585	14086
515.656	13272
515.728	11591
515.799	11344
515.870	11716
515.941	10641
516.012	12451
516.083	13586
516.154	15027
516.225	15114
516.296	14872
516.367	14236
516.438	14013
516.509	15461
516.580	19826
516.651	38385
516.722	136948
516.793	109487
516.864	23581
516.935	20317
517.006	21536
517.077	25998
517.148	49506
517.219	115113
517.289	267418
517.360	109771
517.431	46324
517.502	15761
517.573	14061
517.643	13197
517.714	14318
517.785	15166
517.856	14054
517.926	16104
517.997	17901
518.068	20106
518.138	24228
518.209	32473
518.280	77967
518.350	324748
518.421	221868
518.492	32316
518.562	19775
518.633	19836
518.703	21481
518.774	32296
518.845	62116
518.915	71628
518.986	32371
519.056	21644
519.127	25016
519.197	35202
519.268	71647
519.338	67428
519.408	17503
519.479	18729
519.549	16113
519.620	12279
519.690	10576
519.760	10179
519.831	9913
519.901	10867
519.971	9673
520.042	9932
520.112	9993
520.182	11513
520.253	13381
520.323	10272
520.393	12062
520.463	18778
520.534	11217
520.604	22375
520.674	14902
520.744	11426
520.814	21955
520.885	25439
520.955	22129
521.025	80539
521.095	54325
521.165	11529
521.235	10129
521.305	8759
521.375	8412
521.445	9330
521.515	10870
521.585	11556
521.655	13698
521.725	10513
521.795	9925
521.865	8000
521.935	10509
522.005	11490
522.075	8269
522.145	9234
522.215	9198
522.285	11756
522.355	13138
522.424	22012
522.494	23587
522.564	14845
522.634	17668
522.704	55985
522.774	36422
522.843	10791
522.913	9113
522.983	10788
523.053	9443
523.122	7879
523.192	11422
523.262	23936
523.331	37517
523.401	11649
523.471	7990
523.540	8248
523.610	6689
523.680	7236
523.749	7716
523.819	8580
523.888	10084
523.958	7001
524.027	6609
524.097	7548
524.166	7462
524.236	6887
524.305	8577
524.375	7480
524.444	7072
524.514	8143
524.583	7320
524.653	8847
524.722	9284
524.791	8198
524.861	8054
524.930	7344
524.999	7394
525.069	10374
525.138	8636
525.207	9175
525.277	8494
525.346	8070
525.415	7556
525.484	8566
525.554	9423
525.623	9983
525.692	10311
525.761	10603
525.830	10359
525.900	12933
525.969	16945
526.038	27689
526.107	43014
526.176	133606
526.245	145549
526.314	48537
526.383	68359
526.452	114985
526.522	143708
526.591	210081
526.660	55906
526.729	32330
526.797	31824
526.867	50079
526.935	178487
527.004	370829
527.073	289451
527.142	36892
527.211	15773
527.280	12807
527.349	12152
527.418	8743
527.487	7834
527.555	6465
527.624	6459
527.693	6264
527.762	7044
527.831	5740
527.899	6893
527.968	6465
528.037	5955
528.106	6975
528.174	10503
528.243	11569
528.312	10557
528.380	16476
528.449	8631
528.518	7392
528.586	5146
528.655	5990
528.723	6260
528.792	5141
528.861	6444
528.929	5503
528.998	5467
529.066	5726
529.135	6524
529.203	6731
529.272	6291
529.340	8418
529.409	9327
529.477	7180
529.545	7807
529.614	8899
529.682	9846
529.751	11223
529.819	11390
529.887	10984
529.956	9054
530.024	9408
530.092	7884
530.161	9742
530.229	11174
530.297	9654
530.365	8690
530.434	8010
530.502	7822
530.570	8263
530.638	6911
530.707	8521
530.775	8789
530.843	7643
530.911	8370
530.979	7582
531.047	8227
531.115	9159
531.183	7876
531.252	7047
531.320	7183
531.388	7501
531.456	8425
531.524	7689
531.592	8864
531.660	9891
531.728	8236
531.796	7935
531.864	7890
531.932	8679
532.000	8870
532.067	9426
532.135	10035
532.203	10388
532.271	10778
532.339	13997
532.407	25543
532.475	24440
532.542	13264
532.610	13436
532.678	16336
532.746	38843
532.814	129088
532.881	52892
532.949	13058
533.017	10873
533.084	9939
533.152	9135
533.220	8487
533.287	8984
533.355	8929
533.423	9074
533.490	8637
533.558	9413
533.625	8902
533.693	9737
533.761	10782
533.828	11753
533.896	9817
533.963	13791
534.031	18989
534.098	24834
534.166	17366
534.233	11410
534.300	11790
534.368	11711
534.435	11193
534.503	10442
534.570	11855
534.637	11918
534.705	12060
534.772	13788
534.840	18534
534.907	54376
534.974	102387
535.041	20429
535.109	11690
535.176	8595
535.243	9383
535.310	8344
535.378	8448
535.445	7516
535.512	7790
535.579	8500
535.646	8197
535.714	8836
535.781	10986
535.848	10912
535.915	11147
535.982	10979
536.049	11462
536.116	11512
536.183	10068
536.250	8772
536.317	8548
536.384	9759
536.451	12083
536.518	11322
536.585	9962
536.652	11587
536.719	13194
536.786	11601
536.853	10577
536.920	12482
536.987	17322
537.053	18007
537.120	50581
537.187	73039
537.254	12556
537.321	7608
537.388	8857
537.454	7762
537.521	7148
537.588	8154
537.654	9351
537.721	10689
537.788	11606
537.855	7830
537.921	7187
537.988	8825
538.055	7979
538.121	8069
538.188	8540
538.254	9074
538.321	15016
538.388	13459
538.454	8407
538.521	8237
538.587	7861
538.654	7640
538.720	6611
538.787	7588
538.853	7734
538.920	8617
538.986	9416
539.053	8280
539.119	8265
539.185	7886
539.252	9268
539.318	10994
539.385	11076
539.451	12372
539.517	12137
539.583	12005
539.650	16977
539.716	48118
539.782	23895
539.849	8888
539.915	9347
539.981	8894
540.047	9554
540.114	8920
540.180	9362
540.246	9430
540.312	11044
540.378	13973
540.444	18668
540.510	18025
540.576	52412
540.643	28467
540.709	8164
540.775	8954
540.841	8614
540.907	10033
540.973	14321
541.039	13162
541.105	11923
541.171	9810
541.237	8262
541.303	9412
541.369	10001
541.435	10256
541.500	14676
541.566	11528
541.632	8354
541.698	7949
541.764	7868
541.830	7100
541.896	7072
541.961	7760
542.027	8621
542.093	9300
542.159	8099
542.224	7971
542.290	11313
542.356	14222
542.421	17785
542.487	11363
542.553	8990
542.618	9848
542.684	9052
542.750	9236
542.815	10213
542.881	13535
542.947	37844
543.012	47838
543.078	10090
543.143	8018
543.209	9752
543.274	9949
543.340	10613
543.405	16039
543.471	32675
543.536	12729
543.602	8385
543.667	7965
543.732	8263
543.798	8448
543.863	8398
543.928	7849
543.994	7848
544.059	7418
544.124	8729
544.190	8055
544.255	8037
544.320	9448
544.386	9056
544.451	10258
544.516	12329
544.581	12041
544.646	23244
544.712	52734
544.777	18557
544.842	10722
544.907	9870
544.972	10031
545.037	9904
545.102	9751
545.168	10088
545.233	10592
545.298	11349
545.363	12723
545.428	13334
545.493	16681
545.558	34988
545.623	24614
545.688	11621
545.753	10266
545.818	9911
545.883	10988
545.947	10525
546.012	10572
546.077	11574
546.142	11078
546.207	10212
546.272	12473
546.337	12554
546.401	12623
546.466	11288
546.531	10702
546.596	12089
546.661	12565
546.725	12666
546.790	12514
546.855	12570
546.919	11279
546.984	13949
547.049	14603
547.113	16784
547.178	15923
547.243	17367
547.307	19610
547.372	21095
547.436	22784
547.501	21560
547.565	22930
547.630	23162
547.695	22412
547.759	21818
547.823	22598
547.888	20981
547.952	21855
548.017	22162
548.081	25240
548.146	25942
548.210	26290
548.274	23451
548.339	22478
548.403	21697
548.468	21000
548.532	20121
548.596	21139
548.660	20162
548.725	22693
548.789	24872
548.853	25748
548.917	23240
548.982	24680
549.046	24648
549.110	18805
549.174	19304
549.238	21315
549.303	22645
549.367	23636
549.431	22870
549.495	21980
549.559	21727
549.623	23647
549.687	27349
549.751	29963
549.815	30959
549.879	30880
549.943	28397
550.007	31283
550.071	31856
550.135	31345
550.199	28455
550.263	27177
550.327	25441
550.391	27991
550.455	29216
550.519	29096
550.582	31198
550.646	35528
550.710	38932
550.774	35211
550.838	34423
550.901	34168
550.965	37987
551.029	39176
551.093	41859
551.156	47191
551.220	55994
551.284	67280
551.347	49676
551.411	49171
551.475	59944
551.538	40557
551.602	34490
551.666	32930
551.729	31064
551.793	30571
551.856	30713
551.920	29178
551.983	29241
552.047	28515
552.110	28638
552.174	29540
552.237	30375
552.301	27437
552.364	27246
552.428	25968
552.491	25683
552.554	27711
552.618	27216
552.681	27622
552.745	27107
552.808	30174
552.871	33454
552.934	32656
552.998	27695
553.061	28135
553.124	27537
553.187	27870
553.251	29629
553.314	31165
553.377	32164
553.440	40641
553.503	72432
553.567	157082
553.630	59868
553.693	30830
553.756	29948
553.819	27594
553.882	26338
553.945	27410
554.008	26574
554.071	26104
554.134	26290
554.197	25887
554.260	24512
554.323	26488
554.386	25993
554.449	26896
554.512	26923
554.575	24688
554.638	25862
554.701	25439
554.764	24542
554.827	25299
554.889	23331
554.952	22675
555.015	21775
555.078	22335
555.141	23096
555.203	22319
555.266	21682
555.329	22033
555.391	22118
555.454	20831
555.517	21512
555.580	19778
555.642	19936
555.705	18819
555.768	19342
555.830	18335
555.893	18591
555.955	16960
556.018	18322
556.080	17213
556.143	17298
556.206	17090
556.268	17900
556.330	17206
556.393	17656
556.455	17209
556.518	18885
556.580	20181
556.643	16097
556.705	15780
556.767	14001
556.830	16148
556.892	15407
556.955	17863
557.017	18403
557.079	15524
557.142	14522
557.204	15838
557.266	19448
557.328	21111
557.391	13239
557.453	12847
557.515	14138
557.577	14493
557.639	14843
557.701	14025
557.764	13106
557.826	14142
557.888	15703
557.950	15818
558.012	16510
558.074	19152
558.136	33472
558.198	94774
558.260	56939
558.322	18861
558.384	17527
558.446	20910
558.508	23121
558.570	28022
558.632	36250
558.694	53706
558.756	65111
558.818	139262
558.880	444479
558.942	236925
559.003	104338
559.065	77826
559.127	27117
559.189	26284
559.251	29748
559.312	38737
559.374	71054
559.436	251908
559.498	218608
559.559	37963
559.621	27345
559.683	29332
559.744	40695
559.806	101132
559.868	229622
559.929	71274
559.991	27652
560.052	32504
560.114	83065
560.176	83871
560.237	45831
560.299	95825
560.360	36900
560.422	13692
560.483	12704
560.545	10861
560.606	9354
560.667	10409
560.729	9752
560.790	9617
560.852	8859
560.913	10344
560.974	10427
561.036	9895
561.097	9182
561.158	10172
561.220	10206
561.281	9740
561.342	10340
561.403	10885
561.465	10825
561.526	17428
561.587	29455
561.648	14855
561.709	9817
561.771	9658
561.832	9389
561.893	9392
561.954	10094
562.015	8822
562.076	9533
562.137	8684
562.198	8686
562.259	9689
562.320	8648
562.381	9201
562.442	10786
562.503	12016
562.564	9299
562.625	8709
562.686	8906
562.747	9310
562.808	10175
562.869	9199
562.930	9276
562.991	9937
563.051	9917
563.112	10114
563.173	8536
563.234	8476
563.294	9626
563.355	8606
563.416	9063
563.477	9081
563.537	8356
563.598	10267
563.659	9166
563.720	8942
563.780	9103
563.841	9717
563.901	9798
563.962	9650
564.023	9240
564.083	8668
564.144	9626
564.204	9340
564.265	9040
564.325	9989
564.386	13860
564.446	15773
564.507	10255
564.567	9160
564.628	9180
564.688	8789
564.749	8933
564.809	9860
564.869	11140
564.930	9365
564.990	10879
565.050	9161
565.111	9982
565.171	9732
565.231	9902
565.292	10378
565.352	10041
565.412	10543
565.472	9294
565.532	10521
565.593	10466
565.653	10712
565.713	11128
565.773	11622
565.833	10772
565.893	14407
565.953	11639
566.013	11555
566.074	12839
566.134	13357
566.194	15929
566.254	19837
566.314	16287
566.374	14290
566.434	14921
566.494	15902
566.554	15807
566.614	17627
566.673	17449
566.733	17852
566.793	19646
566.853	20593
566.913	21479
566.973	20921
567.033	22315
567.092	20861
567.152	21358
567.212	21706
567.272	22303
567.331	22474
567.391	23636
567.451	24453
567.511	26552
567.570	27393
567.630	24840
567.690	22930
567.749	22376
567.809	24750
567.868	28777
567.928	31435
567.988	35713
568.047	43106
568.107	52873
568.166	69263
568.226	95439
568.285	136432
568.345	140904
568.404	126765
568.464	109415
568.523	100816
568.582	99724
568.642	105889
568.701	120772
568.761	154963
568.820	220248
568.879	258112
568.939	224073
568.998	180395
569.057	141761
569.116	114903
569.176	93549
569.235	78054
569.294	64767
569.353	53830
569.413	48242
569.472	42445
569.531	38311
569.590	32680
569.649	30777
569.708	27877
569.767	26177
569.827	24601
569.886	23041
569.945	21455
570.004	19638
570.063	18974
570.122	18301
570.181	17911
570.240	17840
570.299	17060
570.358	16367
570.417	14883
570.475	13490
570.534	14406
570.593	12632
570.652	13094
570.711	13188
570.770	13221
570.829	11663
570.887	12117
570.946	13108
571.005	11619
571.064	11277
571.122	10881
571.181	11656
571.240	10837
571.299	10153
571.357	9918
571.416	9562
571.475	10430
571.533	11470
571.592	10110
571.650	10628
571.709	10038
571.768	10016
571.826	10202
571.885	9369
571.943	9153
572.002	8260
572.060	9124
572.119	8625
572.177	8524
572.236	8235
572.294	8531
572.352	10098
572.411	8986
572.469	8749
572.528	8539
572.586	9096
572.644	8383
572.703	10479
572.761	9576
572.819	8024
572.877	8187
572.936	7904
572.994	7419
573.052	7492
573.110	7989
573.169	8315
573.227	7346
573.285	8472
573.343	7780
573.401	7162
573.459	8099
573.517	7373
573.576	7787
573.634	7596
573.692	8004
573.750	7728
573.808	8620
573.866	8852
573.924	9649
573.982	8760
574.040	7493
574.098	7439
574.155	7717
574.213	6840
574.271	7550
574.329	7857
574.387	7884
574.445	6956
574.503	7169
574.560	6121
574.618	7264
574.676	6766
574.734	7126
574.792	7629
574.849	7288
574.907	6707
574.965	6606
575.022	6783
575.080	6939
575.138	7040
575.195	7640
575.253	6868
575.311	7868
575.368	7382
575.426	7086
575.483	7895
575.541	7500
575.598	6632
575.656	6471
575.713	7176
575.771	7455
575.828	6431
575.886	6671
575.943	7117
576.001	6414
576.058	7527
576.115	8261
576.173	8507
576.230	8396
576.287	8991
576.345	8297
576.402	8030
576.459	7686
576.517	6913
576.574	7765
576.631	7706
576.688	7675
576.746	6949
576.803	6563
576.860	7142
576.917	7319
576.974	7304
577.031	7852
577.089	7920
577.146	7612
577.203	8018
577.260	7072
577.317	7596
577.374	7641
577.431	8695
577.488	7974
577.545	7042
577.602	7961
577.659	8558
577.716	8832
577.773	9184
577.830	8222
577.886	7494
577.943	7665
578.000	8136
578.057	8394
578.114	8341
578.171	10167
578.227	10847
578.284	12141
578.341	11105
578.398	9899
578.454	9290
578.511	8785
578.568	9342
578.625	9222
578.681	7765
578.738	8457
578.794	7609
578.851	8723
578.908	8922
578.964	9059
579.021	9305
579.077	8715
579.134	8540
579.190	8084
579.247	8412
579.303	7447
579.360	7786
579.416	8762
579.473	7293
579.529	8107
579.586	8728
579.642	8719
579.698	8555
579.755	9017
579.811	8281
579.867	9069
579.924	9232
579.980	10394
580.036	10489
580.093	12451
580.149	14887
580.205	18509
580.261	15850
580.317	13658
580.374	11791
580.430	11122
580.486	10435
580.542	9994
580.598	9882
580.619	9807
580.654	9690
580.692	9306
580.710	9138
580.765	10085
580.767	10129
580.823	10105
580.838	9738
580.879	8815
580.911	9276
580.935	9635
580.984	9314
580.991	9286
581.047	9805
581.057	9825
581.103	10012
581.130	9994
581.159	9985
581.203	11567
581.215	12002
581.270	11364
581.276	11269
581.326	10486
581.349	10118
581.382	9649
581.422	9720
581.438	9742
581.494	10189
581.494	10176
581.550	10013
581.567	9987
581.606	9964
581.640	10078
581.661	10168
581.713	10446
581.717	10477
581.773	9113
581.786	9145
581.829	9343
581.859	9699
581.885	9987
581.932	9826
581.940	9813
581.996	10239
582.004	10182
582.052	9895
582.077	9916
582.107	9964
582.150	10009
582.163	10048
582.219	9676
582.223	9692
582.274	9839
582.296	9695
582.330	9581
582.368	10453
582.386	10841
582.441	10751
582.441	10756
582.497	10760
582.514	10660
582.552	10597
582.587	10921
582.608	11102
582.659	10839
582.663	10817
582.719	10441
582.732	10491
582.774	10769
582.805	10494
582.830	10299
582.877	11167
582.885	11284
582.941	10451
582.950	10506
582.996	10895
583.023	11778
583.052	12805
583.095	12615
583.107	12534
583.162	13450
583.168	13564
583.218	14643
583.240	14391
583.273	14009
583.313	13369
583.328	13105
583.384	11748
583.385	11737
583.439	11669
583.458	11447
583.494	10862
583.531	11501
583.549	11936
583.603	12141
583.605	12134
583.660	11048
583.676	11327
583.715	12271
583.748	12180
583.770	11999
583.820	11846
583.825	11827
583.881	11075
583.893	11122
583.936	11379
583.965	11374
583.991	11418
584.038	11377
584.046	11328
584.101	12114
584.110	12028
584.156	11655
584.183	11906
584.211	12085
584.255	12300
584.266	12397
584.321	12344
584.328	12405
584.376	12588
584.400	12336
584.431	12187
584.472	12486
584.486	12476
584.541	12444
584.545	12489
584.596	13180
584.617	13058
584.651	12872
584.689	13211
584.706	13350
584.761	13531
584.762	13543
584.816	13122
584.834	13421
584.871	14283
584.906	14298
584.926	14145
584.978	14370
584.980	14375
585.035	14510
585.051	14599
585.090	14397
585.123	14764
585.145	15223
585.195	15720
585.200	15719
585.254	16001
585.267	16467
585.309	18101
585.340	18825
585.364	19217
585.412	19759
585.419	19774
585.473	20539
585.484	20868
585.528	22295
585.556	24050
585.583	26121
585.628	32679
585.637	34285
585.692	53233
585.700	59369
585.747	92950
585.772	88183
585.801	76646
585.845	41957
585.856	33894
585.910	22656
585.917	22273
585.965	21122
585.989	20492
586.019	20032
586.061	19866
586.074	19591
586.128	19817
586.133	19833
586.183	19772
586.205	20123
586.237	20580
586.277	20500
586.292	20438
586.346	21065
586.349	21160
586.401	21824
586.421	22035
586.455	22166
586.493	22300
586.509	22371
586.564	23909
586.565	24028
586.618	27161
586.637	28014
586.672	28424
586.709	26802
586.727	26033
586.781	26760
586.781	26688
586.835	26315
586.853	26320
586.889	26619
586.925	26796
586.944	26688
586.996	27869
586.998	27816
587.052	28632
587.068	29015
587.106	29637
587.140	30423
587.161	30766
587.212	32246
587.215	32195
587.269	32911
587.284	33447
587.323	35073
587.356	36710
587.377	37162
587.427	37935
587.431	37899
587.485	40952
587.499	41648
587.539	42585
587.571	43903
587.593	44684
587.643	47052
587.648	47101
587.702	49430
587.715	50633
587.755	53643
587.786	55882
587.810	57058
587.858	60791
587.864	60963
587.917	65496
587.930	67076
587.971	71338
588.001	75327
588.025	78309
588.073	86020
588.079	86540
588.133	94527
588.145	97209
588.187	105001
588.217	111879
588.241	117295
588.288	130006
588.295	131130
588.348	147118
588.360	152008
588.402	167482
588.431	180307
588.456	190324
588.503	215127
588.510	217818
588.564	250266
588.575	259143
588.617	291344
588.646	317933
588.671	341422
588.718	390419
588.725	398687
588.778	476526
588.789	491430
588.832	576047
588.861	620907
588.886	674862
588.932	746228
588.939	743478
588.993	721334
589.004	735350
589.047	736808
589.075	748932
589.100	708643
589.147	586378
589.154	575116
589.207	473867
589.218	454477
589.261	415271
589.290	396237
589.314	390968
589.361	395663
589.368	398772
589.421	451471
589.433	464000
589.475	554759
589.504	606002
589.528	655622
589.576	721071
589.582	709938
589.635	676924
589.647	676383
589.689	576056
589.718	475042
589.742	423206
589.790	308707
589.795	299743
589.849	234302
589.861	222041
589.902	188896
589.932	168920
589.955	154290
590.004	131350
590.009	128344
590.062	109667
590.075	106576
590.115	94539
590.146	87772
590.168	82347
590.218	73585
590.222	72284
590.275	65722
590.289	64770
590.328	59511
590.360	56509
590.381	53811
590.431	49275
590.435	48471
590.488	44216
590.503	43434
590.541	39973
590.574	37836
590.594	36540
590.645	35224
590.647	34750
590.700	32183
590.716	31793
590.753	30180
590.787	29361
590.806	28220
590.859	26509
590.859	26184
590.912	24827
590.930	24727
590.965	23301
591.001	22616
591.018	21998
591.071	20760
591.072	21006
591.124	19755
591.143	19582
591.177	18620
591.214	18125
591.230	17704
591.283	17333
591.285	17534
591.336	16676
591.356	16704
591.389	15750
591.427	15196
591.442	14846
591.495	14168
591.498	14331
591.547	13406
591.569	13282
591.600	12548
591.640	11895
591.653	11744
591.706	12229
591.711	12455
591.759	11366
591.782	11084
591.811	10868
591.853	11037
591.864	10911
591.917	11063
591.924	11267
591.969	10330
591.995	10059
592.022	9693
592.066	9454
592.075	9232
592.127	8978
592.137	9084
592.180	9258
592.208	9683
592.233	9024
592.279	8114
592.285	7960
592.338	8070
592.350	8253
592.390	7348
592.421	6910
592.443	7136
592.491	8145
592.495	7939
592.548	7047
592.562	6942
592.600	6573
592.633	6542
592.653	6184
592.704	5600
592.705	5654
592.775	6980
592.846	5825
592.916	5582
592.987	6395
593.058	5801
593.128	5102
593.199	6161
593.270	5015
593.341	5258
593.411	4592
593.482	5150
593.553	5729
593.623	4982
593.694	4917
593.764	5483
593.835	5447
593.906	5068
593.976	4145
594.047	4573
594.117	5300
594.188	5759
594.258	4360
594.329	4568
594.399	5175
594.470	4321
594.540	3594
594.611	4955
594.681	4151
594.751	4909
594.822	4427
594.892	4991
594.963	4338
595.033	4780
595.103	4308
595.174	4531
595.244	5016
595.314	6589
595.384	4084
595.455	4508
595.525	4103
595.595	4025
595.665	4491
595.736	4073
595.806	4784
595.876	3689
595.946	4219
596.016	4596
596.087	4483
596.157	4489
596.227	3621
596.297	4210
596.367	3893
596.437	5467
596.507	5098
596.577	7504
596.647	5174
596.717	4252
596.787	4459
596.857	4928
596.927	4548
596.997	4841
597.067	4117
597.137	5244
597.207	5534
597.277	5283
597.347	4488
597.417	4161
597.487	4601
597.557	4163
597.626	4845
597.696	5045
597.766	5678
597.836	5878
597.906	5053
597.975	4391
598.045	4193
598.115	4222
598.185	3850
598.254	5233
598.324	5820
598.394	5343
598.464	4689
598.533	5411
598.603	4580
598.672	4473
598.742	3902
598.812	4677
598.881	4635
598.951	4376
599.020	4217
599.090	4676
599.159	5509
599.229	5079
599.299	4044
599.368	5160
599.437	4629
599.507	5276
599.576	4224
599.646	5406
599.715	4742
599.785	4761
599.854	3799
599.924	4386
599.993	4303
600.062	4934
600.132	3742
600.201	4161
600.270	4918
600.340	5354
600.409	5623
600.478	4965
600.547	4991
600.617	4258
600.686	4060
600.755	3667
600.824	3495
600.894	3514
600.963	3423
601.032	3879
601.101	3507
601.170	3124
601.239	3655
601.308	3976
601.378	4530
601.447	3559
601.516	3325
601.585	4388
601.654	5075
601.723	4675
601.792	4051
601.861	4069
601.930	4795
601.999	5148
602.068	4180
602.137	5260
602.206	5396
602.275	4029
602.343	4860
602.412	4887
602.481	3605
602.550	4667
602.619	4112
602.688	5406
602.756	3749
602.825	4700
602.894	3063
602.963	4437
603.032	3804
603.100	3871
603.169	4377
603.238	4633
603.307	4464
603.375	4553
603.444	4473
603.513	4810
603.581	4678
603.650	4760
603.719	4001
603.787	4728
603.856	4115
603.924	5306
603.993	4137
604.061	4506
604.130	4514
604.198	4260
604.267	4649
604.335	5287
604.404	4298
604.472	5251
604.541	3857
604.609	5727
604.678	4549
604.746	5046
604.815	4282
604.883	5165
604.951	4455
605.020	5659
605.088	5024
605.156	5188
605.225	4766
605.293	5387
605.361	4862
605.429	5062
605.498	5198
605.566	6036
605.634	5361
605.702	6024
605.771	4870
605.839	6022
605.907	5655
605.975	5825
606.043	5331
606.111	5782
606.180	5973
606.248	5958
606.316	6206
606.384	5411
606.452	6066
606.520	6028
606.588	5486
606.656	5700
606.724	4392
606.792	5096
606.860	4369
606.928	4441
606.996	4406
607.064	3103
607.132	3252
607.200	4719
607.267	4335
607.335	3976
607.403	4494
607.471	3546
607.539	4302
607.607	4938
607.674	3619
607.742	4244
607.810	3933
607.878	4117
607.946	3431
608.013	3949
608.081	3448
608.149	4565
608.216	3645
608.284	4831
608.352	4318
608.419	4514
608.487	4319
608.555	4453
608.622	4018
608.690	4426
608.757	4321
608.825	4735
608.893	4434
608.960	4908
609.028	4245
609.095	4815
609.163	4866
609.230	4481
609.298	3930
609.365	4109
609.432	3178
609.500	3983
609.567	4948
609.635	5791
609.702	5807
609.769	5662
609.837	5006
609.904	4606
609.971	4107
610.039	5316
610.106	7399
610.173	13910
610.241	33837
610.308	41906
610.375	17367
610.442	6822
610.509	4593
610.577	4644
610.644	3741
610.711	3967
610.778	3936
610.845	4022
610.912	5016
610.980	5548
611.047	5780
611.114	5988
611.181	4461
611.248	4981
611.315	3866
611.382	4976
611.449	4478
611.516	5889
611.583	5532
611.650	5002
611.717	5538
611.784	5266
611.851	6336
611.918	6420
611.984	7590
612.051	12514
612.118	27116
612.185	76869
612.252	94711
612.319	18720
612.386	7938
612.452	7615
612.519	6375
612.586	7391
612.653	7144
612.719	6928
612.786	5469
612.853	5272
612.919	4874
612.986	5758
613.053	4973
613.120	5303
613.186	3602
613.253	4633
613.319	4541
613.386	4879
613.453	4485
613.519	5343
613.586	5759
613.652	7406
613.719	6312
613.785	6217
613.852	4246
613.918	5139
613.985	4984
614.051	6154
614.118	12640
614.184	19330
614.250	6627
614.317	4441
614.383	4869
614.449	4872
614.516	3484
614.582	4260
614.648	4043
614.715	4465
614.781	3781
614.847	4612
614.914	5011
614.980	4533
615.046	4273
615.112	4282
615.179	5654
615.245	5049
615.311	7077
615.377	11972
615.443	18314
615.509	9713
615.575	7406
615.642	6801
615.708	5982
615.774	7134
615.840	6582
615.906	9460
615.972	15900
616.038	32412
616.104	59754
616.170	105356
616.236	158150
616.302	38104
616.368	13133
616.434	9877
616.500	7220
616.565	7816
616.631	10050
616.697	8617
616.763	7580
616.829	10973
616.895	20338
616.961	27129
617.026	14141
617.092	6646
617.158	5150
617.224	5073
617.289	5238
617.355	3849
617.421	3909
617.487	4717
617.552	4103
617.618	3869
617.684	3449
617.749	4483
617.815	3720
617.880	3604
617.946	3463
618.012	3712
618.077	3782
618.143	4218
618.208	3087
618.274	3854
618.339	3694
618.405	3416
618.470	3025
618.536	2937
618.601	2886
618.667	3135
618.732	2685
618.798	3140
618.863	2751
618.928	2642
618.994	2189
619.059	3569
619.124	4463
619.190	4449
619.255	2124
619.320	3158
619.386	3383
619.451	2873
619.516	2717
619.581	2640
619.647	2734
619.712	3593
619.777	2383
619.842	3320
619.907	2668
619.972	2742
620.038	2513
620.103	2821
620.168	2203
620.233	2959
620.298	2943
620.363	2620
620.428	3000
620.493	2647
620.558	2932
620.623	2787
620.688	2986
620.753	3152
620.818	2049
620.883	2232
620.948	2934
621.013	2168
621.078	2594
621.143	2237
621.207	3902
621.272	3473
621.337	3048
621.402	3402
621.467	4212
621.532	3926
621.596	3402
621.661	2933
621.726	3041
621.791	3428
621.855	2396
621.920	3385
621.985	2855
622.049	4296
622.114	3350
622.179	3361
622.243	2995
622.308	2699
622.373	3289
622.437	4314
622.502	3139
622.566	4492
622.631	2757
622.695	3682
622.760	3464
622.824	3945
622.889	3092
622.953	3039
623.018	4075
623.082	5438
623.147	3596
623.211	3795
623.276	2994
623.340	3077
623.404	3566
623.469	2603
623.533	2338
623.597	2919
623.662	2770
623.726	2000
623.790	2057
623.854	1950
623.919	1777
623.983	2688
624.047	1746
624.111	2690
624.176	1979
624.240	2697
624.304	3079
624.368	2692
624.432	2921
624.496	2661
624.560	2520
624.625	3535
624.689	2727
624.753	2242
624.817	2156
624.881	2896
624.945	2066
625.009	2326
625.073	2118
625.137	2265
625.201	2607
625.265	3695
625.329	2480
625.393	2826
625.456	2807
625.520	2156
625.584	2654
625.648	3332
625.712	3186
625.776	8194
625.839	12211
625.903	7447
625.967	2343
626.031	3643
626.095	5883
626.158	4651
626.222	2058
626.286	1348
626.349	1157
626.413	1273
626.477	1721
626.540	1648
626.604	1324
626.668	1712
626.731	1132
626.795	736
626.858	1343
626.922	1465
626.986	1181
627.049	976
627.113	943
627.176	1233
627.240	192
627.303	1824
627.366	974
627.430	929
627.493	1183
627.557	1323
627.620	1214
627.684	1164
627.747	1609
627.810	1576
627.874	934
627.937	-4
628.000	1398
628.064	692
628.127	-209
628.190	93
628.253	824
628.317	958
628.380	510
628.443	1044
628.506	733
628.569	351
628.632	763
628.696	1442
628.759	556
628.822	384
628.885	750
628.948	1344
629.011	538
629.074	614
629.137	-47
629.200	83
629.263	575
629.326	434
629.389	555
629.452	367
629.515	1032
629.578	66
629.641	733
629.704	246
629.767	458
629.830	769
629.892	42
629.955	358
630.018	862
630.081	2
630.144	1174
630.207	548
630.269	953
630.332	571
630.395	451
630.458	317
630.520	544
630.583	768
630.646	-268
630.708	358
630.771	-669
630.834	421
630.896	-557
630.959	288
631.021	-215
631.084	609
631.146	339
631.209	945
631.272	551
631.334	913
631.397	652
631.459	-27
631.522	349
631.584	523
631.646	404
631.709	826
631.771	1062
631.834	1577
631.896	196
631.958	4
632.021	412
632.083	823
632.145	830
632.208	64
632.270	562
632.332	-36
632.395	-1023
632.457	615
632.519	-250
632.581	623
632.643	-785
632.706	1213
632.768	30
632.830	-211
632.892	151
632.954	174
633.016	106
633.078	4
633.141	-490
633.203	188
633.265	-605
633.327	-437
633.389	82
633.451	460
633.513	171
633.575	769
633.637	416
633.698	55
633.760	220
633.822	668
633.884	-103
633.946	135
634.008	373
634.070	448
634.132	1242
634.193	655
634.255	109
634.317	451
634.379	712
634.441	1350
634.502	377
634.564	957
634.626	-354
634.687	1104
634.749	591
634.811	-170
634.873	153
634.934	460
634.996	-757
635.057	435
635.119	-162
635.181	-25
635.242	517
635.304	-570
635.365	478
635.427	-346
635.488	224
635.550	-937
635.611	-142
635.673	-604
635.734	522
635.796	60
635.857	543
635.918	880
635.980	5
636.041	746
636.102	697
636.164	1249
636.225	-84
636.286	682
636.348	444
636.409	-135
636.470	253
636.531	481
636.593	-263
636.654	1053
636.715	142
636.776	654
636.838	-293
636.899	322
636.960	-261
637.021	-157
637.082	-210
637.143	-249
637.204	-626
637.265	-441
637.326	222
637.387	-36
637.448	-540
637.509	-309
637.570	-131
637.631	-322
637.692	-480
637.753	-522
637.814	428
637.875	76
637.936	-485
637.997	79
638.058	194
638.119	-48
638.179	-343
638.240	-543
638.301	184
638.362	83
638.423	-45
638.483	569
638.544	-656
638.605	118
638.666	-832
638.726	715
638.787	-376
638.848	-146
638.908	-122
638.969	339
639.030	-684
639.090	-388
639.151	-35
639.211	353
639.272	-378
639.332	-236
639.393	955
639.453	-424
639.514	-171
639.574	410
639.635	473
639.695	121
639.756	-379
639.816	92
639.877	-1176
639.937	864
639.997	1274
640.058	2
640.118	-41
640.178	99
640.239	-466
640.299	-550
640.359	-37
640.420	-153
640.480	-17
640.540	40
640.600	-899
640.661	-156
640.721	-983
640.781	831
640.841	-772
640.901	44
640.961	-378
641.021	-105
641.082	-28
641.142	892
641.202	176
641.262	-1052
641.322	-29
641.382	-507
641.442	-642
641.502	-680
641.562	-447
641.622	-646
641.682	-773
641.742	-564
641.802	118
641.861	-104
641.921	-1183
641.981	516
642.041	-332
642.101	-23
642.161	-1367
642.221	-652
642.280	-410
642.340	-530
642.400	-1067
642.460	283
642.519	-842
642.579	-419
642.639	-984
642.698	-1530
642.758	727
642.818	46
642.877	-299
642.937	-25
642.997	-330
643.056	732
643.116	-583
643.175	104
643.235	-504
643.294	105
643.354	-923
643.414	-289
643.473	-64
643.532	437
643.592	134
643.651	1898
643.711	5672
643.770	11530
643.830	26199
643.889	79569
643.948	52988
644.008	4261
644.067	207
644.126	395
644.186	-740
644.245	209
644.304	-1357
644.363	238
644.423	-1345
644.482	-137
644.541	-443
644.600	-1883
644.659	-288
644.719	-994
644.778	780
644.837	991
644.896	3684
644.955	11415
645.014	9270
645.073	887
645.132	-148
645.191	-364
645.250	-1255
645.309	-59
645.368	-577
645.427	164
645.486	-244
645.545	1117
645.604	113
645.663	-419
645.722	-61
645.781	-417
645.840	-98
645.898	-135
645.957	426
646.016	1838
646.075	4898
646.134	9128
646.192	21747
646.251	61796
646.310	23108
646.369	1436
646.427	386
646.486	-565
646.545	-309
646.603	-244
646.662	-842
646.721	-276
646.779	-1066
646.838	-1345
646.896	-336
646.955	616
647.014	93
647.072	2235
647.131	4926
647.189	7229
647.248	-92
647.306	-169
647.365	-1030
647.423	-1573
647.481	142
647.540	-1891
647.598	-931
647.657	-818
647.715	-453
647.773	-978
647.832	-1026
647.890	-1891
647.948	-1306
648.007	556
648.065	-1081
648.123	-1274
648.181	-323
648.240	-549
648.298	-1011
648.356	-708
648.414	-793
648.472	-493
648.531	-1088
648.589	-826
648.647	-1258
648.705	-1728
648.763	-1544
648.821	-852
648.879	-983
648.937	-387
648.995	-537
649.053	-272
649.111	-343
649.169	973
649.227	2065
649.285	6759
649.343	20163
649.401	25917
649.459	4750
649.516	3273
649.574	-306
649.632	2844
649.690	6539
649.748	1671
649.806	-335
649.863	3230
649.921	2916
649.979	5765
650.037	1013
650.094	-949
650.152	-806
650.210	-1292
650.268	-780
650.325	-1542
650.383	-917
650.440	-1703
650.498	-1188
650.556	-993
650.613	-1485
650.671	-551
650.728	-816
650.786	-919
650.843	-838
650.901	-1443
650.958	-1119
651.016	-642
651.073	-1258
651.131	-340
651.188	-2718
651.246	-465
651.303	-1624
651.360	-658
651.418	-1092
651.475	-1172
651.532	-1012
651.590	-207
651.647	-1844
651.704	-620
651.762	-483
651.819	-205
651.876	-1199
651.933	-502
651.990	-716
652.048	-1365
652.105	-1400
652.162	-1102
652.219	-1573
652.276	-691
652.333	-946
652.390	-1426
652.448	-1499
652.505	-1086
652.562	-1609
652.619	-385
652.676	-1278
652.733	801
652.790	-1253
652.847	-1730
652.904	-743
652.961	-1571
653.017	-1979
653.074	-598
653.131	-1228
653.188	-1172
653.245	-1672
653.302	-1265
653.359	-1587
653.415	-153
653.472	-1739
653.529	-388
653.586	-1751
653.642	-1666
653.699	-1431
653.756	-669
653.813	-1394
653.869	-781
653.926	-1545
653.983	-1165
654.039	-1051
654.096	-391
654.152	-1087
654.209	-1157
654.266	-556
654.322	-1570
654.379	-1176
654.435	-1458
654.492	-845
654.548	-714
654.605	-914
654.661	-140
654.717	-1211
654.774	-592
654.830	-615
654.887	-652
654.943	-988
655.000	-455
655.056	-921
655.112	-1149
655.168	-2641
655.225	-1400
655.281	-871
655.337	-725
655.394	-551
655.450	-607
655.506	-776
655.562	-724
655.618	248
655.675	-529
655.731	-610
655.787	-799
655.843	-1119
655.899	-2032
655.955	-1516
656.011	-1819
656.067	-1788
656.123	-626
656.179	-201
656.235	217
656.291	-944
656.347	-768
656.403	-2033
656.459	-440
656.515	-1249
656.571	-619
656.627	-888
656.683	-1301
656.739	-718
656.795	-1026
656.850	-1146
656.906	-1490
656.962	-569
657.018	-1136
657.074	-1143
657.129	-977
657.185	-570
657.241	-419
657.297	-1359
657.352	369
657.408	-1413
657.464	-844
657.519	-2135
657.575	-1230
657.630	-1973
657.686	-1239
657.742	-2692
657.797	-1473
657.853	-1833
657.908	-317
657.964	-1760
658.019	-1729
658.075	-1352
658.130	-733
658.186	-1410
658.241	-927
658.297	-1918
658.352	-1529
658.407	-1007
658.463	-1853
658.518	-1275
658.573	-1098
658.629	-1483
658.684	-1000
658.739	-1537
658.795	-1278
658.850	-1426
658.905	-1087
658.960	-883
659.016	-2131
659.071	-807
659.126	-1282
659.181	-1704
659.236	-273
659.291	-210
659.346	-1178
659.401	-1652
659.457	-370
659.512	-1354
659.567	-1052
659.622	-1477
659.677	-1726
659.732	-2219
659.787	-1970
659.842	-1155
659.897	-1690
659.952	-1674
660.007	-1054
660.061	-1851
660.116	-1501
660.171	-1802
660.226	-1830
660.281	-695
660.336	-1386
660.391	-1276
660.445	-1285
660.500	-1817
660.555	-1433
660.610	-2126
660.664	-923
660.719	-2025
660.774	-1083
660.828	-2060
660.883	-1097
660.938	-1250
660.992	-2322
661.047	-1440
661.101	-784
661.156	-887
661.211	-1056
661.265	-1884
661.320	-1524
661.374	-1877
661.429	-1378
661.483	-1683
661.538	-1509
661.592	-1599
661.647	-1961
661.701	-1366
661.755	-1184
661.810	-1178
661.864	-1591
661.919	-1665
661.973	-630
662.027	-832
662.081	-1761
662.136	-2300
662.190	-1891
662.244	-634
662.299	-1033
662.353	-1180
662.407	-1623
662.461	-2251
662.515	-742
662.569	-2212
662.624	-401
662.678	-1846
662.732	-1845
662.786	-1490
662.840	-461
662.894	-1234
662.948	-1430
663.002	-1378
663.056	-1476
663.110	-2496
663.164	-973
663.218	-1202
663.272	-1001
663.326	-1115
663.380	-778
663.434	-1922
663.488	-1516
663.542	-1384
663.595	-1328
663.649	-2641
663.703	-155
663.757	-1170
663.811	-2369
663.864	-1823
663.918	-638
663.972	-1586
664.026	-1276
664.079	-1514
664.133	-615
664.187	-1888
664.240	-1039
664.294	-1257
664.348	-1114
664.401	-1967
664.455	-408
664.508	-2333
664.562	-1169
664.615	-1024
664.669	-1422
664.722	-1359
664.776	-1415
664.829	-1668
664.883	-1322
664.936	-1033
664.990	-2097
665.043	-595
665.097	-995
665.150	-1530
665.203	-942
665.257	-1695
665.310	-1220
665.363	-1153
665.417	-1534
665.470	-899
665.523	-1275
665.576	-1575
665.630	-1242
665.683	-1284
665.736	-463
665.789	-1201
665.842	-1394
665.895	-1637
665.949	-1372
666.002	-1887
666.055	-1076
666.108	-1699
666.161	-1346
666.214	-908
666.267	-1445
666.320	-966
666.373	-1204
666.426	-1693
666.479	-1807
666.532	-1118
666.585	-610
666.638	-910
666.691	-1877
666.744	-1134
666.796	-988
666.849	-1670
666.902	-1381
666.955	-1570
667.008	-1625
667.060	-1099
667.113	-1278
667.166	-938
667.219	-822
667.271	-1030
667.324	-1018
667.377	-1279
667.430	-787
667.482	-2017
667.535	-937
667.587	-1039
667.640	-904
667.693	-1559
667.745	-1250
667.798	-318
667.850	-1664
667.903	-1673
667.955	-1443
668.008	-506
668.060	-776
668.113	-1721
668.165	-862
668.218	-961
668.270	-275
668.322	-1336
668.375	-1234
668.427	-895
668.479	-601
668.532	-642
668.584	-1164
668.636	-940
668.689	-691
668.741	-2223
668.793	-358
668.845	-1295
668.898	-472
668.950	-1975
669.002	-946
669.054	-1544
669.106	-1340
669.158	-1395
669.211	-1276
669.263	-1251
669.315	-915
669.367	-456
669.419	-395
669.471	-289
669.523	-412
669.575	-953
669.627	-322
669.679	-1179
669.731	-616
669.783	-542
669.835	-438
669.886	-738
669.938	-799
669.990	-1409
670.042	-1038
670.094	-1126
670.146	-1102
670.197	-857
670.249	-56
670.301	-372
670.353	-53
670.404	990
670.456	2441
670.508	3925
670.560	6683
670.611	13411
670.663	25133
670.715	48719
670.766	127980
670.818	107716
670.869	19726
670.921	4121
670.972	1386
671.024	817
671.075	1064
671.127	56
671.178	-491
671.230	-712
671.281	-164
671.333	-834
671.384	-1353
671.436	-1411
671.487	-435
671.538	-531
671.590	-220
671.641	421
671.692	-16
671.744	2733
671.795	4737
671.846	1457
671.897	-162
671.949	-588
672.000	-540
672.051	-608
672.102	-145
672.153	-1000
672.204	-180
672.256	-949
672.307	-1419
672.358	-1301
672.409	-301
672.460	-1436
672.511	-1114
672.562	-1662
672.613	-1058
672.664	-1127
672.715	-1202
672.766	-995
672.817	-1550
672.868	-638
672.919	-599
672.970	-1270
673.021	-1052
673.071	-2046
673.122	-382
673.173	-1123
673.224	-1074
673.275	-1335
673.326	-733
673.376	-417
673.427	-1460
673.478	-724
673.528	-1301
673.579	-1004
673.630	-1358
673.680	-998
673.731	-1293
673.782	-2122
673.832	-1509
673.883	-1170
673.934	-1202
673.984	-1129
674.035	-773
674.085	-845
674.136	-1531
674.186	-1644
674.237	-1225
674.287	-1874
674.338	-991
674.388	-1384
674.438	-1753
674.489	-1088
674.539	-1230
674.589	-1538
674.640	-589
674.690	-1069
674.740	-1831
674.791	-1348
674.841	-840
674.891	-1327
674.942	-1504
674.992	-724
675.042	-1173
675.092	-1029
675.142	-1538
675.193	-1042
675.243	-767
675.293	-1412
675.343	-869
675.393	-1158
675.443	-1040
675.493	-2038
675.543	-1566
675.593	-1348
675.643	-1019
675.693	-1548
675.743	-950
675.793	-1074
675.843	-1634
675.893	-796
675.943	76
675.993	-1827
676.043	-685
676.093	-1215
676.142	-1507
676.192	-1768
676.242	-977
676.292	-1612
676.341	-1385
676.391	-1079
676.441	-1900
676.491	-1246
676.540	-615
676.590	-954
676.640	-1811
676.689	-1283
676.739	-2022
676.789	-1707
676.838	-1339
676.888	-1484
676.937	-1965
676.987	-1839
677.037	-1213
677.086	-1674
677.136	-1582
677.185	-1158
677.235	-1203
677.284	-1288
677.333	-1273
677.383	-1836
677.432	-1340
677.482	-2325
677.531	-175
677.580	-1548
677.630	-1803
677.679	-1255
677.728	-1248
677.778	-1863
677.827	-1357
677.876	-1597
677.925	-971
677.975	-1043
678.024	-1125
678.073	-2199
678.122	-1356
678.171	-2016
678.220	-892
678.269	-1388
678.319	-912
678.368	-1285
678.417	-1060
678.466	-1160
678.515	-1419
678.564	-1235
678.613	-586
678.662	-2293
678.711	-1291
678.760	-1737
678.809	-1533
678.857	-973
678.906	-1569
678.955	-1348
679.004	-1209
679.053	-1013
679.102	-1903
679.151	-1385
679.199	-1888
679.248	-1250
679.297	-1360
679.346	-1595
679.394	-723
679.443	-1386
679.492	-1329
679.540	-1387
679.589	-841
679.638	-1242
679.686	-1273
679.735	-1609
679.784	-953
679.832	-594
679.881	-1359
679.929	-1841
679.978	-1589
680.026	-1854
680.075	-1733
680.123	-2033
680.172	-1360
680.220	-1265
680.268	-1024
680.317	-1362
680.365	-932
680.414	-2052
680.462	-1886
680.510	-1381
680.559	-941
680.607	-2011
680.655	-986
680.703	-1692
680.752	-2163
680.800	-2123
680.848	-1058
680.896	-1480
680.945	-1507
680.993	-1397
681.041	-1572
681.089	-1736
681.137	-1093
681.185	-1935
681.233	-1215
681.258	-1119
681.281	-1033
681.329	-1501
681.377	-1886
681.380	-1857
681.425	-1453
681.473	-1263
681.502	-1115
681.521	-1023
681.569	-1042
681.617	-1604
681.624	-1579
681.665	-1461
681.713	-1678
681.745	-1754
681.761	-1798
681.809	-971
681.857	-1682
681.867	-1565
681.904	-1182
681.952	-1415
681.989	-686
682.000	-479
682.048	-1084
682.096	-1453
682.111	-1168
682.143	-584
682.191	-883
682.233	-951
682.239	-962
682.286	-525
682.334	-1214
682.354	-993
682.382	-731
682.430	-1022
682.476	-1346
682.477	-1357
682.525	-1084
682.572	-463
682.598	-627
682.620	-802
682.667	-877
682.715	-1262
682.720	-1285
682.763	-1485
682.810	-1159
682.841	-1205
682.857	-1260
682.905	-1212
682.952	-186
682.963	-418
683.000	-1220
683.047	-707
683.085	-1030
683.095	-1125
683.142	-334
683.190	-734
683.206	-860
683.237	-1109
683.284	-1448
683.328	-669
683.332	-609
683.379	-1045
683.426	-1006
683.449	-1265
683.473	-1519
683.521	-571
683.568	-1227
683.571	-1201
683.615	-950
683.662	-979
683.693	-928
683.709	-894
683.757	-886
683.804	-623
683.814	-763
683.851	-1326
683.898	-694
683.936	-673
683.945	-659
683.992	-459
684.039	-739
684.057	-690
684.086	-627
684.133	-522
684.179	-976
684.180	-996
684.227	-611
684.274	-483
684.300	-452
684.321	-465
684.368	-778
684.415	-1443
684.422	-1372
684.462	-862
684.509	-724
684.543	-837
684.556	-893
684.603	-586
684.649	-956
684.665	-979
684.696	-1016
684.743	-506
684.786	-574
684.790	-579
684.837	-687
684.883	60
684.908	-145
684.930	-355
684.977	-647
685.023	-318
685.029	-308
685.070	-447
685.117	-517
685.150	-1113
685.164	-1270
685.210	-854
685.257	-128
685.272	-148
685.303	-339
685.350	-966
685.393	-1186
685.396	-1190
685.443	-546
685.490	298
685.514	155
685.536	-41
685.583	-95
685.629	-228
685.636	-282
685.675	-611
685.722	52
685.757	-334
685.768	-463
685.815	-310
685.861	-561
685.878	-488
685.908	-299
685.954	-130
686.000	-275
686.000	-282
686.047	-240
686.093	-330
686.121	-99
686.139	168
686.185	-529
686.232	233
686.242	348
686.278	530
686.324	-360
686.363	-298
686.370	-267
686.416	-199
686.463	539
686.484	245
686.509	-132
686.555	-359
686.601	-263
686.606	-277
686.647	-305
686.693	-208
686.727	-169
686.739	-161
686.785	37
686.831	-152
686.848	-138
686.877	-169
686.923	15
686.969	-205
686.969	-207
687.015	88
687.061	-578
687.090	-176
687.107	73
687.153	319
687.199	596
687.211	427
687.245	-134
687.291	-406
687.332	-138
687.336	-98
687.382	-73
687.428	149
687.453	89
687.474	20
687.520	261
687.565	-262
687.574	-205
687.611	37
687.657	215
687.695	-145
687.702	-212
687.748	-31
687.794	266
687.816	114
687.839	-37
687.885	139
687.931	70
687.937	66
687.976	-53
688.022	198
688.058	97
688.067	106
688.113	133
688.158	-54
688.179	43
688.204	83
688.249	-282
688.295	-305
688.300	-307
688.340	-144
688.386	276
688.421	274
688.431	263
688.477	-145
688.522	307
688.542	362
688.567	434
688.613	589
688.658	597
688.663	591
688.703	412
688.749	497
688.784	43
688.794	-55
688.839	307
688.884	181
688.905	182
688.930	151
688.975	249
689.020	-6
689.026	19
689.065	329
689.110	225
689.146	335
689.155	330
689.201	159
689.246	297
689.267	166
689.291	128
689.336	558
689.381	250
689.388	319
689.426	537
689.471	97
689.509	227
689.516	280
689.561	843
689.606	575
689.630	543
689.651	426
689.696	518
689.741	169
689.750	221
689.785	554
689.830	639
689.871	387
689.875	353
689.920	114
689.965	503
689.992	244
690.010	141
690.054	309
690.099	331
690.112	476
690.144	693
690.189	313
690.233	460
690.233	465
690.278	269
690.323	826
690.354	879
690.367	760
690.412	756
690.457	-44
690.474	62
690.501	528
690.546	573
690.590	988
690.595	998
690.635	877
690.680	729
690.716	730
690.724	758
690.769	793
690.813	648
690.836	902
690.857	1227
690.902	1100
690.946	1653
690.957	1749
690.991	2734
691.035	3986
691.077	5503
691.080	5579
691.124	6896
691.168	7131
691.198	7334
691.213	6743
691.257	5602
691.301	3773
691.318	3299
691.346	2934
691.390	2070
691.434	1052
691.439	1015
691.478	1369
691.522	984
691.559	1186
691.567	1227
691.611	1165
691.655	916
691.680	699
691.699	618
691.743	876
691.787	765
691.800	914
691.831	1164
691.875	746
691.919	1152
691.921	1131
691.964	812
692.008	1089
692.041	1132
692.052	1130
692.096	1077
692.139	1433
692.162	1498
692.183	1504
692.227	1219
692.271	1137
692.282	1060
692.315	893
692.359	911
692.402	990
692.403	997
692.447	949
692.490	1047
692.523	1174
692.534	1197
692.578	908
692.622	1456
692.643	1304
692.666	1145
692.709	1197
692.753	1171
692.763	1147
692.797	1143
692.840	983
692.884	1313
692.884	1322
692.928	1053
692.971	1307
693.004	1280
693.015	1265
693.059	1275
693.102	1364
693.124	1354
693.146	1471
693.189	1547
693.233	1795
693.245	1854
693.276	1856
693.320	1822
693.363	1465
693.365	1470
693.407	1909
693.450	1775
693.485	1944
693.493	2005
693.537	1818
693.580	2176
693.605	2080
693.624	2373
693.667	3406
693.710	4395
693.725	4816
693.753	6541
693.797	8984
693.840	12099
693.845	12435
693.883	15327
693.926	17390
693.966	19432
693.970	19020
694.013	14818
694.056	10174
694.086	7279
694.099	6873
694.142	5379
694.185	3909
694.206	3191
694.229	3018
694.272	2704
694.315	2381
694.326	2320
694.358	2304
694.401	1951
694.444	1937
694.446	1920
694.487	1800
694.530	1742
694.566	1632
694.573	1633
694.616	1763
694.659	1439
694.686	1603
694.702	1739
694.745	1667
694.787	1807
694.806	1780
694.830	1605
694.873	1337
694.916	1201
694.926	1165
694.959	1309
695.002	1387
695.044	1492
695.046	1477
695.087	1144
695.130	1138
695.166	1138
695.172	1177
695.215	1428
695.258	1493
695.286	1638
695.301	1694
695.343	1504
695.386	1754
695.406	1732
695.428	1661
695.471	1489
695.514	1503
695.526	1456
695.556	1632
695.599	1998
695.641	2135
695.646	2167
695.684	2082
695.726	1829
695.766	1491
695.769	1488
695.811	1641
695.854	1590
695.886	1573
695.896	1583
695.938	1491
695.981	1415
696.005	1414
696.023	1507
696.065	1749
696.108	1826
696.125	1937
696.150	2012
696.192	2031
696.235	1978
696.245	1954
696.277	2160
696.319	2404
696.361	2672
696.365	2691
696.404	2402
696.446	1960
696.485	1750
696.488	1789
696.530	1920
696.572	2145
696.604	2321
696.614	2282
696.656	1965
696.698	1792
696.724	1680
696.740	1802
696.783	2020
696.825	2275
696.844	2345
696.867	2106
696.909	1783
696.951	1344
696.964	1218
696.992	1462
697.034	1688
697.076	2063
697.083	2106
697.118	2031
697.160	1910
697.202	1779
697.203	1766
697.244	1951
697.286	2113
697.323	2243
697.327	2219
697.369	1858
697.411	1609
697.442	1264
697.453	1335
697.494	1751
697.536	2195
697.562	2383
697.578	2371
697.620	2355
697.661	2390
697.682	2335
697.703	2160
697.744	1899
697.786	1643
697.801	1531
697.828	1628
697.869	1737
697.911	1835
697.921	1867
697.952	1867
697.994	1804
698.035	1760
698.040	1748
698.077	1878
698.118	1958
698.160	2056
698.160	2046
698.201	2073
698.243	2063
698.279	2031
698.284	2048
698.325	2142
698.367	2214
698.399	2284
698.408	2291
698.449	2248
698.491	2228
698.518	2188
698.532	2144
698.573	2004
698.614	1856
698.638	1753
698.656	1791
698.697	1876
698.738	1959
698.757	1985
698.779	1942
698.820	1853
698.862	1747
698.877	1707
698.903	1967
698.944	2357
698.985	2750
698.996	2849
699.026	2698
699.067	2473
699.116	2195
699.235	1935
699.354	2152
699.474	2243
699.593	2062
699.713	2775
699.832	1822
699.951	2745
700.070	2739
700.190	1795
700.309	2139
700.428	1630
700.547	1910
700.667	2126
700.786	2459
700.905	1939
701.024	1346
701.143	2275
701.262	2088
701.381	1666
701.500	1616
701.619	1924
701.738	2257
701.857	1599
701.976	1630
702.095	2351
702.214	1249
702.333	2058
702.452	2301
702.571	2362
702.690	2184
702.809	1780
702.928	1804
703.047	1786
703.165	2257
703.284	2744
703.403	1937
703.522	1864
703.640	2482
703.759	2773
703.878	2489
703.997	1457
704.115	1535
704.234	1477
704.353	2007
704.471	2004
704.590	2024
704.708	2003
704.827	2232
704.946	1479
705.064	1848
705.183	1680
705.301	1764
705.420	2626
705.538	2426
705.656	2639
705.775	2077
705.893	3403
706.012	6859
706.130	3630
706.249	2618
706.367	1907
706.485	1807
706.604	1780
706.722	2478
706.840	2727
706.958	3892
707.077	3366
707.195	2053
707.313	2011
707.431	1822
707.549	2370
707.668	1549
707.786	2893
707.904	1197
708.022	2045
708.140	1822
708.258	2652
708.376	1587
708.494	2138
708.612	1898
708.730	2026
708.848	1667
708.966	1687
709.084	1951
709.202	2713
709.320	1361
709.438	2555
709.556	2020
709.674	2589
709.791	2180
709.909	2676
710.027	1192
710.145	2000
710.263	1252
710.380	1926
710.498	2297
710.616	2127
710.733	2147
710.851	2212
710.969	2114
711.086	1975
711.204	1248
711.322	2144
711.439	1119
711.557	2192
711.674	1655
711.792	1689
711.909	1674
712.027	2287
712.144	1619
712.262	2107
712.379	2141
712.497	2491
712.614	2961
712.732	2859
712.849	2492
712.966	1971
713.084	1699
713.201	1764
713.318	2239
713.436	2718
713.553	1757
713.670	3111
713.787	2308
713.905	2493
714.022	1608
714.139	2375
714.256	3587
714.373	2809
714.490	3328
714.608	6555
714.725	25582
714.842	82896
714.959	15002
715.076	3257
715.193	2330
715.310	1975
715.427	1919
715.544	2645
715.661	1130
715.778	1803
715.895	1416
716.011	2608
716.128	1917
716.245	1611
716.362	2132
716.479	2379
716.596	1491
716.713	1518
716.829	1656
716.946	2596
717.063	1599
717.180	2351
717.296	1625
717.413	1755
717.530	1543
717.646	1688
717.763	1980
717.880	1874
717.996	550
718.113	1782
718.229	1033
718.346	1463
718.462	1031
718.579	2725
718.695	2024
718.812	2806
718.928	1652
719.045	1719
719.161	1488
719.277	1717
719.394	921
719.510	1780
719.626	821
719.743	1968
719.859	1907
719.975	2857
720.092	7630
720.208	27332
720.324	15623
720.440	2510
720.557	1686
720.673	2703
720.789	2315
720.905	4110
721.021	4407
721.137	1887
721.253	1429
721.369	1578
721.486	1549
721.602	2286
721.718	1426
721.834	1566
721.950	1236
722.066	1537
722.181	1126
722.297	1560
722.413	1929
722.529	2143
722.645	1292
722.761	1452
722.877	1276
722.993	1535
723.108	1360
723.224	1515
723.340	1151
723.456	1065
723.571	860
723.687	1343
723.803	1255
723.918	1220
724.034	1018
724.150	1256
724.265	1618
724.381	2208
724.497	3798
724.612	1356
724.728	540
724.843	1359
724.959	576
725.074	1882
725.190	2734
725.305	1500
725.421	653
725.536	1564
725.651	1436
725.767	648
725.882	870
725.997	1568
726.113	599
726.228	493
726.343	734
726.459	1199
726.574	563
726.689	958
726.804	1414
726.920	645
727.035	598
727.150	815
727.265	492
727.380	1604
727.495	1628
727.610	679
727.725	861
727.841	249
727.956	2005
728.071	2615
728.186	942
728.301	606
728.416	1630
728.531	461
728.645	327
728.760	1020
728.875	470
728.990	1357
729.105	210
729.220	909
729.335	921
729.449	877
729.564	256
729.679	1554
729.794	931
729.908	781
730.023	739
730.138	46
730.253	1383
730.367	672
730.482	1156
730.596	1561
730.711	1171
730.826	1184
730.940	1209
731.055	1348
731.169	295
731.284	351
731.398	365
731.513	753
731.627	1022
731.742	1536
731.856	1022
731.970	1110
732.085	233
732.199	1160
732.313	1154
732.428	3284
732.542	8855
732.656	15366
732.771	3390
732.885	1292
732.999	810
733.113	1353
733.227	241
733.342	979
733.456	726
733.570	840
733.684	881
733.798	1113
733.912	375
734.026	1019
734.140	-233
734.254	850
734.368	923
734.482	2293
734.596	1101
734.710	1075
734.824	944
734.938	560
735.052	231
735.166	1585
735.280	596
735.393	852
735.507	-420
735.621	1524
735.735	725
735.849	1326
735.962	615
736.076	-210
736.190	624
736.303	918
736.417	611
736.531	999
736.644	212
736.758	928
736.872	-4
736.985	305
737.099	1099
737.212	369
737.326	567
737.439	214
737.553	680
737.666	188
737.780	586
737.893	636
738.007	963
738.120	907
738.233	793
738.347	1049
738.460	921
738.573	-234
738.687	576
738.800	1266
738.913	-111
739.026	1008
739.140	626
739.253	606
739.366	843
739.479	-228
739.592	659
739.705	330
739.818	232
739.932	212
740.045	231
740.158	748
740.271	780
740.384	351
740.497	697
740.610	1334
740.723	841
740.836	299
740.949	306
741.062	556
741.174	925
741.287	282
741.400	191
741.513	1051
741.626	536
741.739	64
741.851	-715
741.964	703
742.077	-167
742.189	-118
742.302	88
742.415	1010
742.527	-205
742.640	-3
742.753	524
742.865	375
742.978	277
743.090	305
743.203	778
743.316	555
743.428	-6
743.541	790
743.653	-354
743.766	351
743.878	357
743.990	733
744.103	804
744.215	950
744.327	500
744.440	1178
744.552	647
744.664	896
744.777	311
744.889	890
745.001	443
745.113	-278
745.226	442
745.338	833
745.450	-318
745.562	402
745.674	901
745.786	1297
745.898	331
746.010	307
746.122	491
746.234	358
746.347	427
746.459	572
746.570	-243
746.682	356
746.794	1273
746.906	93
747.018	333
747.130	495
747.242	697
747.354	1412
747.466	503
747.577	448
747.689	26
747.801	923
747.913	-794
748.024	787
748.136	-278
748.248	268
748.359	559
748.471	-289
748.583	-154
748.694	492
748.806	296
748.918	1272
749.029	541
749.141	966
749.252	439
749.364	423
749.475	987
749.587	1859
749.698	-590
749.809	1186
749.921	488
750.032	382
750.144	588
750.255	131
750.366	194
750.478	226
750.589	999
750.700	-189
750.811	78
750.923	-152
751.034	358
751.145	1470
751.256	179
751.367	745
751.479	-327
751.590	409
751.701	-165
751.812	117
751.923	351
752.034	295
752.145	517
752.256	474
752.367	469
752.478	533
752.589	520
752.700	202
752.811	522
752.922	-115
753.032	234
753.143	56
753.254	554
753.365	560
753.476	245
753.586	667
753.697	-1
753.808	530
753.919	403
754.029	287
754.140	212
754.251	753
754.361	8
754.472	733
754.582	30
754.693	666
754.804	150
754.914	-197
755.025	-10
755.135	280
755.246	-25
755.356	-36
755.466	770
755.577	231
755.687	279
755.798	125
755.908	-577
756.018	-276
756.129	-377
756.239	682
756.349	172
756.460	-101
756.570	222
756.680	639
756.790	69
756.900	1164
757.011	19
757.121	903
757.231	553
757.341	-42
757.451	130
757.561	683
757.671	-220
757.781	151
757.891	946
758.001	1811
758.111	699
758.221	1056
758.331	404
758.441	1002
758.551	-278
758.661	522
758.771	500
758.880	797
758.990	560
759.100	424
759.210	532
759.320	275
759.429	334
759.539	639
759.649	-49
759.758	706
759.868	315
759.978	919
760.087	76
760.197	860
760.307	37
760.416	582
760.526	58
760.635	1247
760.745	477
760.854	968
760.964	590
761.073	651
761.182	370
761.292	1182
761.401	-98
761.511	697
761.620	349
761.729	926
761.839	650
761.948	1680
762.057	254
762.166	1111
762.276	-134
762.385	1071
762.494	836
762.603	1258
762.712	1304
762.822	881
762.931	1616
763.040	1133
763.149	981
763.258	801
763.367	1005
763.476	885
763.585	1288
763.694	1885
763.803	911
763.912	1638
764.021	2219
764.130	2019
764.238	2063
764.347	2466
764.456	1838
764.565	2974
764.674	2628
764.783	3252
764.891	2339
765.000	3677
765.109	4155
765.217	4908
765.326	5270
765.435	7046
765.543	7586
765.652	9338
765.761	12176
765.869	17641
765.978	24931
766.086	38429
766.195	63908
766.303	121959
766.412	224470
766.520	265777
766.629	202789
766.737	97900
766.846	51431
766.954	32704
767.062	24098
767.171	16979
767.279	12659
767.387	9650
767.496	8581
767.604	7578
767.712	5881
767.820	5454
767.928	4980
768.037	4939
768.145	3466
768.253	3744
768.361	3959
768.469	3850
768.577	3351
768.685	4387
768.793	4093
768.901	4122
769.009	4952
769.117	6435
769.225	6978
769.333	10592
769.441	15418
769.549	26535
769.657	48391
769.765	106809
769.873	215962
769.981	200452
770.088	86919
770.196	36810
770.304	21192
770.412	15425
770.519	9592
770.627	8353
770.735	6370
770.842	5363
770.950	4961
771.058	3877
771.165	3415
771.273	3644
771.380	2551
771.488	2341
771.595	1846
771.703	2739
771.810	1711
771.918	2156
772.025	1359
772.133	1602
772.240	1457
772.348	2848
772.455	1308
772.562	985
772.670	708
772.777	1037
772.884	1342
772.991	678
773.099	889
773.206	1648
773.313	872
773.420	938
773.528	686
773.635	834
773.742	1140
773.849	299
773.956	444
774.063	409
774.170	746
774.277	57
774.384	308
774.491	538
774.598	601
774.705	842
774.812	-38
774.919	137
775.026	-288
775.133	482
775.239	295
775.346	1263
775.453	-388
775.560	663
775.667	258
775.773	648
775.880	-178
775.987	501
776.093	426
776.200	-310
776.307	630
776.413	448
776.520	37
776.627	712
776.733	-269
776.840	735
776.946	1348
777.053	1005
777.159	846
777.266	359
777.372	1238
777.478	1321
777.585	470
777.691	340
777.798	488
777.904	347
778.010	-373
778.117	631
778.223	77
778.329	338
778.435	-44
778.542	417
778.648	679
778.754	-319
778.860	559
778.966	447
779.072	-469
779.178	569
779.284	658
779.391	93
779.497	-889
779.603	1656
779.708	7
779.815	1944
779.920	5259
780.026	20127
780.132	11499
780.238	1288
780.344	823
780.450	578
780.556	292
780.661	74
780.767	-275
780.873	-207
780.979	-81
781.085	-508
781.190	-92
781.296	213
781.402	-450
781.507	33
781.613	-25
781.719	-171
781.824	-128
781.930	93
782.035	154
782.141	-116
782.246	-675
782.352	229
782.457	-337
782.563	24
782.668	362
782.773	124
782.879	-196
782.984	-460
783.090	249
783.195	98
783.300	-97
783.405	-140
783.511	-411
783.616	153
783.721	142
783.826	36
783.932	380
784.037	92
784.142	-589
784.247	-91
784.352	-115
784.457	-1
784.562	-488
784.667	420
784.772	-297
784.877	-172
784.982	-371
785.087	-144
785.192	656
785.297	793
785.402	-239
785.507	-545
785.611	-113
785.716	232
785.821	-469
785.926	-439
786.031	-254
786.135	228
786.240	-67
786.345	-781
786.450	47
786.554	176
786.659	-417
786.763	-361
786.868	-77
786.973	540
787.077	-188
787.182	-153
787.286	-633
787.391	640
787.495	-708
787.600	357
787.704	-1069
787.809	56
787.913	-446
788.017	-144
788.122	-360
788.226	171
788.330	-448
788.435	-772
788.539	-570
788.643	-256
788.747	105
788.852	-444
788.956	-294
789.060	153
789.164	299
789.268	-156
789.372	-681
789.476	-445
789.580	-785
789.684	-679
789.788	-377
789.892	-201
789.996	-393
790.100	219
790.204	-919
790.308	-1032
790.412	-518
790.516	272
790.620	-810
790.724	-75
790.828	-789
790.931	-159
791.035	-81
791.139	-133
791.242	-764
791.346	123
791.450	-245
791.554	9
791.657	-318
791.761	55
791.864	-257
791.968	55
792.072	-302
792.175	49
792.279	-148
792.382	25
792.486	542
792.589	-386
792.693	361
792.796	-428
792.899	-178
793.003	32
793.106	-997
793.209	-238
793.313	-84
793.416	-685
793.519	-695
793.623	-555
793.726	-324
793.829	-700
793.932	-43
794.035	-281
794.138	-16
794.242	260
794.345	-309
794.448	607
794.551	493
794.654	2884
794.757	10515
794.860	6917
794.963	518
795.066	-7
795.169	-570
795.272	508
795.375	369
795.477	-363
795.580	392
795.683	-319
795.786	-463
795.889	-1160
795.991	-67
796.094	250
796.197	-1036
796.300	-572
796.402	-1200
796.505	-970
796.608	-208
796.710	-194
796.813	-215
796.915	40
797.018	-770
797.120	-27
797.223	-894
797.326	-405
797.428	-945
797.530	-171
797.633	-450
797.735	-118
797.838	-660
797.940	331
798.042	-1078
798.145	-31
798.247	-216
798.349	-1264
798.452	-512
798.554	-608
798.656	-840
798.758	-231
798.860	-202
798.962	-537
799.065	-523
799.167	-581
799.269	-464
799.371	-427
799.473	-228
799.575	-982
799.677	-1154
799.779	516
799.881	-449
799.983	-424
800.085	197
800.187	-584
800.289	-1432
800.390	310
800.492	-749
800.594	121
800.696	-931
800.798	67
800.899	-626
801.001	170
801.103	-984
801.205	-190
801.306	-74
801.408	-416
801.509	-285
801.611	-137
801.713	149
801.814	-1263
801.916	-839
802.017	-413
802.119	-505
802.220	-179
802.322	-1519
802.423	690
802.525	-1082
802.626	140
802.727	-1129
802.829	-34
802.930	-1537
803.031	429
803.133	-497
803.234	-392
803.335	-787
803.436	125
803.538	-890
803.639	-485
803.740	-57
803.841	-528
803.942	-1011
804.043	-429
804.144	-630
804.245	-263
804.346	-1126
804.447	-775
804.548	-776
804.649	454
804.750	-399
804.851	-362
804.952	-191
805.053	23
805.154	-1085
805.255	857
805.355	-579
805.456	414
805.557	-538
805.658	-933
805.758	-138
805.859	-623
805.960	-1034
806.061	-47
806.161	-502
806.262	-545
806.362	-1008
806.463	267
806.564	191
806.664	-592
806.765	-699
806.865	51
806.966	-920
807.066	-309
807.166	-255
807.267	-197
807.367	-841
807.468	325
807.568	-734
807.668	-250
807.769	-615
807.869	193
807.969	-422
808.069	-468
808.170	-1163
808.270	-654
808.370	-835
808.470	-470
808.570	-855
808.670	170
808.770	-308
808.870	109
808.970	-490
809.070	-799
809.170	-954
809.271	261
809.370	-1330
809.470	2
809.570	-94
809.670	-9
809.770	-1083
809.870	-192
809.970	-782
810.070	-846
810.169	-1058
810.269	-1294
810.369	538
810.469	-619
810.568	-785
810.668	-320
810.768	-793
810.867	-386
810.967	-712
811.066	-493
811.166	-280
811.265	-496
811.365	-1195
811.464	-332
811.564	-327
811.663	-341
811.763	-811
811.862	-178
811.962	-85
812.061	-259
812.160	-977
812.260	-24
812.359	-648
812.458	575
812.557	-88
812.657	578
812.756	645
812.855	-217
812.954	-438
813.053	-34
813.153	-1026
813.252	-605
813.351	136
813.450	-955
813.549	-1018
813.648	-321
813.747	-487
813.846	107
813.945	71
814.044	14
814.143	-762
814.242	-25
814.341	-513
814.439	-200
814.538	-221
814.637	293
814.736	-420
814.835	363
814.933	-20
815.032	-340
815.131	-268
815.229	38
815.328	-495
815.427	142
815.525	-120
815.624	696
815.722	-227
815.821	770
815.919	176
816.018	74
816.116	150
816.215	-450
816.313	1075
816.412	977
816.510	465
816.609	1181
816.707	84
816.805	323
816.904	290
817.002	751
817.100	865
817.198	401
817.296	1385
817.395	2029
817.493	1739
817.591	2141
817.689	2492
817.787	4202
817.885	6837
817.983	12657
818.081	23950
818.179	52548
818.277	119614
818.375	197053
818.473	92781
818.571	28628
818.669	14373
818.767	11163
818.865	10095
818.963	11019
819.061	14921
819.158	24930
819.256	44728
819.354	93478
819.452	198078
819.549	251523
819.647	111432
819.745	40211
819.842	19853
819.940	13488
820.038	9212
820.135	7370
820.233	5074
820.330	4642
820.428	2285
820.525	2432
820.623	2737
820.720	2087
820.818	1230
820.915	2447
821.012	1509
821.110	871
821.207	1220
821.304	808
821.402	1151
821.499	1184
821.596	632
821.693	452
821.791	598
821.888	768
821.985	832
822.082	937
822.179	865
822.276	958
822.373	284
822.470	-125
822.567	-99
822.664	171
822.761	-171
822.858	-609
822.955	-158
823.052	503
823.149	-814
823.246	266
823.343	-229
823.440	228
823.536	-260
823.633	425
823.730	-220
823.827	-466
823.923	-136
824.020	771
824.117	-480
824.213	-38
824.310	43
824.407	327
824.503	721
824.600	-229
824.696	41
824.793	366
824.889	-656
824.986	527
825.082	167
825.179	55
825.275	-101
825.371	-243
825.468	640
825.564	71
825.660	-238
825.757	497
825.853	-38
825.949	-429
826.045	-419
826.142	-594
826.238	-1004
826.334	197
826.430	-436
826.526	490
826.622	-791
826.718	83
826.814	-730
826.910	386
827.006	-123
827.102	-287
827.198	241
827.294	-690
827.390	-254
827.486	-267
827.582	-381
827.678	-633
827.774	691
827.869	-948
827.965	423
828.061	-258
828.157	-450
828.252	-37
828.348	-935
828.444	295
828.539	-776
828.635	-461
828.731	-268
828.826	8
828.922	-288
829.017	-280
829.113	-226
829.208	-760
829.304	-589
829.399	-156
829.495	-693
829.590	-399
829.685	-257
829.781	-2
829.876	-556
829.971	388
830.066	-558
830.162	-410
830.257	-836
830.352	-671
830.447	-113
830.543	310
830.638	-921
830.733	95
830.828	-507
830.923	-351
831.018	-799
831.113	-427
831.208	-746
831.303	-585
831.398	-3
831.493	-601
831.588	-15
831.683	-375
831.778	-283
831.873	-662
831.967	15
832.062	-1024
832.157	-1334
832.252	471
832.346	-484
832.441	-282
832.536	-353
832.631	429
832.725	276
832.820	-615
832.914	-1121
833.009	-767
833.104	-1214
833.198	-291
833.293	-171
833.387	109
833.482	-1160
833.576	-774
833.670	472
833.765	-535
833.859	-764
833.954	-236
834.048	312
834.142	544
834.237	-498
834.331	17
834.425	-508
834.519	-315
834.613	-572
834.708	-692
834.802	-782
834.896	-353
834.990	-928
835.084	600
835.178	-1195
835.272	289
835.366	-308
835.460	294
835.554	-109
835.648	232
835.742	-759
835.836	-588
835.930	-1460
836.024	439
836.117	105
836.211	-105
836.305	22
836.399	656
836.493	-694
836.586	322
836.680	-941
836.774	35
836.867	221
836.961	-616
837.055	-610
837.148	-481
837.242	-618
837.335	468
837.429	-686
837.522	-528
837.616	-724
837.709	-701
837.803	87
837.896	36
837.989	-278
838.083	81
838.176	135
838.269	-804
838.363	-91
838.456	-436
838.549	-147
838.642	367
838.735	-25
838.829	926
838.922	-247
839.015	-58
839.108	77
839.201	-825
839.294	-174
839.387	-29
839.480	-919
839.573	-513
839.666	-608
839.759	-88
839.852	-675
839.945	-15
840.038	31
840.131	-1085
840.223	-677
840.316	69
840.409	-76
840.502	-1252
840.594	-409
840.687	-917
840.780	-559
840.873	-258
840.965	-580
841.058	-212
841.150	-671
841.243	-451
841.336	-874
841.428	217
841.521	-1610
841.613	-526
841.706	-357
841.798	-438
841.890	-582
841.983	-358
842.075	-337
842.167	411
842.260	-490
842.352	-327
842.444	-755
842.537	402
842.629	344
842.721	-282
842.813	-535
842.905	-606
842.997	-1065
843.090	-428
843.182	-41
843.274	-644
843.366	802
843.458	1199
843.550	1903
843.642	-207
843.734	-1192
843.826	-673
843.918	-422
844.009	-160
844.101	-1077
844.193	-612
844.285	-308
844.377	-615
844.469	-450
844.560	-169
844.652	-1277
844.744	-302
844.835	-37
844.927	-163
845.019	-127
845.110	-368
845.202	-571
845.293	-466
845.385	-452
845.476	-111
845.568	-71
845.659	60
845.751	39
845.842	-373
845.934	-777
846.025	-873
846.116	-598
846.208	-235
846.299	-468
846.390	-23
846.482	-752
846.573	-158
846.664	-874
846.755	-843
846.846	-762
846.937	-945
847.029	-779
847.120	-240
847.211	-300
847.302	856
847.393	-1272
847.484	785
847.575	-487
847.666	-839
847.757	-668
847.847	-187
847.938	369
848.029	-149
848.120	-609
848.211	-1317
848.302	-241
848.392	-684
848.483	-159
848.574	-341
848.664	-341
848.755	-476
848.846	-948
848.936	-1050
849.027	-656
849.118	-285
849.208	-79
849.299	186
849.389	-340
849.480	-156
849.570	-635
849.661	468
849.751	2067
849.841	1853
849.932	-334
850.022	-1102
850.112	-372
850.203	-347
850.293	-620
850.383	-978
850.474	-1240
850.564	-35
850.654	-685
850.744	-302
850.834	-231
850.924	-732
851.014	-186
851.104	-188
851.194	-751
851.284	-195
851.374	-385
851.464	-1462
851.554	-931
851.644	23
851.734	117
851.824	135
851.914	276
852.004	932
852.094	699
852.183	-116
852.273	-528
852.363	-655
852.452	-845
852.542	50
852.632	-1221
852.721	-327
852.811	-758
852.901	-380
852.990	-600
853.080	-330
853.169	-941
853.259	-74
853.348	-329
853.438	-906
853.527	-1144
853.617	201
853.706	-515
853.795	1275
853.885	2049
853.974	4550
854.063	9808
854.152	19561
854.242	17934
854.331	2375
854.420	-585
854.509	-231
854.598	-466
854.687	-477
854.777	-572
854.866	-370
854.955	-363
855.044	-1715
855.133	-669
855.222	-125
855.311	-889
855.400	-122
855.488	-860
855.577	-281
855.666	-1249
855.755	-276
855.844	-456
855.933	-578
856.021	-763
856.110	5
856.199	-1146
856.288	-498
856.376	-832
856.465	66
856.554	-279
856.642	-957
856.731	-737
856.819	-411
856.908	-230
856.996	-66
857.085	135
857.173	-741
857.262	-358
857.350	104
857.438	-905
857.527	-779
857.615	-1155
857.703	-199
857.792	-619
857.880	-96
857.968	-471
858.056	-730
858.145	-220
858.233	-358
858.321	-977
858.409	-95
858.497	-777
858.585	-600
858.673	-1003
858.761	-729
858.849	-1419
858.937	-220
859.025	-374
859.113	-328
859.201	-850
859.289	86
859.377	-730
859.465	-1114
859.552	-347
859.640	-713
859.728	-652
859.816	-550
859.903	-1040
859.991	-1058
860.079	-752
860.166	110
860.254	-883
860.342	50
860.429	-709
860.517	-242
860.604	-762
860.692	-789
860.779	-965
860.867	-286
860.954	-1381
861.042	-496
861.129	-1226
861.216	-687
861.304	-1056
861.391	-417
861.478	-559
861.565	-360
861.653	-846
861.740	-306
861.827	-875
861.914	93
862.001	-1376
862.089	-771
862.176	-1117
862.263	-921
862.350	-971
862.437	-866
862.524	-984
862.611	-291
862.698	-863
862.785	-537
862.871	-776
862.958	-422
863.045	-614
863.132	-203
863.219	-58
863.306	-1272
863.392	-522
863.479	-733
863.566	-961
863.652	-746
863.739	-415
863.826	-1146
863.912	-1342
863.999	-837
864.086	-256
864.172	-906
864.259	-892
864.345	-406
864.432	-1179
864.518	-125
864.604	-857
864.691	-506
864.777	-263
864.863	-184
864.950	-69
865.036	108
865.122	-378
865.209	817
865.295	31
865.381	228
865.467	-549
865.553	563
865.639	-262
865.726	18
865.812	872
865.898	2923
865.984	4252
866.070	6361
866.156	12527
866.242	7733
866.328	1197
866.414	12
866.499	-123
866.585	-504
866.671	154
866.757	30
866.843	51
866.928	1026
867.014	-1094
867.100	233
867.186	-801
867.271	539
867.357	-8
867.442	727
867.528	-418
867.614	112
867.699	77
867.785	326
867.870	-504
867.956	516
868.041	-438
868.127	74
868.212	-210
868.297	-480
868.383	-484
868.468	240
868.553	1114
868.639	606
868.724	851
868.809	933
868.894	-396
868.979	235
869.065	-793
869.150	-710
869.235	-621
869.320	-349
869.405	-471
869.490	167
869.575	-738
869.660	3
869.745	-894
869.830	94
869.915	-342
870.000	-13
870.085	-292
870.169	33
870.254	86
870.339	-713
870.424	-866
870.509	109
870.593	-291
870.678	-320
870.763	-1420
870.847	875
870.932	-636
871.016	33
871.101	-278
871.186	-9
871.270	-27
871.355	-419
871.439	-1127
871.523	-99
871.608	-551
871.692	223
871.777	65
871.861	14
871.945	-406
872.030	518
872.114	-97
872.198	-878
872.282	-735
872.367	320
872.451	-452
872.535	-187
872.619	-731
872.703	-477
872.787	-488
872.871	56
872.955	-847
873.039	-416
873.123	-946
873.207	374
873.291	-618
873.375	-711
873.459	356
873.543	-809
873.627	-796
873.711	116
873.794	299
873.878	-550
873.962	-581
874.045	-627
874.129	-1025
874.137	-926
874.213	60
874.245	-107
874.296	-377
874.352	-823
874.380	-1047
874.460	-1178
874.464	-1184
874.547	-285
874.568	-368
874.631	-618
874.676	-661
874.714	-703
874.784	93
874.798	254
874.881	806
874.892	645
874.965	-461
874.999	3
875.048	618
875.107	129
875.131	-79
875.215	-111
875.215	-111
875.298	-530
875.323	-459
875.381	-262
875.430	-12
875.465	119
875.538	-269
875.548	-311
875.631	-529
875.646	-456
875.714	-158
875.753	-7
875.798	213
875.861	-59
875.881	-169
875.964	-563
875.968	-520
876.047	375
876.076	294
876.130	-13
876.183	395
876.213	705
876.291	-252
876.296	-326
876.379	157
876.398	181
876.462	340
876.506	249
876.545	100
876.613	-407
876.628	-475
876.711	182
876.721	191
876.794	144
876.828	114
876.877	1
876.935	-318
876.960	-397
877.043	-109
877.043	-111
877.125	-53
877.150	307
877.208	924
877.258	440
877.291	166
877.365	10
877.374	-9
877.456	325
877.472	350
877.539	515
877.579	255
877.622	2
877.687	481
877.704	593
877.787	46
877.794	67
877.869	473
877.901	542
877.952	501
878.008	502
878.034	540
878.115	-273
878.117	-286
878.199	377
878.222	337
878.282	171
878.329	697
878.364	1111
878.437	839
878.447	803
878.529	683
878.544	720
878.611	829
878.651	737
878.694	622
878.758	511
878.776	557
878.858	897
878.865	870
878.941	223
878.972	334
879.023	411
879.078	71
879.105	126
879.185	704
879.187	714
879.269	427
879.292	608
879.351	1026
879.399	745
879.433	539
879.506	828
879.516	898
879.598	510
879.613	636
879.680	880
879.720	764
879.762	943
879.827	1328
879.844	1261
879.926	253
879.933	258
880.007	925
880.040	1012
880.089	1175
880.147	1308
880.171	1267
880.253	1026
880.254	1021
880.335	1340
880.360	1451
880.417	1728
880.467	1738
880.499	1909
880.574	3049
880.580	3090
880.662	2591
880.680	2263
880.744	662
880.787	387
880.825	548
880.893	967
880.907	1118
880.989	1527
881.000	1510
881.070	806
881.106	796
881.152	1165
881.213	1086
881.233	968
881.315	1017
881.319	1010
881.396	1314
881.426	1211
881.478	921
881.532	1393
881.559	1622
881.639	1672
881.641	1668
881.722	251
881.745	431
881.803	1528
881.852	1464
881.885	1228
881.958	1248
881.966	1280
882.047	1190
882.064	1222
882.129	1445
882.171	1578
882.210	1761
882.277	2148
882.291	2208
882.372	2357
882.383	2359
882.454	1945
882.489	1681
882.535	1585
882.596	1521
882.616	1462
882.697	1302
882.702	1259
882.778	1180
882.808	1397
882.859	1446
882.914	1156
882.940	1142
883.020	1021
883.021	1029
883.102	1527
883.127	1529
883.183	1384
883.233	1525
883.264	1758
883.339	1784
883.345	1759
883.426	1418
883.445	1398
883.507	1717
883.551	1706
883.587	1573
883.657	1621
883.668	1710
883.749	2175
883.763	2226
883.830	1888
883.869	1781
883.910	1767
883.975	1631
883.991	1619
884.072	1545
884.081	1481
884.152	1280
884.187	1502
884.233	1991
884.292	2134
884.314	2070
884.394	2166
884.398	2153
884.475	1819
884.504	1708
884.555	1707
884.610	1503
884.636	1470
884.716	1660
884.716	1671
884.797	1981
884.821	1973
884.877	1915
884.927	1883
884.958	2029
885.033	2599
885.038	2571
885.118	1601
885.139	1395
885.199	1753
885.244	1737
885.279	1606
885.350	2149
885.359	2231
885.439	2159
885.456	2139
885.520	2014
885.561	2033
885.600	2181
885.667	2495
885.680	2475
885.760	1883
885.773	1879
885.840	2410
885.878	2463
885.920	2455
885.984	2468
886.000	2359
886.080	1860
886.089	1798
886.160	2260
886.195	2393
886.240	2277
886.300	2350
886.320	2429
886.400	2399
886.406	2385
886.480	2680
886.511	2878
886.560	2785
886.616	2542
886.640	2609
886.720	2789
886.722	2782
886.800	2666
886.827	2595
886.879	2578
886.932	2592
886.959	2763
887.038	2993
887.039	3008
887.119	3215
887.143	3256
887.198	3031
887.248	2824
887.278	2809
887.354	2592
887.358	2628
887.437	3140
887.459	3267
887.517	2844
887.564	2546
887.596	2599
887.669	2590
887.676	2583
887.755	2454
887.774	2332
887.835	2528
887.880	2923
887.914	3000
887.985	2794
887.994	2753
888.073	2562
888.090	2456
888.153	3112
888.195	3557
888.232	3373
888.300	3093
888.311	3126
888.391	3226
888.405	3225
888.470	3256
888.510	3263
888.549	3216
888.615	3120
888.628	3024
888.708	2399
888.720	2276
888.787	2900
888.825	3283
888.866	3252
888.930	3125
888.945	3188
889.024	3517
889.035	3543
889.103	3500
889.140	3455
889.182	3372
889.245	3234
889.261	3205
889.340	3002
889.349	2965
889.419	2987
889.454	3001
889.498	2989
889.559	2927
889.577	3029
889.656	3439
889.664	3469
889.735	3616
889.768	3664
889.814	3446
889.873	3134
889.978	3050
890.083	3701
890.187	3526
890.292	3274
890.397	3101
890.501	3398
890.606	3553
890.710	3625
890.815	4763
890.919	3331
891.024	3740
891.128	3569
891.233	3533
891.337	3995
891.442	3617
891.546	3281
891.650	3351
891.755	3199
891.859	4115
891.963	3732
892.068	3751
892.172	4130
892.276	2851
892.380	2607
892.484	3371
892.589	4203
892.693	3605
892.797	3105
892.901	3276
893.005	3019
893.109	3130
893.213	3931
893.317	2908
893.421	3519
893.525	3087
893.629	2650
893.733	3719
893.837	3779
893.941	2597
894.045	3661
894.148	3907
894.252	7012
894.356	7113
894.460	3954
894.564	2618
894.667	3575
894.771	2746
894.875	2737
894.978	3265
895.082	3237
895.186	2818
895.289	3073
895.393	2748
895.496	3074
895.600	2524
895.703	2614
895.807	2973
895.910	2763
896.014	3891
896.117	2963
896.221	2740
896.324	3381
896.427	2381
896.531	2570
896.634	3433
896.737	3046
896.840	4067
896.944	2443
897.047	3371
897.150	3126
897.253	3133
897.356	3132
897.460	3330
897.563	2509
897.666	3496
897.769	2993
897.872	2430
897.975	3735
898.078	3338
898.181	3130
898.284	2888
898.387	2975
898.490	2834
898.593	2585
898.695	2613
898.798	3169
898.901	3245
899.004	3038
899.107	3296
899.209	3169
899.312	3636
899.415	3496
899.518	2419
899.620	2884
899.723	2361
899.826	3645
899.928	4005
900.031	3256
900.133	3348
900.236	3234
900.338	2210
900.441	2199
900.543	1914
900.646	3554
900.748	2533
900.851	2860
900.953	2195
901.055	3306
901.158	2795
901.260	2568
901.362	2328
901.465	2655
901.567	2401
901.669	3127
901.771	1787
901.873	2603
901.976	2900
902.078	2621
902.180	2394
902.282	3266
902.384	2854
902.486	4200
902.588	3649
902.690	3210
902.792	2423
902.894	2841
902.996	1831
903.098	3321
903.200	2140
903.302	2692
903.404	3082
903.505	1966
903.607	2763
903.709	2977
903.811	2554
903.913	2922
904.014	2897
904.116	2455
904.218	2620
904.319	3477
904.421	3742
904.523	3183
904.624	2456
904.726	2847
904.827	2382
904.929	2813
905.030	1634
905.132	2789
905.233	3112
905.335	3283
905.436	2266
905.537	2278
905.639	2534
905.740	3233
905.841	3534
905.943	3092
906.044	2589
906.145	3192
906.247	2721
906.348	2528
906.449	2579
906.550	3185
906.651	2924
906.752	3032
906.854	2334
906.955	2358
907.056	2668
907.157	2848
907.258	2698
907.359	3008
907.460	2720
907.561	2796
907.662	1910
907.762	2955
907.863	2454
907.964	2622
908.065	2907
908.166	2339
908.267	3033
908.367	2319
908.468	2438
908.569	3092
908.670	2564
908.770	3919
908.871	2841
908.971	3544
909.072	3522
909.173	3259
909.273	2731
909.374	2573
909.474	2931
909.575	2613
909.675	2449
909.776	2935
909.876	3427
909.977	2814
910.077	3175
910.177	3207
910.278	3461
910.378	2584
910.478	2438
910.579	2579
910.679	2942
910.779	3422
910.879	3432
910.980	3320
911.080	2528
911.180	2781
911.280	2380
911.380	2959
911.480	3036
911.580	3516
911.680	2651
911.780	3135
911.880	3093
911.980	2641
912.080	2845
912.180	3438
912.280	3291
912.380	3011
912.480	2228
912.580	2032
912.679	2462
912.779	3249
912.879	3173
912.979	3399
913.078	2748
913.178	3001
913.278	3245
913.377	2664
913.477	3283
913.577	2462
913.676	3210
913.776	2683
913.875	2229
913.975	4054
914.074	2774
914.174	3507
914.273	2471
914.373	3072
914.472	3407
914.572	2865
914.671	2987
914.770	3490
914.870	3000
914.969	2978
915.068	2572
915.167	3238
915.267	2674
915.366	3241
915.465	3263
915.564	2967
915.663	2423
915.763	3156
915.862	3037
915.961	2763
916.060	2422
916.159	2091
916.258	2174
916.357	2845
916.456	3276
916.555	3137
916.654	2391
916.752	3377
916.851	3010
916.950	2992
917.049	2418
917.148	2740
917.247	1717
917.345	2089
917.444	1833
917.543	3078
917.642	1982
917.740	3424
917.839	3187
917.937	3170
918.036	3357
918.135	3005
918.233	2975
918.332	3041
918.430	3184
918.529	3266
918.627	1920
918.726	2940
918.824	2747
918.923	2952
919.021	3166
919.119	2332
919.218	1972
919.316	3199
919.414	2578
919.512	3404
919.611	2592
919.709	2944
919.807	2516
919.905	2862
920.003	2968
920.102	3317
920.200	3458
920.298	3009
920.396	3318
920.494	2859
920.592	2452
920.690	2836
920.788	2874
920.886	2949
920.984	4328
921.082	3205
921.180	3583
921.277	3762
921.375	3681
921.473	3352
921.571	3743
921.669	4321
921.766	4280
921.864	3149
921.962	3535
922.060	3429
922.157	3483
922.255	4374
922.352	3891
922.450	3962
922.548	3708
922.645	3392
922.743	3710
922.840	4919
922.938	6024
923.035	6086
923.133	4409
923.230	5490
923.327	6235
923.425	6961
923.522	6061
923.619	5816
923.717	5832
923.814	5599
923.911	5363
924.008	5013
924.106	5171
924.203	5458
924.300	5297
924.397	5390
924.494	5933
924.591	5758
924.688	5575
924.786	5314
924.883	5965
924.979	4972
925.077	4911
925.173	5387
925.270	5161
925.367	4455
925.464	5048
925.561	4803
925.658	5578
925.755	5122
925.852	4590
925.948	5457
926.045	5252
926.142	4312
926.239	5735
926.335	5310
926.432	5223
926.529	5586
926.625	5388
926.722	5154
926.818	4234
926.915	4724
927.011	5208
927.108	5178
927.204	4342
927.301	4615
927.397	4374
927.494	5009
927.590	5274
927.687	5075
927.783	4670
927.879	5239
927.976	4914
928.072	4924
928.168	4813
928.264	5383
928.361	4921
928.457	4901
928.553	4906
928.649	5084
928.745	5441
928.841	4268
928.937	4931
929.033	5929
929.129	4773
929.225	4711
929.321	4621
929.417	4396
929.513	4875
929.609	4596
929.705	4456
929.801	5398
929.897	4186
929.993	5480
930.089	4434
930.184	5391
930.280	4513
930.376	5788
930.471	4450
930.567	4333
930.663	4618
930.758	4464
930.854	4753
930.950	4307
931.045	5044
931.141	3807
931.236	5038
931.332	5263
931.427	3951
931.523	4904
931.618	5053
931.714	3896
931.809	4187
931.905	4502
932.000	4203
932.095	3503
932.191	3877
932.286	5030
932.381	4354
932.476	3923
932.572	3554
932.667	4311
932.762	3755
932.857	4053
932.952	4175
933.047	4214
933.142	3791
933.237	3571
933.332	4142
933.427	5300
933.522	4483
933.617	3981
933.712	4013
933.807	4212
933.902	5054
933.997	4968
934.092	3530
934.187	4153
934.282	4836
934.376	4976
934.471	4286
934.566	4227
934.661	4131
934.755	3932
934.850	4377
934.945	4092
935.039	3415
935.134	3754
935.228	3311
935.323	4581
935.417	3843
935.512	3708
935.606	2995
935.701	4146
935.795	3814
935.890	4674
935.984	4116
936.079	3122
936.173	3585
936.267	4324
936.362	3483
936.456	3023
936.550	3512
936.644	4146
936.738	3574
936.833	3785
936.927	3485
937.021	4600
937.115	3332
937.209	3578
937.303	4010
937.397	3391
937.491	3708
937.585	4090
937.679	4351
937.773	4062
937.867	3089
937.961	3512
938.055	4177
938.149	4197
938.243	2730
938.337	3509
938.430	3000
938.524	3289
938.618	3999
938.712	4080
938.805	3158
938.899	3980
938.993	4406
939.086	3617
939.180	2370
939.274	3624
939.367	3443
939.461	3664
939.554	3347
939.648	3309
939.741	2213
939.835	3423
939.928	3740
940.022	3614
940.115	3356
940.208	3463
940.302	3899
940.395	4019
940.488	3798
940.582	3420
940.675	3373
940.768	3339
940.861	2830
940.954	3690
941.048	2731
941.141	2492
941.234	3429
941.327	3819
941.420	2943
941.513	3981
941.606	3162
941.699	3215
941.792	3076
941.885	3633
941.978	3530
942.071	2926
942.164	2900
942.257	2480
942.349	3266
942.442	3166
942.535	2618
942.628	3544
942.721	3549
942.813	2744
942.906	3111
942.999	3876
943.091	2947
943.184	2441
943.277	3314
943.369	2843
943.462	2220
943.554	2739
943.647	3076
943.739	3173
943.832	2792
943.924	3382
944.017	2744
944.109	2905
944.201	3540
944.294	3499
944.386	3117
944.478	3733
944.571	2467
944.663	2533
944.755	3028
944.847	3185
944.940	2998
945.032	2900
945.124	2216
945.216	2241
945.308	3663
945.400	2749
945.492	3116
945.584	2666
945.676	3558
945.768	2636
945.860	2756
945.952	3199
946.044	2530
946.136	3030
946.228	2893
946.320	2916
946.412	3153
946.503	2082
946.595	3281
946.687	2539
946.779	2938
946.870	2471
946.962	1946
947.054	2819
947.145	2578
947.237	2898
947.329	2594
947.420	2814
947.512	2364
947.603	3306
947.695	2602
947.786	1755
947.878	2917
947.969	2542
948.061	2459
948.152	2951
948.243	2091
948.335	2307
948.426	2154
948.517	3398
948.609	2970
948.700	2955
948.791	3297
948.882	2249
948.973	1844
949.065	2282
949.156	2900
949.247	2551
949.338	2808
949.429	2971
949.520	2257
949.611	2195
949.702	2627
949.793	2268
949.884	2094
949.975	2917
950.066	2151
950.157	2153
950.247	1814
950.338	1541
950.429	2502
950.520	2764
950.611	2692
950.701	2036
950.792	2664
950.883	2414
950.973	2296
951.064	2702
951.155	2986
951.245	3380
951.336	2351
951.427	2184
951.517	3155
951.608	2292
951.698	3043
951.788	2992
951.879	2250
951.969	1849
952.060	2504
952.150	2310
952.240	2194
952.331	1889
952.421	3644
952.511	1747
952.602	1944
952.692	2183
952.782	1721
952.872	1671
952.962	2449
953.052	2593
953.143	2009
953.233	2231
953.323	2550
953.413	2135
953.503	2520
953.593	2906
953.683	2914
953.773	1952
953.863	1533
953.953	1563
954.042	2437
954.132	2757
954.222	2382
954.312	2234
954.402	2155
954.492	2630
954.581	2566
954.671	2442
954.761	1853
954.850	1864
954.940	521
955.030	1627
955.119	1913
955.209	1745
955.298	2234
955.388	3281
955.477	2036
955.567	2373
955.656	3030
955.746	2157
955.835	2620
955.925	1578
956.014	1886
956.103	1955
956.193	2552
956.282	3200
956.371	2261
956.461	1979
956.550	1787
956.639	2852
956.728	2046
956.817	2591
956.906	2484
956.995	2269
957.085	1672
957.174	2337
957.263	1988
957.352	2291
957.441	2084
957.530	2142
957.619	1862
957.708	2788
957.796	2262
957.885	2861
957.974	1774
958.063	2362
958.152	1763
958.241	2169
958.329	1925
958.418	2376
958.507	2102
958.596	2960
958.684	2610
958.773	2645
958.861	2703
958.950	2920
959.039	3150
959.127	2308
959.216	2620
959.304	2692
959.393	2850
959.481	2833
959.570	3188
959.658	3197
959.746	2391
959.835	3250
959.923	3399
960.011	2769
960.100	3423
960.188	3440
960.276	2772
960.365	3140
960.453	2626
960.541	2542
960.629	1975
960.717	1962
960.805	2222
960.893	2049
960.981	1964
961.069	2548
961.158	2421
961.245	3095
961.333	2163
961.421	2296
961.509	2077
961.597	1590
961.685	2219
961.773	2249
961.861	1877
961.949	1929
962.036	2236
962.124	2150
962.212	1594
962.299	1968
962.387	1599
962.475	1581
962.562	658
962.650	1499
962.738	2117
962.825	1151
962.913	1581
963.000	1821
963.088	1899
963.175	1474
963.263	2078
963.350	1506
963.438	2109
963.525	2556
963.612	2710
963.700	2563
963.787	5660
963.874	5227
963.962	2664
964.049	1684
964.136	1072
964.223	1539
964.310	2310
964.398	2386
964.485	1309
964.572	1933
964.659	1357
964.746	1900
964.833	1937
964.920	1817
965.007	1507
965.094	1914
965.181	820
965.268	2338
965.355	1352
965.441	671
965.528	1527
965.615	1565
965.702	1447
965.789	1508
965.875	1672
965.962	2475
966.049	1356
966.136	1542
966.222	1089
966.309	1927
966.395	1803
966.482	1958
966.569	1724
966.655	1524
966.742	2083
966.828	2317
966.915	1168
967.001	1130
967.087	90
967.174	1718
967.260	1263
967.347	868
967.433	3248
967.519	4414
967.605	3437
967.692	1700
967.778	936
967.864	1399
967.950	785
968.036	1119
968.123	1449
968.209	1350
968.295	-66
968.381	2384
968.467	1590
968.553	876
968.639	2586
968.725	1440
968.811	1281
968.897	1900
968.983	824
969.069	879
969.154	1158
969.240	1467
969.326	1199
969.412	1206
969.497	2030
969.583	1357
969.669	1551
969.755	1823
969.840	1074
969.926	2198
970.012	1793
970.097	1966
970.183	2918
970.268	2234
970.354	1993
970.439	1219
970.525	2593
970.610	2153
970.696	1716
970.781	1441
970.866	1501
970.952	1923
971.037	1463
971.122	1592
971.208	2037
971.293	809
971.378	1130
971.463	1203
971.549	1648
971.634	1706
971.719	264
971.804	2050
971.889	2079
971.974	1337
972.059	1337
972.144	1404
972.229	1446
972.314	902
972.399	1514
972.484	1375
972.569	274
972.654	1087
972.739	1603
972.824	2088
972.908	2513
972.993	1238
973.078	957
973.163	1481
973.247	651
973.332	791
973.417	1680
973.501	1041
973.586	1276
973.671	1909
973.755	972
973.840	1678
973.924	1928
974.009	1836
974.093	1340
974.178	2340
974.262	1331
974.346	2144
974.431	1891
974.515	1738
974.600	1365
974.684	1315
974.768	1723
974.852	1616
974.937	834
975.021	1047
975.105	1176
975.189	67
975.273	940
975.358	947
975.442	988
975.526	1692
975.610	1148
975.694	923
975.778	1076
975.862	1761
975.946	397
976.030	1899
976.114	866
976.198	993
976.281	1176
976.365	2004
976.449	1394
976.533	1129
976.617	1812
976.700	1678
976.784	1574
976.868	1321
976.951	1879
977.035	1400
977.119	2138
977.202	1322
977.286	786
977.369	1735
977.453	1976
977.536	1790
977.620	1279
977.703	1914
977.787	787
977.870	1606
977.953	1614
978.037	1109
978.120	1824
978.203	1771
978.287	2056
978.370	2562
978.453	1757
978.536	2323
978.620	2226
978.703	1084
978.786	898
978.869	1521
978.952	1002
979.035	1586
979.118	1237
979.201	1082
979.284	1487
979.367	1711
979.450	1079
979.533	1351
979.616	2154
979.699	1088
979.782	1025
979.865	2225
979.948	1759
980.030	860
980.113	1008
980.196	785
980.279	529
980.361	1180
980.444	1109
980.526	2148
980.609	1136
980.692	1862
980.774	2205
980.857	721
980.939	943
981.022	1601
981.104	1458
981.187	323
981.269	1556
981.352	1449
981.434	1674
981.516	964
981.599	1679
981.681	1282
981.763	928
981.846	1524
981.928	1106
982.010	811
982.092	1034
982.174	1751
982.256	1473
982.339	-34
982.421	829
982.503	2086
982.585	1272
982.667	562
982.749	1172
982.831	1275
982.913	536
982.995	1209
983.077	604
983.158	1368
983.240	1080
983.322	1699
983.404	1795
983.486	1833
983.568	1859
983.649	1078
983.731	1461
983.813	1364
983.894	1137
983.976	586
984.058	981
984.139	719
984.221	611
984.302	826
984.384	1139
984.465	1322
984.547	347
984.628	1490
984.710	1589
984.791	1490
984.872	1366
984.954	1387
985.035	1350
985.116	1246
985.198	1030
985.279	1372
985.360	1729
985.441	1280
985.522	1689
985.604	1238
985.685	998
985.766	1512
985.847	886
985.928	1717
986.009	888
986.090	1340
986.171	1579
986.252	1632
986.333	1318
986.414	1398
986.495	518
986.576	950
986.656	63
986.737	1381
986.818	1019
986.899	449
986.980	1534
987.060	1269
987.141	980
987.222	1607
987.302	1938
987.383	1356
987.464	851
987.544	1070
987.625	933
987.705	1538
987.786	1049
987.866	989
987.947	1363
988.027	1789
988.108	1407
988.188	1646
988.268	631
988.349	1635
988.429	912
988.509	1774
988.589	688
988.670	145
988.750	1892
988.830	1635
988.910	918
988.990	1328
989.070	858
989.151	849
989.231	573
989.311	885
989.391	530
989.471	1304
989.551	1086
989.631	1139
989.711	972
989.791	593
989.870	43
989.950	1318
990.030	509
990.110	1329
990.190	305
990.269	1650
990.349	1236
990.429	1318
990.509	1557
990.588	716
990.668	790
990.747	951
990.827	992
990.907	720
990.986	832
991.066	1586
991.145	908
991.225	884
991.304	1124
991.383	738
991.463	761
991.542	1488
991.622	873
991.701	833
991.780	1451
991.859	379
991.939	816
992.018	828
992.097	722
992.176	1308
992.256	626
992.335	515
992.414	793
992.493	411
992.572	235
992.651	1237
992.730	1616
992.809	659
992.888	427
992.967	957
993.046	1377
993.125	435
993.203	298
993.282	715
993.361	268
993.440	467
993.519	80
993.597	601
993.676	486
993.755	1518
993.834	388
993.912	735
993.991	497
994.069	724
994.148	44
994.226	1464
994.305	539
994.384	541
994.462	858
994.540	505
994.619	551
994.697	810
994.776	69
994.854	1197
994.932	282
995.011	739
995.089	-322
995.167	276
995.245	1292
995.324	-358
995.402	42
995.480	79
995.558	-180
995.636	326
995.714	-500
995.792	1397
995.870	378
995.948	-672
996.026	792
996.104	224
996.182	731
996.260	543
996.338	651
996.416	345
996.494	-521
996.572	1363
996.649	305
996.727	-209
996.805	-354
996.883	99
996.960	96
997.038	941
997.116	125
997.193	238
997.271	975
997.348	-425
997.426	552
997.504	232
997.581	329
997.658	1331
997.736	98
997.813	-217
997.891	322
997.968	-36
998.046	132
998.123	-183
998.200	485
998.277	-89
998.355	-311
998.432	-317
998.509	42
998.586	153
998.663	496
998.741	292
998.818	-435
998.895	-1129
998.972	-95
999.049	117
999.126	-3
999.203	338
999.280	-159
999.357	658
999.434	-489
999.511	459
999.587	-164
999.664	103
999.741	-364
999.818	278
999.895	-92
999.971	-8
1000.048	-47
1000.125	355
1000.202	-226
1000.278	195
1000.355	294
1000.431	193
1000.508	-825
1000.584	-136
1000.661	-388
1000.738	265
1000.814	-363
1000.890	-334
1000.967	-469
1001.043	758
1001.120	-428
1001.196	451
1001.272	51
1001.349	-103
1001.425	-692
1001.501	-181
1001.577	-716
1001.654	-911
1001.730	-204
1001.806	-686
1001.882	-509
1001.958	-59
1002.034	-602
1002.110	256
1002.186	-885
1002.262	-745
1002.338	-226
1002.414	-41
1002.490	-164
1002.566	-129
1002.642	97
1002.718	-82
1002.794	73
1002.870	-279
1002.945	-416
1003.021	316
1003.097	4
1003.173	-355
1003.248	-720
1003.324	174
1003.400	222
1003.475	-787
1003.551	-157
1003.626	296
1003.702	-469
1003.777	334
1003.853	-545
1003.928	-598
1004.004	-117
1004.079	-169
1004.155	-1016
1004.230	-682
1004.305	337
1004.381	-343
1004.456	-523
1004.531	-53
1004.607	-829
1004.682	-874
1004.757	-864
1004.832	-558
1004.907	-99
1004.982	203
1005.057	292
1005.133	-768
1005.208	-186
1005.283	-543
1005.358	543
1005.433	-574
1005.508	-536
1005.583	-888
1005.657	-822
1005.732	-235
1005.807	-321
1005.882	-636
1005.957	-733
1006.032	-242
1006.106	-226
1006.181	-461
1006.256	107
1006.331	-322
1006.405	-82
1006.480	-38
1006.554	-1016
1006.629	-266
1006.704	-1035
1006.778	-502
1006.853	-504
1006.927	-358
1007.002	-770
1007.076	259
1007.150	-978
1007.225	-416
1007.299	157
1007.373	-358
1007.448	-776
1007.522	193
1007.596	-85
1007.671	-626
1007.745	-347
1007.819	-789
1007.893	-648
1007.967	-493
1008.041	-924
1008.115	-42
1008.190	-1121
1008.264	-57
1008.338	-992
1008.412	13
1008.486	-1037
1008.560	-1018
1008.633	-91
1008.707	-552
1008.781	-133
1008.855	-1285
1008.929	-385
1009.003	-325
1009.076	-163
1009.150	-895
1009.224	-352
1009.298	49
1009.371	-829
1009.445	-623
1009.519	-623
1009.592	365
1009.666	-586
1009.739	433
1009.813	-1115
1009.886	-38
1009.960	-563
1010.033	-1009
1010.107	-657
1010.180	-627
1010.253	-1269
1010.327	-400
1010.400	-200
1010.473	-815
1010.547	-192
1010.620	-413
1010.693	-305
1010.766	-1011
1010.840	60
1010.913	469
1010.986	-233
1011.059	-586
1011.132	-1301
1011.205	-627
1011.278	42
1011.351	-933
1011.424	-789
1011.497	-739
1011.570	-1151
1011.643	-485
1011.716	-242
1011.789	-269
1011.862	-565
1011.934	-1150
1012.007	-1108
1012.080	-641
1012.153	-1477
1012.225	-648
1012.298	-645
1012.371	-904
1012.443	-404
1012.516	-1281
1012.588	-405
1012.661	-945
1012.733	-1491
1012.806	-225
1012.879	-799
1012.951	-199
1013.023	-585
1013.096	48
1013.168	-833
1013.241	-135
1013.313	-360
1013.385	-525
1013.458	-877
1013.530	-111
1013.602	110
1013.674	-343
1013.746	-1048
1013.819	-981
1013.891	-969
1013.963	-186
1014.035	-643
1014.107	-831
1014.179	-274
1014.251	-510
1014.323	-1059
1014.395	-391
1014.467	-919
1014.539	-977
1014.611	-1681
1014.683	-500
1014.754	-447
1014.826	-1421
1014.898	-745
1014.970	-1543
1015.042	-927
1015.113	-666
1015.185	-640
1015.257	-1213
1015.328	-846
1015.400	-1260
1015.471	-795
1015.543	-1383
1015.615	-821
1015.686	-821
1015.757	-1067
1015.829	-416
1015.901	-643
1015.972	-388
1016.043	-1016
1016.115	-125
1016.186	-787
1016.257	-744
1016.328	-923
1016.400	193
1016.471	-1754
1016.542	-485
1016.613	-1853
1016.685	-776
1016.756	-1090
1016.827	-719
1016.898	-1549
1016.969	-171
1017.040	-1907
1017.111	-696
1017.182	-302
1017.253	-1605
1017.324	-1009
1017.395	-674
1017.466	-727
1017.537	-1168
1017.608	-1461
1017.678	-591
1017.749	-1178
1017.820	-845
1017.891	-673
1017.961	-1581
1018.032	-761
1018.103	-641
1018.173	-1449
1018.244	-495
1018.315	-1322
1018.385	-321
1018.456	-1086
1018.526	-1092
1018.597	-1043
1018.667	-1054
1018.738	-262
1018.808	-891
1018.878	-742
1018.949	-623
1019.019	-1199
1019.089	-952
1019.160	-980
1019.230	-927
1019.300	-703
1019.371	-1473
1019.441	-775
1019.511	-764
1019.581	-1471
1019.651	-863
1019.721	-1643
1019.791	-1929
1019.861	-1200
1019.931	-383
1020.001	-1528
1020.071	-853
1020.141	-1577
1020.211	-191
1020.281	-2049
1020.351	-1053
1020.421	37
1020.491	-6
1020.560	-1411
1020.630	-641
1020.700	-512
1020.770	-749
1020.839	-1098
1020.909	-928
1020.979	-1221
1021.048	-1398
1021.118	-791
1021.187	-1193
1021.257	-1500
1021.326	-1003
1021.396	-1208
1021.465	-1461
1021.535	-1802
1021.604	-802
1021.674	-1257
1021.743	-350
1021.812	-1005
1021.882	-629
1021.951	-1295
1022.020	-964
1022.089	-895
1022.159	-699
1022.228	-1227
1022.297	-731
1022.366	-1044
1022.435	-1195
1022.504	-647
1022.573	-1421
1022.642	-542
1022.711	-1253
1022.781	-1155
1022.849	-1231
1022.918	-998
1022.987	-1290
1023.056	-216
1023.125	-703
1023.194	-637
1023.263	-839
1023.331	-1166
1023.400	-1223
1023.469	-1638
1023.538	-712
1023.606	-1785
1023.675	-983
1023.744	-1172
1023.812	-1173
1023.881	-1860
1023.949	-1083
1024.018	-895
1024.086	-1090
1024.155	-1100
1024.223	-933
1024.292	-1067
1024.360	-476
1024.429	-1272
1024.497	-658
1024.565	-458
1024.634	-524
1024.702	-2142
1024.770	-122
1024.838	-1134
1024.907	-847
1024.975	-940
1025.043	-947
1025.111	-1025
1025.179	-1272
1025.247	-1205
1025.315	-1781
1025.383	-890
1025.451	-244
1025.519	-1043
1025.587	-995
1025.655	-340
1025.723	-1419
1025.791	-776
1025.859	-1197
1025.927	-628
1025.995	-1390
1026.062	-1679
1026.130	-1113
1026.198	-767
1026.266	-763
1026.333	-785
1026.401	-138
1026.469	-1107
1026.536	-1356
1026.604	-1021
1026.671	-1289
1026.739	-1085
1026.806	-923
1026.874	-1579
1026.941	-1028
1027.009	-1147
1027.076	-852
1027.144	-973
1027.211	-639
1027.278	-426
1027.345	-576
1027.413	-800
1027.480	-1683
1027.547	-1465
1027.614	-880
1027.682	-1138
1027.749	-991
1027.816	-1413
1027.883	-1206
1027.950	-1477
1028.017	-956
1028.084	-1246
1028.151	-1789
1028.218	-1312
1028.285	-1323
1028.352	-531
1028.419	-766
1028.486	-1419
1028.553	-962
1028.619	-1884
1028.686	-87
1028.753	-1391
1028.820	-1304
1028.886	-1292
1028.953	-1152
1029.020	-848
1029.086	-869
1029.153	-1144
1029.220	-1197
1029.286	-1038
1029.353	-1609
1029.419	-1283
1029.486	-1618
1029.552	-1825
1029.619	-561
1029.685	-1115
1029.751	-1204
1029.818	-827
1029.884	-1415
1029.951	-1301
1030.017	-1092
1030.083	-1357
1030.149	-609
1030.216	-1002
1030.282	-1191
1030.348	-1542
1030.414	-994
1030.480	-1437
1030.546	-1114
1030.612	-1165
1030.678	-1266
1030.744	-1440
1030.810	-1690
1030.876	-1343
1030.942	-1173
1031.008	-789
1031.074	-1625
1031.140	-1282
1031.206	-1038
1031.272	-2063
1031.337	-559
1031.403	-1592
1031.469	-540
1031.534	-701
1031.600	-709
1031.666	-1293
1031.731	-1539
1031.797	-1290
1031.863	-1015
1031.928	-839
1031.994	-1445
1032.059	-1628
1032.125	-1452
1032.190	-1059
1032.256	-758
1032.321	-2000
1032.386	-1086
1032.452	-1096
1032.517	-1121
1032.582	-1056
1032.647	-816
1032.713	-1151
1032.778	-470
1032.843	-1583
1032.908	-2150
1032.974	-863
1033.039	-2024
1033.104	-394
1033.169	-829
1033.234	-1598
1033.299	-253
1033.364	-1109
1033.429	-84
1033.494	-1024
1033.559	-860
1033.624	-1367
1033.688	-701
1033.753	-1619
1033.818	-794
1033.883	-1019
1033.948	-1170
1034.013	-491
1034.077	-153
1034.142	-675
1034.207	-1255
1034.271	-288
1034.336	-250
1034.400	-62
1034.465	-146
1034.530	77
1034.594	-463
1034.658	-829
1034.723	-1184
1034.787	-1609
1034.852	-1275
1034.916	-1576
1034.981	-1584
1035.045	-772
1035.109	-1166
1035.173	-928
1035.238	-1296
1035.302	-1367
1035.366	-1176
1035.430	-1244
1035.495	-1153
1035.559	-1138
1035.623	-1319
1035.687	-1738
1035.751	-1232
1035.815	-1542
1035.879	-391
1035.943	-2026
1036.007	-1208
1036.071	-1008
1036.135	-1242
1036.198	-1223
1036.262	-1491
1036.326	-1265
1036.390	-1118
1036.454	-622
1036.517	-933
1036.581	-1627
1036.645	-1551
1036.709	-18
1036.772	-1711
1036.836	-1571
1036.900	-921
1036.963	-1521
1037.026	-1014
1037.090	-1162
1037.154	-1223
1037.217	-836
1037.280	-794
1037.344	-917
1037.407	-1297
1037.471	-828
1037.534	-1369
1037.597	-556
1037.661	-1488
1037.724	-1078
1037.787	-754
1037.850	-1480
1037.913	-1555
1037.977	-838
1038.040	-1130
1038.103	-510
1038.166	-2021
1038.229	-989
1038.292	-184
1038.355	-1145
1038.418	-1762
1038.481	-1490
1038.544	-1187
1038.607	-1091
1038.670	-797
1038.732	-645
1038.795	-1526
1038.858	-1279
1038.921	-665
1038.984	-1506
1039.046	-1139
1039.109	-1742
1039.172	-773
1039.234	-743
1039.297	-950
1039.360	-1687
1039.422	-1433
1039.485	-1804
1039.547	-1414
1039.610	-920
1039.672	-791
1039.734	-839
1039.797	-768
1039.859	-1217
1039.922	-1409
1039.984	-1980
1040.046	-1860
1040.109	-1429
1040.171	-1470
1040.233	-1379
1040.295	-865
1040.358	-1173
1040.420	-1115
1040.482	-2134
1040.544	-1350
1040.606	-1145
1040.668	-1637
1040.730	-975
1040.792	-1183
1040.854	-1405
1040.916	-854
1040.978	-1366
1041.040	-1260
1041.102	-1120
1041.164	-1349
1041.225	-1391
1041.287	-813
1041.349	-899
1041.411	-1546
1041.472	-307
1041.534	-1055
1041.596	-1902
1041.657	-1111
1041.719	-1486
1041.781	-1237
1041.842	-1158
1041.904	-1296
1041.965	-1443
1042.027	-792
1042.088	-492
1042.150	-1961
1042.211	-1793
1042.272	-966
1042.334	-1678
1042.395	-778
1042.456	-1109
1042.518	-1480
1042.579	-1152
1042.640	-684
1042.701	-855
1042.763	-1230
1042.824	-1347
1042.885	-1475
1042.946	-1801
1043.007	-947
1043.068	-1412
1043.129	-812
1043.190	-1380
1043.251	-587
1043.312	-1345
1043.373	-1369
1043.434	-1287
1043.495	-1181
1043.556	-1252
1043.616	-1287
1043.677	-736
1043.738	-1492
1043.799	-960
1043.859	-1483
1043.920	-1001
1043.981	-566
1044.041	-1180
1044.102	-1303
1044.162	-1740
1044.223	-807
1044.284	-1986
1044.344	-1347
1044.405	-1102
1044.465	-2156
1044.525	-1626
1044.586	-434
1044.646	-1544
1044.707	-1082
1044.767	-1523
1044.827	-1199
1044.887	-1392
1044.948	-1061
1045.008	-1002
1045.068	-1319
1045.128	-1636
1045.188	-1320
1045.249	-1062
1045.309	-1241
1045.369	-434
1045.429	-1099
1045.489	-1857
1045.549	-2044
1045.609	-1182
1045.669	-664
1045.729	-660
1045.789	-1029
1045.848	-1086
1045.908	-1051
1045.968	-1555
1046.028	-1079
1046.088	-1316
1046.147	110
1046.207	-2329
1046.267	-1449
1046.326	-590
1046.386	-742
1046.446	-770
1046.505	-1217
1046.565	-1698
1046.624	-788
1046.684	-287
1046.743	-410
1046.803	267
1046.862	9
1046.922	0
