'Start Wavelength	183.907
'End Wavelength	1046.922
'Gate Delay	5.000
'Gate Width (ms)	1.050
'Laser Output Level	0.000
'X Position	0.000
'Y Position	0.000
'Z Position	0.000
'Grid Point Number	1.000
'Shot Number	100.000
183.907	16.000
183.977	436.000
184.047	-242
184.116	-30
184.186	-172
184.256	36
184.325	-38
184.395	745
184.465	441
184.534	459
184.604	247
184.674	-1051
184.743	312
184.813	-146
184.883	324
184.952	455
185.022	-246
185.092	-12
185.161	572
185.231	404
185.301	-330
185.370	626
185.440	-31
185.509	223
185.579	40
185.649	388
185.718	135
185.788	-82
185.857	-9
185.927	465
185.996	-444
186.066	443
186.136	11
186.205	26
186.275	532
186.344	131
186.414	462
186.483	409
186.553	191
186.622	-48
186.692	606
186.761	676
186.831	-381
186.900	28
186.970	-44
187.039	63
187.109	719
187.178	-127
187.248	113
187.317	-166
187.387	-70
187.456	4
187.526	263
187.595	-262
187.664	-271
187.734	246
187.803	376
187.873	278
187.942	791
188.012	-597
188.081	333
188.150	146
188.220	324
188.289	763
188.358	788
188.428	28
188.497	-363
188.567	232
188.636	-270
188.705	-27
188.775	-269
188.844	359
188.913	576
188.983	361
189.052	834
189.121	-156
189.191	180
189.260	681
189.329	-143
189.399	-71
189.468	204
189.537	-175
189.606	184
189.676	231
189.745	290
189.814	310
189.883	11
189.953	56
190.022	391
190.091	1742
190.161	987
190.230	310
190.299	446
190.368	-153
190.437	-366
190.507	288
190.576	4
190.645	-546
190.714	332
190.783	291
190.853	352
190.922	-159
190.991	182
191.060	-334
191.129	0
191.198	549
191.268	694
191.337	244
191.406	769
191.475	890
191.544	574
191.613	-121
191.682	274
191.752	385
191.821	553
191.890	494
191.959	469
192.028	350
192.097	568
192.166	118
192.235	451
192.304	197
192.373	-101
192.442	-97
192.511	70
192.580	-166
192.650	82
192.719	373
192.788	545
192.857	304
192.926	453
192.995	-394
193.064	537
193.133	1088
193.202	885
193.271	723
193.340	585
193.409	762
193.478	1057
193.547	667
193.615	1663
193.684	1103
193.753	542
193.822	1017
193.891	-532
193.960	1220
194.029	-256
194.098	-219
194.167	564
194.236	399
194.305	-376
194.374	336
194.443	-163
194.512	477
194.580	294
194.649	353
194.718	172
194.787	308
194.856	558
194.925	9
194.994	649
195.062	-666
195.131	228
195.200	-196
195.269	500
195.338	-444
195.407	680
195.475	624
195.544	804
195.613	-333
195.682	443
195.751	335
195.819	-742
195.888	100
195.957	951
196.026	665
196.094	545
196.163	1228
196.232	1048
196.301	414
196.369	106
196.438	843
196.507	602
196.576	1038
196.644	124
196.713	603
196.782	701
196.850	90
196.919	-333
196.988	286
197.056	69
197.125	1149
197.194	666
197.262	-277
197.331	344
197.400	371
197.468	429
197.537	-229
197.606	516
197.674	1193
197.743	1036
197.812	-243
197.880	1235
197.949	927
198.017	1625
198.086	870
198.155	808
198.223	577
198.292	1138
198.360	1204
198.429	223
198.497	-107
198.566	1282
198.635	892
198.703	953
198.772	1528
198.840	2292
198.909	1603
198.977	431
199.046	477
199.114	-114
199.183	654
199.251	384
199.320	-315
199.388	-107
199.457	63
199.525	1451
199.594	665
199.662	1216
199.731	102
199.799	785
199.867	476
199.936	187
200.004	259
200.073	181
200.141	-17
200.210	451
200.278	16
200.346	667
200.415	1012
200.483	902
200.552	163
200.620	100
200.688	449
200.757	-48
200.825	205
200.893	490
200.962	-17
201.030	-233
201.098	630
201.167	528
201.235	449
201.303	117
201.372	452
201.440	680
201.508	772
201.577	600
201.645	752
201.713	-85
201.781	81
201.850	761
201.918	447
201.986	293
202.055	790
202.123	561
202.191	539
202.259	568
202.327	1071
202.396	890
202.464	363
202.532	251
202.600	1084
202.669	820
202.737	-106
202.805	490
202.873	430
202.941	754
203.009	259
203.078	1
203.146	740
203.214	690
203.282	101
203.350	904
203.418	460
203.487	773
203.555	721
203.623	517
203.691	294
203.759	99
203.827	590
203.895	814
203.963	411
204.031	211
204.099	-184
204.168	324
204.236	441
204.304	1123
204.372	336
204.440	501
204.508	137
204.576	576
204.644	560
204.712	600
204.780	666
204.848	663
204.916	638
204.984	-113
205.052	1205
205.120	704
205.188	1317
205.256	-621
205.324	303
205.392	623
205.460	1538
205.528	926
205.596	806
205.664	556
205.732	604
205.799	2632
205.867	3112
205.935	33
206.003	1038
206.071	523
206.139	399
206.207	368
206.275	-326
206.343	234
206.411	812
206.478	356
206.546	1150
206.614	609
206.682	-204
206.750	-11
206.818	1013
206.885	491
206.953	13
207.021	1268
207.089	959
207.157	145
207.225	728
207.292	653
207.360	546
207.428	576
207.496	656
207.563	436
207.631	28
207.699	223
207.767	777
207.834	1308
207.902	474
207.970	463
208.038	400
208.105	748
208.173	380
208.241	548
208.309	1220
208.376	1236
208.444	1436
208.512	782
208.579	884
208.647	1035
208.715	1140
208.782	921
208.850	551
208.918	489
208.985	1305
209.053	595
209.120	762
209.188	534
209.256	1403
209.323	477
209.391	767
209.459	1431
209.526	654
209.594	1113
209.661	403
209.729	541
209.796	990
209.864	1303
209.932	228
209.999	1303
210.067	764
210.134	1150
210.202	1350
210.269	1814
210.337	972
210.404	1092
210.472	406
210.539	1011
210.607	1153
210.674	1778
210.742	900
210.809	1542
210.877	855
210.944	2069
211.012	921
211.079	2103
211.146	1390
211.214	1912
211.281	1691
211.349	1293
211.416	773
211.484	636
211.551	1573
211.618	733
211.686	1045
211.753	547
211.821	1252
211.888	835
211.955	906
212.023	1084
212.090	1175
212.157	613
212.225	1621
212.292	2716
212.359	4307
212.427	9794
212.494	3557
212.561	1537
212.629	1187
212.696	1444
212.763	1234
212.831	1432
212.898	2167
212.965	1140
213.032	1714
213.100	1565
213.167	1335
213.234	879
213.301	1767
213.369	1239
213.436	1213
213.503	1217
213.570	1398
213.638	2012
213.705	785
213.772	1496
213.839	1238
213.906	1328
213.973	919
214.041	925
214.108	911
214.175	622
214.242	851
214.309	732
214.376	1289
214.444	1487
214.511	1026
214.578	1209
214.645	1241
214.712	2184
214.779	1532
214.846	569
214.913	1614
214.980	1549
215.048	1725
215.115	2178
215.182	1534
215.249	1537
215.316	554
215.383	572
215.450	1149
215.517	992
215.584	1139
215.651	970
215.718	1730
215.785	1446
215.852	1381
215.919	1399
215.986	1370
216.053	1333
216.120	638
216.187	1449
216.254	1169
216.321	963
216.388	1526
216.455	1526
216.522	1746
216.589	2325
216.656	2731
216.722	1953
216.789	2218
216.856	2037
216.923	1680
216.990	1599
217.057	1811
217.124	2060
217.191	1384
217.258	2206
217.324	1827
217.391	1976
217.458	2244
217.525	1113
217.592	1759
217.659	1504
217.725	1618
217.792	2984
217.859	2349
217.926	1066
217.993	1049
218.059	1292
218.126	1211
218.193	1340
218.260	1221
218.327	1361
218.393	1155
218.460	1048
218.527	818
218.594	921
218.660	2455
218.727	1974
218.794	1091
218.860	801
218.927	876
218.994	809
219.061	887
219.127	1039
219.194	1789
219.261	1664
219.327	677
219.394	1151
219.461	1403
219.527	1894
219.594	1713
219.661	1422
219.727	1081
219.794	1355
219.860	1281
219.927	776
219.994	1715
220.060	2707
220.127	2107
220.193	1729
220.260	2114
220.326	3187
220.393	4056
220.460	4767
220.526	3718
220.593	2372
220.659	2914
220.726	2780
220.792	5816
220.859	4879
220.925	6867
220.992	7806
221.058	8806
221.125	6768
221.191	4259
221.258	2869
221.324	2295
221.391	1568
221.457	1620
221.524	1585
221.590	2525
221.657	7783
221.723	3857
221.789	4393
221.856	2577
221.922	1894
221.989	2723
222.055	1771
222.121	1699
222.188	2777
222.254	1268
222.321	1290
222.387	961
222.453	709
222.520	1413
222.586	710
222.652	1559
222.719	870
222.785	779
222.851	530
222.918	223
222.984	1459
223.050	1343
223.116	502
223.183	1324
223.249	855
223.315	834
223.382	658
223.448	724
223.514	505
223.580	373
223.647	511
223.713	799
223.779	788
223.845	1294
223.911	996
223.978	641
224.044	682
224.110	434
224.176	772
224.242	903
224.309	684
224.375	1417
224.441	1191
224.507	551
224.573	952
224.639	2017
224.705	229
224.772	508
224.838	1119
224.904	795
224.970	420
225.036	715
225.102	1202
225.168	956
225.234	1934
225.300	623
225.366	302
225.432	871
225.499	819
225.565	444
225.631	1140
225.697	1251
225.763	1393
225.829	1827
225.895	1707
225.961	2525
226.027	2198
226.093	2428
226.159	2571
226.225	5392
226.291	10259
226.357	12540
226.423	6459
226.489	4046
226.554	3002
226.620	2992
226.686	4012
226.752	5565
226.818	9407
226.884	17597
226.950	13353
227.016	5970
227.082	3990
227.148	3326
227.214	3124
227.279	2767
227.345	2573
227.411	1852
227.477	1814
227.543	3665
227.609	2665
227.674	2384
227.740	1718
227.806	2315
227.872	1680
227.938	901
228.003	2629
228.069	1729
228.135	1045
228.201	397
228.267	1548
228.332	1699
228.398	1267
228.464	717
228.530	1450
228.595	1257
228.661	1451
228.727	1385
228.792	1206
228.858	1208
228.924	1282
228.990	2362
229.055	978
229.121	1526
229.187	1130
229.252	1504
229.318	793
229.384	1719
229.449	1013
229.515	483
229.581	-33
229.646	2140
229.712	282
229.777	2810
229.843	2115
229.909	2287
229.974	2198
230.040	2370
230.105	2249
230.171	2503
230.236	2572
230.302	3763
230.368	2598
230.433	2288
230.499	1435
230.564	3130
230.630	1633
230.695	1634
230.761	1632
230.826	1201
230.892	2288
230.957	1330
231.023	915
231.088	541
231.154	1404
231.219	1291
231.284	2408
231.350	2187
231.415	1073
231.481	1311
231.546	685
231.612	449
231.677	735
231.742	806
231.808	1020
231.873	628
231.939	101
232.004	2608
232.069	1166
232.135	1363
232.200	765
232.265	934
232.331	1757
232.396	732
232.461	793
232.527	693
232.592	607
232.657	1102
232.723	1896
232.788	863
232.853	2253
232.918	775
232.984	821
233.049	602
233.114	1573
233.179	1157
233.245	1224
233.310	2161
233.375	828
233.440	1330
233.506	1397
233.571	374
233.636	1138
233.701	338
233.766	1399
233.832	1103
233.897	824
233.962	652
234.027	1218
234.092	1481
234.157	1248
234.222	1670
234.288	2758
234.353	5009
234.418	3551
234.483	3105
234.548	1367
234.613	1374
234.678	2157
234.743	2266
234.808	5364
234.873	2532
234.938	1763
235.004	1814
235.069	1765
235.134	963
235.199	1942
235.264	1327
235.329	1701
235.394	1705
235.459	1898
235.524	519
235.589	2077
235.654	1024
235.719	1564
235.784	1557
235.849	1588
235.913	2589
235.978	3061
236.043	2521
236.108	1735
236.173	2231
236.238	1443
236.303	1187
236.368	1718
236.433	2924
236.498	3454
236.563	3808
236.627	8299
236.692	23978
236.757	15745
236.822	6609
236.887	4454
236.952	4006
237.017	3701
237.081	4416
237.146	5820
237.211	10758
237.276	25453
237.341	31351
237.405	12979
237.470	6493
237.535	4213
237.600	3484
237.664	2889
237.729	1888
237.794	3184
237.859	6359
237.923	3052
237.988	1550
238.053	2814
238.118	2584
238.182	7434
238.247	5428
238.312	2807
238.376	2257
238.441	1617
238.506	1886
238.570	997
238.635	1629
238.700	1672
238.764	489
238.829	3748
238.893	3150
238.958	2409
239.023	1769
239.087	1889
239.152	1845
239.216	1259
239.281	1106
239.346	1421
239.410	1614
239.475	2014
239.539	7310
239.604	3373
239.668	2072
239.733	1058
239.797	2361
239.862	4550
239.926	4583
239.991	1683
240.055	1420
240.120	1111
240.184	1382
240.249	182
240.313	1502
240.378	1897
240.442	4245
240.507	5286
240.571	1748
240.635	2455
240.700	2159
240.764	1343
240.829	1165
240.893	391
240.957	1435
241.022	4076
241.086	3828
241.151	2113
241.215	988
241.279	1537
241.344	2573
241.408	2423
241.472	1706
241.537	2651
241.601	2373
241.665	1521
241.730	2219
241.794	2662
241.858	1715
241.922	1553
241.987	2377
242.051	2031
242.115	1565
242.179	2128
242.244	778
242.308	1975
242.372	2232
242.436	1902
242.501	2435
242.565	1355
242.629	1408
242.693	3036
242.757	746
242.822	1410
242.886	2087
242.950	1955
243.014	936
243.078	1902
243.142	1944
243.206	1284
243.271	2318
243.335	1783
243.399	3417
243.463	14495
243.527	25158
243.591	6082
243.655	3463
243.719	2219
243.783	2454
243.847	4559
243.911	4880
243.975	5122
244.040	2166
244.104	3046
244.168	1779
244.232	3005
244.296	3245
244.360	3824
244.424	2360
244.488	1430
244.552	2743
244.615	733
244.679	1220
244.743	2740
244.807	1797
244.871	1450
244.935	1415
244.999	642
245.063	2060
245.127	2220
245.191	2840
245.255	2037
245.319	2245
245.383	1607
245.446	2329
245.510	499
245.574	1623
245.638	1566
245.702	1967
245.766	4680
245.829	2979
245.893	1746
245.957	2187
246.021	2188
246.085	1460
246.149	2184
246.212	7082
246.276	8697
246.340	3537
246.404	2982
246.467	3520
246.531	3914
246.595	3190
246.659	1760
246.722	1767
246.786	3612
246.850	3258
246.913	3897
246.977	1406
247.041	1800
247.104	2624
247.168	2844
247.232	7247
247.295	11822
247.359	4711
247.423	2620
247.486	4996
247.550	3140
247.614	1532
247.677	3392
247.741	2359
247.804	1635
247.868	3115
247.932	5936
247.995	10792
248.059	3355
248.122	1793
248.186	3735
248.249	7376
248.313	23541
248.376	18784
248.440	11339
248.503	3985
248.567	5057
248.630	5969
248.694	8579
248.757	12627
248.821	21888
248.884	12778
248.948	12624
249.011	17028
249.075	26743
249.138	17997
249.202	7384
249.265	5193
249.328	6078
249.392	4453
249.455	3647
249.519	3341
249.582	3920
249.645	6577
249.709	4695
249.772	3489
249.835	3332
249.899	3464
249.962	4224
250.025	3574
250.089	9645
250.152	9388
250.215	4394
250.279	4055
250.342	4264
250.405	4312
250.468	4080
250.532	5781
250.595	9365
250.658	36598
250.721	39162
250.785	13275
250.848	8595
250.911	5365
250.974	6146
251.038	8940
251.101	12575
251.164	6081
251.227	6290
251.290	6813
251.354	12668
251.417	44768
251.480	31862
251.543	31030
251.606	76591
251.669	42358
251.732	18695
251.795	21178
251.859	22314
251.922	45933
251.985	19400
252.048	9502
252.111	7096
252.174	6474
252.237	15060
252.300	26603
252.363	32884
252.426	52033
252.489	17355
252.552	9913
252.615	7593
252.678	8916
252.741	21238
252.804	32026
252.867	55406
252.930	27652
252.993	14796
253.056	9370
253.119	6412
253.182	5383
253.245	8853
253.308	6596
253.371	5947
253.434	4996
253.497	6450
253.559	11072
253.622	5805
253.685	8841
253.748	7253
253.811	3149
253.874	5551
253.937	3791
254.000	4049
254.062	9859
254.125	10648
254.188	11933
254.251	6807
254.314	4058
254.376	7843
254.439	6750
254.502	5425
254.565	9847
254.628	12692
254.690	6194
254.753	4015
254.816	3219
254.878	3721
254.941	9751
255.004	6894
255.067	3169
255.129	3432
255.192	2008
255.255	1537
255.317	2514
255.380	1131
255.443	1392
255.505	1014
255.568	736
255.631	1729
255.693	2452
255.756	1405
255.819	1979
255.881	1650
255.944	1522
256.006	1429
256.069	1591
256.132	1293
256.194	2037
256.257	4122
256.319	3358
256.382	2098
256.444	2850
256.507	2132
256.569	1222
256.632	2287
256.694	3794
256.757	16800
256.819	34403
256.882	11071
256.944	5563
257.007	4418
257.069	3768
257.132	2526
257.194	3348
257.257	2857
257.319	2479
257.381	3257
257.444	12713
257.506	47244
257.569	38718
257.631	18338
257.693	8425
257.756	4942
257.818	3230
257.880	2249
257.943	2984
258.005	2748
258.067	2122
258.130	1807
258.192	2970
258.254	4250
258.317	1423
258.379	3358
258.441	8509
258.503	5488
258.566	7392
258.628	6176
258.690	1789
258.753	3364
258.815	5410
258.877	2988
258.939	2681
259.001	2824
259.064	1855
259.126	2213
259.188	2588
259.250	2691
259.312	4126
259.375	10589
259.437	4053
259.499	2574
259.561	2264
259.623	2827
259.685	1914
259.747	2735
259.809	7985
259.872	9350
259.934	20336
259.996	14728
260.058	4443
260.120	2557
260.182	2206
260.244	2362
260.306	997
260.368	1385
260.430	1309
260.492	6299
260.554	11238
260.616	5411
260.678	11609
260.740	8982
260.802	2424
260.864	2101
260.926	745
260.988	2673
261.050	2666
261.112	10114
261.174	16728
261.236	6851
261.298	3165
261.359	5434
261.421	5877
261.483	2256
261.545	2076
261.607	890
261.669	2652
261.731	2880
261.793	6609
261.854	2711
261.916	2843
261.978	3569
262.040	2362
262.102	1785
262.164	3367
262.225	1105
262.287	2269
262.349	6182
262.411	3275
262.472	1306
262.534	3253
262.596	4248
262.658	2017
262.719	905
262.781	2890
262.843	4792
262.904	2200
262.966	2078
263.028	2888
263.090	19965
263.151	33585
263.213	11580
263.275	7021
263.336	2133
263.398	2879
263.459	1133
263.521	1656
263.583	6164
263.644	2876
263.706	1220
263.767	132
263.829	1480
263.891	701
263.952	336
264.014	1467
264.075	5933
264.137	9708
264.198	2926
264.260	757
264.321	1613
264.383	8002
264.444	14122
264.506	3155
264.567	2969
264.629	8738
264.690	11729
264.752	3795
264.813	2559
264.875	1359
264.936	1368
264.998	1027
265.059	1333
265.120	1534
265.182	4203
265.243	22997
265.305	14783
265.366	3179
265.427	2399
265.489	2284
265.550	828
265.611	1136
265.673	1494
265.734	674
265.795	1074
265.857	112
265.918	1664
265.979	6454
266.040	36521
266.102	20110
266.163	6730
266.224	4732
266.286	2166
266.347	1126
266.408	1671
266.469	1378
266.530	1133
266.592	502
266.653	4018
266.714	4438
266.775	991
266.836	645
266.898	904
266.959	3753
267.020	1257
267.081	1828
267.142	909
267.203	752
267.264	-335
267.326	1938
267.387	452
267.448	108
267.509	1659
267.570	1009
267.631	465
267.692	-10
267.753	788
267.814	880
267.875	4746
267.936	7165
267.997	5715
268.058	3683
268.119	1952
268.180	923
268.241	631
268.302	636
268.363	1121
268.424	378
268.485	1021
268.546	-45
268.607	348
268.668	585
268.729	1167
268.790	185
268.851	1872
268.912	5051
268.972	4284
269.033	1627
269.094	666
269.155	801
269.216	215
269.277	385
269.338	1076
269.398	943
269.459	1128
269.520	2240
269.581	2427
269.642	2300
269.702	2319
269.763	1739
269.824	1674
269.885	2404
269.945	2451
270.006	936
270.067	-159
270.128	1243
270.188	-222
270.249	1098
270.310	494
270.370	1499
270.431	1400
270.492	349
270.553	1641
270.613	3565
270.674	6618
270.734	1278
270.795	1344
270.856	2336
270.916	957
270.977	1238
271.038	1688
271.098	664
271.159	3635
271.219	1519
271.280	845
271.340	656
271.401	1412
271.462	2502
271.522	2081
271.583	937
271.643	1372
271.704	1223
271.764	2129
271.825	6101
271.885	23831
271.946	21585
272.006	6876
272.066	14391
272.127	16818
272.187	4688
272.248	2934
272.308	3988
272.369	13999
272.429	5363
272.489	5782
272.550	4493
272.610	6184
272.671	2683
272.731	3854
272.791	4695
272.852	1646
272.912	2415
272.972	1443
273.033	1190
273.093	1541
273.153	2777
273.214	1957
273.274	2086
273.334	14290
273.394	16422
273.455	5374
273.515	9138
273.575	14752
273.635	4768
273.696	10162
273.756	15549
273.816	4995
273.876	3064
273.936	7598
273.997	8765
274.057	2078
274.117	1807
274.177	5694
274.237	26821
274.297	14707
274.358	9614
274.418	14619
274.478	8114
274.538	3884
274.598	2841
274.658	8740
274.718	8945
274.778	4075
274.838	1988
274.898	5981
274.958	12822
275.018	18591
275.078	9067
275.138	3702
275.198	1430
275.258	1560
275.318	2328
275.378	4287
275.438	3145
275.498	3262
275.558	8975
275.618	15541
275.678	9190
275.738	7725
275.798	5099
275.858	3309
275.918	562
275.978	2503
276.038	1717
276.098	765
276.157	4884
276.217	10907
276.277	4289
276.337	2860
276.397	2020
276.457	2657
276.517	1133
276.576	740
276.636	830
276.696	2426
276.756	7959
276.815	3149
276.875	1632
276.935	2307
276.995	1926
277.055	773
277.114	938
277.174	3826
277.234	9999
277.293	2743
277.353	1006
277.413	1400
277.472	1183
277.532	2029
277.592	1554
277.651	8515
277.711	9879
277.771	4109
277.830	17289
277.890	8931
277.950	10833
278.009	24054
278.069	6991
278.128	10056
278.188	8974
278.248	5549
278.307	13755
278.367	6086
278.426	1563
278.486	1445
278.545	1086
278.605	1700
278.664	750
278.724	2754
278.783	9550
278.843	16612
278.902	3912
278.962	2533
279.021	2862
279.081	3514
279.140	2990
279.199	3059
279.259	3862
279.318	2648
279.378	5072
279.437	12518
279.496	42088
279.556	82087
279.615	37717
279.675	12125
279.734	8892
279.793	19193
279.853	29908
279.912	9596
279.971	4909
280.031	4931
280.090	16596
280.149	20147
280.208	14594
280.268	59038
280.327	35872
280.386	8651
280.445	9825
280.505	7170
280.564	4862
280.623	3295
280.682	7071
280.742	8443
280.801	2508
280.860	1768
280.919	2327
280.978	1312
281.037	1019
281.097	963
281.156	1655
281.215	649
281.274	2946
281.333	13680
281.392	5158
281.451	2029
281.510	1767
281.569	1131
281.628	757
281.688	1018
281.747	1965
281.806	1599
281.865	765
281.924	651
281.983	467
282.042	692
282.101	1029
282.160	1644
282.219	1642
282.278	2381
282.337	7013
282.396	3513
282.454	1051
282.513	2941
282.572	10637
282.631	4328
282.690	905
282.749	496
282.808	2341
282.867	1942
282.926	1424
282.985	962
283.043	592
283.102	1443
283.161	1429
283.220	6423
283.279	10682
283.338	2550
283.396	1706
283.455	1582
283.514	2766
283.573	3611
283.631	1845
283.690	1344
283.749	1534
283.808	4641
283.866	3488
283.925	1212
283.984	1568
284.043	2010
284.101	1905
284.160	1118
284.219	2356
284.277	2048
284.336	4728
284.395	15988
284.453	8833
284.512	3556
284.570	5029
284.629	3530
284.688	2919
284.746	2953
284.805	4292
284.863	4664
284.922	6555
284.981	7581
285.039	12281
285.098	24927
285.156	66092
285.215	127131
285.273	110911
285.332	55577
285.390	28389
285.449	17201
285.507	11656
285.566	9990
285.624	6116
285.683	5163
285.741	3733
285.799	3113
285.858	2869
285.916	2940
285.975	2137
286.033	1491
286.091	1546
286.150	846
286.208	1322
286.267	2176
286.325	1879
286.383	3795
286.442	2535
286.500	1235
286.558	972
286.616	1058
286.675	2504
286.733	1205
286.791	1277
286.850	1612
286.908	3403
286.966	4734
287.024	2599
287.083	1252
287.141	776
287.199	1618
287.257	2740
287.315	1727
287.374	2024
287.432	7174
287.490	2929
287.548	1983
287.606	1537
287.664	1390
287.723	3497
287.781	3379
287.839	2095
287.897	2314
287.955	3417
288.013	7114
288.071	18179
288.129	80077
288.187	145454
288.245	56506
288.303	18915
288.361	11016
288.419	8730
288.477	5644
288.535	4062
288.593	3260
288.651	2820
288.709	1989
288.767	1988
288.825	1252
288.883	1573
288.941	1338
288.999	446
289.057	1341
289.115	1441
289.173	1282
289.231	872
289.289	946
289.346	1239
289.404	1335
289.462	2378
289.520	3180
289.578	550
289.636	727
289.694	616
289.751	766
289.809	732
289.867	1409
289.925	1824
289.983	924
290.040	884
290.098	1441
290.156	1188
290.214	1641
290.271	518
290.329	1227
290.387	223
290.444	-163
290.502	717
290.560	1232
290.617	819
290.675	106
290.733	336
290.790	920
290.848	681
290.906	822
290.963	280
291.021	1181
291.078	687
291.136	1196
291.194	9874
291.251	14597
291.309	3893
291.366	2042
291.424	1692
291.481	1864
291.539	871
291.596	890
291.654	402
291.711	-36
291.769	1506
291.826	2242
291.884	866
291.941	100
291.999	658
292.056	728
292.114	629
292.171	691
292.228	1152
292.286	1319
292.343	3011
292.401	3245
292.458	1305
292.515	743
292.573	2383
292.630	1499
292.687	1279
292.745	1036
292.802	3763
292.859	9993
292.917	14076
292.974	6214
293.031	1776
293.089	1473
293.146	1248
293.203	825
293.260	1022
293.318	2485
293.375	4519
293.432	1126
293.489	728
293.546	1541
293.604	2908
293.661	10996
293.718	23132
293.775	10051
293.832	4486
293.889	2795
293.947	4058
294.004	2116
294.061	3402
294.118	8519
294.175	17530
294.232	21428
294.289	6535
294.346	4096
294.403	3756
294.460	2602
294.517	1907
294.574	1474
294.631	1966
294.688	2653
294.745	9675
294.802	33475
294.859	30108
294.916	10667
294.973	6623
295.030	3744
295.087	2930
295.144	2744
295.201	2485
295.258	2301
295.315	2943
295.372	12326
295.429	16346
295.486	6731
295.542	5454
295.599	21255
295.656	25658
295.713	18100
295.770	16623
295.827	6405
295.883	3872
295.940	3081
295.997	6395
296.054	4414
296.111	2441
296.167	1491
296.224	2054
296.281	1903
296.338	1471
296.394	1956
296.451	3469
296.508	10066
296.564	15625
296.621	11558
296.678	26831
296.734	28751
296.791	9926
296.848	5318
296.904	7019
296.961	14245
297.018	21504
297.074	13766
297.131	6436
297.187	4585
297.244	7484
297.301	26831
297.357	33838
297.414	10583
297.470	5382
297.527	2959
297.583	2488
297.640	3221
297.696	2058
297.753	1922
297.809	761
297.866	928
297.922	1407
297.979	1531
298.035	2568
298.092	4834
298.148	13588
298.204	10088
298.261	5236
298.317	14698
298.374	26709
298.430	12180
298.486	5874
298.543	4266
298.599	4263
298.656	5532
298.712	9933
298.768	21514
298.824	11963
298.881	5126
298.937	3175
298.993	2075
299.050	2882
299.106	3175
299.162	2691
299.218	2927
299.275	2278
299.331	2668
299.387	7867
299.443	26265
299.500	19144
299.556	7289
299.612	4329
299.668	4061
299.724	4530
299.780	4368
299.837	3165
299.893	6751
299.949	19887
300.005	19324
300.061	21371
300.117	31118
300.173	13101
300.229	6017
300.285	7440
300.341	8379
300.397	3770
300.453	2782
300.510	2179
300.566	2912
300.622	3536
300.678	10930
300.734	18388
300.790	18931
300.845	20298
300.901	13050
300.957	18053
301.013	12088
301.069	5494
301.125	3212
301.181	3331
301.237	2862
301.293	2342
301.349	1936
301.405	2505
301.461	2013
301.516	3584
301.572	3019
301.628	6217
301.684	5279
301.740	9414
301.796	12059
301.851	9396
301.907	14618
301.963	14374
302.019	29916
302.074	69312
302.130	57537
302.186	24870
302.242	11329
302.297	7412
302.353	8248
302.409	15001
302.464	11387
302.520	11118
302.576	24982
302.631	23027
302.687	12908
302.743	4930
302.798	3673
302.854	3164
302.910	3930
302.965	4507
303.021	6925
303.076	6653
303.132	8057
303.187	9129
303.243	4381
303.299	2462
303.354	3332
303.410	2764
303.465	2728
303.521	1915
303.576	3005
303.632	2952
303.687	9612
303.743	21612
303.798	14458
303.853	6466
303.909	4183
303.964	3450
304.020	5763
304.075	7658
304.130	7051
304.186	13110
304.241	12156
304.297	9579
304.352	5189
304.358	5139
304.407	4739
304.449	4907
304.463	4965
304.518	4179
304.539	3641
304.573	2797
304.629	3989
304.630	4058
304.684	7244
304.720	14411
304.739	18109
304.794	22513
304.811	18879
304.850	9937
304.902	5186
304.905	4897
304.960	3535
304.992	3651
305.015	3706
305.071	3515
305.083	3438
305.126	3245
305.173	1975
305.181	1746
305.236	1698
305.264	1852
305.292	2106
305.347	3150
305.354	3279
305.402	4016
305.445	3983
305.457	3971
305.512	4402
305.535	4324
305.567	4191
305.622	4785
305.626	4991
305.678	9180
305.716	18233
305.733	21862
305.788	22139
305.807	19992
305.843	15691
305.897	21369
305.898	21444
305.953	18624
305.988	12914
306.008	9517
306.063	5932
306.078	5372
306.118	4249
306.168	2483
306.173	2351
306.228	2449
306.259	2650
306.283	2708
306.338	2444
306.349	2417
306.393	2558
306.440	2597
306.448	2573
306.503	2887
306.530	3466
306.558	4725
306.613	10370
306.620	11065
306.668	15220
306.711	19362
306.723	20031
306.778	14529
306.801	11621
306.833	7665
306.888	3925
306.892	3756
306.943	2695
306.982	2787
306.997	2865
307.052	2974
307.072	3179
307.107	3752
307.162	4222
307.163	4240
307.217	6173
307.253	7734
307.272	8334
307.327	8144
307.343	7776
307.381	6235
307.434	5374
307.436	5489
307.491	10807
307.524	15726
307.546	17870
307.600	17502
307.614	16003
307.655	9639
307.704	5223
307.710	5054
307.765	5684
307.795	7252
307.819	9513
307.874	15621
307.885	15788
307.929	12351
307.975	9674
307.984	9775
308.038	13274
308.065	17381
308.093	26733
308.148	56833
308.156	64229
308.202	116307
308.246	139320
308.257	134133
308.312	74563
308.336	52548
308.366	38911
308.421	22909
308.426	21688
308.475	13975
308.517	10095
308.530	9438
308.585	8426
308.607	7853
308.639	7117
308.694	7377
308.697	7469
308.748	12797
308.787	18285
308.803	18731
308.857	14965
308.877	13457
308.912	11007
308.967	9333
308.967	9338
309.021	12270
309.058	14981
309.076	18203
309.130	33093
309.148	40078
309.185	74028
309.238	136933
309.239	137757
309.293	169439
309.328	166418
309.348	141586
309.402	67548
309.418	49021
309.457	33334
309.508	20198
309.511	19714
309.566	15020
309.598	13221
309.620	13331
309.674	14774
309.688	15105
309.729	14363
309.778	12606
309.783	12377
309.837	9747
309.868	9175
309.892	10221
309.946	13905
309.959	15409
310.001	23314
310.049	29348
310.055	28435
310.109	17055
310.139	11238
310.163	8999
310.218	5772
310.229	5215
310.272	4141
310.319	3230
310.326	3177
310.381	3122
310.409	3114
310.435	3126
310.489	3036
310.499	3049
310.543	3363
310.589	3848
310.598	3824
310.652	3458
310.679	3275
310.706	2992
310.760	2573
310.769	2473
310.814	2023
310.859	1725
310.868	1739
310.923	1905
310.948	1932
310.977	2103
311.031	2636
311.038	2700
311.085	2896
311.128	3024
311.139	2989
311.193	2760
311.218	2662
311.247	2805
311.301	3137
311.308	3172
311.356	3078
311.398	3004
311.410	2916
311.464	2406
311.488	2188
311.518	2109
311.572	2020
311.578	2013
311.626	2909
311.668	3640
311.680	3650
311.734	3762
311.758	3797
311.788	4067
311.842	4508
311.847	4562
311.896	5023
311.937	5390
311.950	5518
312.004	6106
312.027	6324
312.058	5004
312.112	2692
312.117	2466
312.165	2691
312.207	2893
312.297	3959
312.386	3935
312.476	3165
312.566	5398
312.656	3214
312.745	3004
312.835	2596
312.925	3434
313.015	2605
313.104	3296
313.194	2692
313.284	2803
313.374	3606
313.463	3257
313.553	1621
313.643	2518
313.732	2443
313.822	1993
313.912	2521
314.001	3934
314.091	3041
314.180	4961
314.270	3439
314.360	4144
314.449	3186
314.539	2195
314.628	1681
314.718	2965
314.808	3466
314.897	2870
314.987	2475
315.076	2718
315.166	3638
315.255	3682
315.345	3286
315.434	4033
315.524	2976
315.613	3076
315.703	2934
315.792	3900
315.881	7361
315.971	4909
316.060	5708
316.150	10064
316.239	9567
316.328	5769
316.418	1079
316.507	1690
316.597	2717
316.686	3299
316.775	3855
316.865	11393
316.954	3526
317.043	2140
317.133	2116
317.222	2113
317.311	1852
317.400	1813
317.490	2380
317.579	3156
317.668	2193
317.757	3436
317.847	4831
317.936	12563
318.025	8900
318.114	4833
318.203	4034
318.293	4877
318.382	9407
318.471	8851
318.560	11776
318.649	32768
318.738	9739
318.828	3658
318.917	4265
319.006	5929
319.095	11361
319.184	35369
319.273	23554
319.362	9307
319.451	3501
319.540	3220
319.629	4336
319.718	9714
319.807	6481
319.896	10028
319.985	43612
320.074	21714
320.163	4659
320.252	6295
320.341	6148
320.430	6571
320.519	4817
320.608	4265
320.697	2902
320.786	3316
320.875	3659
320.964	4216
321.053	5113
321.142	7426
321.230	9035
321.319	7736
321.408	16124
321.497	9582
321.586	6965
321.675	9249
321.764	9883
321.852	6902
321.941	8418
322.030	7407
322.119	6265
322.207	15709
322.296	15296
322.385	7612
322.474	7236
322.562	16887
322.651	14107
322.740	8261
322.829	13328
322.917	12780
323.006	8347
323.095	6355
323.183	5781
323.272	7223
323.361	11954
323.449	41401
323.538	18637
323.626	25689
323.715	24347
323.804	7545
323.892	22747
323.981	18008
324.069	4681
324.158	12149
324.246	16717
324.335	5281
324.424	7127
324.512	3433
324.601	4115
324.689	8045
324.778	20103
324.866	12383
324.954	3458
325.043	3419
325.131	4975
325.220	11732
325.308	13427
325.397	8688
325.485	6946
325.574	2933
325.662	2538
325.750	3110
325.839	2316
325.927	2747
326.015	2358
326.104	4302
326.192	6937
326.280	2430
326.369	2272
326.457	3624
326.545	5194
326.634	3178
326.722	1942
326.810	2524
326.898	1735
326.987	2390
327.075	4102
327.163	6590
327.251	4206
327.340	6301
327.428	10882
327.516	1948
327.604	2082
327.692	2660
327.781	2671
327.869	5047
327.957	3464
328.045	2876
328.133	1470
328.221	3012
328.309	1980
328.397	1953
328.485	2726
328.574	3330
328.662	8772
328.750	7272
328.838	4023
328.926	2786
329.014	2082
329.102	3627
329.190	7618
329.278	6455
329.366	2414
329.454	2132
329.542	1805
329.630	2486
329.718	2411
329.806	2793
329.893	3874
329.981	5269
330.069	7445
330.157	28040
330.245	92662
330.333	65517
330.421	11722
330.509	5326
330.597	11017
330.684	10796
330.772	4785
330.860	7480
330.948	7990
331.036	4972
331.123	1832
331.211	2375
331.299	2977
331.387	5638
331.475	13324
331.562	4806
331.650	1699
331.738	2146
331.825	3104
331.913	1586
332.001	1466
332.089	3098
332.176	6067
332.264	11974
332.352	12866
332.439	3068
332.527	2718
332.614	2046
332.702	3071
332.790	2551
332.877	4312
332.965	13065
333.052	3476
333.140	3033
333.228	4783
333.315	2560
333.403	2257
333.490	7699
333.578	6939
333.665	5362
333.753	4450
333.840	1913
333.928	2778
334.015	8018
334.103	13355
334.190	49710
334.278	18988
334.365	5013
334.452	3188
334.540	2386
334.627	2255
334.715	4831
334.802	6860
334.889	40416
334.977	58885
335.064	8387
335.151	2872
335.239	3436
335.326	5110
335.413	18396
335.501	40283
335.588	5587
335.675	2265
335.762	3632
335.850	7466
335.937	4784
336.024	9404
336.111	48984
336.199	28870
336.286	4788
336.373	1838
336.460	1716
336.547	1794
336.635	2471
336.722	1856
336.809	2589
336.896	3584
336.983	11175
337.070	33306
337.157	54205
337.245	33391
337.332	29718
337.419	3937
337.506	2807
337.593	2599
337.680	8949
337.767	38683
337.854	12153
337.941	10644
338.028	11042
338.115	5032
338.202	5002
338.289	7768
338.376	30106
338.463	14316
338.550	17301
338.637	28012
338.724	5877
338.811	10531
338.898	2709
338.984	1725
339.071	3293
339.158	2254
339.245	6722
339.332	4556
339.419	6108
339.506	7583
339.593	1542
339.679	1304
339.766	1562
339.853	2473
339.940	4949
340.027	1987
340.113	1900
340.200	2880
340.287	2488
340.374	1318
340.460	4141
340.547	2344
340.634	2881
340.720	9790
340.807	8837
340.894	1082
340.980	1784
341.067	1781
341.154	2435
341.240	2017
341.327	5664
341.414	2413
341.500	2912
341.587	1960
341.674	2087
341.760	4169
341.847	4607
341.933	1745
342.020	795
342.106	1129
342.193	1013
342.279	3092
342.366	2405
342.452	3620
342.539	3021
342.625	3605
342.712	12251
342.798	6027
342.885	2774
342.971	886
343.058	651
343.144	1161
343.230	1341
343.317	1268
343.403	1573
343.490	814
343.576	1512
343.662	785
343.749	2179
343.835	2048
343.921	4674
344.008	21886
344.094	76846
344.180	22173
344.267	5084
344.353	13735
344.439	23193
344.525	7438
344.612	4993
344.698	4040
344.784	3249
344.870	1233
344.957	1130
345.043	2521
345.129	1739
345.215	3677
345.301	2752
345.387	1601
345.474	1204
345.560	1404
345.646	2197
345.732	1108
345.818	2415
345.904	1845
345.990	1388
346.076	1947
346.162	4448
346.249	2723
346.335	1294
346.421	1384
346.507	5122
346.593	25327
346.679	9855
346.765	2662
346.851	2072
346.937	1068
347.023	2382
347.108	1323
347.194	1533
347.280	2058
347.366	2979
347.452	5240
347.538	29468
347.624	23804
347.710	21383
347.796	3614
347.882	2114
347.967	1828
348.053	2885
348.139	1625
348.225	1345
348.311	1012
348.397	1069
348.482	1145
348.568	2987
348.654	494
348.740	1579
348.825	1287
348.911	2748
348.997	9789
349.083	33051
349.168	7190
349.254	1500
349.340	1839
349.425	976
349.511	1847
349.597	3147
349.682	3284
349.768	15114
349.854	10679
349.939	2229
350.025	781
350.110	1119
350.196	1307
350.282	932
350.367	916
350.453	2461
350.538	3053
350.624	1340
350.709	2500
350.795	1444
350.880	1088
350.966	1962
351.051	2028
351.137	3275
351.222	1408
351.308	3642
351.393	13171
351.479	4862
351.564	1048
351.649	1633
351.735	1624
351.820	1447
351.906	921
351.991	1454
352.076	5906
352.162	14765
352.247	3299
352.332	1892
352.418	2129
352.503	4486
352.588	14769
352.673	17415
352.759	3804
352.844	1358
352.929	1682
353.014	2339
353.100	1830
353.185	5854
353.270	5288
353.355	4458
353.441	1022
353.526	1960
353.611	2790
353.696	5017
353.781	2758
353.866	2034
353.952	1255
354.037	2920
354.122	8331
354.207	7812
354.292	3474
354.377	1611
354.462	1325
354.547	1572
354.632	2198
354.717	3973
354.802	7633
354.887	3363
354.972	840
355.057	1064
355.142	795
355.227	1890
355.312	2128
355.397	5484
355.482	11946
355.567	7935
355.652	3822
355.737	5710
355.822	14648
355.907	19592
355.991	3095
356.076	1731
356.161	1360
356.246	1562
356.331	1221
356.416	4086
356.501	25095
356.585	42950
356.670	5373
356.755	3577
356.840	3487
356.924	18305
357.009	77482
357.094	39414
357.179	6260
357.263	4293
357.348	3382
357.433	3983
357.517	2800
357.602	3322
357.687	2041
357.771	4838
357.856	13403
357.941	10487
358.025	12322
358.110	74235
358.195	50148
358.279	6090
358.364	3223
358.448	9147
358.533	31241
358.617	25414
358.702	24411
358.787	11768
358.871	3993
358.956	4497
359.040	1351
359.125	1035
359.209	840
359.294	4913
359.378	11295
359.462	4542
359.547	2466
359.631	2452
359.716	1327
359.800	2170
359.885	3094
359.969	1690
360.053	1729
360.138	1000
360.222	1862
360.306	3543
360.391	2869
360.475	6069
360.559	14544
360.644	11767
360.728	9867
360.812	12036
360.896	50783
360.981	23788
361.065	11581
361.149	3228
361.233	1716
361.318	2488
361.402	1711
361.486	2519
361.570	1513
361.654	2162
361.739	4838
361.823	22893
361.907	56659
361.991	12056
362.075	3812
362.159	7938
362.243	5527
362.327	4185
362.411	5887
362.495	4070
362.580	2116
362.664	1940
362.748	1394
362.832	1749
362.916	1643
363.000	7467
363.084	24792
363.168	62403
363.252	16883
363.336	4347
363.420	5011
363.503	24881
363.587	48419
363.671	8036
363.755	2687
363.839	5840
363.923	2603
364.007	3717
364.091	5677
364.175	8231
364.258	49401
364.342	37159
364.426	15241
364.510	10739
364.594	6370
364.677	7881
364.761	35911
364.845	40497
364.929	8271
365.013	6508
365.096	5062
365.180	7131
365.264	8730
365.347	53476
365.431	32916
365.515	7213
365.598	1752
365.682	2705
365.766	3869
365.849	8772
365.933	2591
366.017	4878
366.100	3378
366.184	1642
366.267	1182
366.351	2422
366.435	461
366.518	1338
366.602	298
366.685	1209
366.769	812
366.852	4111
366.936	7747
367.019	3608
367.103	2296
367.186	8926
367.270	2789
367.353	495
367.436	626
367.520	1037
367.603	368
367.687	2052
367.770	4428
367.853	2995
367.937	7748
368.020	23435
368.104	6348
368.187	3556
368.270	5823
368.353	5894
368.437	6146
368.520	19468
368.603	12232
368.687	9681
368.770	27164
368.853	7550
368.936	4913
369.020	8141
369.103	1971
369.186	969
369.269	1350
369.352	3068
369.436	4689
369.519	3528
369.602	327
369.685	2251
369.768	1014
369.851	1571
369.934	581
370.018	1906
370.101	3924
370.184	3842
370.267	2684
370.350	3377
370.433	6764
370.516	17423
370.599	30608
370.682	7698
370.765	11360
370.848	13803
370.931	32197
371.014	18288
371.097	2801
371.180	2093
371.263	1002
371.346	830
371.429	1241
371.511	1030
371.594	2106
371.677	5224
371.760	8638
371.843	5610
371.926	19217
372.009	74461
372.091	29338
372.174	10107
372.257	32912
372.340	18275
372.423	7397
372.505	13832
372.588	5601
372.671	6711
372.754	28129
372.836	21084
372.919	9950
373.002	35574
373.085	11818
373.167	4765
373.250	9698
373.332	31158
373.415	34924
373.498	91907
373.580	42436
373.663	30354
373.746	66499
373.828	16585
373.911	5948
373.993	5536
374.076	24561
374.159	37567
374.241	9446
374.324	22738
374.406	21224
374.489	16944
374.571	73793
374.654	39967
374.736	10895
374.819	40525
374.901	57040
374.983	78535
375.066	15870
375.148	4430
375.231	16279
375.313	53893
375.395	21864
375.478	4528
375.560	2366
375.643	3053
375.725	6994
375.807	49299
375.890	53418
375.972	21161
376.054	8370
376.136	16557
376.219	8445
376.301	9966
376.383	45935
376.465	24655
376.548	6877
376.630	8522
376.712	34807
376.794	24234
376.877	2669
376.959	1760
377.041	1428
377.123	4695
377.205	9038
377.287	2325
377.369	557
377.452	531
377.534	924
377.616	1151
377.698	1275
377.780	753
377.862	1321
377.944	2017
378.026	548
378.108	884
378.190	1212
378.272	1058
378.354	-119
378.436	1429
378.518	1166
378.600	11111
378.682	9679
378.764	14477
378.846	16782
378.928	3900
379.010	5164
379.091	3185
379.173	1168
379.255	705
379.337	1499
379.419	5320
379.501	24018
379.583	13351
379.664	2184
379.746	3910
379.828	13821
379.910	23063
379.991	24453
380.073	5388
380.155	1951
380.237	1441
380.318	618
380.400	862
380.482	2106
380.564	5701
380.645	5725
380.727	7205
380.809	3091
380.890	1415
380.972	1654
381.053	2029
381.135	1486
381.217	3570
381.298	16411
381.380	11102
381.461	5724
381.543	27154
381.624	53502
381.706	11797
381.787	3831
381.869	4751
381.951	10306
382.032	59916
382.113	53552
382.195	9603
382.276	5931
382.358	10205
382.439	33151
382.521	37445
382.602	66050
382.684	31046
382.765	37153
382.846	43038
382.928	34481
383.009	24038
383.090	11768
383.172	40056
383.253	86214
383.334	36977
383.416	50338
383.497	35647
383.578	7995
383.659	12247
383.741	34689
383.822	120797
383.903	81759
383.984	27077
384.066	57267
384.147	44771
384.228	9130
384.309	4222
384.390	4761
384.471	2117
384.553	2372
384.634	5094
384.715	4527
384.796	2673
384.877	2430
384.958	12159
385.039	20544
385.120	7761
385.201	2994
385.282	4343
385.363	4040
385.444	3667
385.525	4228
385.606	22368
385.687	30574
385.768	7958
385.849	5530
385.930	22412
386.011	62421
386.092	22673
386.173	2928
386.254	3193
386.335	2922
386.416	3525
386.496	6652
386.577	18909
386.658	8112
386.739	4622
386.820	4047
386.901	3375
386.981	2973
387.062	2075
387.143	2443
387.224	13273
387.304	19419
387.385	6456
387.466	3343
387.547	5410
387.627	2510
387.708	4370
387.789	24337
387.869	45463
387.950	15912
388.031	2576
388.111	901
388.192	7453
388.273	12243
388.353	7937
388.434	3083
388.514	4650
388.595	24438
388.676	47371
388.756	20701
388.837	14132
388.917	11064
388.998	2368
389.078	2134
389.159	1761
389.239	966
389.320	3155
389.400	1594
389.480	5273
389.561	18715
389.641	14289
389.722	2294
389.802	3827
389.883	6124
389.963	22799
390.043	20223
390.124	6476
390.204	3490
390.284	16535
390.365	14471
390.445	15372
390.525	42503
390.605	43080
390.686	13769
390.766	4617
390.846	1986
390.927	881
391.007	1304
391.087	2659
391.167	2543
391.247	1467
391.328	3360
391.408	6817
391.488	5783
391.568	1550
391.648	753
391.728	2673
391.808	2366
391.888	3724
391.969	7623
392.049	18482
392.129	10495
392.209	6850
392.289	21360
392.369	16673
392.449	12589
392.529	9716
392.609	4212
392.689	4220
392.769	17709
392.849	22249
392.929	10692
393.009	31753
393.089	27397
393.169	11076
393.248	23680
393.328	148132
393.408	247384
393.488	62536
393.568	12036
393.648	6831
393.728	3398
393.807	3100
393.887	3093
393.967	3195
394.047	4228
394.127	4710
394.206	8495
394.286	23594
394.366	140099
394.446	230173
394.525	63257
394.605	12463
394.685	7788
394.764	15964
394.844	31380
394.924	28328
395.003	7405
395.083	4185
395.163	3850
395.242	3346
395.322	3280
395.402	2411
395.481	4430
395.561	8066
395.640	33484
395.720	26317
395.799	34178
395.879	41543
395.958	14892
396.038	36386
396.117	186465
396.197	303430
396.276	101321
396.356	27458
396.435	17883
396.515	10873
396.594	6275
396.673	10394
396.753	28779
396.832	155957
396.912	163340
396.991	37893
397.070	8331
397.150	3817
397.229	3098
397.308	3762
397.388	5145
397.467	4057
397.546	1366
397.625	747
397.705	2385
397.784	3230
397.863	1590
397.942	840
398.022	1117
398.101	6871
398.180	34935
398.259	25406
398.338	4451
398.417	2473
398.497	1582
398.576	2194
398.655	366
398.734	472
398.813	496
398.892	6217
398.971	35823
399.050	27849
399.129	2094
399.208	1037
399.287	1144
399.366	676
399.445	850
399.524	930
399.603	113
399.682	2007
399.761	5255
399.840	33157
399.919	41943
399.998	6493
400.077	562
400.156	22
400.235	2370
400.313	1363
400.392	219
400.471	5764
400.550	14384
400.629	5485
400.708	1531
400.786	1705
400.865	6577
400.944	10028
401.023	3881
401.102	1018
401.180	235
401.259	750
401.338	475
401.416	1945
401.495	1341
401.574	2126
401.652	746
401.731	2030
401.810	2317
401.888	1895
401.967	-435
402.046	563
402.124	1213
402.203	2406
402.281	661
402.360	1440
402.438	7923
402.517	9219
402.596	2214
402.674	2123
402.753	1342
402.831	1211
402.910	1363
402.988	5839
403.066	37843
403.145	33128
403.223	9295
403.302	32719
403.380	30377
403.459	28793
403.537	13805
403.615	4249
403.694	55
403.772	1406
403.850	798
403.929	1521
404.007	-290
404.085	3535
404.164	5133
404.242	2320
404.320	3726
404.398	18244
404.477	24137
404.555	40257
404.633	54538
404.711	19871
404.789	12796
404.868	4283
404.946	1468
405.024	1248
405.102	-295
405.180	704
405.258	-562
405.336	1122
405.415	274
405.493	2857
405.571	4235
405.649	1644
405.727	68
405.805	2401
405.883	1778
405.961	2656
406.039	2221
406.117	1053
406.195	1273
406.273	4605
406.351	33528
406.429	32120
406.507	5525
406.585	1505
406.663	-17
406.740	1560
406.818	1380
406.896	1452
406.974	744
407.052	1775
407.130	14094
407.208	35387
407.285	9551
407.363	152
407.441	471
407.519	96
407.596	1368
407.674	2414
407.752	8728
407.830	14427
407.907	7427
407.985	2306
408.063	483
408.141	-145
408.218	1598
408.296	3617
408.373	2143
408.451	1455
408.529	247
408.606	457
408.684	-40
408.762	365
408.839	-176
408.917	143
408.994	-664
409.072	-678
409.149	562
409.227	411
409.304	838
409.382	585
409.459	-426
409.537	965
409.614	947
409.692	798
409.769	-242
409.846	586
409.924	1502
410.001	970
410.079	616
410.156	747
410.233	488
410.311	1038
410.388	193
410.465	-154
410.543	579
410.620	357
410.697	-813
410.775	854
410.852	-717
410.929	51
411.006	1518
411.083	595
411.161	745
411.238	3819
411.315	1962
411.392	0
411.469	319
411.547	1297
411.624	-216
411.701	414
411.778	816
411.855	1273
411.932	576
412.009	330
412.086	146
412.163	694
412.240	791
412.317	1080
412.394	1415
412.471	1203
412.548	-788
412.625	-648
412.702	586
412.779	2056
412.856	1380
412.933	207
413.010	237
413.087	1309
413.164	3832
413.241	12385
413.318	3360
413.395	1505
413.471	1699
413.548	765
413.625	88
413.702	-256
413.779	869
413.855	-158
413.932	-105
414.009	-620
414.086	7
414.162	174
414.239	896
414.316	3813
414.393	16505
414.469	8588
414.546	454
414.623	241
414.699	-89
414.776	9
414.853	-149
414.929	492
415.006	-55
415.082	1397
415.159	282
415.236	593
415.312	-5
415.389	1649
415.465	1162
415.542	1046
415.618	-869
415.695	1619
415.771	441
415.848	487
415.924	36
416.000	758
416.077	1549
416.153	-702
416.230	-733
416.306	-620
416.383	-441
416.459	595
416.535	-424
416.612	-135
416.688	-540
416.764	-298
416.841	-1328
416.917	664
416.993	-494
417.069	1101
417.146	465
417.222	2535
417.298	818
417.374	13
417.451	667
417.527	218
417.603	427
417.679	521
417.755	-136
417.831	-88
417.908	487
417.984	93
418.060	-1143
418.136	148
418.212	1554
418.288	876
418.364	401
418.440	-236
418.516	-197
418.592	1688
418.668	3112
418.744	4391
418.820	3723
418.896	691
418.972	-135
419.048	144
419.124	1506
419.200	1406
419.276	168
419.352	-56
419.428	-384
419.504	305
419.579	-366
419.655	603
419.731	-153
419.807	969
419.883	3479
419.959	3579
420.034	517
420.110	812
420.186	7489
420.262	11587
420.337	1038
420.413	32
420.489	-617
420.565	507
420.640	146
420.716	441
420.792	-737
420.867	705
420.943	-146
421.019	1192
421.094	36
421.170	719
421.245	-468
421.321	177
421.397	-842
421.472	1511
421.548	4392
421.623	4720
421.699	1572
421.774	1159
421.850	-254
421.925	1784
422.001	1184
422.076	503
422.152	1074
422.227	2547
422.302	3308
422.378	3754
422.453	7124
422.529	16325
422.604	60945
422.679	184085
422.755	143061
422.830	38661
422.905	11310
422.981	5693
423.056	3171
423.131	2825
423.207	2571
423.282	1068
423.357	2757
423.432	2931
423.508	1006
423.583	4504
423.658	4257
423.733	2345
423.808	1638
423.883	1863
423.959	1141
424.034	784
424.109	453
424.184	961
424.259	-1089
424.334	325
424.409	-350
424.484	252
424.559	141
424.634	166
424.709	-194
424.784	1505
424.859	534
424.934	581
425.009	4668
425.084	11520
425.159	6188
425.234	1445
425.309	-508
425.384	1975
425.459	5348
425.534	2688
425.609	142
425.683	44
425.758	-748
425.833	486
425.908	469
425.983	1796
426.058	10575
426.132	7649
426.207	866
426.282	2658
426.357	2010
426.431	952
426.506	408
426.581	-437
426.655	823
426.730	264
426.805	361
426.879	1037
426.954	210
427.029	1683
427.103	6849
427.178	29820
427.253	22567
427.327	2920
427.402	942
427.476	6742
427.551	5213
427.625	888
427.700	897
427.774	-342
427.849	1164
427.923	63
427.998	-163
428.072	604
428.147	1792
428.221	5453
428.296	19319
428.370	17970
428.444	2940
428.519	2568
428.593	6422
428.667	7886
428.742	6698
428.816	6374
428.890	11208
428.965	28987
429.039	13934
429.113	9541
429.188	4573
429.262	836
429.336	1041
429.410	5481
429.485	5100
429.559	5580
429.633	6379
429.707	1386
429.781	1337
429.855	14968
429.930	32823
430.004	20154
430.078	33213
430.152	35437
430.226	28264
430.300	47204
430.374	11028
430.448	2726
430.522	6146
430.596	32829
430.670	27030
430.744	19479
430.818	52514
430.892	19200
430.966	1010
431.040	1128
431.114	368
431.188	-23
431.262	204
431.336	202
431.410	2427
431.484	7199
431.557	7931
431.631	1385
431.705	253
431.779	1626
431.853	14130
431.927	20641
432.000	3103
432.074	402
432.148	756
432.222	1055
432.295	-64
432.369	69
432.443	41
432.516	7446
432.590	32181
432.664	23224
432.737	1530
432.811	81
432.885	-354
432.958	110
433.032	-398
433.106	-897
433.179	-459
433.253	-240
433.326	-638
433.400	-211
433.473	-109
433.547	-404
433.620	-253
433.694	256
433.767	1337
433.841	730
433.914	-272
433.988	473
434.061	314
434.134	-176
434.208	-520
434.281	-389
434.355	-904
434.428	372
434.501	-434
434.575	96
434.648	-185
434.721	-169
434.795	-75
434.868	-122
434.941	135
435.014	-482
435.088	295
435.161	-56
435.234	66
435.307	1095
435.381	-323
435.454	-363
435.527	-244
435.600	-10
435.673	270
435.746	-404
435.819	-667
435.892	613
435.966	-8
436.039	188
436.112	249
436.185	244
436.258	-633
436.331	-679
436.404	-915
436.477	-239
436.550	-276
436.623	-293
436.696	-545
436.769	293
436.842	-408
436.915	558
436.987	485
437.060	319
437.133	-117
437.206	-1063
437.279	-431
437.352	522
437.425	-1197
437.498	861
437.570	1310
437.643	2393
437.716	-286
437.789	-158
437.861	-847
437.934	4162
438.007	2717
438.080	470
438.152	275
438.225	564
438.298	8202
438.370	50211
438.443	36803
438.516	7041
438.588	1282
438.661	-563
438.734	-251
438.806	192
438.879	526
438.951	149
439.024	2014
439.096	1006
439.169	170
439.241	-128
439.314	-909
439.386	822
439.459	1796
439.531	1852
439.604	1449
439.676	785
439.749	-713
439.821	389
439.893	-870
439.966	76
440.038	-199
440.110	477
440.183	207
440.255	-222
440.327	-16
440.400	3454
440.472	24255
440.544	31790
440.617	6310
440.689	2048
440.761	875
440.833	3268
440.905	2213
440.978	800
441.050	-186
441.122	11
441.194	-573
441.266	-257
441.338	-605
441.411	980
441.483	4261
441.555	14755
441.627	5940
441.699	1709
441.771	1205
441.843	971
441.915	-537
441.987	-47
442.059	-1019
442.131	370
442.203	876
442.275	1879
442.347	1719
442.419	658
442.491	3409
442.563	18707
442.635	18338
442.706	8992
442.778	9197
442.850	2409
442.922	312
442.994	427
443.066	1898
443.137	1526
443.209	638
443.281	2146
443.353	2208
443.425	8281
443.496	31560
443.568	52160
443.640	26940
443.711	7217
443.783	1515
443.855	878
443.926	-83
443.998	314
444.070	660
444.141	940
444.213	1452
444.285	1345
444.356	1270
444.428	1911
444.499	596
444.571	-114
444.642	-49
444.714	-146
444.785	679
444.857	1678
444.928	5710
445.000	5887
445.071	2912
445.143	6222
445.214	3303
445.285	3409
445.357	10409
445.428	22582
445.500	69720
445.571	72881
445.642	33488
445.714	14815
445.785	14956
445.856	6695
445.928	1680
445.999	2275
446.070	451
446.141	1434
446.213	2464
446.284	1850
446.355	959
446.426	1363
446.497	304
446.569	1682
446.640	2390
446.711	2380
446.782	-38
446.853	1035
446.924	879
446.995	809
447.066	1201
447.138	1962
447.209	1980
447.280	235
447.351	-321
447.422	183
447.493	-181
447.564	507
447.635	148
447.706	1206
447.777	-97
447.847	291
447.918	-779
447.989	323
448.060	924
448.131	4645
448.202	4517
448.273	2670
448.344	1390
448.414	955
448.485	501
448.556	575
448.627	-580
448.698	1475
448.768	-473
448.839	120
448.910	489
448.981	2601
449.051	680
449.122	510
449.193	-437
449.263	431
449.334	-16
449.405	603
449.475	1789
449.546	2406
449.616	2209
449.687	3270
449.758	1252
449.828	448
449.899	233
449.969	890
450.040	167
450.110	977
450.181	229
450.251	336
450.322	796
450.392	220
450.463	-600
450.533	344
450.604	348
450.674	443
450.744	1162
450.815	1
450.885	508
450.955	62
451.026	-70
451.096	568
451.166	388
451.237	1871
451.307	7542
451.377	6059
451.447	595
451.518	286
451.588	407
451.658	766
451.728	1391
451.799	5463
451.869	12619
451.939	5029
452.009	8
452.079	144
452.149	44
452.219	1457
452.289	7542
452.360	11227
452.430	2937
452.500	1320
452.570	781
452.640	1594
452.710	3348
452.780	10317
452.850	7740
452.920	5531
452.990	2810
453.060	1020
453.129	936
453.199	2967
453.269	5917
453.339	29888
453.409	53911
453.479	33976
453.549	55363
453.619	65793
453.688	41743
453.758	8337
453.828	1792
453.898	1199
453.968	1274
454.037	740
454.087	-74
454.107	-426
454.168	736
454.177	885
454.247	-40
454.249	-5
454.316	490
454.330	592
454.386	902
454.411	1916
454.456	3119
454.492	6124
454.525	8667
454.574	5977
454.595	4879
454.655	1442
454.665	895
454.734	1609
454.736	1672
454.804	2690
454.817	3981
454.873	7801
454.898	10030
454.943	13489
454.979	10127
455.013	7388
455.060	3472
455.082	2023
455.141	2922
455.152	3032
455.221	6168
455.222	6424
455.291	16179
455.303	16027
455.360	14881
455.384	17588
455.430	20857
455.465	20054
455.499	19411
455.546	13811
455.569	10606
455.627	9226
455.638	9169
455.707	2899
455.708	2904
455.777	1020
455.789	1212
455.846	2112
455.869	1703
455.916	856
455.950	1012
455.985	1040
456.031	686
456.054	518
456.112	852
456.124	925
456.193	692
456.193	675
456.262	1422
456.274	1519
456.332	1746
456.355	2068
456.401	2404
456.436	1881
456.470	1325
456.516	1063
456.540	947
456.597	747
456.609	700
456.678	948
456.678	939
456.747	612
456.759	749
456.817	1116
456.840	963
456.886	843
456.920	1003
456.955	1054
457.001	659
457.024	597
457.082	2012
457.093	2278
457.162	2114
457.163	2142
457.232	3478
457.243	3322
457.301	1897
457.324	1396
457.370	1167
457.405	1255
457.439	1196
457.485	1312
457.508	1452
457.566	1569
457.577	1531
457.646	1951
457.647	1963
457.715	2578
457.727	2739
457.784	3758
457.808	4301
457.853	5185
457.889	6585
457.922	6675
457.969	5543
457.991	5725
458.050	6178
458.060	6374
458.129	7817
458.130	7934
458.198	8971
458.211	8711
458.267	6634
458.292	5169
458.336	4193
458.372	3350
458.405	3077
458.453	4022
458.474	5042
458.533	8173
458.543	8535
458.611	13616
458.614	13826
458.680	10688
458.694	9340
458.749	6955
458.775	5211
458.818	3140
458.855	2993
458.887	2998
458.936	2334
458.955	2137
459.016	2735
459.024	2777
459.093	2186
459.097	2190
459.162	2526
459.177	2621
459.230	2509
459.257	2709
459.299	3138
459.338	3011
459.368	2935
459.418	3584
459.437	3562
459.499	2633
459.505	2597
459.574	2672
459.579	2678
459.643	2857
459.659	2913
459.711	2907
459.740	2794
459.780	2856
459.820	2980
459.849	3075
459.900	3526
459.917	3495
459.981	3487
459.986	3462
460.054	2752
460.061	2739
460.123	3216
460.141	3238
460.191	3183
460.222	3438
460.260	4253
460.302	4761
460.328	4417
460.382	4072
460.397	4152
460.462	3469
460.465	3499
460.534	5855
460.543	6073
460.602	16864
460.623	20954
460.671	36272
460.703	48623
460.739	44148
460.783	41816
460.808	37293
460.864	13079
460.876	11827
460.944	5055
460.945	4962
461.013	3455
461.024	3302
461.081	3366
461.104	3386
461.150	3260
461.184	3597
461.218	3864
461.264	3355
461.286	3036
461.345	2999
461.355	3163
461.423	3817
461.425	3849
461.491	3952
461.505	3889
461.559	7019
461.585	8602
461.628	15999
461.665	22609
461.696	25531
461.745	31964
461.764	26973
461.825	8616
461.832	8524
461.901	4657
461.905	4546
461.969	3757
461.985	3831
462.037	4266
462.065	4213
462.105	4508
462.145	4963
462.173	7563
462.225	12292
462.241	13942
462.305	21167
462.310	20523
462.378	11175
462.385	9932
462.446	6453
462.465	5076
462.514	4524
462.545	4777
462.582	4657
462.625	4488
462.650	4373
462.705	4262
462.718	4447
462.785	5424
462.786	5468
462.854	7863
462.865	8248
462.922	10559
462.945	11712
462.990	8897
463.025	6101
463.058	5243
463.104	4135
463.126	4196
463.184	4652
463.194	4651
463.262	4463
463.264	4453
463.330	4842
463.344	4971
463.398	5557
463.424	5725
463.466	5766
463.504	6048
463.533	5583
463.583	4561
463.601	4956
463.663	6313
463.669	6455
463.737	8020
463.743	8192
463.805	13494
463.823	14912
463.873	23064
463.903	28217
463.940	31219
463.982	35027
464.008	27740
464.062	11382
464.076	10576
464.142	5304
464.144	5271
464.211	4699
464.221	4699
464.279	4667
464.301	4632
464.347	4921
464.381	5206
464.414	6490
464.461	8173
464.482	8645
464.540	9995
464.550	9628
464.617	7073
464.620	6959
464.685	7153
464.699	7243
464.753	8674
464.779	9376
464.820	10800
464.859	12172
464.888	12097
464.938	11769
464.956	11909
465.018	12463
465.023	12303
465.091	9824
465.098	9577
465.158	9036
465.177	8758
465.226	9188
465.257	9615
465.293	9837
465.336	9887
465.361	10378
465.416	11642
465.428	12296
465.495	15598
465.496	15707
465.563	29021
465.575	31293
465.631	41553
465.654	46071
465.698	29044
465.734	14496
465.765	12630
465.813	9281
465.833	9287
465.893	9886
465.900	9822
465.968	9149
465.972	9095
466.035	9638
466.052	9753
466.102	9705
466.131	9638
466.170	10212
466.210	10803
466.237	10896
466.290	10990
466.304	11233
466.369	12318
466.372	12362
466.439	12948
466.449	13028
466.506	14752
466.528	15321
466.573	18645
466.607	21125
466.641	31468
466.687	45830
466.708	51471
466.766	66785
466.775	61976
466.842	25126
466.845	23324
466.909	17008
466.925	15471
466.977	15440
467.004	15513
467.044	15898
467.083	16201
467.111	17008
467.163	18466
467.178	18933
467.242	20705
467.245	20667
467.312	19107
467.321	18865
467.379	17518
467.400	16981
467.446	18829
467.480	20106
467.559	17357
467.638	14555
467.717	14623
467.796	15331
467.875	15770
467.955	16150
468.034	21647
468.113	49888
468.192	81382
468.271	24573
468.350	12251
468.429	12421
468.508	12979
468.588	12185
468.667	13177
468.746	14988
468.825	14341
468.904	11713
468.983	12970
469.062	20875
469.141	26629
469.220	12460
469.299	10723
469.378	12688
469.456	13577
469.535	13933
469.614	11955
469.693	13382
469.772	16270
469.851	23471
469.930	17814
470.009	12265
470.088	10179
470.166	11712
470.245	11720
470.324	12919
470.403	11648
470.482	11224
470.560	10242
470.639	11125
470.718	11950
470.797	11313
470.875	12590
470.954	18987
471.033	23536
471.111	9956
471.190	9537
471.269	9193
471.347	8409
471.426	9542
471.505	12041
471.583	13163
471.662	11702
471.740	11090
471.819	10550
471.898	10255
471.976	9107
472.055	9767
472.133	10506
472.212	15971
472.290	16151
472.369	11928
472.447	8770
472.526	9508
472.604	10023
472.683	10386
472.761	10523
472.839	9597
472.918	8660
472.996	9598
473.075	10561
473.153	11986
473.231	8560
473.310	11279
473.388	11232
473.466	10280
473.545	10585
473.623	13028
473.701	12001
473.780	9718
473.858	9809
473.936	12843
474.014	10502
474.093	10345
474.171	14653
474.249	24096
474.327	16781
474.405	9675
474.484	8331
474.562	8565
474.640	8296
474.718	10302
474.796	11308
474.874	10097
474.952	8648
475.030	9237
475.108	9770
475.187	12489
475.265	13338
475.343	20047
475.421	23661
475.499	11706
475.577	11091
475.655	13203
475.733	25018
475.811	48205
475.889	45874
475.966	33313
476.044	11098
476.122	12431
476.200	17723
476.278	14611
476.356	8805
476.434	10376
476.512	11881
476.590	18030
476.667	16012
476.745	8732
476.823	9007
476.901	9624
476.979	9479
477.056	10194
477.134	9306
477.212	10591
477.290	9300
477.367	8333
477.445	8422
477.523	7123
477.601	8001
477.678	7910
477.756	10449
477.834	13362
477.911	8842
477.989	8746
478.066	7982
478.144	10496
478.222	11994
478.299	21352
478.377	21566
478.454	9300
478.532	7149
478.609	7855
478.687	7485
478.764	7114
478.842	8294
478.919	8089
478.997	8488
479.074	8096
479.152	9259
479.229	13564
479.307	9566
479.384	6897
479.461	6698
479.539	7014
479.616	9706
479.694	8168
479.771	8670
479.848	9491
479.926	13048
480.003	15263
480.080	7440
480.157	6395
480.235	6703
480.312	7490
480.389	9367
480.467	14270
480.544	19945
480.621	11099
480.698	8584
480.775	9887
480.853	10902
480.930	8791
481.007	7876
481.084	9805
481.161	11042
481.238	11147
481.315	6591
481.392	7353
481.470	8354
481.547	9020
481.624	7374
481.701	7706
481.778	7495
481.855	9678
481.932	13362
482.009	27215
482.086	20402
482.163	9062
482.240	12469
482.317	27595
482.393	23204
482.470	9645
482.547	8319
482.624	8012
482.701	8433
482.778	7660
482.855	6717
482.932	6614
483.009	6342
483.085	7246
483.162	7839
483.239	8886
483.316	6547
483.393	7209
483.469	6393
483.546	8983
483.623	9410
483.699	7983
483.776	7384
483.853	9197
483.930	12664
484.006	35960
484.083	72958
484.160	34695
484.236	44336
484.313	36721
484.389	26576
484.466	22888
484.543	21123
484.619	22088
484.696	22250
484.772	24552
484.849	26699
484.925	20967
485.002	20041
485.078	22395
485.155	21919
485.231	20021
485.308	18683
485.384	20981
485.461	23957
485.537	39026
485.614	52179
485.690	22635
485.766	19347
485.843	18722
485.919	21986
485.995	22368
486.072	17567
486.148	17775
486.224	16560
486.301	18701
486.377	19680
486.453	20134
486.530	19623
486.606	25508
486.682	29325
486.758	35473
486.835	44584
486.911	31255
486.987	50758
487.063	44167
487.139	41650
487.215	33846
487.292	22120
487.368	20115
487.444	19675
487.520	23388
487.596	22295
487.672	24852
487.748	38571
487.824	61470
487.900	33876
487.976	21001
488.052	21323
488.128	23685
488.204	19938
488.280	18811
488.356	22339
488.432	41737
488.508	77912
488.584	27583
488.660	15825
488.736	16334
488.812	16735
488.888	19279
488.964	21545
489.039	34092
489.115	52419
489.191	38017
489.267	17480
489.343	17380
489.418	14095
489.494	14524
489.570	14580
489.646	15111
489.722	13929
489.797	15054
489.873	21813
489.949	53571
490.024	50532
490.100	15362
490.176	13283
490.251	15409
490.327	17266
490.403	13719
490.478	12614
490.554	11047
490.629	11527
490.705	11670
490.781	12410
490.856	13153
490.932	14272
491.007	12470
491.083	13658
491.158	13755
491.234	16994
491.309	38891
491.385	47819
491.460	15045
491.536	14080
491.611	12425
491.686	11420
491.762	14814
491.837	21618
491.913	39664
491.988	50064
492.063	66657
492.139	30771
492.214	21346
492.289	10310
492.365	9821
492.440	10915
492.515	13187
492.590	13488
492.666	10087
492.741	12989
492.816	25018
492.891	14208
492.967	9910
493.042	8334
493.117	10704
493.192	10623
493.267	16493
493.342	48359
493.418	81373
493.493	18547
493.568	9377
493.643	8702
493.718	12026
493.793	16179
493.868	18277
493.943	10157
494.018	9839
494.093	9291
494.168	9542
494.243	7595
494.318	7095
494.393	7716
494.468	8223
494.543	7275
494.618	8706
494.693	8248
494.768	8219
494.842	9251
494.917	6626
494.992	8093
495.067	7457
495.142	6678
495.217	7877
495.292	7299
495.366	9502
495.441	11920
495.516	14648
495.591	17503
495.665	37437
495.740	97544
495.815	54614
495.890	14404
495.964	11889
496.039	12312
496.114	11791
496.188	12626
496.263	15039
496.338	11985
496.412	13785
496.487	16861
496.561	15313
496.636	15708
496.710	14879
496.785	14760
496.860	19143
496.934	14536
497.009	13761
497.083	14577
497.158	15392
497.232	17723
497.307	23050
497.381	20224
497.455	23492
497.530	32251
497.604	24752
497.679	25030
497.753	37124
497.827	49793
497.902	48134
497.976	51614
498.050	82642
498.125	286674
498.199	366835
498.273	71851
498.348	51017
498.422	45043
498.496	39838
498.570	35835
498.645	30976
498.719	29228
498.793	31539
498.867	42234
498.941	53874
499.016	104616
499.090	349702
499.164	157673
499.238	21921
499.312	16522
499.386	18368
499.460	18313
499.534	16731
499.609	18962
499.683	31986
499.757	31536
499.831	47036
499.905	207197
499.979	252244
500.053	39150
500.127	34792
500.201	19274
500.275	15192
500.349	14712
500.422	16515
500.496	20628
500.570	36669
500.644	98657
500.718	256613
500.792	69799
500.866	15334
500.940	19570
501.013	16884
501.087	14356
501.161	22854
501.235	32542
501.309	67654
501.382	202043
501.456	221293
501.530	41275
501.603	79063
501.677	33962
501.751	12832
501.825	14760
501.898	25419
501.972	86952
502.046	69658
502.119	16110
502.193	31160
502.266	98702
502.340	57008
502.413	36636
502.487	87476
502.561	53797
502.634	17066
502.708	10228
502.781	9129
502.855	7378
502.928	7791
503.002	7489
503.075	8596
503.149	8021
503.222	9491
503.295	10311
503.369	13932
503.442	18479
503.516	50620
503.589	168262
503.662	127379
503.736	32919
503.809	72751
503.882	68374
503.956	81967
504.029	89810
504.102	28945
504.175	30611
504.249	16431
504.322	12524
504.395	12707
504.468	8432
504.542	9198
504.615	6934
504.688	7091
504.761	4850
504.834	8793
504.907	7273
504.980	12592
505.053	8448
505.127	8284
505.200	12438
505.273	14833
505.346	8411
505.419	6620
505.492	5887
505.565	4925
505.638	4869
505.711	6196
505.784	5240
505.857	5068
505.930	6327
506.003	5707
506.076	7387
506.149	10449
506.221	14023
506.294	11870
506.367	26844
506.440	114414
506.513	75650
506.586	15211
506.659	8103
506.731	6124
506.804	7152
506.877	9308
506.950	8437
507.022	6021
507.095	8274
507.168	11339
507.241	6053
507.313	4508
507.386	4681
507.459	6802
507.531	5511
507.604	4206
507.677	4837
507.749	4525
507.822	5380
507.894	12546
507.967	18859
508.040	12106
508.112	8752
508.185	9120
508.257	7217
508.330	11223
508.402	8675
508.475	8990
508.547	9517
508.620	8542
508.692	15394
508.765	10965
508.837	6382
508.909	7053
508.982	6576
509.054	7472
509.127	5973
509.199	6216
509.271	6595
509.344	5819
509.416	5862
509.488	6122
509.560	6324
509.633	7053
509.705	7520
509.777	7516
509.849	8609
509.922	8288
509.994	7119
510.066	7424
510.138	7528
510.210	15496
510.283	16496
510.355	13345
510.427	9646
510.499	10096
510.571	9601
510.643	9127
510.715	11226
510.787	11377
510.859	9165
510.931	10783
511.003	12202
511.076	12354
511.148	8961
511.219	10072
511.291	15258
511.363	20619
511.435	9048
511.507	7157
511.579	8113
511.651	7866
511.723	8246
511.795	8274
511.867	7648
511.939	9948
512.010	20900
512.082	20243
512.154	7252
512.226	9438
512.298	10512
512.369	17817
512.441	14036
512.513	12306
512.585	9589
512.656	10570
512.728	10538
512.800	9725
512.871	7580
512.943	9157
513.015	7236
513.086	8282
513.158	8272
513.230	9131
513.301	11053
513.373	11628
513.444	8526
513.516	7245
513.588	8078
513.659	7146
513.731	8518
513.802	9301
513.874	11517
513.945	22052
514.016	11348
514.088	7687
514.159	7902
514.231	10429
514.302	14998
514.374	12819
514.445	11242
514.516	24264
514.588	22223
514.659	11757
514.730	22965
514.802	18556
514.873	14041
514.944	18155
515.016	13303
515.087	12673
515.158	15612
515.229	26469
515.301	17405
515.372	25458
515.443	18323
515.514	13069
515.585	9101
515.656	9761
515.728	7932
515.799	7720
515.870	8027
515.941	7766
516.012	7987
516.083	11455
516.154	10740
516.225	12190
516.296	11275
516.367	11618
516.438	10132
516.509	13177
516.580	16251
516.651	31609
516.722	115367
516.793	81797
516.864	20008
516.935	19521
517.006	19732
517.077	25035
517.148	43757
517.219	104795
517.289	228621
517.360	136036
517.431	61142
517.502	13141
517.573	11501
517.643	11983
517.714	12558
517.785	13768
517.856	12026
517.926	15297
517.997	15300
518.068	17905
518.138	21479
518.209	28150
518.280	68748
518.350	288899
518.421	167607
518.492	25051
518.562	15943
518.633	16158
518.703	13712
518.774	18676
518.845	31932
518.915	36788
518.986	20213
519.056	17219
519.127	23461
519.197	37366
519.268	106703
519.338	99176
519.408	20201
519.479	16538
519.549	13624
519.620	10720
519.690	9042
519.760	9219
519.831	8281
519.901	9197
519.971	7717
520.042	8346
520.112	10928
520.182	10940
520.253	11131
520.323	9556
520.393	10742
520.463	17479
520.534	10395
520.604	25070
520.674	15159
520.744	13626
520.814	23952
520.885	27930
520.955	31705
521.025	138534
521.095	76428
521.165	11596
521.235	10290
521.305	8774
521.375	7713
521.445	8174
521.515	8280
521.585	10754
521.655	10291
521.725	9328
521.795	9231
521.865	7141
521.935	12348
522.005	14203
522.075	7523
522.145	8849
522.215	9324
522.285	14472
522.355	17396
522.424	36588
522.494	36463
522.564	15255
522.634	15722
522.704	45538
522.774	25508
522.843	8141
522.913	6843
522.983	9061
523.053	7632
523.122	7554
523.192	7391
523.262	19933
523.331	27567
523.401	8545
523.471	5924
523.540	7221
523.610	5290
523.680	6116
523.749	6057
523.819	7616
523.888	9955
523.958	6521
524.027	6817
524.097	7418
524.166	5958
524.236	6838
524.305	8029
524.375	5948
524.444	5557
524.514	7574
524.583	5841
524.653	8650
524.722	10364
524.791	7930
524.861	6553
524.930	5955
524.999	5301
525.069	8947
525.138	7013
525.207	11105
525.277	6926
525.346	6367
525.415	5983
525.484	7205
525.554	8197
525.623	8254
525.692	6359
525.761	6800
525.830	7815
525.900	7419
525.969	10507
526.038	14940
526.107	19455
526.176	55136
526.245	56370
526.314	22624
526.383	32373
526.452	47016
526.522	64317
526.591	92475
526.660	33678
526.729	18891
526.797	19493
526.867	31901
526.935	127124
527.004	202974
527.073	128556
527.142	16878
527.211	8634
527.280	7302
527.349	8091
527.418	5063
527.487	5903
527.555	4476
527.624	4368
527.693	4908
527.762	5502
527.831	4852
527.899	4883
527.968	5061
528.037	4151
528.106	6189
528.174	8542
528.243	10991
528.312	11816
528.380	17378
528.449	5887
528.518	4768
528.586	3559
528.655	5107
528.723	4194
528.792	3553
528.861	4415
528.929	3682
528.998	4327
529.066	4460
529.135	3889
529.203	4224
529.272	4204
529.340	5215
529.409	4895
529.477	4900
529.545	6939
529.614	9057
529.682	7303
529.751	10957
529.819	9759
529.887	8079
529.956	4860
530.024	4847
530.092	2947
530.161	5697
530.229	6904
530.297	5573
530.365	5680
530.434	4985
530.502	3582
530.570	5236
530.638	2975
530.707	5054
530.775	6340
530.843	5219
530.911	3883
530.979	5311
531.047	4598
531.115	5819
531.183	3865
531.252	4781
531.320	4276
531.388	4649
531.456	4941
531.524	3719
531.592	5078
531.660	5390
531.728	4613
531.796	4381
531.864	4655
531.932	5478
532.000	4413
532.067	4351
532.135	5320
532.203	6743
532.271	6432
532.339	9223
532.407	18303
532.475	16198
532.542	8697
532.610	8975
532.678	10162
532.746	29050
532.814	98655
532.881	34477
532.949	6794
533.017	6186
533.084	4775
533.152	5472
533.220	4684
533.287	5706
533.355	5483
533.423	5920
533.490	5090
533.558	4869
533.625	5584
533.693	6703
533.761	6109
533.828	7296
533.896	5792
533.963	10125
534.031	12196
534.098	16357
534.166	10206
534.233	6244
534.300	6116
534.368	7806
534.435	6218
534.503	6904
534.570	6046
534.637	5985
534.705	5772
534.772	7308
534.840	7939
534.907	24087
534.974	40298
535.041	9989
535.109	7158
535.176	5490
535.243	4746
535.310	4911
535.378	4787
535.445	4909
535.512	4604
535.579	5096
535.646	4287
535.714	5851
535.781	6979
535.848	7285
535.915	7140
535.982	8159
536.049	7150
536.116	7512
536.183	5700
536.250	5983
536.317	5780
536.384	6264
536.451	7960
536.518	8811
536.585	5939
536.652	9587
536.719	10169
536.786	8744
536.853	7369
536.920	10168
536.987	14227
537.053	13042
537.120	39172
537.187	51136
537.254	7057
537.321	5501
537.388	5851
537.454	4645
537.521	4181
537.588	5055
537.654	6273
537.721	7476
537.788	8576
537.855	6393
537.921	5765
537.988	5984
538.055	5591
538.121	5324
538.188	5876
538.254	7400
538.321	11712
538.388	9658
538.454	6041
538.521	5762
538.587	4556
538.654	5828
538.720	5087
538.787	6160
538.853	5443
538.920	7095
538.986	7650
539.053	7013
539.119	6432
539.185	5970
539.252	6287
539.318	9107
539.385	7889
539.451	8637
539.517	8642
539.583	9316
539.650	12830
539.716	38720
539.782	16524
539.849	6861
539.915	6635
539.981	6373
540.047	6222
540.114	6802
540.180	6767
540.246	6183
540.312	7331
540.378	12625
540.444	14760
540.510	13193
540.576	37127
540.643	18617
540.709	5686
540.775	7378
540.841	5457
540.907	8163
540.973	13245
541.039	10778
541.105	10211
541.171	6959
541.237	5644
541.303	6976
541.369	8205
541.435	7876
541.500	11003
541.566	9204
541.632	5368
541.698	5786
541.764	5837
541.830	5239
541.896	4265
541.961	6071
542.027	6840
542.093	6772
542.159	6363
542.224	6090
542.290	8468
542.356	11448
542.421	13519
542.487	9430
542.553	7180
542.618	8587
542.684	6450
542.750	6578
542.815	8078
542.881	11203
542.947	29235
543.012	32658
543.078	7824
543.143	5792
543.209	6915
543.274	7066
543.340	7671
543.405	12053
543.471	22429
543.536	8628
543.602	6544
543.667	5757
543.732	6128
543.798	5670
543.863	6547
543.928	5803
543.994	4916
544.059	6277
544.124	5342
544.190	5583
544.255	5567
544.320	6156
544.386	4875
544.451	8471
544.516	8487
544.581	9080
544.646	17223
544.712	37883
544.777	12111
544.842	8905
544.907	9495
544.972	8252
545.037	7675
545.102	9323
545.168	8604
545.233	9597
545.298	9144
545.363	10114
545.428	11540
545.493	13487
545.558	25655
545.623	18014
545.688	7910
545.753	8831
545.818	8058
545.883	9051
545.947	8613
546.012	10052
546.077	10204
546.142	9993
546.207	8515
546.272	10747
546.337	9754
546.401	9944
546.466	8200
546.531	8963
546.596	9366
546.661	9041
546.725	9717
546.790	8473
546.855	9637
546.919	8624
546.984	9577
547.049	10911
547.113	12365
547.178	11297
547.243	11144
547.307	15504
547.372	14100
547.436	18059
547.501	14195
547.565	13959
547.630	14649
547.695	15386
547.759	17199
547.823	16206
547.888	12877
547.952	12978
548.017	12678
548.081	15298
548.146	18470
548.210	18910
548.274	13642
548.339	14166
548.403	12634
548.468	12267
548.532	12077
548.596	12175
548.660	12893
548.725	14386
548.789	16305
548.853	17762
548.917	14713
548.982	18284
549.046	20442
549.110	12720
549.174	12200
549.238	12882
549.303	12119
549.367	15154
549.431	13084
549.495	13250
549.559	12510
549.623	13735
549.687	15666
549.751	18329
549.815	17138
549.879	18382
549.943	15923
550.007	18312
550.071	16478
550.135	17924
550.199	15608
550.263	16038
550.327	15617
550.391	20908
550.455	17160
550.519	16560
550.582	18238
550.646	20051
550.710	22891
550.774	19489
550.838	18348
550.901	18990
550.965	21450
551.029	21348
551.093	23848
551.156	27640
551.220	41955
551.284	52695
551.347	29154
551.411	43009
551.475	60822
551.538	24892
551.602	19514
551.666	18405
551.729	16877
551.793	17113
551.856	17504
551.920	17078
551.983	17064
552.047	16714
552.110	16169
552.174	16074
552.237	15937
552.301	16216
552.364	15089
552.428	14777
552.491	14818
552.554	15547
552.618	15201
552.681	16360
552.745	14734
552.808	18139
552.871	20329
552.934	18863
552.998	16039
553.061	17828
553.124	16149
553.187	16608
553.251	17241
553.314	20062
553.377	19247
553.440	25413
553.503	48681
553.567	106679
553.630	32647
553.693	17756
553.756	16275
553.819	15079
553.882	15326
553.945	15813
554.008	14686
554.071	14085
554.134	15051
554.197	14763
554.260	13713
554.323	14986
554.386	14836
554.449	14980
554.512	14898
554.575	14040
554.638	13385
554.701	13718
554.764	13829
554.827	14031
554.889	12201
554.952	12171
555.015	11684
555.078	12302
555.141	12746
555.203	12007
555.266	12080
555.329	12321
555.391	11009
555.454	11168
555.517	11872
555.580	12434
555.642	10570
555.705	11132
555.768	11655
555.830	10804
555.893	10194
555.955	10521
556.018	10635
556.080	10359
556.143	10045
556.206	10707
556.268	11369
556.330	11667
556.393	10501
556.455	11508
556.518	13839
556.580	15752
556.643	9768
556.705	10250
556.767	8800
556.830	10071
556.892	9783
556.955	12616
557.017	11194
557.079	10313
557.142	8443
557.204	9525
557.266	12378
557.328	14701
557.391	8235
557.453	8300
557.515	8592
557.577	9709
557.639	9642
557.701	8735
557.764	6968
557.826	8312
557.888	9218
557.950	9670
558.012	9238
558.074	11918
558.136	16806
558.198	40458
558.260	23595
558.322	11397
558.384	10039
558.446	12327
558.508	13737
558.570	16274
558.632	20175
558.694	31601
558.756	33210
558.818	68631
558.880	214853
558.942	101057
559.003	42930
559.065	32048
559.127	14597
559.189	13767
559.251	16237
559.312	20017
559.374	33672
559.436	116471
559.498	90928
559.559	16377
559.621	14567
559.683	16166
559.744	21883
559.806	51101
559.868	99650
559.929	30780
559.991	16658
560.052	18387
560.114	38388
560.176	36181
560.237	22310
560.299	41472
560.360	17295
560.422	10984
560.483	9148
560.545	9588
560.606	8555
560.667	8859
560.729	8055
560.790	8015
560.852	7907
560.913	9228
560.974	7558
561.036	7809
561.097	8190
561.158	8175
561.220	8626
561.281	8320
561.342	8649
561.403	10462
561.465	9616
561.526	14562
561.587	23321
561.648	11727
561.709	8476
561.771	9693
561.832	8948
561.893	9002
561.954	8395
562.015	8484
562.076	7877
562.137	7829
562.198	7764
562.259	9106
562.320	8295
562.381	8279
562.442	10068
562.503	10184
562.564	7449
562.625	8829
562.686	8140
562.747	9651
562.808	8630
562.869	8430
562.930	10837
562.991	11098
563.051	10142
563.112	9227
563.173	8299
563.234	8819
563.294	8836
563.355	9015
563.416	8229
563.477	9191
563.537	7970
563.598	10694
563.659	9420
563.720	9148
563.780	8298
563.841	9696
563.901	7632
563.962	9496
564.023	8584
564.083	8807
564.144	8817
564.204	9445
564.265	8880
564.325	11477
564.386	17436
564.446	20997
564.507	8925
564.567	9024
564.628	9175
564.688	8979
564.749	8848
564.809	10414
564.869	11661
564.930	9524
564.990	8479
565.050	8231
565.111	9104
565.171	8411
565.231	9358
565.292	9999
565.352	7902
565.412	9856
565.472	9463
565.532	9806
565.593	9955
565.653	8897
565.713	9327
565.773	10924
565.833	10476
565.893	12321
565.953	10780
566.013	11083
566.074	11234
566.134	13752
566.194	18270
566.254	20865
566.314	15877
566.374	12807
566.434	11902
566.494	13161
566.554	13187
566.614	13050
566.673	12647
566.733	14547
566.793	14860
566.853	16051
566.913	16787
566.973	17277
567.033	17579
567.092	17624
567.152	16749
567.212	17337
567.272	17516
567.331	20038
567.391	18265
567.451	20797
567.511	23423
567.570	25276
567.630	18277
567.690	18794
567.749	18351
567.809	19331
567.868	21788
567.928	25405
567.988	28646
568.047	35845
568.107	42088
568.166	55683
568.226	79478
568.285	116716
568.345	114100
568.404	96408
568.464	80736
568.523	74107
568.582	73158
568.642	79940
568.701	95278
568.761	127656
568.820	189209
568.879	217126
568.939	176104
568.998	132998
569.057	101583
569.116	80223
569.176	63188
569.235	51879
569.294	43791
569.353	37394
569.413	32399
569.472	29382
569.531	25817
569.590	23781
569.649	21305
569.708	20447
569.767	18544
569.827	18634
569.886	16272
569.945	15551
570.004	14529
570.063	14253
570.122	13961
570.181	14563
570.240	12944
570.299	14838
570.358	13047
570.417	11654
570.475	10612
570.534	11715
570.593	10394
570.652	11257
570.711	10482
570.770	10734
570.829	11471
570.887	10185
570.946	9813
571.005	9547
571.064	9933
571.122	10264
571.181	9709
571.240	10110
571.299	8575
571.357	10248
571.416	9800
571.475	10497
571.533	11103
571.592	9998
571.650	9296
571.709	8899
571.768	7986
571.826	8631
571.885	9472
571.943	8170
572.002	8083
572.060	8501
572.119	7274
572.177	7750
572.236	7395
572.294	8539
572.352	7348
572.411	8386
572.469	6614
572.528	7268
572.586	7163
572.644	8466
572.703	8968
572.761	7745
572.819	8111
572.877	7995
572.936	7177
572.994	7517
573.052	6504
573.110	7064
573.169	6809
573.227	6835
573.285	6468
573.343	6856
573.401	7148
573.459	7582
573.517	6848
573.576	7358
573.634	7050
573.692	7246
573.750	7673
573.808	7785
573.866	8307
573.924	10161
573.982	9432
574.040	7847
574.098	6997
574.155	8046
574.213	6166
574.271	6667
574.329	6413
574.387	6456
574.445	6864
574.503	6726
574.560	5538
574.618	6750
574.676	5385
574.734	5885
574.792	6656
574.849	6825
574.907	5516
574.965	6461
575.022	6157
575.080	5418
575.138	5713
575.195	6817
575.253	6329
575.311	7103
575.368	6132
575.426	6077
575.483	6223
575.541	6821
575.598	6077
575.656	6685
575.713	5597
575.771	6638
575.828	5792
575.886	6469
575.943	7081
576.001	7726
576.058	6778
576.115	7561
576.173	7309
576.230	8998
576.287	8754
576.345	7557
576.402	6938
576.459	7513
576.517	7373
576.574	8415
576.631	7579
576.688	8181
576.746	7396
576.803	7336
576.860	7188
576.917	7347
576.974	7354
577.031	8054
577.089	6727
577.146	7663
577.203	7929
577.260	8781
577.317	7789
577.374	8425
577.431	8443
577.488	7587
577.545	6767
577.602	8439
577.659	8026
577.716	8450
577.773	8636
577.830	8098
577.886	7590
577.943	7467
578.000	8063
578.057	7738
578.114	7935
578.171	8258
578.227	9582
578.284	10459
578.341	9482
578.398	7958
578.454	8681
578.511	9159
578.568	9996
578.625	8557
578.681	8284
578.738	7801
578.794	7542
578.851	7863
578.908	7101
578.964	8154
579.021	7627
579.077	7741
579.134	6942
579.190	8210
579.247	7305
579.303	8365
579.360	7984
579.416	7420
579.473	7668
579.529	7505
579.586	6570
579.642	7917
579.698	8020
579.755	7876
579.811	8022
579.867	8393
579.924	8473
579.980	8056
580.036	9003
580.093	10990
580.149	12218
580.205	14751
580.261	12728
580.317	11707
580.374	9862
580.430	11048
580.486	9668
580.542	9266
580.598	8764
580.619	9054
580.654	9568
580.692	7991
580.710	7218
580.765	9723
580.767	9810
580.823	8578
580.838	8685
580.879	8991
580.911	9071
580.935	9144
580.984	9066
580.991	9065
581.047	8805
581.057	8848
581.103	9042
581.130	9138
581.159	9268
581.203	10438
581.215	10753
581.270	10186
581.276	10186
581.326	10223
581.349	9989
581.382	9676
581.422	9831
581.438	9888
581.494	9268
581.494	9267
581.550	9785
581.567	9493
581.606	8869
581.640	8954
581.661	9014
581.713	9748
581.717	9807
581.773	9480
581.786	9507
581.829	9651
581.859	9482
581.885	9365
581.932	9870
581.940	9951
581.996	9933
582.004	9915
582.052	9908
582.077	10098
582.107	10284
582.150	9741
582.163	9599
582.219	10281
582.223	10245
582.274	9920
582.296	10269
582.330	10699
582.368	10386
582.386	10253
582.441	10249
582.441	10251
582.497	10306
582.514	10493
582.552	10896
582.587	10765
582.608	10695
582.659	11557
582.663	11622
582.719	10104
582.732	10237
582.774	10726
582.805	10775
582.830	10747
582.877	11999
582.885	12236
582.941	10890
582.950	11011
582.996	11476
583.023	11701
583.052	12087
583.095	12411
583.107	12509
583.162	12981
583.168	13232
583.218	15227
583.240	14471
583.273	13407
583.313	13341
583.328	13286
583.384	12549
583.385	12553
583.439	12652
583.458	12387
583.494	12046
583.531	11936
583.549	11849
583.603	12032
583.605	12045
583.660	13136
583.676	13200
583.715	13191
583.748	13374
583.770	13546
583.820	12465
583.825	12339
583.881	12998
583.893	12827
583.936	12570
583.965	13248
583.991	13678
584.038	13135
584.046	13056
584.101	13265
584.110	13273
584.156	13271
584.183	13451
584.211	13652
584.255	13750
584.266	13778
584.321	14133
584.328	14073
584.376	13546
584.400	14014
584.431	14726
584.472	14139
584.486	13954
584.541	15181
584.545	15162
584.596	14738
584.617	14951
584.651	15400
584.689	15351
584.706	15345
584.761	16764
584.762	16758
584.816	16229
584.834	16559
584.871	17009
584.906	17040
584.926	17181
584.978	17287
584.980	17289
585.035	17527
585.051	17790
585.090	18807
585.123	19007
585.145	18899
585.195	19656
585.200	19744
585.254	19732
585.267	20016
585.309	21324
585.340	21919
585.364	22236
585.412	23721
585.419	23889
585.473	23932
585.484	23973
585.528	24541
585.556	25759
585.583	27316
585.628	31636
585.637	33213
585.692	46243
585.700	49711
585.747	69043
585.772	67720
585.801	57927
585.845	36883
585.856	32711
585.910	26967
585.917	26535
585.965	26850
585.989	26698
586.019	26351
586.061	26376
586.074	26571
586.128	26766
586.133	26918
586.183	27942
586.205	27910
586.237	28514
586.277	29845
586.292	30072
586.346	29585
586.349	29645
586.401	31483
586.421	31749
586.455	32230
586.493	33439
586.509	34239
586.564	36847
586.565	36965
586.618	44847
586.637	46754
586.672	46918
586.709	42564
586.727	40407
586.781	38807
586.781	38820
586.835	39819
586.853	39753
586.889	39976
586.925	40575
586.944	41186
586.996	43058
586.998	43121
587.052	44930
587.068	45535
587.106	46844
587.140	47982
587.161	48840
587.212	50682
587.215	50824
587.269	53624
587.284	54409
587.323	56186
587.356	57535
587.377	58732
587.427	61790
587.431	61986
587.485	64789
587.499	65284
587.539	67988
587.571	71019
587.593	73133
587.643	76984
587.648	77490
587.702	83665
587.715	85182
587.755	89742
587.786	93343
587.810	96517
587.858	103192
587.864	104061
587.917	112890
587.930	114961
587.971	124214
588.001	131713
588.025	137756
588.073	149551
588.079	151430
588.133	169133
588.145	173296
588.187	190065
588.217	202457
588.241	213766
588.288	237500
588.295	241617
588.348	277962
588.360	286206
588.402	320414
588.431	345286
588.456	370441
588.503	422761
588.510	432292
588.564	513444
588.575	531740
588.617	619174
588.646	682639
588.671	756171
588.718	904951
588.725	934054
588.778	1165258
588.789	1210395
588.832	1399204
588.861	1510329
588.886	1519909
588.932	1469266
588.939	1442581
588.993	1194963
589.004	1171858
589.047	1374133
589.075	1519826
589.100	1555274
589.147	1525524
589.154	1499908
589.207	1255876
589.218	1207258
589.261	1080354
589.290	1004431
589.314	999607
589.361	1006047
589.368	1022749
589.421	1176376
589.433	1209472
589.475	1371587
589.504	1467670
589.528	1453729
589.576	1357295
589.582	1352227
589.635	1369754
589.647	1377026
589.689	1380301
589.718	1328202
589.742	1182324
589.790	877402
589.795	854317
589.849	645744
589.861	599947
589.902	509050
589.932	444785
589.955	410505
590.004	339925
590.009	335208
590.062	285493
590.075	273712
590.115	248423
590.146	229170
590.168	218739
590.218	195868
590.222	194474
590.275	174909
590.289	169883
590.328	158420
590.360	149014
590.381	144478
590.431	133563
590.435	133107
590.488	123437
590.503	120837
590.541	115652
590.574	110917
590.594	107984
590.645	100270
590.647	100162
590.700	94730
590.716	93024
590.753	89104
590.787	85541
590.806	84256
590.859	80169
590.859	80186
590.912	76024
590.930	74622
590.965	73146
591.001	71574
591.018	70673
591.071	67654
591.072	67544
591.124	65242
591.143	64167
591.177	62537
591.214	60923
591.230	60593
591.283	59156
591.285	59022
591.336	57234
591.356	56439
591.389	55650
591.427	54399
591.442	53796
591.495	51496
591.498	51260
591.547	50961
591.569	50682
591.600	49823
591.640	48558
591.653	48428
591.706	47654
591.711	47500
591.759	46506
591.782	45897
591.811	46237
591.853	46630
591.864	46318
591.917	44301
591.924	43939
591.969	43150
591.995	42656
592.022	42220
592.066	41342
592.075	41383
592.127	41202
592.137	41124
592.180	42523
592.208	43348
592.233	42460
592.279	40465
592.285	40280
592.338	38226
592.350	37725
592.390	37124
592.421	36514
592.443	36310
592.491	35755
592.495	35825
592.548	36036
592.562	36041
592.600	35476
592.633	34891
592.653	34542
592.704	33327
592.705	33510
592.775	33116
592.846	32818
592.916	32587
592.987	32144
593.058	32294
593.128	31615
593.199	29798
593.270	30626
593.341	29505
593.411	28825
593.482	28343
593.553	29016
593.623	28010
593.694	27922
593.764	27262
593.835	27350
593.906	25844
593.976	26005
594.047	25964
594.117	27719
594.188	28531
594.258	26272
594.329	24449
594.399	25910
594.470	24768
594.540	24659
594.611	23581
594.681	23301
594.751	24605
594.822	23821
594.892	24383
594.963	25602
595.033	24402
595.103	23862
595.174	23994
595.244	27306
595.314	33421
595.384	26589
595.455	24049
595.525	24238
595.595	23615
595.665	24878
595.736	23455
595.806	23341
595.876	23171
595.946	23380
596.016	22647
596.087	23083
596.157	22974
596.227	22934
596.297	22921
596.367	23781
596.437	24275
596.507	27276
596.577	31880
596.647	26290
596.717	23651
596.787	24663
596.857	23188
596.927	23642
596.997	23242
597.067	24524
597.137	24447
597.207	25524
597.277	25434
597.347	24103
597.417	24312
597.487	23732
597.557	25177
597.626	23585
597.696	24587
597.766	26496
597.836	30151
597.906	26774
597.975	21996
598.045	22656
598.115	21986
598.185	23202
598.254	23526
598.324	25846
598.394	24689
598.464	24504
598.533	24638
598.603	23291
598.672	22944
598.742	23797
598.812	23165
598.881	23161
598.951	23981
599.020	22793
599.090	22451
599.159	24780
599.229	23726
599.299	22282
599.368	22963
599.437	22818
599.507	21883
599.576	22852
599.646	23449
599.715	23133
599.785	21227
599.854	22327
599.924	22988
599.993	22907
600.062	21381
600.132	21779
600.201	22103
600.270	23936
600.340	24195
600.409	25002
600.478	23549
600.547	23951
600.617	24269
600.686	21708
600.755	19622
600.824	20448
600.894	21090
600.963	20971
601.032	19242
601.101	20066
601.170	20274
601.239	19511
601.308	20206
601.378	22057
601.447	20782
601.516	20111
601.585	20713
601.654	21644
601.723	21503
601.792	21206
601.861	20963
601.930	22928
601.999	23412
602.068	21825
602.137	23284
602.206	23756
602.275	21474
602.343	22038
602.412	22663
602.481	22034
602.550	20809
602.619	22379
602.688	21716
602.756	22476
602.825	22179
602.894	22336
602.963	21618
603.032	22532
603.100	22147
603.169	22051
603.238	21869
603.307	22556
603.375	21970
603.444	22814
603.513	21847
603.581	22253
603.650	22765
603.719	22787
603.787	19858
603.856	21699
603.924	20794
603.993	21979
604.061	22212
604.130	23623
604.198	23239
604.267	24034
604.335	23567
604.404	23437
604.472	23171
604.541	24398
604.609	23752
604.678	24236
604.746	25078
604.815	26242
604.883	24632
604.951	25378
605.020	24426
605.088	24208
605.156	24914
605.225	24295
605.293	24472
605.361	24381
605.429	24900
605.498	24934
605.566	25250
605.634	25784
605.702	25995
605.771	26813
605.839	27467
605.907	26715
605.975	26622
606.043	25852
606.111	25148
606.180	26412
606.248	25921
606.316	28371
606.384	27127
606.452	27165
606.520	25651
606.588	24655
606.656	23603
606.724	22462
606.792	21567
606.860	21050
606.928	20226
606.996	19129
607.064	18618
607.132	18731
607.200	18740
607.267	19618
607.335	19138
607.403	20153
607.471	20338
607.539	19846
607.607	20194
607.674	18115
607.742	18450
607.810	18810
607.878	17544
607.946	17987
608.013	18771
608.081	18753
608.149	19325
608.216	18262
608.284	20287
608.352	19614
608.419	19065
608.487	22613
608.555	21703
608.622	19404
608.690	18948
608.757	20911
608.825	21614
608.893	21538
608.960	21007
609.028	22529
609.095	23456
609.163	21646
609.230	19529
609.298	18415
609.365	16332
609.432	18580
609.500	19922
609.567	22406
609.635	23219
609.702	24930
609.769	25035
609.837	23184
609.904	19748
609.971	18033
610.039	19574
610.106	23376
610.173	34284
610.241	70485
610.308	85439
610.375	47673
610.442	25137
610.509	19208
610.577	18433
610.644	18742
610.711	18471
610.778	20084
610.845	19155
610.912	21470
610.980	22430
611.047	24719
611.114	24392
611.181	20975
611.248	20034
611.315	21394
611.382	21331
611.449	21503
611.516	21995
611.583	22653
611.650	22604
611.717	22536
611.784	22260
611.851	23790
611.918	24455
611.984	27230
612.051	34673
612.118	59550
612.185	139352
612.252	168694
612.319	45112
612.386	28602
612.452	25967
612.519	25429
612.586	27485
612.653	27506
612.719	24644
612.786	24783
612.853	22381
612.919	21948
612.986	22456
613.053	21635
613.120	20426
613.186	20406
613.253	19918
613.319	19513
613.386	20090
613.453	20819
613.519	20038
613.586	21428
613.652	23985
613.719	22628
613.785	23401
613.852	21139
613.918	20880
613.985	21976
614.051	23746
614.118	32926
614.184	43652
614.250	24141
614.317	20654
614.383	19521
614.449	20992
614.516	20173
614.582	20617
614.648	22025
614.715	19826
614.781	20448
614.847	20093
614.914	21270
614.980	20410
615.046	21333
615.112	20883
615.179	22049
615.245	23980
615.311	29391
615.377	43633
615.443	62296
615.509	39464
615.575	27943
615.642	24723
615.708	25226
615.774	26117
615.840	29360
615.906	35286
615.972	49662
616.038	91889
616.104	152272
616.170	202932
616.236	282904
616.302	79127
616.368	38467
616.434	30943
616.500	28455
616.565	27320
616.631	29774
616.697	28486
616.763	27177
616.829	30417
616.895	46077
616.961	57300
617.026	34699
617.092	24916
617.158	23247
617.224	21209
617.289	21618
617.355	20441
617.421	20960
617.487	20964
617.552	21209
617.618	19121
617.684	19380
617.749	20530
617.815	19228
617.880	18438
617.946	18559
618.012	18812
618.077	19646
618.143	18182
618.208	18182
618.274	20210
618.339	21258
618.405	18474
618.470	18269
618.536	18460
618.601	19794
618.667	18511
618.732	17167
618.798	16615
618.863	17180
618.928	16597
618.994	17651
619.059	18258
619.124	19917
619.190	19664
619.255	17148
619.320	16707
619.386	17796
619.451	16297
619.516	15907
619.581	16600
619.647	17017
619.712	17589
619.777	16639
619.842	16937
619.907	16832
619.972	17087
620.038	16627
620.103	16685
620.168	15662
620.233	16288
620.298	16360
620.363	15673
620.428	17285
620.493	17361
620.558	17591
620.623	17460
620.688	16605
620.753	16003
620.818	16703
620.883	17338
620.948	17475
621.013	17027
621.078	17055
621.143	16453
621.207	19364
621.272	17373
621.337	17406
621.402	18457
621.467	20459
621.532	23598
621.596	20312
621.661	18852
621.726	17740
621.791	18348
621.855	19160
621.920	18336
621.985	19949
622.049	19990
622.114	21053
622.179	19231
622.243	21024
622.308	19638
622.373	20943
622.437	20245
622.502	19424
622.566	18475
622.631	19138
622.695	19685
622.760	20554
622.824	19566
622.889	19481
622.953	19375
623.018	21998
623.082	23622
623.147	20669
623.211	19399
623.276	19957
623.340	19129
623.404	18234
623.469	18727
623.533	18216
623.597	18559
623.662	18417
623.726	18002
623.790	17301
623.854	16940
623.919	18093
623.983	16893
624.047	16908
624.111	16824
624.176	17336
624.240	18041
624.304	19231
624.368	17630
624.432	17873
624.496	17078
624.560	19013
624.625	18190
624.689	17170
624.753	17151
624.817	17454
624.881	17053
624.945	16796
625.009	16362
625.073	16073
625.137	17067
625.201	17761
625.265	18412
625.329	17018
625.393	16589
625.456	17657
625.520	16654
625.584	18220
625.648	19854
625.712	24892
625.776	41385
625.839	57373
625.903	37606
625.967	17726
626.031	20734
626.095	33785
626.158	23577
626.222	15181
626.286	14164
626.349	12322
626.413	11967
626.477	13783
626.540	12220
626.604	13584
626.668	12082
626.731	12664
626.795	12307
626.858	13886
626.922	12439
626.986	12902
627.049	11522
627.113	11807
627.176	12582
627.240	12562
627.303	11957
627.366	12778
627.430	12054
627.493	13344
627.557	11698
627.620	12708
627.684	11862
627.747	11774
627.810	11095
627.874	11526
627.937	10305
628.000	12354
628.064	11330
628.127	10827
628.190	10098
628.253	11191
628.317	10590
628.380	9708
628.443	9943
628.506	9885
628.569	9827
628.632	10037
628.696	9715
628.759	10111
628.822	9155
628.885	9552
628.948	9657
629.011	9895
629.074	9475
629.137	9203
629.200	8418
629.263	9165
629.326	9348
629.389	8866
629.452	8611
629.515	9059
629.578	8943
629.641	9526
629.704	8634
629.767	9327
629.830	8755
629.892	8286
629.955	8362
630.018	8199
630.081	7997
630.144	9547
630.207	8851
630.269	9676
630.332	8785
630.395	9581
630.458	8210
630.520	8315
630.583	8528
630.646	7781
630.708	7366
630.771	7833
630.834	8483
630.896	7772
630.959	7106
631.021	7794
631.084	7610
631.146	8287
631.209	8644
631.272	8117
631.334	7756
631.397	7693
631.459	7514
631.522	7280
631.584	7927
631.646	8542
631.709	7009
631.771	8637
631.834	8935
631.896	7215
631.958	6812
632.021	7800
632.083	6400
632.145	7956
632.208	6821
632.270	7675
632.332	6910
632.395	6332
632.457	7623
632.519	7786
632.581	7425
632.643	6846
632.706	6578
632.768	6942
632.830	6898
632.892	6911
632.954	6985
633.016	7947
633.078	6132
633.141	6455
633.203	6008
633.265	6797
633.327	6614
633.389	6670
633.451	6706
633.513	6629
633.575	7184
633.637	7808
633.698	7127
633.760	7292
633.822	6073
633.884	6525
633.946	7288
634.008	7512
634.070	7231
634.132	7434
634.193	8153
634.255	6948
634.317	6544
634.379	7268
634.441	6616
634.502	6667
634.564	5916
634.626	6160
634.687	7016
634.749	6733
634.811	6328
634.873	6154
634.934	6037
634.996	6475
635.057	6105
635.119	6329
635.181	5124
635.242	6825
635.304	5985
635.365	6666
635.427	5253
635.488	7073
635.550	5344
635.611	6102
635.673	5347
635.734	7302
635.796	6399
635.857	7286
635.918	6115
635.980	6847
636.041	6682
636.102	7110
636.164	6739
636.225	7405
636.286	5709
636.348	6946
636.409	5550
636.470	5683
636.531	5680
636.593	6281
636.654	6383
636.715	5533
636.776	5349
636.838	5581
636.899	5331
636.960	6010
637.021	4273
637.082	5511
637.143	4940
637.204	4654
637.265	4648
637.326	5089
637.387	4681
637.448	4732
637.509	4619
637.570	5088
637.631	4806
637.692	4714
637.753	4518
637.814	4159
637.875	5325
637.936	5196
637.997	4091
638.058	4874
638.119	4995
638.179	4991
638.240	3817
638.301	5452
638.362	3533
638.423	4841
638.483	5231
638.544	4268
638.605	4478
638.666	4832
638.726	5598
638.787	4901
638.848	4621
638.908	5064
638.969	4409
639.030	4934
639.090	4273
639.151	4436
639.211	4640
639.272	5315
639.332	6127
639.393	6308
639.453	4076
639.514	4487
639.574	4404
639.635	4618
639.695	4265
639.756	4075
639.816	4366
639.877	4704
639.937	5562
639.997	7040
640.058	4609
640.118	4042
640.178	3550
640.239	3391
640.299	3721
640.359	4392
640.420	4022
640.480	3866
640.540	4279
640.600	4075
640.661	4070
640.721	4165
640.781	5628
640.841	4185
640.901	4619
640.961	4479
641.021	3881
641.082	4374
641.142	4587
641.202	4992
641.262	2876
641.322	5029
641.382	3482
641.442	3279
641.502	3769
641.562	4727
641.622	5048
641.682	3807
641.742	3454
641.802	4258
641.861	3456
641.921	4594
641.981	4011
642.041	4745
642.101	4100
642.161	4752
642.221	3185
642.280	3754
642.340	3931
642.400	4104
642.460	3941
642.519	4156
642.579	3997
642.639	4531
642.698	1985
642.758	4706
642.818	3745
642.877	4006
642.937	4122
642.997	3555
643.056	4086
643.116	4183
643.175	3842
643.235	4401
643.294	3936
643.354	4478
643.414	3149
643.473	4460
643.532	4579
643.592	5503
643.651	8658
643.711	13424
643.770	22528
643.830	44336
643.889	132210
643.948	85653
644.008	10152
644.067	5898
644.126	4461
644.186	3362
644.245	3793
644.304	2713
644.363	5537
644.423	3494
644.482	3694
644.541	3060
644.600	2376
644.659	4713
644.719	2921
644.778	4975
644.837	5738
644.896	10415
644.955	21361
645.014	19692
645.073	6424
645.132	3833
645.191	4095
645.250	3426
645.309	4001
645.368	3091
645.427	3961
645.486	5055
645.545	6596
645.604	4803
645.663	4564
645.722	3070
645.781	3110
645.840	4032
645.898	4237
645.957	5526
646.016	6634
646.075	11816
646.134	19016
646.192	40241
646.251	102625
646.310	38359
646.369	5988
646.427	4429
646.486	3834
646.545	3817
646.603	3567
646.662	4113
646.721	3114
646.779	3119
646.838	2278
646.896	3361
646.955	2904
647.014	4673
647.072	5778
647.131	12433
647.189	15476
647.248	4183
647.306	3639
647.365	3174
647.423	1589
647.481	3662
647.540	2178
647.598	3642
647.657	2544
647.715	2669
647.773	3262
647.832	3898
647.890	2059
647.948	3246
648.007	3270
648.065	2175
648.123	2702
648.181	3232
648.240	3334
648.298	3596
648.356	3086
648.414	3190
648.472	3310
648.531	3138
648.589	2375
648.647	2769
648.705	2395
648.763	2602
648.821	2481
648.879	2498
648.937	2859
648.995	3198
649.053	2783
649.111	3793
649.169	5989
649.227	9237
649.285	12367
649.343	35849
649.401	45705
649.459	11113
649.516	8604
649.574	4909
649.632	7781
649.690	14015
649.748	7839
649.806	5403
649.863	9302
649.921	11094
649.979	12036
650.037	4048
650.094	2501
650.152	2572
650.210	2930
650.268	3464
650.325	2200
650.383	2841
650.440	1448
650.498	2569
650.556	2303
650.613	2009
650.671	2831
650.728	1763
650.786	1798
650.843	2667
650.901	985
650.958	2314
651.016	2213
651.073	2497
651.131	2296
651.188	1384
651.246	1932
651.303	1503
651.360	2900
651.418	2451
651.475	2577
651.532	1770
651.590	2807
651.647	1338
651.704	2015
651.762	1550
651.819	1693
651.876	1836
651.933	1617
651.990	2309
652.048	988
652.105	1123
652.162	1999
652.219	2315
652.276	1527
652.333	1413
652.390	989
652.448	1726
652.505	1664
652.562	1914
652.619	1959
652.676	3382
652.733	4731
652.790	1697
652.847	747
652.904	2892
652.961	468
653.017	910
653.074	1670
653.131	1398
653.188	1120
653.245	1623
653.302	1873
653.359	1071
653.415	2435
653.472	1292
653.529	1805
653.586	1703
653.642	1447
653.699	2222
653.756	888
653.813	1882
653.869	1090
653.926	1313
653.983	1252
654.039	2229
654.096	1670
654.152	1888
654.209	1220
654.266	2062
654.322	955
654.379	1723
654.435	1691
654.492	2304
654.548	1772
654.605	3500
654.661	3049
654.717	1394
654.774	1687
654.830	1524
654.887	1376
654.943	2034
655.000	2502
655.056	2318
655.112	1771
655.168	910
655.225	1503
655.281	1226
655.337	1744
655.394	4061
655.450	3092
655.506	2755
655.562	2784
655.618	5170
655.675	1906
655.731	2092
655.787	1448
655.843	2736
655.899	1452
655.955	3229
656.011	1848
656.067	1221
656.123	2429
656.179	1866
656.235	2710
656.291	2299
656.347	3118
656.403	1983
656.459	2216
656.515	2458
656.571	1905
656.627	3293
656.683	1789
656.739	2436
656.795	1734
656.850	1741
656.906	1886
656.962	1779
657.018	1273
657.074	1555
657.129	1889
657.185	2212
657.241	2485
657.297	2330
657.352	1599
657.408	1107
657.464	2072
657.519	1799
657.575	813
657.630	2214
657.686	1584
657.742	715
657.797	951
657.853	1594
657.908	2372
657.964	1334
658.019	1888
658.075	2251
658.130	1345
658.186	1620
658.241	1399
658.297	994
658.352	1203
658.407	1512
658.463	1191
658.518	1602
658.573	1482
658.629	1621
658.684	1399
658.739	1883
658.795	385
658.850	1547
658.905	632
658.960	2643
659.016	930
659.071	1603
659.126	1064
659.181	1696
659.236	2819
659.291	3792
659.346	1858
659.401	2107
659.457	3063
659.512	1930
659.567	2856
659.622	2082
659.677	1492
659.732	1198
659.787	793
659.842	1719
659.897	1742
659.952	3032
660.007	1499
660.061	1413
660.116	1000
660.171	1839
660.226	1240
660.281	2044
660.336	906
660.391	1631
660.445	2075
660.500	1519
660.555	1357
660.610	957
660.664	1858
660.719	1869
660.774	1992
660.828	2626
660.883	1471
660.938	1601
660.992	1264
661.047	1136
661.101	1073
661.156	958
661.211	997
661.265	1332
661.320	1197
661.374	1781
661.429	1094
661.483	1751
661.538	946
661.592	1220
661.647	420
661.701	2014
661.755	787
661.810	2115
661.864	1722
661.919	1061
661.973	1308
662.027	791
662.081	575
662.136	1948
662.190	1255
662.244	2438
662.299	1237
662.353	1005
662.407	1214
662.461	1604
662.515	1248
662.569	1863
662.624	2663
662.678	2045
662.732	1252
662.786	1211
662.840	432
662.894	2333
662.948	466
663.002	2382
663.056	1377
663.110	837
663.164	1070
663.218	2490
663.272	1367
663.326	1485
663.380	1463
663.434	1680
663.488	432
663.542	1293
663.595	1631
663.649	836
663.703	1376
663.757	1010
663.811	1134
663.864	1356
663.918	1416
663.972	1609
664.026	806
664.079	1052
664.133	1294
664.187	1689
664.240	829
664.294	634
664.348	1715
664.401	1136
664.455	1445
664.508	1096
664.562	974
664.615	1812
664.669	1148
664.722	1939
664.776	658
664.829	843
664.883	1674
664.936	1368
664.990	1701
665.043	2589
665.097	1295
665.150	2326
665.203	1495
665.257	1849
665.310	1808
665.363	1200
665.417	1142
665.470	2069
665.523	1635
665.576	1744
665.630	1302
665.683	1834
665.736	1615
665.789	2180
665.842	1441
665.895	1106
665.949	1263
666.002	1478
666.055	1296
666.108	2169
666.161	1873
666.214	1418
666.267	1620
666.320	1888
666.373	2259
666.426	2197
666.479	965
666.532	2038
666.585	1056
666.638	2602
666.691	1398
666.744	2371
666.796	1312
666.849	1786
666.902	2760
666.955	1379
667.008	1354
667.060	1460
667.113	846
667.166	1796
667.219	1293
667.271	1715
667.324	1394
667.377	1737
667.430	930
667.482	1468
667.535	2230
667.587	1544
667.640	1684
667.693	1308
667.745	1858
667.798	3116
667.850	2163
667.903	1586
667.955	549
668.008	1247
668.060	822
668.113	1994
668.165	1969
668.218	2271
668.270	792
668.322	1935
668.375	1048
668.427	2180
668.479	1017
668.532	2011
668.584	2206
668.636	1771
668.689	2098
668.741	2093
668.793	2025
668.845	1135
668.898	1619
668.950	1211
669.002	1604
669.054	1341
669.106	1056
669.158	2619
669.211	2079
669.263	1490
669.315	2319
669.367	2116
669.419	1741
669.471	2015
669.523	2056
669.575	2835
669.627	2099
669.679	1686
669.731	2035
669.783	2119
669.835	3006
669.886	2318
669.938	1321
669.990	1904
670.042	1467
670.094	1253
670.146	2046
670.197	2075
670.249	2858
670.301	3378
670.353	3367
670.404	5773
670.456	8161
670.508	13870
670.560	21914
670.611	38203
670.663	66725
670.715	125709
670.766	312539
670.818	218589
670.869	33479
670.921	10763
670.972	6681
671.024	4804
671.075	4325
671.127	3081
671.178	2424
671.230	2991
671.281	2301
671.333	1799
671.384	2112
671.436	3021
671.487	2185
671.538	2704
671.590	3348
671.641	3648
671.692	3456
671.744	5933
671.795	8276
671.846	4534
671.897	1959
671.949	2091
672.000	2297
672.051	1873
672.102	1845
672.153	1732
672.204	1089
672.256	1843
672.307	787
672.358	1627
672.409	1775
672.460	1638
672.511	1140
672.562	1031
672.613	1831
672.664	1075
672.715	748
672.766	1984
672.817	1405
672.868	1816
672.919	1477
672.970	1863
673.021	773
673.071	1894
673.122	1686
673.173	1921
673.224	653
673.275	2014
673.326	857
673.376	1709
673.427	884
673.478	1639
673.528	1367
673.579	1302
673.630	1162
673.680	1211
673.731	1766
673.782	716
673.832	1138
673.883	2138
673.934	1043
673.984	1361
674.035	1328
674.085	1631
674.136	1484
674.186	1632
674.237	1384
674.287	2247
674.338	2828
674.388	467
674.438	353
674.489	1539
674.539	943
674.589	1747
674.640	1623
674.690	1153
674.740	838
674.791	1375
674.841	1275
674.891	1587
674.942	728
674.992	1405
675.042	796
675.092	1426
675.142	759
675.193	1489
675.243	1348
675.293	1285
675.343	880
675.393	2060
675.443	1355
675.493	1762
675.543	731
675.593	814
675.643	1347
675.693	1337
675.743	1217
675.793	1189
675.843	564
675.893	1593
675.943	1523
675.993	1268
676.043	678
676.093	1605
676.142	852
676.192	1193
676.242	1027
676.292	352
676.341	249
676.391	1633
676.441	1016
676.491	1203
676.540	619
676.590	1481
676.640	682
676.689	1094
676.739	-44
676.789	381
676.838	434
676.888	1269
676.937	472
676.987	755
677.037	323
677.086	259
677.136	660
677.185	1083
677.235	889
677.284	588
677.333	-385
677.383	1063
677.432	273
677.482	1389
677.531	1275
677.580	821
677.630	491
677.679	1202
677.728	642
677.778	484
677.827	606
677.876	916
677.925	-43
677.975	798
678.024	294
678.073	1132
678.122	949
678.171	788
678.220	174
678.269	1245
678.319	931
678.368	839
678.417	905
678.466	2415
678.515	1108
678.564	1305
678.613	1111
678.662	783
678.711	961
678.760	1372
678.809	918
678.857	-192
678.906	375
678.955	1591
679.004	1002
679.053	857
679.102	627
679.151	610
679.199	1150
679.248	411
679.297	839
679.346	475
679.394	386
679.443	1002
679.492	1317
679.540	599
679.589	228
679.638	1273
679.686	527
679.735	1038
679.784	141
679.832	870
679.881	-136
679.929	206
679.978	346
680.026	96
680.075	963
680.123	591
680.172	45
680.220	1335
680.268	998
680.317	329
680.365	288
680.414	522
680.462	832
680.510	972
680.559	-409
680.607	868
680.655	261
680.703	621
680.752	401
680.800	833
680.848	-147
680.896	810
680.945	419
680.993	194
681.041	153
681.089	1005
681.137	194
681.185	466
681.233	332
681.258	639
681.281	909
681.329	420
681.377	519
681.380	536
681.425	434
681.473	1312
681.502	742
681.521	304
681.569	1532
681.617	644
681.624	766
681.665	1391
681.713	680
681.745	1051
681.761	1191
681.809	115
681.857	1096
681.867	970
681.904	455
681.952	1681
681.989	836
682.000	551
682.048	1009
682.096	610
682.111	843
682.143	1268
682.191	1472
682.233	1346
682.239	1305
682.286	1255
682.334	1411
682.354	1476
682.382	1524
682.430	1597
682.476	1662
682.477	1643
682.525	1314
682.572	1073
682.598	1385
682.620	1635
682.667	1133
682.715	2480
682.720	2437
682.763	1856
682.810	1886
682.841	1900
682.857	1856
682.905	1892
682.952	1714
682.963	1749
683.000	1800
683.047	1799
683.085	2338
683.095	2473
683.142	2044
683.190	2197
683.206	2286
683.237	2340
683.284	2496
683.328	2087
683.332	2044
683.379	2248
683.426	1729
683.449	2195
683.473	2588
683.521	2646
683.568	2403
683.571	2377
683.615	1888
683.662	2852
683.693	2495
683.709	2261
683.757	2423
683.804	2651
683.814	2618
683.851	2494
683.898	2631
683.936	2542
683.945	2482
683.992	2744
684.039	2664
684.057	2625
684.086	2610
684.133	2543
684.179	3082
684.180	3082
684.227	3022
684.274	3281
684.300	3168
684.321	3086
684.368	2247
684.415	2947
684.422	3035
684.462	3431
684.509	2599
684.543	2671
684.556	2709
684.603	3281
684.649	2965
684.665	3133
684.696	3408
684.743	3487
684.786	3911
684.790	3935
684.837	3282
684.883	3759
684.908	3766
684.930	3788
684.977	4723
685.023	4173
685.029	4201
685.070	4215
685.117	3446
685.150	3929
685.164	4128
685.210	3966
685.257	4787
685.272	4765
685.303	4690
685.350	4168
685.393	4166
685.396	4149
685.443	4183
685.490	4621
685.514	4623
685.536	4655
685.583	3779
685.629	4801
685.636	4714
685.675	4102
685.722	4607
685.757	3949
685.768	3738
685.815	5151
685.861	4397
685.878	4765
685.908	5379
685.954	5095
686.000	5225
686.000	5222
686.047	4810
686.093	5366
686.121	5399
686.139	5458
686.185	5570
686.232	5883
686.242	5858
686.278	5472
686.324	5519
686.363	5296
686.370	5264
686.416	5013
686.463	5007
686.484	4891
686.509	4922
686.555	5225
686.601	5718
686.606	5754
686.647	5785
686.693	5244
686.727	5178
686.739	5189
686.785	5277
686.831	5839
686.848	5654
686.877	5242
686.923	5240
686.969	5040
686.969	5039
687.015	5299
687.061	5508
687.090	5648
687.107	5634
687.153	5650
687.199	5535
687.211	5446
687.245	5286
687.291	5430
687.332	5198
687.336	5183
687.382	5683
687.428	5824
687.453	6003
687.474	6122
687.520	6127
687.565	5718
687.574	5730
687.611	5723
687.657	5773
687.695	5663
687.702	5711
687.748	6520
687.794	6473
687.816	6943
687.839	7201
687.885	6803
687.931	7207
687.937	7048
687.976	5993
688.022	6218
688.058	5843
688.067	5810
688.113	5816
688.158	5700
688.179	5997
688.204	6386
688.249	6355
688.295	6423
688.300	6395
688.340	6365
688.386	7295
688.421	7100
688.431	6940
688.477	6752
688.522	6475
688.542	6525
688.567	6800
688.613	6342
688.658	6866
688.663	6856
688.703	6829
688.749	6687
688.784	6942
688.794	6958
688.839	6859
688.884	6602
688.905	6441
688.930	6550
688.975	6623
689.020	7302
689.026	7324
689.065	7124
689.110	6658
689.146	6661
689.155	6732
689.201	6798
689.246	7152
689.267	7322
689.291	7440
689.336	7122
689.381	7160
689.388	7113
689.426	6862
689.471	7183
689.509	7068
689.516	7062
689.561	7403
689.606	6904
689.630	7047
689.651	7211
689.696	7024
689.741	6821
689.750	6850
689.785	7124
689.830	7479
689.871	7280
689.875	7241
689.920	7532
689.965	6844
689.992	6987
690.010	7173
690.054	6800
690.099	7079
690.112	7177
690.144	7537
690.189	7086
690.233	7280
690.233	7291
690.278	7230
690.323	7229
690.354	6785
690.367	6808
690.412	7310
690.457	7636
690.474	7719
690.501	7804
690.546	8173
690.590	8875
690.595	8846
690.635	8669
690.680	8988
690.716	9059
690.724	9150
690.769	9688
690.813	10527
690.836	10817
690.857	11542
690.902	12972
690.946	14073
690.957	14543
690.991	18973
691.035	24485
691.077	30608
691.080	31056
691.124	37281
691.168	42865
691.198	46551
691.213	43741
691.257	35850
691.301	27601
691.318	24613
691.346	22371
691.390	18404
691.434	13798
691.439	13325
691.478	12482
691.522	11536
691.559	10560
691.567	10505
691.611	10495
691.655	9687
691.680	9421
691.699	9310
691.743	9089
691.787	9235
691.800	9042
691.831	8867
691.875	8939
691.919	9009
691.921	8996
691.964	9311
692.008	9537
692.041	9766
692.052	9811
692.096	9329
692.139	9545
692.162	9444
692.183	9254
692.227	9441
692.271	9042
692.282	8957
692.315	9192
692.359	9257
692.402	9799
692.403	9821
692.447	9685
692.490	9896
692.523	9462
692.534	9392
692.578	9833
692.622	9739
692.643	9893
692.666	10030
692.709	9684
692.753	9825
692.763	9796
692.797	9793
692.840	9969
692.884	9823
692.884	9844
692.928	9853
692.971	9613
693.004	9975
693.015	10065
693.059	9538
693.102	9637
693.124	9309
693.146	9309
693.189	10209
693.233	10221
693.245	10316
693.276	10806
693.320	11533
693.363	12174
693.365	12163
693.407	12362
693.450	12713
693.485	13059
693.493	13425
693.537	15043
693.580	16768
693.605	17700
693.624	19222
693.667	22544
693.710	26455
693.725	27657
693.753	35610
693.797	48148
693.840	61699
693.845	63161
693.883	76712
693.926	90195
693.966	103090
693.970	101424
694.013	81891
694.056	62878
694.086	49495
694.099	46642
694.142	36979
694.185	27517
694.206	23037
694.229	21818
694.272	19266
694.315	16676
694.326	15995
694.358	15486
694.401	14597
694.444	13764
694.446	13695
694.487	13559
694.530	13326
694.566	12891
694.573	12770
694.616	12074
694.659	11212
694.686	10813
694.702	10886
694.745	10869
694.787	10670
694.806	10662
694.830	10638
694.873	10298
694.916	10177
694.926	10055
694.959	10188
695.002	10656
695.044	10843
695.046	10836
695.087	10797
695.130	10437
695.166	10341
695.172	10397
695.215	10336
695.258	10603
695.286	10339
695.301	10277
695.343	10516
695.386	10744
695.406	10664
695.428	10445
695.471	10308
695.514	10298
695.526	10114
695.556	9904
695.599	9948
695.641	9992
695.646	9955
695.684	10120
695.726	10385
695.766	10563
695.769	10586
695.811	10423
695.854	10551
695.886	10421
695.896	10483
695.938	10550
695.981	10642
696.005	10850
696.023	10869
696.065	10541
696.108	10414
696.125	10347
696.150	10594
696.192	10720
696.235	10791
696.245	10882
696.277	10997
696.319	10741
696.361	10614
696.365	10586
696.404	11167
696.446	11527
696.485	11862
696.488	11867
696.530	11633
696.572	11316
696.604	11007
696.614	11021
696.656	10994
696.698	11017
696.724	10945
696.740	10845
696.783	10583
696.825	10231
696.844	10114
696.867	10306
696.909	10483
696.951	10584
696.964	10625
696.992	10687
697.034	10682
697.076	10723
697.083	10684
697.118	10673
697.160	10755
697.202	10698
697.203	10666
697.244	10637
697.286	10638
697.323	10603
697.327	10626
697.369	10482
697.411	10362
697.442	10296
697.453	10369
697.494	10482
697.536	10625
697.562	10705
697.578	10781
697.620	10834
697.661	10872
697.682	10891
697.703	10849
697.744	10641
697.786	10542
697.801	10423
697.828	10798
697.869	11469
697.911	12087
697.921	12197
697.952	11790
697.994	11218
698.035	10682
698.040	10585
698.077	10929
698.118	11262
698.160	11582
698.160	11549
698.201	11383
698.243	11170
698.279	10927
698.284	10961
698.325	10993
698.367	11070
698.399	11048
698.408	11090
698.449	11158
698.491	11212
698.518	11242
698.532	11232
698.573	11094
698.614	10937
698.638	10814
698.656	10792
698.697	10678
698.738	10571
698.757	10485
698.779	10635
698.820	10860
698.862	11088
698.877	11145
698.903	11200
698.944	11229
698.985	11254
698.996	11232
699.026	11436
699.067	11675
699.116	11928
699.235	11804
699.354	10854
699.474	10866
699.593	11548
699.713	11980
699.832	10660
699.951	11606
700.070	11564
700.190	10943
700.309	10646
700.428	10564
700.547	10917
700.667	10509
700.786	10820
700.905	10357
701.024	10888
701.143	10491
701.262	9549
701.381	10214
701.500	10244
701.619	10331
701.738	9884
701.857	9739
701.976	10667
702.095	9942
702.214	9798
702.333	11142
702.452	9566
702.571	8622
702.690	10438
702.809	9359
702.928	9004
703.047	10170
703.165	9924
703.284	8905
703.403	9404
703.522	8594
703.640	9911
703.759	10047
703.878	12178
703.997	10776
704.115	9519
704.234	9266
704.353	9130
704.471	8791
704.590	8744
704.708	8274
704.827	8863
704.946	8385
705.064	10234
705.183	9008
705.301	9144
705.420	12159
705.538	14230
705.656	11800
705.775	12287
705.893	15063
706.012	29152
706.130	15414
706.249	12100
706.367	11929
706.485	12314
706.604	12399
706.722	12220
706.840	11966
706.958	14624
707.077	13894
707.195	11162
707.313	11408
707.431	10960
707.549	10553
707.668	11140
707.786	10575
707.904	11255
708.022	9919
708.140	10842
708.258	10218
708.376	10840
708.494	10379
708.612	10526
708.730	13017
708.848	15841
708.966	14017
709.084	12556
709.202	12007
709.320	12667
709.438	11672
709.556	12659
709.674	13176
709.791	12486
709.909	12094
710.027	12314
710.145	11989
710.263	12282
710.380	11819
710.498	12964
710.616	11905
710.733	11447
710.851	12065
710.969	12021
711.086	11559
711.204	11904
711.322	10837
711.439	12158
711.557	11003
711.674	11691
711.792	10104
711.909	11492
712.027	12622
712.144	11652
712.262	10535
712.379	12048
712.497	13905
712.614	17702
712.732	14901
712.849	13512
712.966	13641
713.084	13947
713.201	15243
713.318	13566
713.436	13891
713.553	13242
713.670	13554
713.787	13747
713.905	14556
714.022	13261
714.139	12259
714.256	14048
714.373	13686
714.490	16659
714.608	22615
714.725	60520
714.842	175911
714.959	38552
715.076	14039
715.193	13069
715.310	12355
715.427	11807
715.544	11685
715.661	11984
715.778	11883
715.895	12701
716.011	12504
716.128	12495
716.245	11148
716.362	12362
716.479	12242
716.596	12187
716.713	10970
716.829	11430
716.946	11221
717.063	10098
717.180	11053
717.296	10032
717.413	10770
717.530	10653
717.646	10601
717.763	10028
717.880	9567
717.996	9692
718.113	9984
718.229	10697
718.346	10010
718.462	9946
718.579	9272
718.695	11406
718.812	11859
718.928	11482
719.045	11683
719.161	9773
719.277	9592
719.394	9292
719.510	9412
719.626	9496
719.743	10179
719.859	11869
719.975	11586
720.092	20604
720.208	61705
720.324	37960
720.440	10552
720.557	9845
720.673	10384
720.789	14452
720.905	22022
721.021	23826
721.137	9477
721.253	9190
721.369	8327
721.486	9554
721.602	10729
721.718	10770
721.834	8092
721.950	9211
722.066	8101
722.181	8942
722.297	8245
722.413	8221
722.529	7950
722.645	8861
722.761	8192
722.877	8128
722.993	7906
723.108	8104
723.224	8172
723.340	8422
723.456	8583
723.571	8510
723.687	7313
723.803	7610
723.918	8031
724.034	7417
724.150	8007
724.265	7347
724.381	8922
724.497	17154
724.612	8903
724.728	7338
724.843	6816
724.959	8104
725.074	8096
725.190	16436
725.305	8801
725.421	7426
725.536	6165
725.651	6874
725.767	7566
725.882	7404
725.997	6429
726.113	7660
726.228	6391
726.343	6845
726.459	5749
726.574	6708
726.689	6705
726.804	6528
726.920	6579
727.035	6789
727.150	6188
727.265	6934
727.380	7278
727.495	6717
727.610	6120
727.725	6508
727.841	6207
727.956	8420
728.071	14349
728.186	7497
728.301	6188
728.416	6403
728.531	5959
728.645	5862
728.760	5839
728.875	6792
728.990	6197
729.105	6701
729.220	5398
729.335	6267
729.449	4493
729.564	5286
729.679	5966
729.794	6359
729.908	4991
730.023	5939
730.138	5944
730.253	5418
730.367	5526
730.482	5304
730.596	5275
730.711	5248
730.826	5124
730.940	5932
731.055	5586
731.169	5760
731.284	4960
731.398	4783
731.513	5895
731.627	6776
731.742	5928
731.856	6336
731.970	5556
732.085	5590
732.199	6615
732.313	7150
732.428	9467
732.542	21799
732.656	31619
732.771	10127
732.885	6677
732.999	5778
733.113	5925
733.227	6114
733.342	5536
733.456	5471
733.570	5646
733.684	5134
733.798	5204
733.912	5783
734.026	5067
734.140	5440
734.254	4663
734.368	5507
734.482	10522
734.596	5296
734.710	4213
734.824	5202
734.938	5235
735.052	4904
735.166	5135
735.280	5574
735.393	5248
735.507	5261
735.621	5712
735.735	7817
735.849	8474
735.962	5004
736.076	5238
736.190	5858
736.303	5409
736.417	7147
736.531	4675
736.644	4494
736.758	4400
736.872	4778
736.985	4416
737.099	4727
737.212	3538
737.326	4808
737.439	4387
737.553	5005
737.666	3593
737.780	4999
737.893	3684
738.007	4166
738.120	4026
738.233	4277
738.347	4749
738.460	4796
738.573	4277
738.687	4630
738.800	4075
738.913	4863
739.026	5011
739.140	4365
739.253	4613
739.366	4523
739.479	3500
739.592	4071
739.705	4426
739.818	4316
739.932	4016
740.045	4363
740.158	3685
740.271	4552
740.384	4757
740.497	3887
740.610	5023
740.723	4531
740.836	4359
740.949	5236
741.062	4494
741.174	4457
741.287	4949
741.400	3848
741.513	4017
741.626	4670
741.739	4148
741.851	4204
741.964	4979
742.077	3752
742.189	4107
742.302	4698
742.415	5593
742.527	4883
742.640	4725
742.753	4172
742.865	3484
742.978	3752
743.090	3991
743.203	4476
743.316	3576
743.428	4399
743.541	3923
743.653	3920
743.766	3563
743.878	4352
743.990	4182
744.103	4493
744.215	6284
744.327	5211
744.440	4193
744.552	4690
744.664	4145
744.777	3327
744.889	3257
745.001	4018
745.113	2897
745.226	2069
745.338	3757
745.450	3753
745.562	3499
745.674	3644
745.786	2770
745.898	4254
746.010	3567
746.122	3262
746.234	3528
746.347	3837
746.459	4106
746.570	3932
746.682	3140
746.794	5953
746.906	6600
747.018	4576
747.130	4196
747.242	4250
747.354	3229
747.466	3573
747.577	2928
747.689	3402
747.801	2993
747.913	3572
748.024	3446
748.136	3439
748.248	3861
748.359	3365
748.471	3975
748.583	4096
748.694	3964
748.806	4344
748.918	4284
749.029	4292
749.141	3631
749.252	3869
749.364	3578
749.475	4174
749.587	4915
749.698	3422
749.809	3543
749.921	2849
750.032	3182
750.144	3671
750.255	3498
750.366	2894
750.478	3694
750.589	3620
750.700	2641
750.811	3917
750.923	3994
751.034	4255
751.145	5731
751.256	4253
751.367	2826
751.479	4016
751.590	2663
751.701	4269
751.812	3608
751.923	3919
752.034	3168
752.145	3394
752.256	3655
752.367	3572
752.478	2810
752.589	3824
752.700	3329
752.811	3008
752.922	2969
753.032	3094
753.143	3597
753.254	3709
753.365	3552
753.476	3636
753.586	3622
753.697	3303
753.808	3041
753.919	2547
754.029	3498
754.140	3465
754.251	2756
754.361	3450
754.472	3259
754.582	2836
754.693	3368
754.804	3614
754.914	2660
755.025	3475
755.135	3447
755.246	3540
755.356	3077
755.466	3973
755.577	3823
755.687	3456
755.798	3214
755.908	3215
756.018	3247
756.129	3029
756.239	4047
756.349	3755
756.460	4005
756.570	3736
756.680	3321
756.790	3322
756.900	3768
757.011	3574
757.121	2968
757.231	2837
757.341	4152
757.451	2773
757.561	3591
757.671	3854
757.781	3384
757.891	4502
758.001	3403
758.111	4559
758.221	3299
758.331	3772
758.441	3955
758.551	4317
758.661	4676
758.771	4246
758.880	3722
758.990	4035
759.100	4064
759.210	4853
759.320	4582
759.429	4609
759.539	4210
759.649	4009
759.758	4440
759.868	5555
759.978	4812
760.087	5470
760.197	5221
760.307	5075
760.416	5373
760.526	4787
760.635	4541
760.745	5673
760.854	5610
760.964	5648
761.073	5964
761.182	5969
761.292	5883
761.401	6653
761.511	6106
761.620	5619
761.729	6195
761.839	6165
761.948	6709
762.057	7305
762.166	7363
762.276	6915
762.385	7567
762.494	7192
762.603	7610
762.712	7421
762.822	8461
762.931	8348
763.040	8426
763.149	8144
763.258	9245
763.367	9879
763.476	9953
763.585	10071
763.694	10113
763.803	11301
763.912	12239
764.021	12614
764.130	13414
764.238	14277
764.347	15074
764.456	15484
764.565	17038
764.674	18782
764.783	19686
764.891	22583
765.000	24679
765.109	26852
765.217	30943
765.326	34990
765.435	42775
765.543	52597
765.652	63713
765.761	82107
765.869	107655
765.978	151086
766.086	225374
766.195	355134
766.303	578870
766.412	803255
766.520	668081
766.629	713272
766.737	520510
766.846	318532
766.954	206945
767.062	145076
767.171	108332
767.279	83863
767.387	65845
767.496	52620
767.604	44658
767.712	38513
767.820	33933
767.928	31868
768.037	28413
768.145	26762
768.253	25332
768.361	23733
768.469	23343
768.577	24447
768.685	24736
768.793	25383
768.901	27767
769.009	30984
769.117	36295
769.225	47647
769.333	61367
769.441	90018
769.549	144858
769.657	256936
769.765	492889
769.873	708004
769.981	614527
770.088	445784
770.196	232607
770.304	136216
770.412	92940
770.519	67501
770.627	51130
770.735	41742
770.842	34945
770.950	29427
771.058	25043
771.165	22894
771.273	19962
771.380	18776
771.488	16224
771.595	15532
771.703	14739
771.810	13813
771.918	12103
772.025	11383
772.133	11375
772.240	10996
772.348	10659
772.455	10041
772.562	8631
772.670	8461
772.777	8290
772.884	8766
772.991	7392
773.099	8288
773.206	7278
773.313	7443
773.420	6717
773.528	6871
773.635	6077
773.742	7269
773.849	5834
773.956	7002
774.063	5841
774.170	5655
774.277	6195
774.384	5974
774.491	5200
774.598	5005
774.705	5214
774.812	5284
774.919	5805
775.026	5198
775.133	5273
775.239	5537
775.346	4451
775.453	5132
775.560	4556
775.667	4809
775.773	4727
775.880	4247
775.987	4690
776.093	4858
776.200	5069
776.307	4317
776.413	3970
776.520	4149
776.627	4165
776.733	3843
776.840	4171
776.946	4528
777.053	4800
777.159	7652
777.266	8502
777.372	7552
777.478	9213
777.585	7012
777.691	4429
777.798	3511
777.904	3721
778.010	4606
778.117	4723
778.223	4099
778.329	3521
778.435	3427
778.542	3452
778.648	4037
778.754	2708
778.860	3184
778.966	2734
779.072	3829
779.178	3020
779.284	3053
779.391	4161
779.497	3019
779.603	4562
779.708	5798
779.815	10209
779.920	27170
780.026	99169
780.132	59774
780.238	6961
780.344	4269
780.450	3708
780.556	4288
780.661	3183
780.767	3890
780.873	2427
780.979	2362
781.085	2481
781.190	2744
781.296	1779
781.402	2731
781.507	2500
781.613	3245
781.719	2014
781.824	2685
781.930	2309
782.035	2497
782.141	2586
782.246	2994
782.352	2007
782.457	2467
782.563	2395
782.668	1672
782.773	2922
782.879	2111
782.984	2716
783.090	2724
783.195	2649
783.300	2539
783.405	2485
783.511	2473
783.616	2463
783.721	2694
783.826	2690
783.932	2234
784.037	2555
784.142	2427
784.247	1878
784.352	2469
784.457	2305
784.562	2419
784.667	1796
784.772	2197
784.877	1495
784.982	2361
785.087	1543
785.192	2094
785.297	2306
785.402	2244
785.507	2102
785.611	2071
785.716	771
785.821	2000
785.926	1296
786.031	2375
786.135	2057
786.240	2483
786.345	2079
786.450	2495
786.554	1624
786.659	1422
786.763	1252
786.868	2589
786.973	2061
787.077	1842
787.182	2054
787.286	2563
787.391	2158
787.495	1649
787.600	1961
787.704	1599
787.809	1740
787.913	2127
788.017	1389
788.122	2710
788.226	1405
788.330	1566
788.435	1377
788.539	1519
788.643	2180
788.747	1324
788.852	1993
788.956	1561
789.060	2219
789.164	2387
789.268	1399
789.372	2390
789.476	1797
789.580	1936
789.684	1866
789.788	1489
789.892	1598
789.996	1105
790.100	2331
790.204	1422
790.308	1176
790.412	1380
790.516	2018
790.620	1927
790.724	1637
790.828	1722
790.931	1602
791.035	1495
791.139	1694
791.242	1991
791.346	1797
791.450	1612
791.554	1916
791.657	1421
791.761	2090
791.864	2435
791.968	1884
792.072	1570
792.175	942
792.279	1427
792.382	920
792.486	1306
792.589	945
792.693	2065
792.796	1780
792.899	1637
793.003	1509
793.106	916
793.209	1717
793.313	2194
793.416	790
793.519	1807
793.623	1614
793.726	2918
793.829	1209
793.932	1864
794.035	1102
794.138	2139
794.242	1129
794.345	1896
794.448	2615
794.551	5439
794.654	14656
794.757	50644
794.860	36330
794.963	4085
795.066	1898
795.169	2446
795.272	1568
795.375	1950
795.477	1214
795.580	1785
795.683	1008
795.786	1644
795.889	1334
795.991	2166
796.094	1354
796.197	1710
796.300	1114
796.402	1274
796.505	335
796.608	1164
796.710	844
796.813	1722
796.915	1158
797.018	1849
797.120	715
797.223	875
797.326	1838
797.428	1272
797.530	1419
797.633	1382
797.735	1572
797.838	1489
797.940	2636
798.042	1088
798.145	939
798.247	1402
798.349	956
798.452	1178
798.554	1134
798.656	142
798.758	1767
798.860	1412
798.962	678
799.065	1009
799.167	574
799.269	1269
799.371	953
799.473	1535
799.575	353
799.677	1823
799.779	2090
799.881	1244
799.983	1840
800.085	2184
800.187	1208
800.289	746
800.390	964
800.492	1324
800.594	1518
800.696	961
800.798	1496
800.899	414
801.001	621
801.103	878
801.205	654
801.306	1000
801.408	882
801.509	1065
801.611	920
801.713	1035
801.814	1170
801.916	1296
802.017	699
802.119	503
802.220	1305
802.322	-204
802.423	1108
802.525	1434
802.626	558
802.727	1112
802.829	916
802.930	-325
803.031	2068
803.133	728
803.234	72
803.335	940
803.436	946
803.538	1023
803.639	284
803.740	1267
803.841	582
803.942	1225
804.043	803
804.144	238
804.245	374
804.346	753
804.447	365
804.548	863
804.649	1409
804.750	795
804.851	500
804.952	818
805.053	502
805.154	3
805.255	868
805.355	972
805.456	207
805.557	718
805.658	502
805.758	491
805.859	26
805.960	393
806.061	429
806.161	997
806.262	628
806.362	484
806.463	353
806.564	1690
806.664	1279
806.765	299
806.865	1352
806.966	1106
807.066	479
807.166	1427
807.267	491
807.367	553
807.468	1090
807.568	-306
807.668	450
807.769	692
807.869	754
807.969	1308
808.069	368
808.170	427
808.270	520
808.370	635
808.470	327
808.570	1009
808.670	324
808.770	602
808.870	-39
808.970	962
809.070	62
809.170	693
809.271	114
809.370	123
809.470	549
809.570	-550
809.670	615
809.770	1487
809.870	903
809.970	830
810.070	200
810.169	1092
810.269	-88
810.369	2005
810.469	188
810.568	461
810.668	546
810.768	505
810.867	511
810.967	1157
811.066	922
811.166	306
811.265	774
811.365	402
811.464	364
811.564	903
811.663	382
811.763	1090
811.862	774
811.962	1090
812.061	149
812.160	341
812.260	-245
812.359	1149
812.458	636
812.557	2205
812.657	2298
812.756	3069
812.855	253
812.954	1159
813.053	998
813.153	235
813.252	899
813.351	1093
813.450	635
813.549	848
813.648	1062
813.747	1201
813.846	914
813.945	1404
814.044	1273
814.143	786
814.242	415
814.341	1429
814.439	529
814.538	1144
814.637	977
814.736	1470
814.835	1243
814.933	1683
815.032	1980
815.131	1717
815.229	1169
815.328	2238
815.427	1160
815.525	2691
815.624	1814
815.722	2363
815.821	1821
815.919	2448
816.018	1742
816.116	3132
816.215	2556
816.313	2840
816.412	2475
816.510	2830
816.609	2705
816.707	3517
816.805	4038
816.904	4689
817.002	5095
817.100	4910
817.198	6066
817.296	6618
817.395	7766
817.493	9924
817.591	10873
817.689	13674
817.787	18248
817.885	28033
817.983	44132
818.081	75890
818.179	152567
818.277	316673
818.375	482422
818.473	314254
818.571	136503
818.669	72714
818.767	52017
818.865	46492
818.963	47666
819.061	60084
819.158	84220
819.256	139796
819.354	255473
819.452	470389
819.549	542680
819.647	357320
819.745	182257
819.842	100852
819.940	62942
820.038	44070
820.135	32436
820.233	26172
820.330	20440
820.428	16755
820.525	14004
820.623	11571
820.720	9046
820.818	9064
820.915	8129
821.012	8427
821.110	6006
821.207	6285
821.304	5642
821.402	5038
821.499	4467
821.596	5813
821.693	6180
821.791	4751
821.888	3348
821.985	3676
822.082	4200
822.179	4091
822.276	3384
822.373	3322
822.470	3448
822.567	2259
822.664	2256
822.761	2167
822.858	1313
822.955	1946
823.052	1234
823.149	1679
823.246	1432
823.343	1556
823.440	1813
823.536	1260
823.633	1338
823.730	1233
823.827	1608
823.923	1618
824.020	2483
824.117	1580
824.213	835
824.310	2715
824.407	1360
824.503	1512
824.600	1055
824.696	585
824.793	944
824.889	671
824.986	858
825.082	1622
825.179	957
825.275	40
825.371	786
825.468	612
825.564	418
825.660	598
825.757	1148
825.853	986
825.949	316
826.045	1262
826.142	988
826.238	1128
826.334	845
826.430	418
826.526	110
826.622	431
826.718	284
826.814	1211
826.910	412
827.006	-24
827.102	245
827.198	1582
827.294	262
827.390	970
827.486	514
827.582	83
827.678	-90
827.774	820
827.869	-180
827.965	1158
828.061	98
828.157	240
828.252	552
828.348	322
828.444	779
828.539	472
828.635	432
828.731	1348
828.826	390
828.922	293
829.017	179
829.113	1256
829.208	-138
829.304	458
829.399	752
829.495	117
829.590	-222
829.685	-119
829.781	64
829.876	220
829.971	619
830.066	198
830.162	-598
830.257	-622
830.352	208
830.447	950
830.543	-287
830.638	-72
830.733	1018
830.828	791
830.923	434
831.018	-701
831.113	273
831.208	690
831.303	83
831.398	-7
831.493	642
831.588	87
831.683	-596
831.778	425
831.873	45
831.967	806
832.062	130
832.157	-30
832.252	750
832.346	-339
832.441	312
832.536	516
832.631	755
832.725	1464
832.820	790
832.914	-76
833.009	-82
833.104	155
833.198	1000
833.293	648
833.387	-192
833.482	122
833.576	-146
833.670	66
833.765	79
833.859	509
833.954	270
834.048	420
834.142	-49
834.237	445
834.331	-672
834.425	-213
834.519	-566
834.613	-282
834.708	-268
834.802	306
834.896	-630
834.990	273
835.084	-590
835.178	-437
835.272	102
835.366	-92
835.460	-383
835.554	-112
835.648	-576
835.742	-158
835.836	67
835.930	-129
836.024	-352
836.117	87
836.211	-1142
836.305	541
836.399	944
836.493	714
836.586	-49
836.680	484
836.774	-489
836.867	-82
836.961	-698
837.055	179
837.148	-34
837.242	275
837.335	-433
837.429	-24
837.522	-18
837.616	-272
837.709	482
837.803	1965
837.896	-869
837.989	433
838.083	-58
838.176	704
838.269	1489
838.363	1069
838.456	-293
838.549	-614
838.642	726
838.735	1192
838.829	1173
838.922	-255
839.015	-644
839.108	-372
839.201	444
839.294	273
839.387	116
839.480	-226
839.573	405
839.666	503
839.759	-118
839.852	-373
839.945	-41
840.038	-557
840.131	-115
840.223	521
840.316	218
840.409	481
840.502	233
840.594	341
840.687	-445
840.780	323
840.873	279
840.965	305
841.058	-322
841.150	369
841.243	661
841.336	233
841.428	-336
841.521	-554
841.613	-624
841.706	839
841.798	-186
841.890	304
841.983	-348
842.075	205
842.167	-118
842.260	-370
842.352	325
842.444	-130
842.537	-22
842.629	2359
842.721	1084
842.813	-438
842.905	-1138
842.997	484
843.090	-479
843.182	572
843.274	274
843.366	2407
843.458	5535
843.550	8083
843.642	2199
843.734	-103
843.826	302
843.918	388
844.009	-59
844.101	163
844.193	40
844.285	16
844.377	720
844.469	652
844.560	1170
844.652	1330
844.744	674
844.835	-642
844.927	-181
845.019	-190
845.110	325
845.202	-182
845.293	8
845.385	-108
845.476	-219
845.568	-65
845.659	-724
845.751	402
845.842	-623
845.934	-1005
846.025	-230
846.116	349
846.208	-746
846.299	-151
846.390	-493
846.482	-292
846.573	-550
846.664	-112
846.755	12
846.846	1116
846.937	11
847.029	80
847.120	7
847.211	-895
847.302	-124
847.393	-323
847.484	129
847.575	-639
847.666	-206
847.757	-177
847.847	-780
847.938	395
848.029	-626
848.120	10
848.211	-527
848.302	103
848.392	-160
848.483	-878
848.574	-33
848.664	-113
848.755	-456
848.846	-546
848.936	-1453
849.027	220
849.118	-789
849.208	-108
849.299	-186
849.389	138
849.480	-412
849.570	695
849.661	1525
849.751	3040
849.841	3675
849.932	477
850.022	-181
850.112	726
850.203	-40
850.293	443
850.383	-362
850.474	-163
850.564	-16
850.654	223
850.744	-1150
850.834	-13
850.924	-190
851.014	1022
851.104	-521
851.194	-859
851.284	-10
851.374	413
851.464	-106
851.554	169
851.644	-399
851.734	772
851.824	888
851.914	92
852.004	941
852.094	789
852.183	229
852.273	-126
852.363	-488
852.452	-161
852.542	-577
852.632	-595
852.721	345
852.811	-681
852.901	185
852.990	-162
853.080	-924
853.169	129
853.259	-588
853.348	-836
853.438	-353
853.527	209
853.617	-502
853.706	-218
853.795	249
853.885	2345
853.974	6175
854.063	11993
854.152	24479
854.242	24775
854.331	4131
854.420	608
854.509	479
854.598	305
854.687	-340
854.777	242
854.866	-226
854.955	211
855.044	-439
855.133	310
855.222	-674
855.311	-514
855.400	-752
855.488	-191
855.577	-898
855.666	315
855.755	-214
855.844	523
855.933	-329
856.021	14
856.110	-120
856.199	-1198
856.288	-872
856.376	-295
856.465	-720
856.554	160
856.642	-222
856.731	-129
856.819	-357
856.908	-1019
856.996	-1035
857.085	-204
857.173	-955
857.262	-509
857.350	-410
857.438	-425
857.527	-710
857.615	-541
857.703	-543
857.792	-353
857.880	-398
857.968	-1292
858.056	-315
858.145	-373
858.233	-580
858.321	-331
858.409	-906
858.497	-812
858.585	-807
858.673	-225
858.761	-907
858.849	-1027
858.937	-122
859.025	-57
859.113	-650
859.201	-108
859.289	1032
859.377	-668
859.465	-673
859.552	-255
859.640	-254
859.728	-263
859.816	175
859.903	-17
859.991	-800
860.079	-783
860.166	-950
860.254	-688
860.342	111
860.429	-216
860.517	-1420
860.604	9
860.692	-195
860.779	-842
860.867	-277
860.954	-682
861.042	-445
861.129	-192
861.216	-543
861.304	-720
861.391	-1199
861.478	-933
861.565	-260
861.653	484
861.740	-730
861.827	-395
861.914	-707
862.001	-206
862.089	-701
862.176	-326
862.263	-526
862.350	-336
862.437	-808
862.524	-366
862.611	-1377
862.698	-100
862.785	-908
862.871	385
862.958	143
863.045	-701
863.132	-439
863.219	-289
863.306	-1343
863.392	84
863.479	-1054
863.566	-859
863.652	-635
863.739	-1167
863.826	-235
863.912	-1074
863.999	-1068
864.086	103
864.172	-1110
864.259	-1279
864.345	-238
864.432	492
864.518	-585
864.604	-194
864.691	-590
864.777	-442
864.863	-733
864.950	-451
865.036	-1032
865.122	-24
865.209	-122
865.295	-275
865.381	-47
865.467	-74
865.553	-259
865.639	-313
865.726	-182
865.812	943
865.898	2563
865.984	5282
866.070	6584
866.156	15829
866.242	8437
866.328	1358
866.414	90
866.499	-162
866.585	-888
866.671	239
866.757	-773
866.843	225
866.928	-958
867.014	-731
867.100	29
867.186	-531
867.271	-601
867.357	-336
867.442	-34
867.528	-314
867.614	-522
867.699	-852
867.785	-10
867.870	640
867.956	1041
868.041	1290
868.127	687
868.212	434
868.297	-15
868.383	147
868.468	-8
868.553	571
868.639	841
868.724	1167
868.809	1217
868.894	992
868.979	-84
869.065	21
869.150	-754
869.235	-431
869.320	-881
869.405	-751
869.490	-1006
869.575	-498
869.660	-1154
869.745	-306
869.830	-773
869.915	-1870
870.000	-297
870.085	267
870.169	-809
870.254	136
870.339	-528
870.424	-788
870.509	-272
870.593	-403
870.678	-868
870.763	-967
870.847	43
870.932	-964
871.016	-338
871.101	303
871.186	-464
871.270	-307
871.355	-469
871.439	-669
871.523	-1185
871.608	-754
871.692	-353
871.777	208
871.861	-97
871.945	-796
872.030	-539
872.114	-161
872.198	-669
872.282	-581
872.367	-870
872.451	-797
872.535	-940
872.619	-889
872.703	-644
872.787	-700
872.871	-495
872.955	-938
873.039	-1184
873.123	-1247
873.207	-662
873.291	-623
873.375	-122
873.459	-535
873.543	-542
873.627	-271
873.711	-1063
873.794	-147
873.878	-471
873.962	-1088
874.045	-1173
874.129	-1056
874.137	-1009
874.213	-537
874.245	-531
874.296	-523
874.352	-825
874.380	-974
874.460	-754
874.464	-745
874.547	-521
874.568	-656
874.631	-1071
874.676	-962
874.714	-869
874.784	-928
874.798	-939
874.881	330
874.892	207
874.965	-649
874.999	-784
875.048	-978
875.107	-482
875.131	-281
875.215	-895
875.215	-896
875.298	-1484
875.323	-1316
875.381	-990
875.430	-1010
875.465	-984
875.538	-963
875.548	-961
875.631	-1071
875.646	-1141
875.714	-1486
875.753	-894
875.798	-228
875.861	-229
875.881	-214
875.964	-272
875.968	-284
876.047	-609
876.076	-719
876.130	-836
876.183	-1052
876.213	-1241
876.291	-400
876.296	-331
876.379	-1431
876.398	-1213
876.462	-605
876.506	-712
876.545	-663
876.613	-566
876.628	-620
876.711	-625
876.721	-619
876.794	-345
876.828	-661
876.877	-1181
876.935	-797
876.960	-587
877.043	-619
877.043	-619
877.125	-749
877.150	-497
877.208	-57
877.258	126
877.291	361
877.365	-368
877.374	-465
877.456	-582
877.472	-594
877.539	-702
877.579	-535
877.622	-334
877.687	-856
877.704	-979
877.787	-388
877.794	-381
877.869	-279
877.901	-201
877.952	-224
878.008	-36
878.034	122
878.115	-800
878.117	-820
878.199	-752
878.222	-799
878.282	-706
878.329	-294
878.364	-139
878.437	-170
878.447	-161
878.529	-727
878.544	-659
878.611	-372
878.651	-445
878.694	-390
878.758	-153
878.776	-156
878.858	-435
878.865	-425
878.941	-144
878.972	-253
879.023	-385
879.078	-380
879.105	-370
879.185	-137
879.187	-135
879.269	-489
879.292	-577
879.351	-743
879.399	-587
879.433	-496
879.506	-7
879.516	82
879.598	-64
879.613	-99
879.680	-225
879.720	-15
879.762	-27
879.827	-739
879.844	-834
879.926	21
879.933	-16
880.007	-384
880.040	-385
880.089	-469
880.147	-98
880.171	126
880.253	104
880.254	103
880.335	10
880.360	-4
880.417	289
880.467	322
880.499	317
880.574	1562
880.580	1653
880.662	768
880.680	710
880.744	145
880.787	-394
880.825	-654
880.893	-691
880.907	-695
880.989	-507
881.000	-556
881.070	-459
881.106	-338
881.152	-497
881.213	-229
881.233	-86
881.315	-574
881.319	-540
881.396	33
881.426	-164
881.478	-457
881.532	-416
881.559	-471
881.639	-465
881.641	-456
881.722	-46
881.745	-161
881.803	-590
881.852	-685
881.885	-662
881.958	-387
881.966	-359
882.047	-287
882.064	-208
882.129	114
882.171	-9
882.210	-99
882.277	-30
882.291	-21
882.372	122
882.383	129
882.454	64
882.489	-43
882.535	-137
882.596	-337
882.616	-366
882.697	-21
882.702	-26
882.778	23
882.808	115
882.859	17
882.914	-196
882.940	-140
883.020	117
883.021	121
883.102	-63
883.127	-10
883.183	210
883.233	2
883.264	-244
883.339	-301
883.345	-250
883.426	54
883.445	124
883.507	-129
883.551	-281
883.587	-150
883.657	171
883.668	155
883.749	-85
883.763	-107
883.830	145
883.869	209
883.910	7
883.975	-160
883.991	-89
884.072	8
884.081	40
884.152	56
884.187	-123
884.233	-210
884.292	-117
884.314	-215
884.394	-527
884.398	-547
884.475	-202
884.504	-34
884.555	-192
884.610	-461
884.636	-297
884.716	120
884.716	123
884.797	-46
884.821	-138
884.877	-116
884.927	-80
884.958	-127
885.033	-327
885.038	-309
885.118	170
885.139	202
885.199	60
885.244	142
885.279	359
885.350	619
885.359	561
885.439	102
885.456	-76
885.520	-388
885.561	-442
885.600	-285
885.667	159
885.680	199
885.760	155
885.773	176
885.840	-3
885.878	-246
885.920	-220
885.984	-12
886.000	-45
886.080	-263
886.089	-303
886.160	-35
886.195	174
886.240	194
886.300	51
886.320	57
886.400	166
886.406	170
886.480	118
886.511	62
886.560	155
886.616	161
886.640	38
886.720	-68
886.722	-81
886.800	-224
886.827	-237
886.879	-86
886.932	30
886.959	83
887.038	322
887.039	325
887.119	175
887.143	134
887.198	400
887.248	647
887.278	451
887.354	59
887.358	90
887.437	516
887.459	631
887.517	620
887.564	626
887.596	807
887.669	1075
887.676	1015
887.755	340
887.774	153
887.835	489
887.880	727
887.914	435
887.985	-111
887.994	-76
888.073	85
888.090	141
888.153	89
888.195	27
888.232	202
888.300	456
888.311	428
888.391	253
888.405	218
888.470	191
888.510	148
888.549	227
888.615	416
888.628	489
888.708	841
888.720	893
888.787	822
888.825	776
888.866	447
888.930	-102
888.945	-48
889.024	294
889.035	328
889.103	195
889.140	126
889.182	-79
889.245	-365
889.261	-315
889.340	-76
889.349	-51
889.419	-230
889.454	-319
889.498	40
889.559	534
889.577	552
889.656	625
889.664	631
889.735	480
889.768	406
889.814	36
889.873	-454
889.978	654
890.083	797
890.187	947
890.292	1315
890.397	950
890.501	776
890.606	593
890.710	597
890.815	19
890.919	602
891.024	598
891.128	377
891.233	835
891.337	-290
891.442	127
891.546	417
891.650	1197
891.755	343
891.859	1790
891.963	309
892.068	622
892.172	1185
892.276	855
892.380	535
892.484	466
892.589	583
892.693	726
892.797	625
892.901	-33
893.005	-361
893.109	290
893.213	283
893.317	754
893.421	-412
893.525	604
893.629	-148
893.733	-77
893.837	136
893.941	782
894.045	526
894.148	206
894.252	312
894.356	960
894.460	649
894.564	921
894.667	-29
894.771	508
894.875	998
894.978	528
895.082	673
895.186	113
895.289	553
895.393	138
895.496	562
895.600	316
895.703	486
895.807	920
895.910	352
896.014	192
896.117	58
896.221	227
896.324	-127
896.427	165
896.531	246
896.634	27
896.737	-283
896.840	8
896.944	-609
897.047	300
897.150	279
897.253	-52
897.356	-295
897.460	78
897.563	-41
897.666	422
897.769	491
897.872	-28
897.975	270
898.078	-495
898.181	-44
898.284	-5
898.387	526
898.490	76
898.593	523
898.695	384
898.798	235
898.901	153
899.004	-796
899.107	51
899.209	162
899.312	-4
899.415	-595
899.518	434
899.620	25
899.723	-352
899.826	351
899.928	228
900.031	-13
900.133	278
900.236	-90
900.338	-147
900.441	226
900.543	546
900.646	-683
900.748	-435
900.851	-384
900.953	91
901.055	-631
901.158	-397
901.260	-130
901.362	417
901.465	-565
901.567	-155
901.669	474
901.771	311
901.873	537
901.976	146
902.078	-43
902.180	144
902.282	-83
902.384	70
902.486	36
902.588	-445
902.690	10
902.792	525
902.894	718
902.996	178
903.098	-154
903.200	-393
903.302	-104
903.404	196
903.505	-739
903.607	337
903.709	324
903.811	-162
903.913	-709
904.014	635
904.116	-84
904.218	555
904.319	84
904.421	622
904.523	-351
904.624	60
904.726	-310
904.827	125
904.929	-216
905.030	-340
905.132	-187
905.233	-239
905.335	-207
905.436	-802
905.537	-1046
905.639	761
905.740	332
905.841	-244
905.943	578
906.044	394
906.145	578
906.247	812
906.348	-796
906.449	-221
906.550	-201
906.651	-535
906.752	-494
906.854	-123
906.955	444
907.056	585
907.157	-212
907.258	-73
907.359	-1218
907.460	-26
907.561	311
907.662	240
907.762	55
907.863	553
907.964	56
908.065	93
908.166	-497
908.267	305
908.367	-294
908.468	421
908.569	-282
908.670	36
908.770	337
908.871	-270
908.971	-453
909.072	225
909.173	135
909.273	-254
909.374	-119
909.474	116
909.575	85
909.675	-221
909.776	208
909.876	769
909.977	5
910.077	-11
910.177	54
910.278	-903
910.378	-656
910.478	-680
910.579	247
910.679	193
910.779	-449
910.879	213
910.980	48
911.080	-1
911.180	-943
911.280	-111
911.380	-669
911.480	-32
911.580	-528
911.680	-298
911.780	-9
911.880	63
911.980	686
912.080	-321
912.180	-136
912.280	-206
912.380	53
912.480	-37
912.580	271
912.679	-779
912.779	-138
912.879	46
912.979	297
913.078	-257
913.178	-679
913.278	123
913.377	-410
913.477	28
913.577	358
913.676	48
913.776	-197
913.875	374
913.975	-569
914.074	166
914.174	-552
914.273	-45
914.373	-537
914.472	-103
914.572	-490
914.671	-222
914.770	-265
914.870	-563
914.969	-351
915.068	-504
915.167	-478
915.267	-174
915.366	483
915.465	-15
915.564	-215
915.663	-492
915.763	-691
915.862	-211
915.961	-27
916.060	-309
916.159	-495
916.258	452
916.357	-110
916.456	471
916.555	-461
916.654	-352
916.752	741
916.851	-182
916.950	-244
917.049	-206
917.148	-395
917.247	-862
917.345	653
917.444	680
917.543	17
917.642	-18
917.740	-161
917.839	-256
917.937	584
918.036	783
918.135	-385
918.233	321
918.332	-662
918.430	-804
918.529	-1023
918.627	243
918.726	-47
918.824	-379
918.923	-2
919.021	-296
919.119	-674
919.218	-86
919.316	-277
919.414	-97
919.512	-245
919.611	-168
919.709	75
919.807	204
919.905	-3
920.003	80
920.102	-510
920.200	207
920.298	-637
920.396	300
920.494	-497
920.592	-560
920.690	-128
920.788	118
920.886	-397
920.984	393
921.082	-643
921.180	582
921.277	441
921.375	-293
921.473	-147
921.571	36
921.669	-43
921.766	300
921.864	-126
921.962	-92
922.060	-419
922.157	136
922.255	350
922.352	81
922.450	159
922.548	357
922.645	-44
922.743	488
922.840	342
922.938	724
923.035	679
923.133	854
923.230	-83
923.327	364
923.425	608
923.522	345
923.619	-71
923.717	-38
923.814	346
923.911	-6
924.008	562
924.106	-372
924.203	77
924.300	1
924.397	-234
924.494	497
924.591	285
924.688	-98
924.786	99
924.883	712
924.979	-107
925.077	99
925.173	-155
925.270	291
925.367	635
925.464	630
925.561	218
925.658	831
925.755	159
925.852	333
925.948	135
926.045	564
926.142	170
926.239	1127
926.335	495
926.432	428
926.529	330
926.625	1179
926.722	362
926.818	961
926.915	-146
927.011	244
927.108	417
927.204	791
927.301	-225
927.397	417
927.494	-50
927.590	-130
927.687	-707
927.783	-629
927.879	-451
927.976	368
928.072	-328
928.168	628
928.264	75
928.361	-541
928.457	-597
928.553	423
928.649	-397
928.745	637
928.841	-230
928.937	228
929.033	-133
929.129	369
929.225	-284
929.321	740
929.417	-547
929.513	-259
929.609	-117
929.705	270
929.801	650
929.897	-264
929.993	105
930.089	50
930.184	-345
930.280	122
930.376	-317
930.471	-48
930.567	-211
930.663	747
930.758	-810
930.854	-423
930.950	-409
931.045	-312
931.141	124
931.236	634
931.332	-476
931.427	-148
931.523	484
931.618	-40
931.714	-127
931.809	-610
931.905	-535
932.000	-300
932.095	-313
932.191	-71
932.286	-423
932.381	-2
932.476	123
932.572	534
932.667	-525
932.762	-83
932.857	238
932.952	-345
933.047	272
933.142	39
933.237	-381
933.332	-180
933.427	-344
933.522	-253
933.617	260
933.712	-97
933.807	-425
933.902	427
933.997	313
934.092	-112
934.187	-907
934.282	-29
934.376	505
934.471	-364
934.566	-40
934.661	-690
934.755	-667
934.850	-103
934.945	-490
935.039	-81
935.134	-199
935.228	138
935.323	116
935.417	-443
935.512	-59
935.606	-867
935.701	-932
935.795	-274
935.890	-248
935.984	598
936.079	-2
936.173	-382
936.267	-850
936.362	189
936.456	97
936.550	-436
936.644	-147
936.738	98
936.833	-173
936.927	-448
937.021	-610
937.115	-409
937.209	-162
937.303	-37
937.397	-827
937.491	149
937.585	-711
937.679	-278
937.773	-953
937.867	-328
937.961	-1091
938.055	163
938.149	-550
938.243	-431
938.337	444
938.430	-314
938.524	-139
938.618	221
938.712	720
938.805	46
938.899	-769
938.993	506
939.086	-68
939.180	275
939.274	860
939.367	396
939.461	-498
939.554	554
939.648	-1274
939.741	-602
939.835	126
939.928	-374
940.022	-489
940.115	-519
940.208	-96
940.302	107
940.395	-667
940.488	-935
940.582	-606
940.675	-828
940.768	-564
940.861	-546
940.954	-398
941.048	-465
941.141	-872
941.234	-997
941.327	-650
941.420	-385
941.513	-171
941.606	-247
941.699	142
941.792	-221
941.885	-538
941.978	-569
942.071	-845
942.164	-830
942.257	-290
942.349	-233
942.442	-1174
942.535	-614
942.628	-349
942.721	-754
942.813	-1227
942.906	473
942.999	-1028
943.091	-228
943.184	-556
943.277	-168
943.369	-793
943.462	-318
943.554	-164
943.647	-364
943.739	-1369
943.832	-619
943.924	-1169
944.017	-410
944.109	-1134
944.201	-427
944.294	-801
944.386	-639
944.478	-814
944.571	-529
944.663	-188
944.755	-1011
944.847	-1283
944.940	85
945.032	-648
945.124	-412
945.216	-271
945.308	-193
945.400	-475
945.492	-817
945.584	-946
945.676	-678
945.768	-819
945.860	-520
945.952	-1131
946.044	80
946.136	-871
946.228	-903
946.320	-853
946.412	-670
946.503	-865
946.595	-807
946.687	-1807
946.779	-850
946.870	-994
946.962	-676
947.054	-1479
947.145	-278
947.237	-540
947.329	-720
947.420	-727
947.512	-775
947.603	-1339
947.695	-930
947.786	-1090
947.878	-605
947.969	-1533
948.061	-468
948.152	-1155
948.243	-961
948.335	-665
948.426	-1424
948.517	-824
948.609	-617
948.700	-649
948.791	-846
948.882	-687
948.973	-672
949.065	-541
949.156	-547
949.247	-378
949.338	-758
949.429	-1145
949.520	-758
949.611	-775
949.702	-224
949.793	-879
949.884	-1285
949.975	-657
950.066	-1149
950.157	-1162
950.247	-601
950.338	-1487
950.429	-804
950.520	-1461
950.611	-479
950.701	-847
950.792	-669
950.883	-248
950.973	-694
951.064	-787
951.155	-647
951.245	-1346
951.336	-974
951.427	-1224
951.517	-969
951.608	-751
951.698	-440
951.788	-495
951.879	-491
951.969	-717
952.060	-1035
952.150	-415
952.240	-501
952.331	-830
952.421	-557
952.511	-676
952.602	-943
952.692	-157
952.782	-1213
952.872	-1013
952.962	-768
953.052	-1160
953.143	-1270
953.233	-752
953.323	-26
953.413	-1267
953.503	-146
953.593	-1293
953.683	-1081
953.773	-1428
953.863	-1237
953.953	-1897
954.042	-493
954.132	-860
954.222	-1107
954.312	-1865
954.402	-1591
954.492	-1043
954.581	-194
954.671	-782
954.761	-962
954.850	-510
954.940	-1360
955.030	-791
955.119	-794
955.209	-938
955.298	-1963
955.388	-1657
955.477	-277
955.567	-1197
955.656	-881
955.746	-1522
955.835	-1523
955.925	-798
956.014	-1690
956.103	-1235
956.193	-87
956.282	-1710
956.371	-538
956.461	-1074
956.550	-1834
956.639	-1297
956.728	-1600
956.817	-882
956.906	-1395
956.995	-673
957.085	-1421
957.174	-1538
957.263	-839
957.352	-1283
957.441	-700
957.530	-1406
957.619	-383
957.708	-1523
957.796	-537
957.885	-1447
957.974	-553
958.063	-882
958.152	-1222
958.241	-1302
958.329	-924
958.418	-923
958.507	-1509
958.596	-373
958.684	-947
958.773	-1108
958.861	23
958.950	-985
959.039	-506
959.127	-455
959.216	-857
959.304	-494
959.393	-1253
959.481	-517
959.570	-427
959.658	-1005
959.746	-604
959.835	-618
959.923	437
960.011	829
960.100	244
960.188	-749
960.276	-449
960.365	-441
960.453	-1082
960.541	-1559
960.629	-911
960.717	-1123
960.805	-897
960.893	-1200
960.981	-415
961.069	-538
961.158	-363
961.245	-540
961.333	-641
961.421	-518
961.509	-1058
961.597	-942
961.685	-942
961.773	-893
961.861	-939
961.949	-601
962.036	-465
962.124	-726
962.212	-675
962.299	-1473
962.387	-290
962.475	-934
962.562	-863
962.650	-849
962.738	-595
962.825	-817
962.913	-1211
963.000	-1941
963.088	-714
963.175	-775
963.263	-180
963.350	-1423
963.438	-457
963.525	-779
963.612	-1409
963.700	1109
963.787	4428
963.874	7171
963.962	1017
964.049	-1087
964.136	-263
964.223	-754
964.310	-1133
964.398	-1115
964.485	-679
964.572	-987
964.659	310
964.746	998
964.833	-155
964.920	-768
965.007	-306
965.094	-1182
965.181	-652
965.268	-1005
965.355	-569
965.441	-969
965.528	-851
965.615	-1500
965.702	-1484
965.789	-2004
965.875	-663
965.962	-1163
966.049	-775
966.136	-53
966.222	-1201
966.309	-872
966.395	-850
966.482	-40
966.569	-844
966.655	-1139
966.742	-297
966.828	-740
966.915	-453
967.001	-1037
967.087	-703
967.174	-1659
967.260	-24
967.347	-1037
967.433	459
967.519	2571
967.605	3536
967.692	-633
967.778	-964
967.864	-1165
967.950	-488
968.036	-1318
968.123	-1143
968.209	-511
968.295	-758
968.381	-311
968.467	-195
968.553	-1831
968.639	124
968.725	-554
968.811	121
968.897	70
968.983	178
969.069	-1580
969.154	-804
969.240	-1370
969.326	-1129
969.412	-959
969.497	-722
969.583	-1210
969.669	-536
969.755	-589
969.840	-1002
969.926	-1056
970.012	-317
970.097	-651
970.183	-847
970.268	-510
970.354	-907
970.439	-383
970.525	1428
970.610	1831
970.696	-349
970.781	-1388
970.866	-527
970.952	-959
971.037	-765
971.122	-658
971.208	-1244
971.293	-771
971.378	-1353
971.463	-365
971.549	-864
971.634	-1339
971.719	-1225
971.804	-1380
971.889	-25
971.974	-677
972.059	-464
972.144	-1689
972.229	-825
972.314	-1352
972.399	-1007
972.484	-1210
972.569	-599
972.654	-870
972.739	-763
972.824	662
972.908	516
972.993	-1467
973.078	-988
973.163	-766
973.247	-486
973.332	-2199
973.417	-540
973.501	-1490
973.586	-1439
973.671	-1680
973.755	-297
973.840	-912
973.924	-549
974.009	-1188
974.093	-1021
974.178	-898
974.262	-725
974.346	837
974.431	314
974.515	-805
974.600	-88
974.684	-607
974.768	-161
974.852	-370
974.937	-785
975.021	-730
975.105	-1016
975.189	-1167
975.273	-485
975.358	-1302
975.442	-1075
975.526	-748
975.610	-512
975.694	-1731
975.778	-848
975.862	-1641
975.946	-1584
976.030	-677
976.114	-1914
976.198	-1276
976.281	-1125
976.365	-1068
976.449	-752
976.533	-1135
976.617	-1031
976.700	-834
976.784	-1285
976.868	-721
976.951	-463
977.035	-748
977.119	-326
977.202	-1506
977.286	-787
977.369	-1083
977.453	-117
977.536	-1276
977.620	-1785
977.703	-1811
977.787	-624
977.870	-557
977.953	-672
978.037	-1352
978.120	-939
978.203	-596
978.287	-25
978.370	414
978.453	-182
978.536	-1214
978.620	-739
978.703	-380
978.786	396
978.869	-1441
978.952	-1538
979.035	-937
979.118	-1156
979.201	-1449
979.284	-824
979.367	-1533
979.450	-475
979.533	-1020
979.616	-873
979.699	-1830
979.782	-776
979.865	-1066
979.948	-1539
980.030	-1246
980.113	-1192
980.196	-1749
980.279	-1675
980.361	-1021
980.444	-984
980.526	-852
980.609	-923
980.692	-1094
980.774	-973
980.857	-1423
980.939	-1138
981.022	-1195
981.104	-860
981.187	-1485
981.269	-539
981.352	-1410
981.434	-1657
981.516	-1827
981.599	-881
981.681	-1419
981.763	-1524
981.846	-1764
981.928	-1467
982.010	-1524
982.092	-1744
982.174	-1541
982.256	-1916
982.339	-1635
982.421	-1425
982.503	-1276
982.585	-500
982.667	-1350
982.749	-1613
982.831	-1422
982.913	-1964
982.995	-841
983.077	-1175
983.158	-598
983.240	-1197
983.322	-764
983.404	-1532
983.486	-1586
983.568	-1276
983.649	-2443
983.731	-11
983.813	-2128
983.894	-1753
983.976	-2162
984.058	-1641
984.139	-455
984.221	-1741
984.302	-882
984.384	-986
984.465	-1799
984.547	-770
984.628	-1518
984.710	-665
984.791	-1814
984.872	-1250
984.954	-1228
985.035	-1125
985.116	-1123
985.198	-1027
985.279	-1043
985.360	-1675
985.441	-2291
985.522	-1066
985.604	-1444
985.685	-2135
985.766	-1017
985.847	-1238
985.928	-1324
986.009	-1372
986.090	-1673
986.171	-886
986.252	-2170
986.333	-1307
986.414	-1808
986.495	-1479
986.576	-1650
986.656	-1045
986.737	-1989
986.818	-1450
986.899	-1485
986.980	-1566
987.060	-1092
987.141	-1561
987.222	-1542
987.302	-858
987.383	-1337
987.464	-1887
987.544	-923
987.625	-1399
987.705	-1059
987.786	-1610
987.866	-903
987.947	-1187
988.027	-2120
988.108	-1941
988.188	-1616
988.268	-1450
988.349	-1883
988.429	-1806
988.509	-1148
988.589	-1627
988.670	-2090
988.750	-738
988.830	-2148
988.910	-1221
988.990	-1718
989.070	-1349
989.151	-1608
989.231	-1850
989.311	-1127
989.391	-1555
989.471	-2624
989.551	-1232
989.631	-1586
989.711	-1073
989.791	-1722
989.870	-2015
989.950	-883
990.030	-1091
990.110	-2262
990.190	-1791
990.269	-1282
990.349	-1489
990.429	-1628
990.509	-1067
990.588	-2251
990.668	-1358
990.747	-1252
990.827	-1346
990.907	-1411
990.986	-1413
991.066	-1172
991.145	-1268
991.225	-1810
991.304	-1990
991.383	-1647
991.463	-1912
991.542	-2100
991.622	-2102
991.701	-2396
991.780	-1546
991.859	-2223
991.939	-2523
992.018	-1763
992.097	-1086
992.176	-2015
992.256	-1176
992.335	-2094
992.414	-1085
992.493	-2223
992.572	-2070
992.651	-771
992.730	-1696
992.809	-2078
992.888	-1640
992.967	-2345
993.046	-1811
993.125	-2461
993.203	-1603
993.282	-2576
993.361	-1646
993.440	-2384
993.519	-2193
993.597	-1713
993.676	-1772
993.755	-1621
993.834	-1090
993.912	-1640
993.991	-1644
994.069	-2092
994.148	-2101
994.226	-1843
994.305	-1961
994.384	-1988
994.462	-1456
994.540	-1906
994.619	-1852
994.697	-1987
994.776	-1178
994.854	-1275
994.932	-2025
995.011	-1253
995.089	-2126
995.167	-1329
995.245	-2150
995.324	-2307
995.402	-1207
995.480	-1692
995.558	-1142
995.636	-2764
995.714	-2146
995.792	-1570
995.870	-1796
995.948	-1915
996.026	-1032
996.104	-2121
996.182	-1290
996.260	-1371
996.338	-1179
996.416	-1805
996.494	-2021
996.572	-1155
996.649	-1105
996.727	-3255
996.805	-1534
996.883	-1520
996.960	-2314
997.038	-2099
997.116	-1351
997.193	-2198
997.271	-1622
997.348	-2739
997.426	-2105
997.504	-2090
997.581	-1335
997.658	-1437
997.736	-2161
997.813	-1821
997.891	-1462
997.968	-2625
998.046	-1701
998.123	-2313
998.200	-1837
998.277	-1684
998.355	-1195
998.432	-2480
998.509	-1068
998.586	-1757
998.663	-1758
998.741	-1489
998.818	-1192
998.895	-2188
998.972	-1564
999.049	-2888
999.126	-2288
999.203	-1256
999.280	-1171
999.357	-2440
999.434	-2010
999.511	-1652
999.587	-1458
999.664	-1360
999.741	-1123
999.818	-1299
999.895	-1461
999.971	-2251
1000.048	-1691
1000.125	-1471
1000.202	-1881
1000.278	-1426
1000.355	-1549
1000.431	-2819
1000.508	-1762
1000.584	-2418
1000.661	-2124
1000.738	-1978
1000.814	-1897
1000.890	-2200
1000.967	-2110
1001.043	-2392
1001.120	-2029
1001.196	-1901
1001.272	-2289
1001.349	-1732
1001.425	-1126
1001.501	-1343
1001.577	-1982
1001.654	-2198
1001.730	-2383
1001.806	-1498
1001.882	-1961
1001.958	-1789
1002.034	-1713
1002.110	-1860
1002.186	-1673
1002.262	-1691
1002.338	-2418
1002.414	-1802
1002.490	-1158
1002.566	-2092
1002.642	-2607
1002.718	-1403
1002.794	-1748
1002.870	-1195
1002.945	-1764
1003.021	-2155
1003.097	-2080
1003.173	-2222
1003.248	-2119
1003.324	-1994
1003.400	-1945
1003.475	-1600
1003.551	-1960
1003.626	-1888
1003.702	-2286
1003.777	-1937
1003.853	-2165
1003.928	-2020
1004.004	-1369
1004.079	-1471
1004.155	-2168
1004.230	-3384
1004.305	-1398
1004.381	-2625
1004.456	-1475
1004.531	-2236
1004.607	-1968
1004.682	-2611
1004.757	-1182
1004.832	-1530
1004.907	-1605
1004.982	-1546
1005.057	-2190
1005.133	-1873
1005.208	-2155
1005.283	-1849
1005.358	-707
1005.433	-1991
1005.508	-1676
1005.583	-1988
1005.657	-1789
1005.732	-1622
1005.807	-2425
1005.882	-1751
1005.957	-1852
1006.032	-1841
1006.106	-2128
1006.181	-2302
1006.256	-1444
1006.331	-3062
1006.405	-1765
1006.480	-1668
1006.554	-1825
1006.629	-1820
1006.704	-2217
1006.778	-2048
1006.853	-1576
1006.927	-1909
1007.002	-1701
1007.076	-1730
1007.150	-1958
1007.225	-1667
1007.299	-1857
1007.373	-2424
1007.448	-1688
1007.522	-1452
1007.596	-2499
1007.671	-2534
1007.745	-1484
1007.819	-2138
1007.893	-1698
1007.967	-1248
1008.041	-2292
1008.115	-1112
1008.190	-2002
1008.264	-1699
1008.338	-2554
1008.412	-2363
1008.486	-1753
1008.560	-2866
1008.633	-1988
1008.707	-1518
1008.781	-1086
1008.855	-2282
1008.929	-1942
1009.003	-2990
1009.076	-2134
1009.150	-1921
1009.224	-2102
1009.298	-2388
1009.371	-1757
1009.445	-1779
1009.519	-1493
1009.592	-2692
1009.666	-1025
1009.739	-2004
1009.813	-1901
1009.886	-2009
1009.960	-1903
1010.033	-2257
1010.107	-1569
1010.180	-2456
1010.253	-2184
1010.327	-3263
1010.400	-1557
1010.473	-2482
1010.547	-1589
1010.620	-2060
1010.693	-2771
1010.766	-1705
1010.840	-1769
1010.913	-1876
1010.986	-2041
1011.059	-2175
1011.132	-1820
1011.205	-2469
1011.278	-2097
1011.351	-2375
1011.424	-2238
1011.497	-1494
1011.570	-1782
1011.643	-2782
1011.716	-1737
1011.789	-1683
1011.862	-2118
1011.934	-2262
1012.007	-1818
1012.080	-2548
1012.153	-1623
1012.225	-1911
1012.298	-2088
1012.371	-2238
1012.443	-1958
1012.516	-2377
1012.588	-1775
1012.661	-1564
1012.733	-2023
1012.806	-1190
1012.879	-1975
1012.951	-2291
1013.023	-2184
1013.096	-2449
1013.168	-2210
1013.241	-1848
1013.313	-2462
1013.385	-2199
1013.458	-1805
1013.530	-2303
1013.602	-2740
1013.674	-2438
1013.746	-2146
1013.819	-2625
1013.891	-1829
1013.963	-2825
1014.035	-1926
1014.107	-2529
1014.179	-1928
1014.251	-2432
1014.323	-1335
1014.395	-2757
1014.467	-1924
1014.539	-1820
1014.611	-2185
1014.683	-2668
1014.754	-1944
1014.826	-2550
1014.898	-1862
1014.970	-3511
1015.042	-1260
1015.113	-2083
1015.185	-2256
1015.257	-2697
1015.328	-2692
1015.400	-2947
1015.471	-2050
1015.543	-2895
1015.615	-1302
1015.686	-2528
1015.757	-2454
1015.829	-2164
1015.901	-2849
1015.972	-1795
1016.043	-2195
1016.115	-3029
1016.186	-2073
1016.257	-2774
1016.328	-1421
1016.400	-2055
1016.471	-2149
1016.542	-2647
1016.613	-2371
1016.685	-2903
1016.756	-2056
1016.827	-2019
1016.898	-3610
1016.969	-1863
1017.040	-2206
1017.111	-2173
1017.182	-2500
1017.253	-2158
1017.324	-2738
1017.395	-2094
1017.466	-1348
1017.537	-2855
1017.608	-1514
1017.678	-2840
1017.749	-2355
1017.820	-2447
1017.891	-2091
1017.961	-2698
1018.032	-2316
1018.103	-2242
1018.173	-2079
1018.244	-2416
1018.315	-2610
1018.385	-2594
1018.456	-2820
1018.526	-2591
1018.597	-2740
1018.667	-2451
1018.738	-2254
1018.808	-2440
1018.878	-3542
1018.949	-1618
1019.019	-1963
1019.089	-2083
1019.160	-1695
1019.230	-2922
1019.300	-1751
1019.371	-2673
1019.441	-1840
1019.511	-1853
1019.581	-2934
1019.651	-2669
1019.721	-2284
1019.791	-2442
1019.861	-1917
1019.931	-2969
1020.001	-1745
1020.071	-1935
1020.141	-3341
1020.211	-2591
1020.281	-2640
1020.351	-2588
1020.421	-2042
1020.491	-2096
1020.560	-2566
1020.630	-2369
1020.700	-2634
1020.770	-2955
1020.839	-2299
1020.909	-2640
1020.979	-2539
1021.048	-3366
1021.118	-1726
1021.187	-2873
1021.257	-2760
1021.326	-2720
1021.396	-3583
1021.465	-2367
1021.535	-2094
1021.604	-3344
1021.674	-1415
1021.743	-2596
1021.812	-2730
1021.882	-2331
1021.951	-2012
1022.020	-2704
1022.089	-2521
1022.159	-2199
1022.228	-2657
1022.297	-2495
1022.366	-2529
1022.435	-3010
1022.504	-1933
1022.573	-2115
1022.642	-3051
1022.711	-2860
1022.781	-2145
1022.849	-2376
1022.918	-2925
1022.987	-2513
1023.056	-2181
1023.125	-2771
1023.194	-1885
1023.263	-2038
1023.331	-1749
1023.400	-2614
1023.469	-2165
1023.538	-2014
1023.606	-2175
1023.675	-2625
1023.744	-2136
1023.812	-2960
1023.881	-1937
1023.949	-2411
1024.018	-2307
1024.086	-2860
1024.155	-2296
1024.223	-2401
1024.292	-2393
1024.360	-2689
1024.429	-2110
1024.497	-2816
1024.565	-2186
1024.634	-2696
1024.702	-2927
1024.770	-2583
1024.838	-2267
1024.907	-2293
1024.975	-3280
1025.043	-1673
1025.111	-2494
1025.179	-3084
1025.247	-2913
1025.315	-2171
1025.383	-2669
1025.451	-2971
1025.519	-2422
1025.587	-2697
1025.655	-2244
1025.723	-2400
1025.791	-2502
1025.859	-2513
1025.927	-1734
1025.995	-2295
1026.062	-3006
1026.130	-2612
1026.198	-2544
1026.266	-2271
1026.333	-2090
1026.401	-2960
1026.469	-2658
1026.536	-2414
1026.604	-2486
1026.671	-2946
1026.739	-2787
1026.806	-2115
1026.874	-2372
1026.941	-2130
1027.009	-3106
1027.076	-2468
1027.144	-1910
1027.211	-2650
1027.278	-2880
1027.345	-2389
1027.413	-2291
1027.480	-2423
1027.547	-1788
1027.614	-2410
1027.682	-1490
1027.749	-3063
1027.816	-3053
1027.883	-2120
1027.950	-2390
1028.017	-3176
1028.084	-2143
1028.151	-2516
1028.218	-2164
1028.285	-2419
1028.352	-3181
1028.419	-3433
1028.486	-2182
1028.553	-2416
1028.619	-2325
1028.686	-2506
1028.753	-2893
1028.820	-3229
1028.886	-2170
1028.953	-2547
1029.020	-2400
1029.086	-3147
1029.153	-1844
1029.220	-3091
1029.286	-2342
1029.353	-2862
1029.419	-2404
1029.486	-2083
1029.552	-2108
1029.619	-3618
1029.685	-2063
1029.751	-2950
1029.818	-2354
1029.884	-2265
1029.951	-2284
1030.017	-2795
1030.083	-2127
1030.149	-2284
1030.216	-2110
1030.282	-2254
1030.348	-2413
1030.414	-3414
1030.480	-2448
1030.546	-2919
1030.612	-2200
1030.678	-2439
1030.744	-2578
1030.810	-2342
1030.876	-2344
1030.942	-2307
1031.008	-2427
1031.074	-2794
1031.140	-2281
1031.206	-2086
1031.272	-2957
1031.337	-2370
1031.403	-2607
1031.469	-2341
1031.534	-2995
1031.600	-2026
1031.666	-2624
1031.731	-2299
1031.797	-2074
1031.863	-2552
1031.928	-2219
1031.994	-2504
1032.059	-2867
1032.125	-1723
1032.190	-2342
1032.256	-2060
1032.321	-2970
1032.386	-3451
1032.452	-2498
1032.517	-2484
1032.582	-3161
1032.647	-2407
1032.713	-2412
1032.778	-1439
1032.843	-2562
1032.908	-3116
1032.974	-1366
1033.039	-2837
1033.104	-2380
1033.169	-2698
1033.234	-1851
1033.299	-2592
1033.364	-2039
1033.429	-2220
1033.494	-1686
1033.559	-2756
1033.624	-2325
1033.688	-2785
1033.753	-2214
1033.818	-2031
1033.883	-2323
1033.948	-2188
1034.013	-2235
1034.077	-2565
1034.142	-2435
1034.207	-2456
1034.271	-2306
1034.336	-2120
1034.400	-2210
1034.465	-2387
1034.530	-2575
1034.594	-1902
1034.658	-2499
1034.723	-2386
1034.787	-2246
1034.852	-1885
1034.916	-2169
1034.981	-2087
1035.045	-1430
1035.109	-2497
1035.173	-1647
1035.238	-2556
1035.302	-1985
1035.366	-2818
1035.430	-2379
1035.495	-3064
1035.559	-1968
1035.623	-1815
1035.687	-2758
1035.751	-2181
1035.815	-1519
1035.879	-3607
1035.943	-2580
1036.007	-2180
1036.071	-2467
1036.135	-2979
1036.198	-1907
1036.262	-1488
1036.326	-2356
1036.390	-2871
1036.454	-2598
1036.517	-2322
1036.581	-2593
1036.645	-2992
1036.709	-1099
1036.772	-1923
1036.836	-2004
1036.900	-2043
1036.963	-2605
1037.026	-2014
1037.090	-2175
1037.154	-3007
1037.217	-1399
1037.280	-2647
1037.344	-2320
1037.407	-3067
1037.471	-2747
1037.534	-2897
1037.597	-2404
1037.661	-2791
1037.724	-1960
1037.787	-2636
1037.850	-2199
1037.913	-3094
1037.977	-1661
1038.040	-2432
1038.103	-2100
1038.166	-2714
1038.229	-3215
1038.292	-2676
1038.355	-2557
1038.418	-1406
1038.481	-2761
1038.544	-2660
1038.607	-2030
1038.670	-1976
1038.732	-2082
1038.795	-2412
1038.858	-1551
1038.921	-1887
1038.984	-2250
1039.046	-1750
1039.109	-2436
1039.172	-2702
1039.234	-2047
1039.297	-2830
1039.360	-1442
1039.422	-2121
1039.485	-2113
1039.547	-3273
1039.610	-2242
1039.672	-2262
1039.734	-1742
1039.797	-2109
1039.859	-2782
1039.922	-2319
1039.984	-2499
1040.046	-2199
1040.109	-2343
1040.171	-2124
1040.233	-2412
1040.295	-2583
1040.358	-2465
1040.420	-2773
1040.482	-2494
1040.544	-2594
1040.606	-2688
1040.668	-2272
1040.730	-2007
1040.792	-3054
1040.854	-2020
1040.916	-2853
1040.978	-2962
1041.040	-2539
1041.102	-2870
1041.164	-3193
1041.225	-2491
1041.287	-3031
1041.349	-1863
1041.411	-2167
1041.472	-3289
1041.534	-2995
1041.596	-3390
1041.657	-1994
1041.719	-1602
1041.781	-2261
1041.842	-1960
1041.904	-2451
1041.965	-3140
1042.027	-2750
1042.088	-2174
1042.150	-2298
1042.211	-2389
1042.272	-2206
1042.334	-1979
1042.395	-2931
1042.456	-1872
1042.518	-2309
1042.579	-2303
1042.640	-2727
1042.701	-2159
1042.763	-2094
1042.824	-2353
1042.885	-2930
1042.946	-2494
1043.007	-1971
1043.068	-1828
1043.129	-2229
1043.190	-2289
1043.251	-2503
1043.312	-2412
1043.373	-2694
1043.434	-2518
1043.495	-2308
1043.556	-1482
1043.616	-2048
1043.677	-2596
1043.738	-1486
1043.799	-2227
1043.859	-2554
1043.920	-2867
1043.981	-2103
1044.041	-2299
1044.102	-2395
1044.162	-2255
1044.223	-3173
1044.284	-2015
1044.344	-2578
1044.405	-2577
1044.465	-2361
1044.525	-1801
1044.586	-3079
1044.646	-2080
1044.707	-1907
1044.767	-2792
1044.827	-2538
1044.887	-2371
1044.948	-2370
1045.008	-3073
1045.068	-1922
1045.128	-1598
1045.188	-2428
1045.249	-2452
1045.309	-1658
1045.369	-2030
1045.429	-2770
1045.489	-2231
1045.549	-1878
1045.609	-2641
1045.669	-2845
1045.729	-1797
1045.789	-2306
1045.848	-2338
1045.908	-1976
1045.968	-2166
1046.028	-1720
1046.088	-1560
1046.147	-1976
1046.207	-2421
1046.267	-1784
1046.326	-1934
1046.386	-1971
1046.446	-1653
1046.505	-1825
1046.565	-2285
1046.624	-1670
1046.684	-2165
1046.743	-1410
1046.803	-684
1046.862	-1240
1046.922	0
