'Start Wavelength	183.907
'End Wavelength	1046.922
'Gate Delay	5.000
'Gate Width (ms)	1.050
'Laser Output Level	0.000
'X Position	0.000
'Y Position	0.000
'Z Position	0.000
'Grid Point Number	1.000
'Shot Number	100.000
183.907	-480.000
183.977	432.000
184.047	959
184.116	273
184.186	279
184.256	-232
184.325	136
184.395	661
184.465	620
184.534	1021
184.604	476
184.674	406
184.743	130
184.813	592
184.883	-186
184.952	451
185.022	-52
185.092	443
185.161	-258
185.231	1519
185.301	114
185.370	56
185.440	171
185.509	315
185.579	15
185.649	307
185.718	170
185.788	505
185.857	-190
185.927	524
185.996	553
186.066	157
186.136	-168
186.205	458
186.275	174
186.344	532
186.414	291
186.483	41
186.553	791
186.622	1537
186.692	492
186.761	397
186.831	778
186.900	838
186.970	497
187.039	681
187.109	1082
187.178	1166
187.248	1052
187.317	592
187.387	970
187.456	1350
187.526	1499
187.595	519
187.664	1365
187.734	719
187.803	712
187.873	966
187.942	1808
188.012	1113
188.081	746
188.150	1416
188.220	1538
188.289	1028
188.358	268
188.428	1014
188.497	555
188.567	611
188.636	515
188.705	905
188.775	730
188.844	44
188.913	335
188.983	284
189.052	450
189.121	927
189.191	1402
189.260	1448
189.329	1868
189.399	1473
189.468	808
189.537	237
189.606	1157
189.676	892
189.745	828
189.814	776
189.883	1059
189.953	1050
190.022	2116
190.091	6105
190.161	4876
190.230	1536
190.299	1484
190.368	461
190.437	2099
190.507	1312
190.576	1129
190.645	416
190.714	1215
190.783	222
190.853	792
190.922	1515
190.991	667
191.060	711
191.129	651
191.198	388
191.268	1236
191.337	1043
191.406	736
191.475	702
191.544	717
191.613	518
191.682	155
191.752	976
191.821	782
191.890	603
191.959	656
192.028	582
192.097	335
192.166	671
192.235	168
192.304	607
192.373	633
192.442	562
192.511	722
192.580	709
192.650	863
192.719	733
192.788	1652
192.857	1154
192.926	1335
192.995	1598
193.064	2649
193.133	2598
193.202	2352
193.271	3125
193.340	2185
193.409	2034
193.478	2785
193.547	3436
193.615	4129
193.684	3083
193.753	2045
193.822	1536
193.891	1453
193.960	1060
194.029	846
194.098	1514
194.167	130
194.236	1025
194.305	1304
194.374	101
194.443	675
194.512	1024
194.580	814
194.649	1817
194.718	1177
194.787	1060
194.856	330
194.925	1332
194.994	401
195.062	695
195.131	898
195.200	1472
195.269	1064
195.338	1467
195.407	1671
195.475	1191
195.544	1755
195.613	1213
195.682	1131
195.751	1307
195.819	655
195.888	1543
195.957	2085
196.026	1282
196.094	1462
196.163	1576
196.232	1348
196.301	854
196.369	1412
196.438	541
196.507	1140
196.576	975
196.644	1365
196.713	775
196.782	1224
196.850	1743
196.919	1072
196.988	1001
197.056	835
197.125	1170
197.194	1691
197.262	564
197.331	1587
197.400	1336
197.468	1315
197.537	1513
197.606	1824
197.674	3317
197.743	5565
197.812	2574
197.880	5641
197.949	2639
198.017	6141
198.086	2765
198.155	2097
198.223	3325
198.292	6910
198.360	2042
198.429	1864
198.497	2633
198.566	4837
198.635	5404
198.703	3093
198.772	3037
198.840	9136
198.909	5865
198.977	2258
199.046	1550
199.114	2255
199.183	1952
199.251	1385
199.320	794
199.388	1609
199.457	1684
199.525	1340
199.594	1142
199.662	1001
199.731	1220
199.799	1512
199.867	1301
199.936	1264
200.004	1335
200.073	1904
200.141	1188
200.210	1113
200.278	1330
200.346	2241
200.415	2682
200.483	1438
200.552	924
200.620	1695
200.688	1702
200.757	1216
200.825	1025
200.893	1324
200.962	1437
201.030	1669
201.098	1573
201.167	938
201.235	1650
201.303	1433
201.372	1796
201.440	995
201.508	2115
201.577	1696
201.645	1142
201.713	1263
201.781	1422
201.850	1482
201.918	1365
201.986	607
202.055	1037
202.123	1232
202.191	1478
202.259	1223
202.327	788
202.396	1563
202.464	1287
202.532	2185
202.600	5409
202.669	2334
202.737	1789
202.805	2003
202.873	1794
202.941	2092
203.009	1986
203.078	1701
203.146	2129
203.214	1085
203.282	1848
203.350	1341
203.418	1876
203.487	1618
203.555	1983
203.623	1260
203.691	2079
203.759	1829
203.827	1062
203.895	1606
203.963	1562
204.031	936
204.099	1484
204.168	2060
204.236	1874
204.304	1773
204.372	1810
204.440	1684
204.508	2393
204.576	960
204.644	1839
204.712	1700
204.780	2577
204.848	1727
204.916	1071
204.984	1929
205.052	2016
205.120	2209
205.188	1827
205.256	1763
205.324	1684
205.392	2546
205.460	2961
205.528	2269
205.596	1804
205.664	2031
205.732	3064
205.799	11208
205.867	10386
205.935	2985
206.003	2578
206.071	2981
206.139	2765
206.207	2838
206.275	1995
206.343	1723
206.411	2327
206.478	1229
206.546	2295
206.614	1735
206.682	2518
206.750	2368
206.818	3451
206.885	3072
206.953	2000
207.021	2680
207.089	2288
207.157	1721
207.225	2775
207.292	2517
207.360	2755
207.428	2942
207.496	1954
207.563	2194
207.631	1940
207.699	2223
207.767	1736
207.834	2175
207.902	2203
207.970	2155
208.038	2348
208.105	2349
208.173	4013
208.241	4312
208.309	4022
208.376	3269
208.444	6362
208.512	3554
208.579	2970
208.647	2800
208.715	2771
208.782	1890
208.850	2652
208.918	1908
208.985	2497
209.053	2164
209.120	2640
209.188	2708
209.256	2550
209.323	2648
209.391	2790
209.459	2218
209.526	1849
209.594	2419
209.661	3054
209.729	3091
209.796	1717
209.864	2915
209.932	2218
209.999	2431
210.067	3445
210.134	3641
210.202	2553
210.269	3803
210.337	3528
210.404	2668
210.472	2253
210.539	2675
210.607	2382
210.674	2656
210.742	3230
210.809	2957
210.877	2898
210.944	4239
211.012	2867
211.079	3250
211.146	2952
211.214	3155
211.281	4324
211.349	3464
211.416	3245
211.484	3303
211.551	3256
211.618	3598
211.686	3028
211.753	2437
211.821	3111
211.888	2564
211.955	3284
212.023	3172
212.090	3522
212.157	3388
212.225	4999
212.292	10698
212.359	19442
212.427	32532
212.494	13062
212.561	7063
212.629	4773
212.696	4649
212.763	3932
212.831	3559
212.898	3790
212.965	3222
213.032	3672
213.100	2896
213.167	4251
213.234	4178
213.301	3371
213.369	2709
213.436	2887
213.503	3804
213.570	3734
213.638	3785
213.705	3535
213.772	3069
213.839	4068
213.906	3750
213.973	3682
214.041	2912
214.108	3681
214.175	3630
214.242	3139
214.309	3357
214.376	4019
214.444	3655
214.511	3751
214.578	3873
214.645	3979
214.712	4209
214.779	3685
214.846	3751
214.913	4307
214.980	4522
215.048	5181
215.115	5485
215.182	3911
215.249	3416
215.316	3417
215.383	3840
215.450	3729
215.517	3091
215.584	2999
215.651	2439
215.718	3679
215.785	3735
215.852	3717
215.919	3389
215.986	4024
216.053	3533
216.120	2956
216.187	3885
216.254	4342
216.321	2965
216.388	4262
216.455	4520
216.522	3828
216.589	4353
216.656	6607
216.722	6096
216.789	5308
216.856	5574
216.923	4857
216.990	5377
217.057	4753
217.124	5673
217.191	5384
217.258	6825
217.324	7134
217.391	7245
217.458	5931
217.525	4705
217.592	4627
217.659	4148
217.725	4883
217.792	6488
217.859	4705
217.926	3645
217.993	3323
218.059	3538
218.126	2793
218.193	3441
218.260	2525
218.327	2630
218.393	3899
218.460	3040
218.527	3047
218.594	3829
218.660	5365
218.727	5387
218.794	3241
218.860	3362
218.927	3404
218.994	2678
219.061	2554
219.127	4148
219.194	5114
219.261	2954
219.327	2101
219.394	2365
219.461	2005
219.527	2424
219.594	4906
219.661	3297
219.727	2679
219.794	2480
219.860	2844
219.927	3962
219.994	4737
220.060	8211
220.127	5229
220.193	5261
220.260	4624
220.326	7290
220.393	10761
220.460	12630
220.526	7712
220.593	6141
220.659	6324
220.726	9175
220.792	18343
220.859	13720
220.925	18085
220.992	21606
221.058	24347
221.125	21473
221.191	16361
221.258	6343
221.324	5403
221.391	4658
221.457	3523
221.524	4682
221.590	8555
221.657	25969
221.723	12513
221.789	14990
221.856	11536
221.922	6875
221.989	5372
222.055	3411
222.121	3660
222.188	4712
222.254	3724
222.321	3311
222.387	3016
222.453	3190
222.520	2669
222.586	3019
222.652	2663
222.719	3087
222.785	2664
222.851	3168
222.918	2180
222.984	2746
223.050	2735
223.116	2421
223.183	3219
223.249	1908
223.315	2177
223.382	3009
223.448	2454
223.514	2546
223.580	2507
223.647	2159
223.713	2187
223.779	2398
223.845	2100
223.911	2689
223.978	2834
224.044	2634
224.110	2781
224.176	2995
224.242	2337
224.309	2010
224.375	2319
224.441	1855
224.507	1601
224.573	2570
224.639	2267
224.705	2174
224.772	1678
224.838	3055
224.904	3170
224.970	1882
225.036	2978
225.102	2456
225.168	2715
225.234	2440
225.300	2501
225.366	1675
225.432	2162
225.499	2537
225.565	1920
225.631	3120
225.697	3497
225.763	4502
225.829	4804
225.895	5349
225.961	6553
226.027	5568
226.093	5096
226.159	7692
226.225	11856
226.291	26739
226.357	31824
226.423	14327
226.489	8933
226.554	5995
226.620	7609
226.686	8467
226.752	11951
226.818	24903
226.884	50766
226.950	33457
227.016	13793
227.082	8609
227.148	6656
227.214	6611
227.279	5298
227.345	3897
227.411	4889
227.477	5629
227.543	10831
227.609	8890
227.674	5576
227.740	4442
227.806	5226
227.872	3938
227.938	4178
228.003	4232
228.069	3270
228.135	2949
228.201	3382
228.267	3595
228.332	3675
228.398	3957
228.464	3026
228.530	2210
228.595	2333
228.661	2721
228.727	4833
228.792	3532
228.858	2936
228.924	3448
228.990	4994
229.055	4190
229.121	4299
229.187	2548
229.252	2908
229.318	3123
229.384	2574
229.449	3191
229.515	2622
229.581	1464
229.646	3270
229.712	3156
229.777	7072
229.843	5048
229.909	5295
229.974	5236
230.040	5234
230.105	5174
230.171	5861
230.236	9228
230.302	13719
230.368	7038
230.433	5080
230.499	4835
230.564	5577
230.630	3453
230.695	3860
230.761	4167
230.826	3048
230.892	5082
230.957	3749
231.023	2895
231.088	3179
231.154	3575
231.219	2954
231.284	5111
231.350	3937
231.415	3117
231.481	3092
231.546	3098
231.612	2851
231.677	2071
231.742	2525
231.808	3762
231.873	2468
231.939	2375
232.004	4761
232.069	3578
232.135	3325
232.200	2781
232.265	2885
232.331	2703
232.396	2116
232.461	2362
232.527	2183
232.592	3055
232.657	2507
232.723	4399
232.788	2548
232.853	2794
232.918	2779
232.984	1918
233.049	1768
233.114	3446
233.179	3783
233.245	5858
233.310	5111
233.375	2627
233.440	3197
233.506	3375
233.571	2238
233.636	2993
233.701	2093
233.766	5861
233.832	4907
233.897	3402
233.962	1956
234.027	3728
234.092	2693
234.157	2671
234.222	3181
234.288	5824
234.353	12246
234.418	8705
234.483	5336
234.548	4856
234.613	4157
234.678	4655
234.743	5897
234.808	12419
234.873	6665
234.938	4867
235.004	3281
235.069	4435
235.134	3870
235.199	3468
235.264	2910
235.329	2914
235.394	3017
235.459	3672
235.524	3681
235.589	3444
235.654	3439
235.719	2282
235.784	3321
235.849	4705
235.913	5936
235.978	7523
236.043	6824
236.108	4210
236.173	4989
236.238	4691
236.303	3402
236.368	4145
236.433	7102
236.498	9255
236.563	7585
236.627	22976
236.692	65389
236.757	37539
236.822	14923
236.887	10811
236.952	9699
237.017	9304
237.081	9157
237.146	13082
237.211	27793
237.276	71091
237.341	83832
237.405	31857
237.470	14327
237.535	10871
237.600	7746
237.664	7070
237.729	5292
237.794	9333
237.859	13533
237.923	8148
237.988	5376
238.053	7677
238.118	7466
238.182	23229
238.247	12343
238.312	7169
238.376	4830
238.441	4630
238.506	4400
238.570	3060
238.635	4151
238.700	3129
238.764	3262
238.829	10013
238.893	7794
238.958	5396
239.023	3981
239.087	3758
239.152	3769
239.216	3036
239.281	3661
239.346	2889
239.410	2559
239.475	4219
239.539	20556
239.604	9850
239.668	4564
239.733	4316
239.797	7979
239.862	16268
239.926	14075
239.991	4747
240.055	3773
240.120	3048
240.184	3524
240.249	2969
240.313	3433
240.378	3639
240.442	12948
240.507	13219
240.571	4303
240.635	8334
240.700	6555
240.764	3491
240.829	2385
240.893	2241
240.957	3413
241.022	11246
241.086	13341
241.151	4111
241.215	2777
241.279	5133
241.344	7375
241.408	4667
241.472	4657
241.537	4362
241.601	4573
241.665	4205
241.730	4607
241.794	4260
241.858	3785
241.922	3895
241.987	4828
242.051	4103
242.115	3526
242.179	3135
242.244	3669
242.308	4037
242.372	4642
242.436	4386
242.501	3612
242.565	4153
242.629	3405
242.693	3965
242.757	3354
242.822	3749
242.886	4034
242.950	3626
243.014	4190
243.078	4573
243.142	4389
243.206	4500
243.271	5440
243.335	7069
243.399	14092
243.463	67659
243.527	98045
243.591	25094
243.655	11408
243.719	7912
243.783	8543
243.847	18132
243.911	16119
243.975	11936
244.040	6791
244.104	4184
244.168	3701
244.232	6941
244.296	13221
244.360	13891
244.424	5071
244.488	3916
244.552	4345
244.615	2915
244.679	3537
244.743	4333
244.807	2746
244.871	2778
244.935	3228
244.999	2717
245.063	3411
245.127	4586
245.191	14101
245.255	8387
245.319	5061
245.383	3564
245.446	4161
245.510	3350
245.574	3571
245.638	3269
245.702	3897
245.766	8551
245.829	4144
245.893	3470
245.957	3806
246.021	4657
246.085	3915
246.149	5345
246.212	13713
246.276	15722
246.340	6003
246.404	4880
246.467	6537
246.531	7307
246.595	5442
246.659	4269
246.722	4721
246.786	4502
246.850	7482
246.913	6560
246.977	3461
247.041	3629
247.104	4161
247.168	5441
247.232	13245
247.295	21670
247.359	7743
247.423	5284
247.486	8753
247.550	5272
247.614	4352
247.677	5556
247.741	3730
247.804	5136
247.868	6643
247.932	12713
247.995	17346
248.059	5997
248.122	4230
248.186	6733
248.249	10621
248.313	41290
248.376	29983
248.440	18712
248.503	7877
248.567	7581
248.630	10530
248.694	12526
248.757	20372
248.821	37356
248.884	17545
248.948	22824
249.011	29990
249.075	47506
249.138	30008
249.202	12001
249.265	9469
249.328	11106
249.392	8634
249.455	7193
249.519	7295
249.582	8202
249.645	12068
249.709	8635
249.772	7352
249.835	7482
249.899	8577
249.962	7417
250.025	7238
250.089	18918
250.152	17181
250.215	10089
250.279	8917
250.342	9237
250.405	9038
250.468	10588
250.532	14920
250.595	31956
250.658	135497
250.721	130151
250.785	42363
250.848	23035
250.911	16287
250.974	15319
251.038	20551
251.101	26125
251.164	15606
251.227	16611
251.290	19224
251.354	46658
251.417	163002
251.480	112670
251.543	124780
251.606	255702
251.669	145551
251.732	62849
251.795	56597
251.859	77008
251.922	161021
251.985	66475
252.048	29031
252.111	20224
252.174	18767
252.237	33323
252.300	53456
252.363	110885
252.426	168522
252.489	56583
252.552	30449
252.615	21681
252.678	24183
252.741	50371
252.804	115649
252.867	181713
252.930	75910
252.993	36601
253.056	23737
253.119	19028
253.182	21039
253.245	40194
253.308	19688
253.371	13457
253.434	11915
253.497	13828
253.559	23400
253.622	13111
253.685	15136
253.748	12441
253.811	7075
253.874	10446
253.937	8520
254.000	8210
254.062	18004
254.125	20357
254.188	19460
254.251	12179
254.314	7721
254.376	13947
254.439	12024
254.502	10827
254.565	17640
254.628	21490
254.690	10454
254.753	5695
254.816	6233
254.878	7643
254.941	19341
255.004	12275
255.067	6064
255.129	5254
255.192	3666
255.255	2817
255.317	5547
255.380	3472
255.443	3522
255.505	3138
255.568	3794
255.631	3152
255.693	4040
255.756	3044
255.819	3985
255.881	2979
255.944	2879
256.006	2879
256.069	2949
256.132	2388
256.194	6045
256.257	10882
256.319	8272
256.382	7197
256.444	5549
256.507	5698
256.569	4769
256.632	6030
256.694	9555
256.757	45615
256.819	83031
256.882	27604
256.944	11362
257.007	9855
257.069	8440
257.132	6677
257.194	6443
257.257	5884
257.319	5757
257.381	8385
257.444	28726
257.506	125306
257.569	84316
257.631	40114
257.693	19008
257.756	11859
257.818	9133
257.880	6273
257.943	5600
258.005	4302
258.067	4111
258.130	4305
258.192	5601
258.254	8840
258.317	5063
258.379	6245
258.441	16940
258.503	10402
258.566	21754
258.628	16063
258.690	5476
258.753	6041
258.815	8644
258.877	5704
258.939	3957
259.001	4185
259.064	4366
259.126	6040
259.188	6097
259.250	5820
259.312	9675
259.375	23590
259.437	9288
259.499	5694
259.561	4857
259.623	5436
259.685	4100
259.747	6311
259.809	22214
259.872	26686
259.934	55299
259.996	28734
260.058	8670
260.120	5200
260.182	4957
260.244	4499
260.306	3838
260.368	3626
260.430	4138
260.492	10268
260.554	20904
260.616	12421
260.678	27199
260.740	21772
260.802	6268
260.864	5512
260.926	3573
260.988	5085
261.050	5096
261.112	15333
261.174	36816
261.236	16491
261.298	7766
261.359	15273
261.421	13164
261.483	4454
261.545	4099
261.607	3868
261.669	4860
261.731	9986
261.793	14447
261.854	5301
261.916	4670
261.978	5302
262.040	5027
262.102	4483
262.164	6983
262.225	4850
262.287	4785
262.349	10200
262.411	5614
262.472	4519
262.534	11069
262.596	13208
262.658	4369
262.719	3592
262.781	7245
262.843	14109
262.904	6200
262.966	6583
263.028	12810
263.090	90994
263.151	135237
263.213	31454
263.275	13314
263.336	7956
263.398	6664
263.459	4038
263.521	5109
263.583	9288
263.644	4634
263.706	2342
263.767	2146
263.829	1879
263.891	1739
263.952	2309
264.014	2468
264.075	8204
264.137	11675
264.198	4563
264.260	2142
264.321	2965
264.383	11391
264.444	17009
264.506	4762
264.567	4347
264.629	12990
264.690	16104
264.752	5328
264.813	3735
264.875	3179
264.936	3429
264.998	3820
265.059	3046
265.120	3942
265.182	10068
265.243	53441
265.305	29042
265.366	7285
265.427	4412
265.489	3878
265.550	2714
265.611	3220
265.673	3561
265.734	3150
265.795	2300
265.857	3285
265.918	4021
265.979	17059
266.040	88451
266.102	40243
266.163	12634
266.224	8389
266.286	5278
266.347	4441
266.408	3682
266.469	3549
266.530	2951
266.592	2229
266.653	6951
266.714	6863
266.775	2538
266.836	2390
266.898	2838
266.959	4826
267.020	2342
267.081	2918
267.142	2593
267.203	2484
267.264	2010
267.326	2633
267.387	2397
267.448	2084
267.509	2628
267.570	2492
267.631	2170
267.692	1995
267.753	2036
267.814	1949
267.875	7841
267.936	10135
267.997	7751
268.058	4962
268.119	3096
268.180	2885
268.241	1808
268.302	1670
268.363	2239
268.424	2452
268.485	2412
268.546	1778
268.607	1519
268.668	1630
268.729	1306
268.790	2016
268.851	2646
268.912	8657
268.972	5987
269.033	2767
269.094	1339
269.155	3455
269.216	1703
269.277	2287
269.338	2247
269.398	2389
269.459	2626
269.520	4362
269.581	4597
269.642	4306
269.702	3321
269.763	3172
269.824	2063
269.885	3459
269.945	5104
270.006	2772
270.067	2515
270.128	1479
270.188	2185
270.249	2601
270.310	1552
270.370	2027
270.431	1657
270.492	1490
270.553	3029
270.613	5494
270.674	9557
270.734	3090
270.795	2546
270.856	4553
270.916	2605
270.977	2878
271.038	3334
271.098	3305
271.159	5296
271.219	3466
271.280	2287
271.340	2995
271.401	3317
271.462	6927
271.522	4062
271.583	2208
271.643	1778
271.704	2276
271.764	3835
271.825	10234
271.885	38103
271.946	30571
272.006	10354
272.066	25689
272.127	27791
272.187	7966
272.248	5522
272.308	9158
272.369	26662
272.429	8340
272.489	8809
272.550	5924
272.610	7601
272.671	4677
272.731	6676
272.791	8592
272.852	4162
272.912	3355
272.972	2364
273.033	3286
273.093	3876
273.153	5026
273.214	3300
273.274	4484
273.334	24849
273.394	27624
273.455	8545
273.515	15388
273.575	24372
273.635	8631
273.696	18867
273.756	28898
273.816	7688
273.876	5722
273.936	20870
273.997	20016
274.057	4975
274.117	4647
274.177	10478
274.237	45117
274.297	24847
274.358	17862
274.418	25626
274.478	13020
274.538	5167
274.598	7284
274.658	23330
274.718	20908
274.778	7154
274.838	5275
274.898	17579
274.958	33426
275.018	35202
275.078	14196
275.138	5814
275.198	4087
275.258	2769
275.318	5484
275.378	7282
275.438	5691
275.498	6153
275.558	24094
275.618	32663
275.678	15740
275.738	10420
275.798	7559
275.858	5266
275.918	2774
275.978	3771
276.038	3551
276.098	3165
276.157	8401
276.217	14768
276.277	6308
276.337	4408
276.397	2977
276.457	3235
276.517	2671
276.576	2426
276.636	1856
276.696	4518
276.756	10966
276.815	5616
276.875	3700
276.935	3413
276.995	2069
277.055	2175
277.114	2130
277.174	6165
277.234	12954
277.293	3963
277.353	2357
277.413	2974
277.472	2276
277.532	2336
277.592	3927
277.651	18282
277.711	18099
277.771	9142
277.830	31839
277.890	16366
277.950	27613
278.009	54080
278.069	14032
278.128	21661
278.188	18580
278.248	11304
278.307	27721
278.367	11854
278.426	5081
278.486	3565
278.545	3541
278.605	3092
278.664	3548
278.724	4747
278.783	21205
278.843	30856
278.902	7359
278.962	5483
279.021	5129
279.081	6670
279.140	4847
279.199	4626
279.259	5655
279.318	6300
279.378	9482
279.437	24401
279.496	84388
279.556	218003
279.615	94964
279.675	25929
279.734	18447
279.793	33703
279.853	46685
279.912	14740
279.971	9039
280.031	9495
280.090	30253
280.149	33169
280.208	33514
280.268	166671
280.327	87979
280.386	20798
280.445	18142
280.505	13704
280.564	8233
280.623	7524
280.682	11290
280.742	10957
280.801	4650
280.860	3432
280.919	3281
280.978	3756
281.037	3196
281.097	2616
281.156	3348
281.215	3162
281.274	5720
281.333	26203
281.392	11467
281.451	3979
281.510	3141
281.569	3089
281.628	2256
281.688	2789
281.747	3503
281.806	3190
281.865	2927
281.924	2191
281.983	1794
282.042	1383
282.101	1968
282.160	2083
282.219	1230
282.278	3027
282.337	9562
282.396	3982
282.454	2742
282.513	4411
282.572	14038
282.631	4834
282.690	2489
282.749	1960
282.808	3312
282.867	2487
282.926	2789
282.985	1957
283.043	1682
283.102	2367
283.161	3350
283.220	12065
283.279	15052
283.338	4039
283.396	3391
283.455	3230
283.514	3851
283.573	3910
283.631	3187
283.690	2617
283.749	3095
283.808	8098
283.866	5282
283.925	2529
283.984	2960
284.043	3481
284.101	3268
284.160	3173
284.219	5225
284.277	3720
284.336	7303
284.395	21827
284.453	12085
284.512	5002
284.570	6893
284.629	5268
284.688	4782
284.746	3919
284.805	5176
284.863	7938
284.922	9083
284.981	11005
285.039	15785
285.098	35134
285.156	108951
285.215	246025
285.273	182166
285.332	73414
285.390	37849
285.449	23602
285.507	16838
285.566	12619
285.624	9516
285.683	7939
285.741	5799
285.799	4570
285.858	3824
285.916	4020
285.975	3584
286.033	2965
286.091	3116
286.150	2083
286.208	3500
286.267	4262
286.325	3265
286.383	5580
286.442	3968
286.500	2979
286.558	3068
286.616	2750
286.675	4082
286.733	3815
286.791	3278
286.850	4761
286.908	5454
286.966	6852
287.024	3042
287.083	2809
287.141	2481
287.199	2780
287.257	4034
287.315	4214
287.374	4690
287.432	8656
287.490	5141
287.548	4839
287.606	4116
287.664	5125
287.723	7526
287.781	7345
287.839	6794
287.897	8533
287.955	14109
288.013	26886
288.071	72918
288.129	291922
288.187	454681
288.245	177185
288.303	67129
288.361	40080
288.419	29397
288.477	21253
288.535	15477
288.593	11862
288.651	8384
288.709	5833
288.767	5819
288.825	4432
288.883	4524
288.941	3725
288.999	3665
289.057	3226
289.115	3489
289.173	3258
289.231	3438
289.289	2413
289.346	2793
289.404	3346
289.462	4835
289.520	4092
289.578	2701
289.636	1912
289.694	2308
289.751	2039
289.809	1951
289.867	2226
289.925	3077
289.983	3485
290.040	2513
290.098	2847
290.156	2605
290.214	2531
290.271	1919
290.329	2041
290.387	1450
290.444	1424
290.502	1658
290.560	1945
290.617	1289
290.675	1831
290.733	1412
290.790	1966
290.848	2027
290.906	1990
290.963	1474
291.021	1423
291.078	1643
291.136	3015
291.194	14282
291.251	17987
291.309	4687
291.366	2519
291.424	2462
291.481	1779
291.539	1670
291.596	2229
291.654	1213
291.711	1216
291.769	2547
291.826	3924
291.884	2297
291.941	686
291.999	2065
292.056	1994
292.114	936
292.171	323
292.228	2758
292.286	3053
292.343	3963
292.401	4208
292.458	2555
292.515	1819
292.573	2402
292.630	2980
292.687	3257
292.745	1887
292.802	5787
292.859	14026
292.917	17412
292.974	7497
293.031	2914
293.089	2130
293.146	2551
293.203	2084
293.260	2867
293.318	4526
293.375	6014
293.432	3277
293.489	1854
293.546	2228
293.604	5064
293.661	20311
293.718	35218
293.775	13487
293.832	6370
293.889	5726
293.947	7120
294.004	3808
294.061	4487
294.118	10836
294.175	22469
294.232	26457
294.289	8286
294.346	5285
294.403	3862
294.460	3337
294.517	2393
294.574	3042
294.631	3620
294.688	5219
294.745	16732
294.802	50931
294.859	40177
294.916	17554
294.973	8440
295.030	6404
295.087	4805
295.144	3575
295.201	4033
295.258	3113
295.315	5715
295.372	21039
295.429	25967
295.486	10085
295.542	8738
295.599	28463
295.656	33739
295.713	25496
295.770	23722
295.827	9449
295.883	6105
295.940	4873
295.997	7360
296.054	5750
296.111	3602
296.167	2351
296.224	2207
296.281	2512
296.338	2269
296.394	3080
296.451	3613
296.508	14649
296.564	19978
296.621	16125
296.678	40210
296.734	38891
296.791	13069
296.848	7177
296.904	8716
296.961	18365
297.018	33223
297.074	19703
297.131	8193
297.187	7600
297.244	12189
297.301	47434
297.357	51797
297.414	15358
297.470	7687
297.527	4949
297.583	4432
297.640	4462
297.696	3733
297.753	3221
297.809	2118
297.866	2125
297.922	2241
297.979	1918
298.035	3332
298.092	6992
298.148	19267
298.204	13639
298.261	7728
298.317	21660
298.374	41604
298.430	17656
298.486	8662
298.543	6302
298.599	5999
298.656	8584
298.712	23769
298.768	68125
298.824	35738
298.881	12214
298.937	6330
298.993	5522
299.050	5808
299.106	5509
299.162	4856
299.218	4675
299.275	3699
299.331	4144
299.387	13131
299.443	41838
299.500	31342
299.556	12944
299.612	7113
299.668	6935
299.724	10990
299.780	9713
299.837	6173
299.893	10855
299.949	34607
300.005	28425
300.061	34198
300.117	51018
300.173	18841
300.229	9141
300.285	9586
300.341	8662
300.397	5070
300.453	4116
300.510	3926
300.566	3949
300.622	8216
300.678	26382
300.734	32526
300.790	31226
300.845	33307
300.901	22770
300.957	28186
301.013	16575
301.069	8056
301.125	5452
301.181	5116
301.237	4067
301.293	2907
301.349	2936
301.405	2540
301.461	3112
301.516	3146
301.572	4714
301.628	5915
301.684	6751
301.740	11534
301.796	14150
301.851	10716
301.907	17373
301.963	19243
302.019	48713
302.074	106379
302.130	79525
302.186	30954
302.242	13995
302.297	9446
302.353	11365
302.409	19299
302.464	13836
302.520	15497
302.576	36901
302.631	31547
302.687	15086
302.743	6942
302.798	5369
302.854	4263
302.910	4874
302.965	6394
303.021	9878
303.076	7263
303.132	10846
303.187	9977
303.243	4934
303.299	3604
303.354	2969
303.410	2787
303.465	3083
303.521	2795
303.576	3622
303.632	6682
303.687	13843
303.743	36328
303.798	21849
303.853	8445
303.909	6078
303.964	4875
304.020	7141
304.075	8423
304.130	8913
304.186	13729
304.241	12890
304.297	9389
304.352	5887
304.358	5718
304.407	4356
304.449	4594
304.463	4677
304.518	4189
304.539	4194
304.573	4199
304.629	4993
304.630	5107
304.684	10388
304.720	23592
304.739	30375
304.794	31715
304.811	26684
304.850	14305
304.902	7387
304.905	6962
304.960	6000
304.992	6113
305.015	6222
305.071	4861
305.083	4468
305.126	3044
305.173	2353
305.181	2234
305.236	2175
305.264	2595
305.292	3074
305.347	3312
305.354	3395
305.402	3914
305.445	5501
305.457	5965
305.512	6273
305.535	5980
305.567	5418
305.622	6799
305.626	7228
305.678	15451
305.716	31098
305.733	37308
305.788	33017
305.807	29556
305.843	23152
305.897	34646
305.898	34798
305.953	28394
305.988	19501
306.008	14134
306.063	7551
306.078	6833
306.118	5820
306.168	4020
306.173	3864
306.228	3404
306.259	3413
306.283	3426
306.338	3786
306.349	3878
306.393	4477
306.440	5652
306.448	5789
306.503	5146
306.530	6122
306.558	7797
306.613	17381
306.620	18116
306.668	22620
306.711	26546
306.723	27063
306.778	18247
306.801	14444
306.833	9551
306.888	5708
306.892	5579
306.943	4800
306.982	4270
306.997	4116
307.052	3677
307.072	3967
307.107	4675
307.162	7407
307.163	7454
307.217	11764
307.253	14349
307.272	15156
307.327	14788
307.343	13485
307.381	10486
307.434	9054
307.436	9126
307.491	18076
307.524	24578
307.546	27395
307.600	22734
307.614	20424
307.655	12361
307.704	8179
307.710	8059
307.765	8955
307.795	13144
307.819	16942
307.874	26360
307.885	25652
307.929	19278
307.975	14939
307.984	14968
308.038	21329
308.065	29143
308.093	47214
308.148	107108
308.156	121766
308.202	221850
308.246	255546
308.257	243126
308.312	121389
308.336	80956
308.366	58388
308.421	30812
308.426	28950
308.475	19676
308.517	15010
308.530	14202
308.585	12614
308.607	12048
308.639	11461
308.694	11953
308.697	12201
308.748	20075
308.787	29661
308.803	31198
308.857	22824
308.877	19878
308.912	15864
308.967	14202
308.967	14223
309.021	18286
309.058	23423
309.076	29130
309.130	53988
309.148	67012
309.185	132981
309.238	259870
309.239	261481
309.293	317882
309.328	302681
309.348	250775
309.402	109710
309.418	75630
309.457	49976
309.508	27703
309.511	26956
309.566	20978
309.598	18374
309.620	18547
309.674	20699
309.688	21317
309.729	20165
309.778	16448
309.783	15998
309.837	12464
309.868	11018
309.892	11636
309.946	15359
309.959	16889
310.001	23627
310.049	28080
310.055	27289
310.109	16824
310.139	11680
310.163	9185
310.218	5441
310.229	4846
310.272	3992
310.319	3745
310.326	3779
310.381	3807
310.409	3978
310.435	3904
310.489	3496
310.499	3484
310.543	3753
310.589	4029
310.598	3969
310.652	3908
310.679	3625
310.706	3287
310.760	2767
310.769	2714
310.814	2676
310.859	2620
310.868	2528
310.923	2184
310.948	2039
310.977	2317
311.031	2799
311.038	2885
311.085	2615
311.128	2289
311.139	2371
311.193	2902
311.218	3131
311.247	2861
311.301	2307
311.308	2246
311.356	2083
311.398	2065
311.410	2134
311.464	2392
311.488	2521
311.518	2380
311.572	2070
311.578	2057
311.626	2838
311.668	3489
311.680	3525
311.734	3729
311.758	3804
311.788	3667
311.842	3446
311.847	3434
311.896	3986
311.937	4593
311.950	4598
312.004	4617
312.027	4620
312.058	3907
312.112	2711
312.117	2602
312.165	2465
312.207	2370
312.297	3267
312.386	3295
312.476	2052
312.566	3810
312.656	2002
312.745	1347
312.835	2319
312.925	2103
313.015	2369
313.104	3164
313.194	1966
313.284	2455
313.374	1667
313.463	2868
313.553	1150
313.643	2138
313.732	1351
313.822	1697
313.912	2337
314.001	2446
314.091	3443
314.180	3911
314.270	3311
314.360	4169
314.449	2864
314.539	1725
314.628	2125
314.718	2681
314.808	3083
314.897	2565
314.987	2352
315.076	3383
315.166	3309
315.255	3740
315.345	2467
315.434	2992
315.524	3523
315.613	3495
315.703	4351
315.792	8177
315.881	26275
315.971	13245
316.060	6818
316.150	11120
316.239	10833
316.328	5070
316.418	2239
316.507	2212
316.597	2858
316.686	2989
316.775	6134
316.865	11388
316.954	3793
317.043	1754
317.133	1776
317.222	2204
317.311	2234
317.400	1497
317.490	2795
317.579	3914
317.668	3069
317.757	5042
317.847	14752
317.936	47252
318.025	20143
318.114	9079
318.203	6064
318.293	4132
318.382	5363
318.471	6623
318.560	11350
318.649	29158
318.738	9150
318.828	3288
318.917	4388
319.006	5698
319.095	14234
319.184	34481
319.273	21034
319.362	7551
319.451	2511
319.540	2986
319.629	4428
319.718	7591
319.807	5128
319.896	12599
319.985	44153
320.074	19775
320.163	5148
320.252	6789
320.341	5244
320.430	4181
320.519	4600
320.608	4013
320.697	1931
320.786	2450
320.875	3516
320.964	3990
321.053	5556
321.142	7057
321.230	8096
321.319	6779
321.408	13942
321.497	8748
321.586	6773
321.675	11088
321.764	9462
321.852	6117
321.941	7658
322.030	6599
322.119	6723
322.207	16362
322.296	16795
322.385	8845
322.474	8323
322.562	16993
322.651	11774
322.740	7438
322.829	13419
322.917	15461
323.006	7676
323.095	5807
323.183	5004
323.272	7607
323.361	17389
323.449	50284
323.538	22356
323.626	34110
323.715	25188
323.804	10324
323.892	28818
323.981	17495
324.069	6044
324.158	17776
324.246	17296
324.335	4230
324.424	5687
324.512	2918
324.601	2939
324.689	3443
324.778	6598
324.866	9781
324.954	3078
325.043	3060
325.131	7159
325.220	13945
325.308	14256
325.397	9388
325.485	6773
325.574	1729
325.662	1460
325.750	2086
325.839	2192
325.927	2339
326.015	2332
326.104	5212
326.192	7367
326.280	2442
326.369	1833
326.457	2640
326.545	4015
326.634	2670
326.722	1772
326.810	1716
326.898	1703
326.987	2196
327.075	4160
327.163	5739
327.251	3476
327.340	3117
327.428	2584
327.516	1691
327.604	2322
327.692	2149
327.781	2879
327.869	6011
327.957	3420
328.045	2390
328.133	1860
328.221	3312
328.309	2269
328.397	1141
328.485	1967
328.574	3311
328.662	8540
328.750	7269
328.838	2833
328.926	3366
329.014	1992
329.102	3318
329.190	6708
329.278	5251
329.366	1231
329.454	1479
329.542	1685
329.630	2007
329.718	2002
329.806	2811
329.893	3189
329.981	4905
330.069	7663
330.157	31702
330.245	113193
330.333	77643
330.421	11409
330.509	5486
330.597	9615
330.684	8970
330.772	3736
330.860	6074
330.948	7031
331.036	3517
331.123	1524
331.211	2073
331.299	3135
331.387	5041
331.475	10850
331.562	3730
331.650	1659
331.738	2632
331.825	3836
331.913	2021
332.001	1334
332.089	2789
332.176	5390
332.264	16302
332.352	13109
332.439	2871
332.527	1854
332.614	1963
332.702	3138
332.790	1925
332.877	6817
332.965	14149
333.052	3588
333.140	3348
333.228	5916
333.315	2455
333.403	2665
333.490	9191
333.578	6652
333.665	5950
333.753	3108
333.840	1444
333.928	3682
334.015	9921
334.103	17333
334.190	51930
334.278	17020
334.365	6487
334.452	4924
334.540	2762
334.627	3605
334.715	6163
334.802	13258
334.889	64165
334.977	72873
335.064	11293
335.151	4145
335.239	4011
335.326	5413
335.413	23297
335.501	38287
335.588	6487
335.675	3353
335.762	4478
335.850	6994
335.937	6371
336.024	17779
336.111	67486
336.199	35951
336.286	7386
336.373	3976
336.460	2290
336.547	2856
336.635	3669
336.722	2630
336.809	3058
336.896	3356
336.983	11597
337.070	33852
337.157	58538
337.245	45498
337.332	32462
337.419	5096
337.506	3022
337.593	3076
337.680	9805
337.767	30995
337.854	10892
337.941	9911
338.028	12168
338.115	4472
338.202	4579
338.289	12694
338.376	38283
338.463	13708
338.550	18323
338.637	23884
338.724	8070
338.811	11537
338.898	2565
338.984	2054
339.071	2100
339.158	3363
339.245	6316
339.332	4650
339.419	8462
339.506	7252
339.593	1179
339.679	1141
339.766	1140
339.853	1866
339.940	3771
340.027	1568
340.113	926
340.200	1586
340.287	1763
340.374	2167
340.460	3155
340.547	1881
340.634	1954
340.720	8480
340.807	7423
340.894	1936
340.980	1319
341.067	1198
341.154	1326
341.240	1386
341.327	4107
341.414	1972
341.500	1183
341.587	1133
341.674	1590
341.760	3263
341.847	3488
341.933	1024
342.020	624
342.106	431
342.193	1055
342.279	2631
342.366	1635
342.452	3320
342.539	2535
342.625	4485
342.712	10590
342.798	4716
342.885	2657
342.971	1083
343.058	1556
343.144	835
343.230	1195
343.317	812
343.403	137
343.490	664
343.576	826
343.662	1228
343.749	1735
343.835	2902
343.921	4985
344.008	33335
344.094	97387
344.180	25247
344.267	5776
344.353	15573
344.439	21844
344.525	5862
344.612	3314
344.698	3673
344.784	2072
344.870	643
344.957	1042
345.043	2096
345.129	1274
345.215	3416
345.301	1954
345.387	507
345.474	422
345.560	965
345.646	1975
345.732	1694
345.818	1283
345.904	758
345.990	2091
346.076	2608
346.162	4169
346.249	1866
346.335	771
346.421	2038
346.507	6923
346.593	26953
346.679	9026
346.765	2005
346.851	1889
346.937	1626
347.023	1281
347.108	1612
347.194	1676
347.280	729
347.366	1692
347.452	7071
347.538	34708
347.624	26050
347.710	18478
347.796	3243
347.882	1769
347.967	2177
348.053	2231
348.139	2273
348.225	1021
348.311	887
348.397	1333
348.482	1460
348.568	1424
348.654	254
348.740	2136
348.825	2316
348.911	2944
348.997	13481
349.083	37104
349.168	6878
349.254	1628
349.340	423
349.425	1199
349.511	1460
349.597	2553
349.682	3797
349.768	13389
349.854	8437
349.939	1742
350.025	1064
350.110	2008
350.196	862
350.282	488
350.367	1189
350.453	3479
350.538	3611
350.624	1946
350.709	1772
350.795	848
350.880	799
350.966	1476
351.051	2814
351.137	2677
351.222	1187
351.308	3855
351.393	10318
351.479	2532
351.564	898
351.649	1469
351.735	878
351.820	933
351.906	881
351.991	2139
352.076	5614
352.162	11880
352.247	2807
352.332	1971
352.418	1873
352.503	3149
352.588	13099
352.673	13267
352.759	2571
352.844	1526
352.929	740
353.014	2068
353.100	1113
353.185	3757
353.270	3795
353.355	4103
353.441	2055
353.526	1825
353.611	3218
353.696	3753
353.781	2404
353.866	1035
353.952	1781
354.037	3101
354.122	6650
354.207	6577
354.292	2811
354.377	1982
354.462	730
354.547	1390
354.632	1850
354.717	3357
354.802	4913
354.887	2447
354.972	683
355.057	1153
355.142	1121
355.227	1158
355.312	1648
355.397	3762
355.482	10719
355.567	7152
355.652	4055
355.737	4845
355.822	15664
355.907	16507
355.991	2317
356.076	1320
356.161	1348
356.246	774
356.331	1353
356.416	4549
356.501	34778
356.585	50379
356.670	5449
356.755	3501
356.840	4006
356.924	22322
357.009	105398
357.094	48637
357.179	5867
357.263	4377
357.348	3709
357.433	3546
357.517	2467
357.602	2512
357.687	2724
357.771	3842
357.856	9924
357.941	7334
358.025	18323
358.110	112679
358.195	69163
358.279	6099
358.364	2936
358.448	9746
358.533	27480
358.617	22705
358.702	22031
358.787	9781
358.871	3271
358.956	2801
359.040	1205
359.125	1677
359.209	762
359.294	4339
359.378	7436
359.462	2665
359.547	3104
359.631	2303
359.716	846
359.800	1648
359.885	2859
359.969	1669
360.053	1659
360.138	2102
360.222	985
360.306	3573
360.391	3111
360.475	4365
360.559	10389
360.644	10063
360.728	9434
360.812	16810
360.896	65198
360.981	26482
361.065	10149
361.149	2660
361.233	1653
361.318	2425
361.402	2393
361.486	1967
361.570	1475
361.654	1898
361.739	4906
361.823	33125
361.907	73957
361.991	14025
362.075	3920
362.159	7342
362.243	6265
362.327	7270
362.411	12822
362.495	6674
362.580	2843
362.664	1665
362.748	2285
362.832	2962
362.916	4381
363.000	18448
363.084	53679
363.168	88898
363.252	22087
363.336	4672
363.420	6376
363.503	32767
363.587	48799
363.671	7464
363.755	2533
363.839	4917
363.923	2487
364.007	4483
364.091	6824
364.175	13162
364.258	59484
364.342	46481
364.426	47079
364.510	29251
364.594	9713
364.677	9515
364.761	49050
364.845	47331
364.929	8817
365.013	5659
365.096	3899
365.180	6301
365.264	12734
365.347	62384
365.431	31139
365.515	4902
365.598	1844
365.682	2112
365.766	3641
365.849	5648
365.933	2221
366.017	4125
366.100	2981
366.184	1153
366.267	1455
366.351	1423
366.435	510
366.518	1566
366.602	317
366.685	1048
366.769	768
366.852	3151
366.936	6166
367.019	2800
367.103	2293
367.186	6343
367.270	1140
367.353	238
367.436	1406
367.520	903
367.603	1097
367.687	1778
367.770	4471
367.853	2686
367.937	9209
368.020	21806
368.104	5062
368.187	2398
368.270	4149
368.353	4313
368.437	9170
368.520	26820
368.603	12324
368.687	10310
368.770	25252
368.853	6556
368.936	3854
369.020	5509
369.103	1686
369.186	673
369.269	1033
369.352	2847
369.436	3263
369.519	2386
369.602	980
369.685	1525
369.768	1529
369.851	1285
369.934	998
370.018	699
370.101	2973
370.184	3513
370.267	2030
370.350	2619
370.433	5483
370.516	20360
370.599	38518
370.682	11024
370.765	9924
370.848	14265
370.931	32336
371.014	15637
371.097	2614
371.180	1521
371.263	1294
371.346	1087
371.429	935
371.511	1376
371.594	2307
371.677	4771
371.760	6157
371.843	5756
371.926	26266
372.009	96741
372.091	33477
372.174	11452
372.257	35440
372.340	17248
372.423	7987
372.505	10535
372.588	4412
372.671	7935
372.754	28904
372.836	20281
372.919	13677
373.002	30813
373.085	9407
373.167	4341
373.250	10458
373.332	30540
373.415	46478
373.498	134384
373.580	55331
373.663	52083
373.746	97755
373.828	20568
373.911	5357
373.993	6766
374.076	29081
374.159	33143
374.241	9525
374.324	21631
374.406	17728
374.489	24722
374.571	94299
374.654	45689
374.736	13506
374.819	51855
374.901	80592
374.983	109084
375.066	21383
375.148	5501
375.231	23711
375.313	53432
375.395	19257
375.478	4523
375.560	2059
375.643	3573
375.725	12154
375.807	69397
375.890	74111
375.972	26292
376.054	11877
376.136	22068
376.219	9033
376.301	13255
376.383	57360
376.465	26221
376.548	8238
376.630	10646
376.712	40113
376.794	25342
376.877	2504
376.959	1615
377.041	953
377.123	4965
377.205	6520
377.287	1652
377.369	979
377.452	2008
377.534	757
377.616	1278
377.698	624
377.780	678
377.862	356
377.944	1229
378.026	-103
378.108	776
378.190	604
378.272	592
378.354	1049
378.436	668
378.518	1730
378.600	10212
378.682	7244
378.764	13352
378.846	14129
378.928	3649
379.010	3771
379.091	2647
379.173	778
379.255	1182
379.337	1893
379.419	5997
379.501	22500
379.583	12187
379.664	2154
379.746	4075
379.828	13053
379.910	19968
379.991	20297
380.073	4529
380.155	2375
380.237	1446
380.318	748
380.400	943
380.482	1860
380.564	4550
380.645	5369
380.727	5987
380.809	3271
380.890	1806
380.972	1541
381.053	1195
381.135	840
381.217	4305
381.298	14238
381.380	9514
381.461	6661
381.543	36393
381.624	62406
381.706	12994
381.787	4140
381.869	4022
381.951	16075
382.032	92781
382.113	74279
382.195	10574
382.276	5358
382.358	10960
382.439	36950
382.521	45635
382.602	91407
382.684	38965
382.765	42236
382.846	43710
382.928	41344
383.009	26698
383.090	13031
383.172	50982
383.253	108406
383.334	43455
383.416	58506
383.497	37649
383.578	8631
383.659	12856
383.741	43855
383.822	158047
383.903	100831
383.984	29259
384.066	60081
384.147	43787
384.228	8818
384.309	4725
384.390	3379
384.471	2973
384.553	3109
384.634	3927
384.715	4699
384.796	2592
384.877	3169
384.958	11562
385.039	18202
385.120	6530
385.201	2940
385.282	4007
385.363	3992
385.444	4422
385.525	5630
385.606	26002
385.687	32383
385.768	8018
385.849	7158
385.930	29942
386.011	82875
386.092	27502
386.173	3958
386.254	2991
386.335	3230
386.416	2892
386.496	7576
386.577	17395
386.658	7642
386.739	4253
386.820	4792
386.901	3479
386.981	4090
387.062	3471
387.143	4668
387.224	13886
387.304	17177
387.385	5836
387.466	3395
387.547	5196
387.627	3206
387.708	5819
387.789	25029
387.869	43576
387.950	15578
388.031	3036
388.111	2374
388.192	7474
388.273	12447
388.353	7735
388.434	2950
388.514	5873
388.595	33503
388.676	52859
388.756	19043
388.837	12803
388.917	9097
388.998	2184
389.078	2184
389.159	2374
389.239	1709
389.320	2575
389.400	2104
389.480	5498
389.561	17129
389.641	10970
389.722	2683
389.802	3729
389.883	6554
389.963	22962
390.043	19195
390.124	5435
390.204	4282
390.284	15890
390.365	13958
390.445	25047
390.525	114794
390.605	143016
390.686	26904
390.766	5485
390.846	2693
390.927	2663
391.007	1829
391.087	2643
391.167	2626
391.247	1851
391.328	4798
391.408	6522
391.488	4825
391.568	2346
391.648	2182
391.728	3163
391.808	2912
391.888	3807
391.969	8120
392.049	16407
392.129	9545
392.209	7941
392.289	21862
392.369	16082
392.449	13321
392.529	9317
392.609	6211
392.689	8065
392.769	21290
392.849	24330
392.929	15627
393.009	36480
393.089	36381
393.169	32778
393.248	101410
393.328	508536
393.408	763734
393.488	209990
393.568	41556
393.648	19977
393.728	12397
393.807	9229
393.887	7794
393.967	7487
394.047	8549
394.127	9105
394.206	14774
394.286	46167
394.366	282549
394.446	439086
394.525	109097
394.605	19767
394.685	11768
394.764	19334
394.844	33503
394.924	28389
395.003	8602
395.083	5567
395.163	5638
395.242	5108
395.322	5416
395.402	3893
395.481	6315
395.561	12575
395.640	35973
395.720	32066
395.799	45240
395.879	42455
395.958	23069
396.038	69994
396.117	372320
396.197	576724
396.276	167422
396.356	38624
396.435	23376
396.515	17461
396.594	16068
396.673	28865
396.753	111672
396.832	507912
396.912	474889
396.991	91988
397.070	21229
397.150	11431
397.229	8049
397.308	9053
397.388	17192
397.467	10275
397.546	4435
397.625	2624
397.705	4123
397.784	4086
397.863	2353
397.942	1981
398.022	3050
398.101	8886
398.180	36348
398.259	22017
398.338	4776
398.417	1843
398.497	1733
398.576	1910
398.655	962
398.734	1720
398.813	1563
398.892	9046
398.971	39841
399.050	24520
399.129	1869
399.208	1464
399.287	894
399.366	708
399.445	560
399.524	893
399.603	1301
399.682	1900
399.761	8034
399.840	41631
399.919	39961
399.998	6223
400.077	354
400.156	-273
400.235	1628
400.313	206
400.392	885
400.471	5765
400.550	12119
400.629	3894
400.708	547
400.786	1465
400.865	5647
400.944	6653
401.023	2704
401.102	849
401.180	1140
401.259	-131
401.338	787
401.416	1300
401.495	1119
401.574	1246
401.652	241
401.731	1989
401.810	1169
401.888	712
401.967	349
402.046	80
402.124	1682
402.203	2023
402.281	811
402.360	1969
402.438	7180
402.517	6192
402.596	2501
402.674	1436
402.753	803
402.831	492
402.910	743
402.988	7041
403.066	34294
403.145	26268
403.223	7722
403.302	27355
403.380	23271
403.459	21084
403.537	10365
403.615	2595
403.694	-254
403.772	1395
403.850	498
403.929	590
404.007	-17
404.085	3319
404.164	4375
404.242	1519
404.320	2942
404.398	14402
404.477	19841
404.555	51775
404.633	64715
404.711	16730
404.789	8026
404.868	1675
404.946	783
405.024	41
405.102	-299
405.180	204
405.258	-1438
405.336	504
405.415	198
405.493	2404
405.571	2165
405.649	110
405.727	-500
405.805	593
405.883	779
405.961	2032
406.039	1755
406.117	649
406.195	1274
406.273	6453
406.351	37995
406.429	32565
406.507	4903
406.585	992
406.663	65
406.740	1013
406.818	74
406.896	59
406.974	831
407.052	1267
407.130	16654
407.208	35770
407.285	8715
407.363	858
407.441	166
407.519	176
407.596	771
407.674	5000
407.752	30744
407.830	38326
407.907	8940
407.985	2106
408.063	164
408.141	153
408.218	1634
408.296	1671
408.373	484
408.451	730
408.529	480
408.606	-300
408.684	60
408.762	555
408.839	-9
408.917	-287
408.994	-542
409.072	-8
409.149	-80
409.227	1097
409.304	1475
409.382	2132
409.459	1352
409.537	3091
409.614	2816
409.692	1762
409.769	1376
409.846	3465
409.924	4466
410.001	2157
410.079	1093
410.156	1852
410.233	1311
410.311	1632
410.388	1274
410.465	737
410.543	-421
410.620	191
410.697	251
410.775	-75
410.852	-719
410.929	181
411.006	413
411.083	-360
411.161	341
411.238	1494
411.315	974
411.392	-454
411.469	697
411.547	91
411.624	-1426
411.701	-395
411.778	166
411.855	968
411.932	112
412.009	-281
412.086	406
412.163	400
412.240	643
412.317	989
412.394	474
412.471	280
412.548	-1048
412.625	-16
412.702	-24
412.779	1397
412.856	1210
412.933	-495
413.010	194
413.087	737
413.164	3713
413.241	9579
413.318	2058
413.395	590
413.471	115
413.548	530
413.625	-133
413.702	-399
413.779	710
413.855	-252
413.932	-960
414.009	-1159
414.086	-436
414.162	197
414.239	199
414.316	4652
414.393	13584
414.469	6143
414.546	126
414.623	-321
414.699	17
414.776	-653
414.853	-500
414.929	13
415.006	-59
415.082	751
415.159	-12
415.236	-276
415.312	215
415.389	168
415.465	388
415.542	355
415.618	-757
415.695	895
415.771	-318
415.848	-223
415.924	302
416.000	-634
416.077	503
416.153	-1084
416.230	-888
416.306	-393
416.383	-696
416.459	235
416.535	-1077
416.612	-1076
416.688	-800
416.764	-819
416.841	-831
416.917	279
416.993	188
417.069	116
417.146	-796
417.222	844
417.298	31
417.374	-309
417.451	-371
417.527	-502
417.603	-705
417.679	-214
417.755	4
417.831	-1098
417.908	-1310
417.984	-452
418.060	-1450
418.136	1001
418.212	956
418.288	228
418.364	-83
418.440	-1046
418.516	1085
418.592	1513
418.668	2503
418.744	3245
418.820	2033
418.896	-62
418.972	-1763
419.048	-939
419.124	451
419.200	-97
419.276	-788
419.352	-529
419.428	-178
419.504	-349
419.579	-194
419.655	-228
419.731	-310
419.807	669
419.883	3212
419.959	3210
420.034	408
420.110	-394
420.186	6183
420.262	7878
420.337	805
420.413	-86
420.489	40
420.565	-145
420.640	-818
420.716	-418
420.792	-1127
420.867	494
420.943	219
421.019	770
421.094	-201
421.170	849
421.245	39
421.321	528
421.397	29
421.472	3725
421.548	16788
421.623	14542
421.699	2543
421.774	1170
421.850	399
421.925	2976
422.001	2597
422.076	2677
422.152	1984
422.227	4338
422.302	7060
422.378	10240
422.453	18710
422.529	44778
422.604	153535
422.679	351533
422.755	272487
422.830	88832
422.905	28987
422.981	14707
423.056	8962
423.131	6994
423.207	4302
423.282	2991
423.357	4760
423.432	3970
423.508	2885
423.583	3997
423.658	4391
423.733	2222
423.808	1616
423.883	2193
423.959	1129
424.034	1388
424.109	1708
424.184	-294
424.259	-139
424.334	-681
424.409	-737
424.484	-457
424.559	288
424.634	-586
424.709	-394
424.784	965
424.859	95
424.934	-377
425.009	3808
425.084	8766
425.159	4534
425.234	1211
425.309	-423
425.384	-391
425.459	1731
425.534	544
425.609	-649
425.683	-352
425.758	-801
425.833	509
425.908	23
425.983	623
426.058	8157
426.132	5878
426.207	-149
426.282	1405
426.357	1549
426.431	-191
426.506	-337
426.581	-591
426.655	-549
426.730	-301
426.805	-1005
426.879	285
426.954	-329
427.029	359
427.103	6502
427.178	30563
427.253	22070
427.327	2099
427.402	271
427.476	4158
427.551	2707
427.625	-58
427.700	658
427.774	-195
427.849	232
427.923	-520
427.998	-797
428.072	148
428.147	2512
428.221	10422
428.296	55510
428.370	48740
428.444	6280
428.519	2898
428.593	6022
428.667	7358
428.742	6275
428.816	7590
428.890	25153
428.965	65727
429.039	26548
429.113	9822
429.188	4168
429.262	293
429.336	1246
429.410	4340
429.485	4102
429.559	4110
429.633	5948
429.707	812
429.781	2754
429.855	26817
429.930	62358
430.004	32546
430.078	35674
430.152	39874
430.226	72706
430.300	119536
430.374	27451
430.448	4276
430.522	8351
430.596	35684
430.670	29690
430.744	42319
430.818	90179
430.892	28233
430.966	2338
431.040	800
431.114	-347
431.188	-334
431.262	124
431.336	344
431.410	1444
431.484	6531
431.557	6890
431.631	624
431.705	17
431.779	5744
431.853	44824
431.927	55768
432.000	8625
432.074	854
432.148	585
432.222	783
432.295	-400
432.369	-588
432.443	255
432.516	7835
432.590	34507
432.664	20893
432.737	1936
432.811	-552
432.885	-924
432.958	-1015
433.032	-892
433.106	-989
433.179	-746
433.253	-1386
433.326	-808
433.400	-780
433.473	-1222
433.547	-1559
433.620	-733
433.694	-758
433.767	-79
433.841	-1434
433.914	-1186
433.988	-235
434.061	-1580
434.134	-1059
434.208	-977
434.281	-1270
434.355	-1299
434.428	-441
434.501	-855
434.575	-863
434.648	-1098
434.721	83
434.795	-1147
434.868	-1368
434.941	-1815
435.014	-1462
435.088	-1390
435.161	-425
435.234	-1053
435.307	656
435.381	-156
435.454	243
435.527	1110
435.600	762
435.673	1328
435.746	-355
435.819	-672
435.892	-408
435.966	-712
436.039	-748
436.112	-549
436.185	-1314
436.258	-979
436.331	-1428
436.404	-1570
436.477	-1186
436.550	-1618
436.623	-1349
436.696	-1832
436.769	-1008
436.842	-1177
436.915	-830
436.987	-655
437.060	-436
437.133	-1492
437.206	-1144
437.279	-967
437.352	-705
437.425	-1906
437.498	-790
437.570	-481
437.643	602
437.716	-153
437.789	-1190
437.861	-1035
437.934	725
438.007	238
438.080	-633
438.152	-134
438.225	743
438.298	9918
438.370	60190
438.443	41108
438.516	4668
438.588	-279
438.661	-295
438.734	-522
438.806	-737
438.879	-463
438.951	-673
439.024	156
439.096	-17
439.169	-1394
439.241	-894
439.314	-947
439.386	-767
439.459	1465
439.531	1992
439.604	334
439.676	-596
439.749	-807
439.821	-945
439.893	-1323
439.966	20
440.038	-599
440.110	-282
440.183	-901
440.255	-1781
440.327	-48
440.400	2440
440.472	24120
440.544	30231
440.617	4771
440.689	-16
440.761	-131
440.833	422
440.905	-326
440.978	-827
441.050	-1863
441.122	-703
441.194	-1399
441.266	-535
441.338	-947
441.411	-735
441.483	2501
441.555	11353
441.627	4620
441.699	833
441.771	1689
441.843	-16
441.915	-604
441.987	-959
442.059	-945
442.131	109
442.203	555
442.275	1254
442.347	1630
442.419	2117
442.491	12206
442.563	60270
442.635	47313
442.706	13573
442.778	10500
442.850	3002
442.922	-32
442.994	-274
443.066	798
443.137	1490
443.209	707
443.281	1782
443.353	3886
443.425	18174
443.496	95499
443.568	147416
443.640	73879
443.711	16753
443.783	3164
443.855	1613
443.926	3
443.998	198
444.070	278
444.141	1550
444.213	274
444.285	729
444.356	1232
444.428	1175
444.499	-29
444.571	-116
444.642	-632
444.714	-658
444.785	519
444.857	1264
444.928	5846
445.000	6563
445.071	4405
445.143	6916
445.214	5237
445.285	5228
445.357	15566
445.428	52116
445.500	187920
445.571	170422
445.642	87119
445.714	34923
445.785	19040
445.856	9525
445.928	2076
445.999	1567
446.070	306
446.141	828
446.213	1329
446.284	565
446.355	713
446.426	190
446.497	-122
446.569	1274
446.640	2281
446.711	2042
446.782	200
446.853	393
446.924	602
446.995	59
447.066	-428
447.138	1216
447.209	1357
447.280	-85
447.351	-994
447.422	-1126
447.493	-747
447.564	-369
447.635	-49
447.706	180
447.777	-1446
447.847	-1027
447.918	-1039
447.989	413
448.060	847
448.131	3039
448.202	5373
448.273	1416
448.344	628
448.414	-680
448.485	-448
448.556	-987
448.627	-881
448.698	-812
448.768	-1470
448.839	-683
448.910	202
448.981	2093
449.051	388
449.122	-1185
449.193	-1837
449.263	-281
449.334	-1213
449.405	-208
449.475	721
449.546	1609
449.616	1830
449.687	2796
449.758	1204
449.828	593
449.899	337
449.969	-877
450.040	-1098
450.110	189
450.181	341
450.251	62
450.322	-1239
450.392	-678
450.463	-118
450.533	-65
450.604	-649
450.674	-395
450.744	-494
450.815	-473
450.885	-586
450.955	-431
451.026	-1034
451.096	-402
451.166	-386
451.237	1001
451.307	7137
451.377	7479
451.447	253
451.518	-461
451.588	-347
451.658	-202
451.728	-438
451.799	6072
451.869	13708
451.939	7267
452.009	226
452.079	154
452.149	-391
452.219	87
452.289	7149
452.360	12690
452.430	5227
452.500	-1
452.570	-275
452.640	1434
452.710	4951
452.780	14455
452.850	12353
452.920	5667
452.990	2388
453.060	74
453.129	164
453.199	2143
453.269	6363
453.339	36879
453.409	67450
453.479	46959
453.549	63802
453.619	82184
453.688	60088
453.758	14909
453.828	1771
453.898	495
453.968	-346
454.037	458
454.087	270
454.107	159
454.168	-193
454.177	-282
454.247	485
454.249	476
454.316	-439
454.330	-239
454.386	452
454.411	1913
454.456	3198
454.492	6280
454.525	8750
454.574	7677
454.595	7342
454.655	1322
454.665	409
454.734	2124
454.736	2266
454.804	4643
454.817	6181
454.873	9324
454.898	12643
454.943	16698
454.979	13144
455.013	10534
455.060	5108
455.082	3429
455.141	4554
455.152	4707
455.221	10695
455.222	11127
455.291	19245
455.303	20355
455.360	25280
455.384	32233
455.430	43136
455.465	40147
455.499	37154
455.546	23372
455.569	15335
455.627	11913
455.638	11729
455.707	4860
455.708	4871
455.777	1318
455.789	1438
455.846	1626
455.869	1445
455.916	1190
455.950	1365
455.985	1378
456.031	975
456.054	709
456.112	1474
456.124	1655
456.193	989
456.193	955
456.262	2616
456.274	2902
456.332	3822
456.355	4308
456.401	3638
456.436	3004
456.470	2511
456.516	1413
456.540	1154
456.597	739
456.609	629
456.678	1102
456.678	1082
456.747	1282
456.759	1205
456.817	720
456.840	842
456.886	952
456.920	906
456.955	1035
457.001	1349
457.024	1918
457.082	3215
457.093	3537
457.162	6742
457.163	6820
457.232	6857
457.243	6673
457.301	3572
457.324	2334
457.370	1975
457.405	2356
457.439	2784
457.485	2330
457.508	2150
457.566	2493
457.577	2531
457.646	3179
457.647	3213
457.715	6133
457.727	6681
457.784	11971
457.808	15060
457.853	18865
457.889	23445
457.922	21665
457.969	15496
457.991	17076
458.050	20045
458.060	21363
458.129	34430
458.130	34955
458.198	32452
458.211	30851
458.267	20447
458.292	14125
458.336	10621
458.372	9131
458.405	10770
458.453	14333
458.474	19478
458.533	36930
458.543	38621
458.611	57002
458.614	57838
458.680	35908
458.694	29106
458.749	18518
458.775	12680
458.818	7715
458.855	6051
458.887	5080
458.936	4659
458.955	4426
459.016	4504
459.024	4485
459.093	3763
459.097	3771
459.162	4226
459.177	4218
459.230	4010
459.257	4271
459.299	4242
459.338	4220
459.368	4406
459.418	4392
459.437	4249
459.499	4214
459.505	4197
459.574	3786
459.579	3766
459.643	3549
459.659	3612
459.711	3938
459.740	3897
459.780	4266
459.820	5080
459.849	5473
459.900	5656
459.917	5424
459.981	5251
459.986	5199
460.054	4261
460.061	4183
460.123	4384
460.141	4357
460.191	4856
460.222	5557
460.260	6087
460.302	6567
460.328	6314
460.382	5479
460.397	5633
460.462	5805
460.465	5924
460.534	10525
460.543	10992
460.602	32377
460.623	40385
460.671	74665
460.703	100634
460.739	89018
460.783	78529
460.808	66113
460.864	19943
460.876	18232
460.944	7724
460.945	7591
461.013	5726
461.024	5608
461.081	5691
461.104	5661
461.150	5371
461.184	5298
461.218	5464
461.264	5338
461.286	5511
461.345	5854
461.355	5809
461.423	6794
461.425	6795
461.491	6944
461.505	7041
461.559	14295
461.585	17727
461.628	34744
461.665	49984
461.696	57162
461.745	70401
461.764	57567
461.825	15579
461.832	15528
461.901	9124
461.905	8845
461.969	6806
461.985	6710
462.037	6835
462.065	6870
462.105	8486
462.145	10195
462.173	15756
462.225	25919
462.241	30173
462.305	47597
462.310	45893
462.378	20369
462.385	17377
462.446	10917
462.465	8163
462.514	6978
462.545	7120
462.582	7282
462.625	7407
462.650	7229
462.705	7126
462.718	7372
462.785	8457
462.786	8570
462.854	15301
462.865	16311
462.922	21083
462.945	23442
462.990	16170
463.025	10021
463.058	9016
463.104	7030
463.126	6778
463.184	6370
463.194	6370
463.262	6595
463.264	6598
463.330	7590
463.344	7838
463.398	9309
463.424	9904
463.466	9894
463.504	9954
463.533	9845
463.583	9677
463.601	10057
463.663	11392
463.669	11815
463.737	16350
463.743	16779
463.805	26368
463.823	29101
463.873	50176
463.903	63061
463.940	69558
463.982	77118
464.008	59454
464.062	22355
464.076	20671
464.142	9044
464.144	8982
464.211	7576
464.221	7494
464.279	8351
464.301	8664
464.347	9689
464.381	10561
464.414	12541
464.461	15128
464.482	16158
464.540	18966
464.550	17908
464.617	10506
464.620	10212
464.685	10558
464.699	10669
464.753	13210
464.779	14534
464.820	16332
464.859	17996
464.888	18441
464.938	19037
464.956	19429
465.018	20748
465.023	20300
465.091	13971
465.098	13299
465.158	13103
465.177	12984
465.226	13632
465.257	14071
465.293	14926
465.336	15865
465.361	16507
465.416	17963
465.428	19631
465.495	28333
465.496	28563
465.563	57036
465.575	61855
465.631	81550
465.654	90024
465.698	54176
465.734	24272
465.765	20744
465.813	14283
465.833	14128
465.893	14373
465.900	14385
465.968	14493
465.972	14472
466.035	15184
466.052	15378
466.102	15394
466.131	15283
466.170	15891
466.210	16513
466.237	16828
466.290	17335
466.304	17581
466.369	18529
466.372	18626
466.439	20460
466.449	20681
466.506	23287
466.528	24246
466.573	31766
466.607	37302
466.641	58132
466.687	86922
466.708	99355
466.766	133263
466.775	123008
466.842	44186
466.845	40357
466.909	28297
466.925	25285
466.977	24225
467.004	23766
467.044	24353
467.083	24871
467.111	26133
467.163	28354
467.178	28906
467.242	30920
467.245	30845
467.312	27996
467.321	27561
467.379	27991
467.400	28064
467.446	30321
467.480	31846
467.559	28763
467.638	23339
467.717	23188
467.796	24621
467.875	25512
467.955	26308
468.034	39239
468.113	96958
468.192	167981
468.271	45036
468.350	24020
468.429	27213
468.508	27928
468.588	23148
468.667	21864
468.746	22304
468.825	21715
468.904	18678
468.983	22214
469.062	38434
469.141	51253
469.220	20422
469.299	16908
469.378	20388
469.456	20832
469.535	19788
469.614	21285
469.693	22704
469.772	28218
469.851	46074
469.930	31583
470.009	17455
470.088	16598
470.166	17180
470.245	19010
470.324	22338
470.403	20221
470.482	16504
470.560	15237
470.639	15986
470.718	18152
470.797	17529
470.875	21545
470.954	32812
471.033	40278
471.111	15811
471.190	14070
471.269	13544
471.347	14079
471.426	15504
471.505	18876
471.583	19191
471.662	17043
471.740	15855
471.819	15724
471.898	13721
471.976	14581
472.055	15098
472.133	17871
472.212	26718
472.290	31595
472.369	19295
472.447	15230
472.526	13698
472.604	13949
472.683	16142
472.761	16871
472.839	14824
472.918	13646
472.996	15022
473.075	19564
473.153	18776
473.231	15064
473.310	18012
473.388	17951
473.466	16719
473.545	16593
473.623	19386
473.701	19706
473.780	14608
473.858	14442
473.936	16763
474.014	15015
474.093	17996
474.171	29440
474.249	50067
474.327	31990
474.405	13800
474.484	13553
474.562	13757
474.640	14096
474.718	16307
474.796	17516
474.874	14940
474.952	14408
475.030	13532
475.108	15355
475.187	18723
475.265	20563
475.343	25923
475.421	30451
475.499	17463
475.577	16986
475.655	22749
475.733	52673
475.811	106584
475.889	100463
475.966	69044
476.044	16152
476.122	20360
476.200	25910
476.278	21871
476.356	14858
476.434	15694
476.512	19075
476.590	24976
476.667	23945
476.745	13698
476.823	14139
476.901	15305
476.979	16845
477.056	14712
477.134	15662
477.212	15230
477.290	13613
477.367	13168
477.445	13576
477.523	13670
477.601	12718
477.678	13145
477.756	18988
477.834	24437
477.911	14276
477.989	13993
478.066	13886
478.144	17666
478.222	18306
478.299	27936
478.377	29657
478.454	13935
478.532	11645
478.609	11482
478.687	13571
478.764	12029
478.842	12617
478.919	13073
478.997	13837
479.074	12576
479.152	17172
479.229	26851
479.307	15686
479.384	11273
479.461	11036
479.539	13019
479.616	18749
479.694	14631
479.771	16883
479.848	16542
479.926	26755
480.003	30524
480.080	11897
480.157	11729
480.235	12443
480.312	11445
480.389	16066
480.467	30534
480.544	44135
480.621	18380
480.698	14936
480.775	16885
480.853	19845
480.930	14106
481.007	15242
481.084	19881
481.161	23079
481.238	21145
481.315	13208
481.392	12705
481.470	13270
481.547	13935
481.624	13452
481.701	12839
481.778	14265
481.855	17770
481.932	27731
482.009	55036
482.086	41317
482.163	16085
482.240	19826
482.317	35644
482.393	30862
482.470	15710
482.547	16217
482.624	14210
482.701	13211
482.778	13740
482.855	11775
482.932	11813
483.009	11921
483.085	13208
483.162	16883
483.239	16663
483.316	13155
483.393	13203
483.469	12944
483.546	16662
483.623	18798
483.699	13501
483.776	14635
483.853	17364
483.930	23870
484.006	69941
484.083	151379
484.160	56104
484.236	60313
484.313	49552
484.389	38211
484.466	32839
484.543	31735
484.619	33832
484.696	35073
484.772	37909
484.849	43390
484.925	31894
485.002	29521
485.078	30112
485.155	30405
485.231	28291
485.308	28623
485.384	30803
485.461	39059
485.537	74298
485.614	107349
485.690	33712
485.766	26787
485.843	26622
485.919	31570
485.995	34715
486.072	25077
486.148	24558
486.224	22909
486.301	26271
486.377	31182
486.453	29980
486.530	27938
486.606	37277
486.682	44408
486.758	60342
486.835	82501
486.911	53166
486.987	99005
487.063	77642
487.139	65526
487.215	54327
487.292	33306
487.368	29859
487.444	32709
487.520	36983
487.596	41804
487.672	57934
487.748	138449
487.824	255262
487.900	106442
487.976	41110
488.052	34476
488.128	35261
488.204	31711
488.280	30423
488.356	35774
488.432	82824
488.508	164836
488.584	47834
488.660	23901
488.736	24669
488.812	23650
488.888	28972
488.964	33152
489.039	52745
489.115	84468
489.191	60513
489.267	27879
489.343	26871
489.418	21846
489.494	20416
489.570	19630
489.646	21597
489.722	22040
489.797	24841
489.873	38691
489.949	107775
490.024	104663
490.100	24597
490.176	21499
490.251	22716
490.327	27927
490.403	19863
490.478	18322
490.554	16431
490.629	16727
490.705	16543
490.781	18760
490.856	20015
490.932	22094
491.007	19883
491.083	22775
491.158	22193
491.234	29167
491.309	78459
491.385	96542
491.460	24167
491.536	23416
491.611	19053
491.686	18892
491.762	23520
491.837	35112
491.913	66487
491.988	90014
492.063	112134
492.139	55128
492.214	39726
492.289	16208
492.365	14331
492.440	18719
492.515	20184
492.590	22209
492.666	16087
492.741	22420
492.816	48377
492.891	25098
492.967	13792
493.042	13485
493.117	16012
493.192	16207
493.267	24977
493.342	78521
493.418	146214
493.493	37117
493.568	13533
493.643	13846
493.718	19856
493.793	32219
493.868	30412
493.943	14940
494.018	13843
494.093	15235
494.168	15658
494.243	12756
494.318	11442
494.393	10750
494.468	11418
494.543	12063
494.618	13390
494.693	13306
494.768	13380
494.842	14769
494.917	10922
494.992	12207
495.067	11529
495.142	10338
495.217	12478
495.292	11014
495.366	14677
495.441	18022
495.516	21636
495.591	25176
495.665	59564
495.740	165741
495.815	85356
495.890	22631
495.964	19327
496.039	19620
496.114	18602
496.188	22039
496.263	22688
496.338	18800
496.412	22573
496.487	26737
496.561	23466
496.636	24947
496.710	22508
496.785	24566
496.860	31397
496.934	23547
497.009	21365
497.083	22974
497.158	23110
497.232	27691
497.307	37944
497.381	31947
497.455	38140
497.530	58483
497.604	40018
497.679	40896
497.753	63489
497.827	90148
497.902	82968
497.976	92844
498.050	157486
498.125	609647
498.199	790216
498.273	124618
498.348	85127
498.422	71580
498.496	63878
498.570	58075
498.645	49895
498.719	49385
498.793	53927
498.867	78766
498.941	105110
499.016	215227
499.090	765761
499.164	314111
499.238	36791
499.312	25892
499.386	28198
499.460	29448
499.534	28160
499.609	33755
499.683	57260
499.757	59659
499.831	97446
499.905	443808
499.979	540998
500.053	77324
500.127	65772
500.201	34408
500.275	24637
500.349	24307
500.422	29142
500.496	38887
500.570	69971
500.644	198938
500.718	560907
500.792	131147
500.866	28166
500.940	37703
501.013	31291
501.087	26363
501.161	40720
501.235	60517
501.309	141872
501.382	427655
501.456	458019
501.530	77094
501.603	159533
501.677	64460
501.751	23164
501.825	27248
501.898	49839
501.972	179939
502.046	136250
502.119	30730
502.193	59682
502.266	204512
502.340	108092
502.413	72210
502.487	181612
502.561	112858
502.634	30462
502.708	17005
502.781	15059
502.855	13328
502.928	12755
503.002	12737
503.075	13866
503.149	15292
503.222	16166
503.295	19161
503.369	26154
503.442	36461
503.516	106727
503.589	364975
503.662	265928
503.736	65033
503.809	153241
503.882	141828
503.956	164626
504.029	186194
504.102	85146
504.175	125170
504.249	56958
504.322	31275
504.395	26919
504.468	17204
504.542	18064
504.615	12686
504.688	10516
504.761	10827
504.834	14059
504.907	12731
504.980	19914
505.053	13543
505.127	13454
505.200	18065
505.273	27969
505.346	17056
505.419	12354
505.492	10284
505.565	8933
505.638	8401
505.711	9090
505.784	9492
505.857	8910
505.930	10429
506.003	9923
506.076	12166
506.149	17883
506.221	29023
506.294	21922
506.367	52013
506.440	228843
506.513	144605
506.586	27489
506.659	15368
506.731	9949
506.804	12077
506.877	16308
506.950	15882
507.022	8863
507.095	15261
507.168	21623
507.241	10355
507.313	8060
507.386	8543
507.459	11223
507.531	8139
507.604	7555
507.677	8072
507.749	6892
507.822	9106
507.894	17018
507.967	24396
508.040	15852
508.112	12157
508.185	12096
508.257	10507
508.330	15022
508.402	12622
508.475	13430
508.547	14741
508.620	13758
508.692	27695
508.765	16969
508.837	10514
508.909	9463
508.982	8972
509.054	10270
509.127	9695
509.199	9236
509.271	8399
509.344	8233
509.416	8741
509.488	9248
509.560	8746
509.633	9140
509.705	11865
509.777	10666
509.849	14181
509.922	11367
509.994	9612
510.066	9663
510.138	10925
510.210	19976
510.283	21505
510.355	16552
510.427	13480
510.499	12824
510.571	11747
510.643	12002
510.715	15986
510.787	15122
510.859	13625
510.931	16846
511.003	16695
511.076	16401
511.148	13111
511.219	13575
511.291	24153
511.363	36430
511.435	13053
511.507	11000
511.579	11328
511.651	11488
511.723	11062
511.795	11576
511.867	11940
511.939	15421
512.010	41480
512.082	37013
512.154	12845
512.226	13304
512.298	14704
512.369	24167
512.441	19525
512.513	17306
512.585	15687
512.656	14046
512.728	16577
512.800	13464
512.871	12248
512.943	13275
513.015	10880
513.086	11181
513.158	12910
513.230	13309
513.301	17290
513.373	19340
513.444	12444
513.516	10451
513.588	11908
513.659	11845
513.731	14462
513.802	13652
513.874	18095
513.945	34758
514.016	16239
514.088	11484
514.159	12554
514.231	14631
514.302	21677
514.374	17685
514.445	18436
514.516	43756
514.588	38278
514.659	19039
514.730	39519
514.802	30553
514.873	21923
514.944	24734
515.016	19825
515.087	18629
515.158	24770
515.229	45447
515.301	25699
515.372	38558
515.443	27818
515.514	17596
515.585	13399
515.656	12759
515.728	10994
515.799	12210
515.870	11209
515.941	11615
516.012	11677
516.083	14967
516.154	16839
516.225	18815
516.296	16295
516.367	15433
516.438	16662
516.509	19673
516.580	25100
516.651	51852
516.722	201564
516.793	133008
516.864	28966
516.935	30094
517.006	33945
517.077	41629
517.148	73317
517.219	196699
517.289	455342
517.360	256859
517.431	107804
517.502	21617
517.573	19009
517.643	17358
517.714	20278
517.785	20600
517.856	19440
517.926	22858
517.997	24383
518.068	29744
518.138	39183
518.209	51500
518.280	130967
518.350	581006
518.421	327462
518.492	42674
518.562	30543
518.633	35367
518.703	35447
518.774	55038
518.845	128349
518.915	154984
518.986	56777
519.056	35673
519.127	43764
519.197	66510
519.268	205389
519.338	183817
519.408	34742
519.479	24938
519.549	20825
519.620	15956
519.690	13387
519.760	13573
519.831	12987
519.901	13827
519.971	11734
520.042	14453
520.112	18853
520.182	16231
520.253	16179
520.323	13929
520.393	15026
520.463	21023
520.534	15795
520.604	32590
520.674	20690
520.744	21429
520.814	34956
520.885	37913
520.955	57628
521.025	272725
521.095	138790
521.165	19414
521.235	17719
521.305	14458
521.375	11641
521.445	11920
521.515	14703
521.585	14440
521.655	15160
521.725	13739
521.795	14576
521.865	12080
521.935	21579
522.005	23326
522.075	12182
522.145	13062
522.215	16787
522.285	26932
522.355	34490
522.424	74817
522.494	72351
522.564	26145
522.634	26821
522.704	66558
522.774	36600
522.843	13420
522.913	11917
522.983	13761
523.053	12163
523.122	12375
523.192	13482
523.262	33156
523.331	44918
523.401	12230
523.471	9614
523.540	10250
523.610	8412
523.680	8829
523.749	9509
523.819	14014
523.888	18046
523.958	9970
524.027	9739
524.097	11117
524.166	9658
524.236	9479
524.305	10843
524.375	10337
524.444	9395
524.514	10969
524.583	11299
524.653	16568
524.722	19177
524.791	12279
524.861	10971
524.930	9590
524.999	10038
525.069	13966
525.138	13548
525.207	19727
525.277	12569
525.346	11140
525.415	11129
525.484	11113
525.554	15187
525.623	16263
525.692	14340
525.761	16252
525.830	15764
525.900	20661
525.969	31148
526.038	50676
526.107	79906
526.176	260783
526.245	273086
526.314	81902
526.383	128631
526.452	217459
526.522	276277
526.591	402411
526.660	88186
526.729	46691
526.797	49799
526.867	76054
526.935	243398
527.004	625042
527.073	526103
527.142	53618
527.211	22467
527.280	16025
527.349	16189
527.418	10805
527.487	10662
527.555	9854
527.624	8835
527.693	8481
527.762	9178
527.831	7904
527.899	7996
527.968	9017
528.037	8585
528.106	10248
528.174	15987
528.243	18270
528.312	23068
528.380	31622
528.449	12235
528.518	8101
528.586	5809
528.655	6544
528.723	6919
528.792	6896
528.861	8497
528.929	7698
528.998	7173
529.066	6719
529.135	7230
529.203	7095
529.272	5762
529.340	6741
529.409	7981
529.477	7897
529.545	11203
529.614	15276
529.682	13338
529.751	21209
529.819	17062
529.887	12891
529.956	7369
530.024	8119
530.092	6877
530.161	8549
530.229	10364
530.297	7939
530.365	6829
530.434	5839
530.502	5601
530.570	5436
530.638	5530
530.707	6350
530.775	8609
530.843	6799
530.911	6968
530.979	6099
531.047	6648
531.115	6983
531.183	7271
531.252	6534
531.320	7156
531.388	6115
531.456	6650
531.524	5591
531.592	6994
531.660	7478
531.728	6937
531.796	6042
531.864	5786
531.932	7129
532.000	6442
532.067	7309
532.135	7423
532.203	8665
532.271	9349
532.339	13105
532.407	28946
532.475	22758
532.542	11803
532.610	12441
532.678	14394
532.746	35118
532.814	128161
532.881	42220
532.949	9286
533.017	8581
533.084	8017
533.152	7214
533.220	7210
533.287	7384
533.355	6658
533.423	7444
533.490	7024
533.558	7141
533.625	8346
533.693	9645
533.761	8604
533.828	9676
533.896	7643
533.963	12557
534.031	16664
534.098	21215
534.166	15432
534.233	8891
534.300	9706
534.368	9378
534.435	10192
534.503	10306
534.570	10405
534.637	11732
534.705	13795
534.772	16899
534.840	25982
534.907	96894
534.974	192618
535.041	30287
535.109	17802
535.176	11519
535.243	8509
535.310	8222
535.378	8694
535.445	7457
535.512	7096
535.579	7880
535.646	7793
535.714	8523
535.781	10609
535.848	11168
535.915	10609
535.982	11024
536.049	9525
536.116	10762
536.183	8947
536.250	8826
536.317	9238
536.384	10277
536.451	13155
536.518	14643
536.585	11444
536.652	14479
536.719	16152
536.786	14712
536.853	12611
536.920	15896
536.987	25852
537.053	20654
537.120	51170
537.187	66761
537.254	11995
537.321	9053
537.388	11064
537.454	9045
537.521	8375
537.588	8753
537.654	10693
537.721	11743
537.788	12752
537.855	10338
537.921	9413
537.988	9383
538.055	9067
538.121	9608
538.188	9997
538.254	11518
538.321	21024
538.388	16298
538.454	11070
538.521	10229
538.587	9462
538.654	8959
538.720	8731
538.787	8659
538.853	10209
538.920	13310
538.986	13322
539.053	11795
539.119	11134
539.185	10708
539.252	10397
539.318	13665
539.385	13926
539.451	13729
539.517	12767
539.583	13197
539.650	19870
539.716	51021
539.782	22082
539.849	10405
539.915	10750
539.981	10399
540.047	10880
540.114	10869
540.180	11660
540.246	10385
540.312	12778
540.378	20383
540.444	25835
540.510	19010
540.576	49710
540.643	25848
540.709	10250
540.775	10837
540.841	10108
540.907	13408
540.973	23070
541.039	16145
541.105	16209
541.171	11866
541.237	10233
541.303	11697
541.369	13263
541.435	13091
541.500	17893
541.566	15155
541.632	8935
541.698	8619
541.764	8953
541.830	9393
541.896	10030
541.961	9742
542.027	10061
542.093	10631
542.159	10256
542.224	11267
542.290	14610
542.356	19618
542.421	23885
542.487	13559
542.553	11169
542.618	13186
542.684	11100
542.750	10386
542.815	12187
542.881	17602
542.947	42324
543.012	39358
543.078	11312
543.143	9864
543.209	11104
543.274	10524
543.340	10819
543.405	16501
543.471	30880
543.536	11271
543.602	10982
543.667	10498
543.732	10553
543.798	9856
543.863	11110
543.928	8377
543.994	9811
544.059	9943
544.124	9195
544.190	9311
544.255	9977
544.320	10222
544.386	10084
544.451	12693
544.516	15510
544.581	13958
544.646	26000
544.712	49488
544.777	18203
544.842	13607
544.907	16392
544.972	14420
545.037	12787
545.102	14346
545.168	13972
545.233	14974
545.298	15066
545.363	17312
545.428	17921
545.493	20277
545.558	37834
545.623	25438
545.688	15070
545.753	14711
545.818	14405
545.883	15280
545.947	14908
546.012	16522
546.077	18689
546.142	16262
546.207	15401
546.272	17267
546.337	18832
546.401	17555
546.466	17288
546.531	16232
546.596	18206
546.661	17965
546.725	17754
546.790	17436
546.855	19359
546.919	18871
546.984	22350
547.049	23373
547.113	28555
547.178	28549
547.243	30547
547.307	35918
547.372	38091
547.436	44471
547.501	38439
547.565	39202
547.630	38257
547.695	38564
547.759	44018
547.823	42254
547.888	37161
547.952	37316
548.017	39053
548.081	43469
548.146	50096
548.210	49582
548.274	41864
548.339	41183
548.403	37600
548.468	35020
548.532	34260
548.596	35833
548.660	36136
548.725	39149
548.789	44790
548.853	48466
548.917	41107
548.982	47269
549.046	50204
549.110	34213
549.174	33662
549.238	35281
549.303	37681
549.367	39804
549.431	39189
549.495	38226
549.559	36364
549.623	42537
549.687	47517
549.751	47967
549.815	52926
549.879	54786
549.943	50189
550.007	54317
550.071	54464
550.135	52873
550.199	48307
550.263	46186
550.327	46662
550.391	55001
550.455	53018
550.519	50548
550.582	52565
550.646	62201
550.710	65072
550.774	60236
550.838	60486
550.901	62707
550.965	68268
551.029	71080
551.093	78087
551.156	91535
551.220	122121
551.284	154149
551.347	99146
551.411	114895
551.475	142856
551.538	73080
551.602	63782
551.666	58564
551.729	55371
551.793	53208
551.856	53574
551.920	51306
551.983	52042
552.047	51367
552.110	50618
552.174	51171
552.237	53459
552.301	49319
552.364	46948
552.428	46346
552.491	45776
552.554	48985
552.618	47441
552.681	49888
552.745	49005
552.808	51154
552.871	60007
552.934	54260
552.998	49357
553.061	49424
553.124	48499
553.187	46296
553.251	48456
553.314	51467
553.377	51166
553.440	57239
553.503	80434
553.567	142165
553.630	73626
553.693	51485
553.756	50617
553.819	49171
553.882	49341
553.945	46781
554.008	47433
554.071	46734
554.134	49342
554.197	46325
554.260	44103
554.323	45759
554.386	45533
554.449	47247
554.512	48303
554.575	44593
554.638	45506
554.701	44388
554.764	44782
554.827	44121
554.889	41959
554.952	39359
555.015	38747
555.078	38775
555.141	39360
555.203	38471
555.266	38714
555.329	39728
555.391	37190
555.454	36599
555.517	37471
555.580	35718
555.642	33309
555.705	33395
555.768	33558
555.830	33688
555.893	30774
555.955	30362
556.018	30397
556.080	29963
556.143	30819
556.206	31157
556.268	30323
556.330	30279
556.393	30060
556.455	30096
556.518	35433
556.580	40378
556.643	26461
556.705	25684
556.767	25201
556.830	25611
556.892	25285
556.955	28454
557.017	27624
557.079	25078
557.142	23566
557.204	24067
557.266	30341
557.328	30578
557.391	22035
557.453	20865
557.515	20725
557.577	21640
557.639	23614
557.701	21558
557.764	22059
557.826	22055
557.888	26096
557.950	25706
558.012	27805
558.074	34717
558.136	57623
558.198	174472
558.260	94905
558.322	29215
558.384	28265
558.446	32929
558.508	39020
558.570	47807
558.632	61949
558.694	88478
558.756	117712
558.818	257760
558.880	851647
558.942	411287
559.003	184151
559.065	130271
559.127	44811
559.189	43653
559.251	51336
559.312	69809
559.374	131028
559.436	473933
559.498	385357
559.559	57349
559.621	45388
559.683	51190
559.744	74959
559.806	189682
559.868	423101
559.929	114708
559.991	46542
560.052	57984
560.114	152433
560.176	146391
560.237	79243
560.299	171181
560.360	58277
560.422	20658
560.483	17896
560.545	16878
560.606	15603
560.667	15682
560.729	14777
560.790	13973
560.852	14352
560.913	13779
560.974	13951
561.036	12539
561.097	13260
561.158	13822
561.220	14381
561.281	12945
561.342	13404
561.403	15279
561.465	15415
561.526	23155
561.587	34751
561.648	17068
561.709	13034
561.771	12785
561.832	12219
561.893	11751
561.954	12121
562.015	11820
562.076	12301
562.137	11112
562.198	12492
562.259	11986
562.320	10628
562.381	12307
562.442	13865
562.503	13923
562.564	12354
562.625	11041
562.686	11764
562.747	11128
562.808	12644
562.869	12189
562.930	15886
562.991	15877
563.051	13717
563.112	13236
563.173	12029
563.234	10917
563.294	11442
563.355	11483
563.416	12194
563.477	11471
563.537	11448
563.598	13463
563.659	12538
563.720	11535
563.780	11865
563.841	12573
563.901	12409
563.962	12532
564.023	12699
564.083	12680
564.144	13161
564.204	13487
564.265	13998
564.325	15565
564.386	29936
564.446	35408
564.507	13164
564.567	12242
564.628	12478
564.688	12230
564.749	11977
564.809	14811
564.869	17377
564.930	13795
564.990	11965
565.050	10411
565.111	11300
565.171	11909
565.231	11944
565.292	11689
565.352	10986
565.412	11219
565.472	12115
565.532	12312
565.593	13000
565.653	11912
565.713	11421
565.773	13056
565.833	12729
565.893	16122
565.953	13268
566.013	13200
566.074	15065
566.134	18163
566.194	28271
566.254	33438
566.314	21846
566.374	16030
566.434	15279
566.494	16304
566.554	16265
566.614	16473
566.673	17325
566.733	17997
566.793	19582
566.853	20054
566.913	20423
566.973	20849
567.033	21343
567.092	20160
567.152	19923
567.212	20779
567.272	22638
567.331	24349
567.391	25141
567.451	27703
567.511	32467
567.570	36279
567.630	24581
567.690	21441
567.749	23215
567.809	25696
567.868	27733
567.928	31686
567.988	40705
568.047	46006
568.107	55483
568.166	74311
568.226	109038
568.285	165531
568.345	163831
568.404	129557
568.464	107550
568.523	96728
568.582	96466
568.642	104076
568.701	126274
568.761	174595
568.820	269616
568.879	310996
568.939	246864
568.998	176704
569.057	127604
569.116	98365
569.176	75034
569.235	61577
569.294	52159
569.353	43751
569.413	38299
569.472	35310
569.531	30934
569.590	27694
569.649	24962
569.708	23205
569.767	22127
569.827	19981
569.886	19147
569.945	18084
570.004	17634
570.063	17087
570.122	17520
570.181	17844
570.240	18545
570.299	18972
570.358	16296
570.417	15081
570.475	14924
570.534	13783
570.593	14788
570.652	14573
570.711	13704
570.770	13545
570.829	16465
570.887	14281
570.946	13580
571.005	12099
571.064	12583
571.122	12189
571.181	14496
571.240	13627
571.299	11957
571.357	12524
571.416	13556
571.475	14262
571.533	16914
571.592	13332
571.650	13970
571.709	12458
571.768	11704
571.826	11679
571.885	10923
571.943	10901
572.002	10905
572.060	11579
572.119	10100
572.177	10595
572.236	9785
572.294	9316
572.352	10244
572.411	9337
572.469	9861
572.528	9842
572.586	9884
572.644	9006
572.703	10749
572.761	10331
572.819	8928
572.877	9214
572.936	9090
572.994	9172
573.052	9104
573.110	8893
573.169	8883
573.227	9347
573.285	8968
573.343	8838
573.401	8931
573.459	9550
573.517	8920
573.576	10098
573.634	9877
573.692	9200
573.750	9017
573.808	8876
573.866	10535
573.924	13003
573.982	14135
574.040	10503
574.098	9866
574.155	9101
574.213	8649
574.271	8114
574.329	9020
574.387	7737
574.445	7363
574.503	8159
574.560	7867
574.618	8083
574.676	7660
574.734	8046
574.792	8020
574.849	7715
574.907	7663
574.965	7616
575.022	7097
575.080	6731
575.138	7671
575.195	8024
575.253	7983
575.311	9366
575.368	7825
575.426	7514
575.483	7520
575.541	7140
575.598	7425
575.656	8104
575.713	8175
575.771	7611
575.828	8844
575.886	8170
575.943	9191
576.001	8821
576.058	8383
576.115	9385
576.173	11487
576.230	12478
576.287	12316
576.345	10518
576.402	9879
576.459	9573
576.517	9860
576.574	9673
576.631	11197
576.688	10065
576.746	9456
576.803	8973
576.860	8279
576.917	8906
576.974	8899
577.031	8886
577.089	9118
577.146	8547
577.203	9274
577.260	9831
577.317	9769
577.374	11372
577.431	11214
577.488	9253
577.545	9285
577.602	8495
577.659	8805
577.716	8581
577.773	9832
577.830	9390
577.886	9008
577.943	9337
578.000	8357
578.057	10252
578.114	9734
578.171	9808
578.227	10436
578.284	10187
578.341	10320
578.398	10238
578.454	11052
578.511	12013
578.568	12748
578.625	12090
578.681	10179
578.738	7808
578.794	8371
578.851	8341
578.908	9018
578.964	8164
579.021	9651
579.077	8881
579.134	8335
579.190	7933
579.247	8693
579.303	8554
579.360	8441
579.416	8323
579.473	8950
579.529	8373
579.586	8538
579.642	7904
579.698	8769
579.755	9679
579.811	9720
579.867	9230
579.924	8752
579.980	8954
580.036	10733
580.093	11122
580.149	12972
580.205	14951
580.261	14312
580.317	11515
580.374	11519
580.430	13450
580.486	13736
580.542	10519
580.598	10788
580.619	10497
580.654	10006
580.692	9586
580.710	9395
580.765	9828
580.767	9851
580.823	9800
580.838	9868
580.879	10108
580.911	9545
580.935	9155
580.984	9816
580.991	9915
581.047	10244
581.057	10181
581.103	9972
581.130	10112
581.159	10268
581.203	10926
581.215	11119
581.270	11115
581.276	11032
581.326	10301
581.349	10492
581.382	10818
581.422	10726
581.438	10686
581.494	10518
581.494	10513
581.550	10997
581.567	10798
581.606	10337
581.640	9956
581.661	9778
581.713	11084
581.717	11188
581.773	10134
581.786	10173
581.829	10352
581.859	9998
581.885	9687
581.932	10085
581.940	10172
581.996	10546
582.004	10541
582.052	10574
582.077	10537
582.107	10496
582.150	10146
582.163	10031
582.219	10417
582.223	10435
582.274	10839
582.296	10652
582.330	10340
582.368	11182
582.386	11562
582.441	10098
582.441	10100
582.497	10931
582.514	10849
582.552	10673
582.587	11249
582.608	11605
582.659	11160
582.663	11130
582.719	11067
582.732	10965
582.774	10528
582.805	10747
582.830	11004
582.877	11020
582.885	11028
582.941	10965
582.950	10953
582.996	10907
583.023	11128
583.052	11357
583.095	12498
583.107	12842
583.162	13081
583.168	13227
583.218	14377
583.240	13610
583.273	12423
583.313	12197
583.328	12160
583.384	11636
583.385	11642
583.439	11735
583.458	11847
583.494	12149
583.531	11827
583.549	11633
583.603	11066
583.605	11044
583.660	11569
583.676	11523
583.715	11487
583.748	11326
583.770	11222
583.820	12415
583.825	12526
583.881	12386
583.893	12373
583.936	12331
583.965	12223
583.991	12195
584.038	12586
584.046	12622
584.101	12100
584.110	12109
584.156	12154
584.183	12274
584.211	12419
584.255	12477
584.266	12505
584.321	12727
584.328	12715
584.376	12532
584.400	12703
584.431	12868
584.472	13015
584.486	13083
584.541	12888
584.545	12911
584.596	13304
584.617	13505
584.651	13741
584.689	14015
584.706	14218
584.761	14041
584.762	14055
584.816	14896
584.834	14829
584.871	14804
584.906	14981
584.926	14965
584.978	15197
584.980	15220
585.035	15790
585.051	16109
585.090	16758
585.123	17461
585.145	17846
585.195	18692
585.200	18817
585.254	20556
585.267	21179
585.309	23345
585.340	25521
585.364	27113
585.412	29119
585.419	29208
585.473	29578
585.484	30229
585.528	33593
585.556	37218
585.583	42215
585.628	56388
585.637	61003
585.692	107551
585.700	121311
585.747	201213
585.772	190682
585.801	151004
585.845	69691
585.856	52813
585.910	29929
585.917	28218
585.965	25275
585.989	24440
586.019	23636
586.061	22853
586.074	22721
586.128	23074
586.133	23082
586.183	22923
586.205	23270
586.237	23828
586.277	24476
586.292	24718
586.346	25440
586.349	25501
586.401	26040
586.421	26306
586.455	26917
586.493	28030
586.509	28589
586.564	31540
586.565	31734
586.618	40292
586.637	41865
586.672	42919
586.709	36471
586.727	33101
586.781	31715
586.781	31693
586.835	31477
586.853	31518
586.889	31410
586.925	31262
586.944	31214
586.996	32476
586.998	32508
587.052	34198
587.068	34490
587.106	35102
587.140	36309
587.161	36840
587.212	37129
587.215	37137
587.269	39103
587.284	39679
587.323	41346
587.356	42593
587.377	43226
587.427	44804
587.431	44948
587.485	47836
587.499	48531
587.539	50129
587.571	52009
587.593	53707
587.643	57599
587.648	57909
587.702	60955
587.715	62166
587.755	66379
587.786	69467
587.810	71599
587.858	76151
587.864	76729
587.917	83685
587.930	85379
587.971	91819
588.001	97905
588.025	103407
588.073	114271
588.079	115646
588.133	128561
588.145	132095
588.187	146115
588.217	157340
588.241	167330
588.288	187779
588.295	190909
588.348	222537
588.360	230044
588.402	261301
588.431	285590
588.456	307889
588.503	356225
588.510	364175
588.564	437625
588.575	455288
588.617	535631
588.646	598123
588.671	668712
588.718	821934
588.725	855002
588.778	1140514
588.789	1205385
588.832	1574950
588.861	1824650
588.886	2034724
588.932	2332148
588.939	2317538
588.993	2017392
589.004	2010541
589.047	2175906
589.075	2281289
589.100	2170386
589.147	1756649
589.154	1695340
589.207	1226735
589.218	1141734
589.261	989798
589.290	908922
589.314	902179
589.361	916951
589.368	936461
589.421	1138518
589.433	1188816
589.475	1539625
589.504	1786848
589.528	1957723
589.576	2150335
589.582	2132782
589.635	2031829
589.647	2008663
589.689	1725841
589.718	1439167
589.742	1195887
589.790	744591
589.795	717689
589.849	506620
589.861	462342
589.902	380825
589.932	325085
589.955	297065
590.004	242553
590.009	238347
590.062	199468
590.075	190757
590.115	171389
590.146	157524
590.168	149738
590.218	133138
590.222	131937
590.275	119087
590.289	116024
590.328	108971
590.360	103000
590.381	99281
590.431	91197
590.435	90634
590.488	82313
590.503	80379
590.541	77117
590.574	74125
590.594	72063
590.645	67122
590.647	66913
590.700	62854
590.716	61788
590.753	59744
590.787	57757
590.806	56466
590.859	53363
590.859	53274
590.912	50317
590.930	49367
590.965	48597
591.001	48142
591.018	47440
591.071	45263
591.072	45277
591.124	43101
591.143	42361
591.177	41532
591.214	40875
591.230	40666
591.283	40009
591.285	40010
591.336	38673
591.356	38260
591.389	37664
591.427	36801
591.442	36292
591.495	34650
591.498	34561
591.547	33776
591.569	33419
591.600	32937
591.640	32481
591.653	32174
591.706	31009
591.711	30907
591.759	30714
591.782	30705
591.811	30400
591.853	30148
591.864	30087
591.917	29661
591.924	29637
591.969	28706
591.995	28280
592.022	27948
592.066	27470
592.075	27550
592.127	28279
592.137	28459
592.180	29118
592.208	29574
592.233	28813
592.279	27307
592.285	27161
592.338	26338
592.350	26180
592.390	25514
592.421	25066
592.443	25121
592.491	25367
592.495	25263
592.548	24188
592.562	23928
592.600	23757
592.633	23665
592.653	23304
592.704	22332
592.705	22469
592.775	23022
592.846	21941
592.916	21338
592.987	22797
593.058	22579
593.128	21829
593.199	21732
593.270	20922
593.341	21187
593.411	20262
593.482	20227
593.553	20049
593.623	19861
593.694	20663
593.764	20885
593.835	20515
593.906	20001
593.976	19564
594.047	20245
594.117	20756
594.188	22160
594.258	20429
594.329	20094
594.399	20113
594.470	19764
594.540	20606
594.611	19796
594.681	20128
594.751	20407
594.822	21140
594.892	22006
594.963	20687
595.033	20357
595.103	21405
595.174	22099
595.244	23145
595.314	27196
595.384	23903
595.455	21392
595.525	22214
595.595	23364
595.665	22710
595.736	21944
595.806	22183
595.876	21942
595.946	22814
596.016	22375
596.087	23015
596.157	22717
596.227	23781
596.297	23539
596.367	24613
596.437	27042
596.507	26863
596.577	29451
596.647	27302
596.717	25934
596.787	27445
596.857	26613
596.927	27127
596.997	27805
597.067	27585
597.137	28129
597.207	28135
597.277	28114
597.347	27130
597.417	26352
597.487	25733
597.557	27080
597.626	27920
597.696	27999
597.766	27961
597.836	29756
597.906	27073
597.975	24943
598.045	24191
598.115	25440
598.185	26019
598.254	27349
598.324	30179
598.394	30929
598.464	29924
598.533	30308
598.603	28891
598.672	28070
598.742	28381
598.812	28215
598.881	28484
598.951	28477
599.020	29354
599.090	29548
599.159	30251
599.229	29460
599.299	27988
599.368	29200
599.437	29061
599.507	27256
599.576	27106
599.646	26179
599.715	27585
599.785	25690
599.854	24876
599.924	25420
599.993	24772
600.062	24789
600.132	24795
600.201	26058
600.270	28076
600.340	30688
600.409	30389
600.478	29866
600.547	30130
600.617	30698
600.686	25323
600.755	22278
600.824	20691
600.894	21237
600.963	21788
601.032	20620
601.101	20009
601.170	20106
601.239	19494
601.308	19006
601.378	19444
601.447	18561
601.516	18797
601.585	18615
601.654	20392
601.723	20086
601.792	20448
601.861	20973
601.930	22352
601.999	22908
602.068	21869
602.137	21265
602.206	22028
602.275	21522
602.343	21586
602.412	22778
602.481	21589
602.550	22217
602.619	21491
602.688	22518
602.756	21923
602.825	23113
602.894	23015
602.963	22997
603.032	23396
603.100	23287
603.169	23790
603.238	22783
603.307	24052
603.375	23861
603.444	23965
603.513	25170
603.581	24499
603.650	25525
603.719	24179
603.787	25453
603.856	25068
603.924	24774
603.993	26540
604.061	27315
604.130	28652
604.198	28235
604.267	28303
604.335	29940
604.404	29208
604.472	29798
604.541	30402
604.609	30396
604.678	31074
604.746	31377
604.815	31498
604.883	32577
604.951	32301
605.020	32582
605.088	33329
605.156	33882
605.225	34800
605.293	34814
605.361	33880
605.429	34375
605.498	34540
605.566	35567
605.634	37089
605.702	38941
605.771	40065
605.839	40902
605.907	40498
605.975	39089
606.043	37733
606.111	38348
606.180	37651
606.248	38443
606.316	40393
606.384	38129
606.452	37697
606.520	38276
606.588	39237
606.656	39665
606.724	39295
606.792	36731
606.860	35195
606.928	31281
606.996	28907
607.064	28681
607.132	28435
607.200	29889
607.267	30497
607.335	31003
607.403	33446
607.471	33100
607.539	30874
607.607	32644
607.674	29677
607.742	27866
607.810	27410
607.878	28990
607.946	27923
608.013	29219
608.081	29501
608.149	30030
608.216	31074
608.284	32368
608.352	31193
608.419	32060
608.487	33653
608.555	32044
608.622	31411
608.690	32048
608.757	35595
608.825	37740
608.893	37136
608.960	35547
609.028	33552
609.095	35312
609.163	34798
609.230	32020
609.298	29003
609.365	27613
609.432	29576
609.500	31727
609.567	35388
609.635	41193
609.702	45968
609.769	44731
609.837	40074
609.904	31486
609.971	31224
610.039	34005
610.106	39672
610.173	65351
610.241	149468
610.308	179497
610.375	52293
610.442	34184
610.509	31677
610.577	32252
610.644	30880
610.711	31978
610.778	32698
610.845	33589
610.912	36185
610.980	39034
611.047	43032
611.114	42617
611.181	36584
611.248	35495
611.315	36940
611.382	38108
611.449	39258
611.516	39829
611.583	40217
611.650	40221
611.717	40494
611.784	41641
611.851	42617
611.918	46020
611.984	52393
612.051	70471
612.118	129653
612.185	331697
612.252	457675
612.319	104441
612.386	57522
612.452	51778
612.519	47726
612.586	47442
612.653	46791
612.719	46193
612.786	46260
612.853	44176
612.919	40582
612.986	41459
613.053	41326
613.120	38485
613.186	35478
613.253	36192
613.319	35843
613.386	35726
613.453	36865
613.519	37792
613.586	37186
613.652	40048
613.719	38719
613.785	39914
613.852	38548
613.918	38523
613.985	40656
614.051	45742
614.118	63034
614.184	90235
614.250	47323
614.317	39591
614.383	38920
614.449	38399
614.516	38031
614.582	38653
614.648	37752
614.715	37376
614.781	38315
614.847	37746
614.914	38260
614.980	36897
615.046	36271
615.112	37467
615.179	39220
615.245	40624
615.311	45679
615.377	59904
615.443	84903
615.509	57206
615.575	45494
615.642	43739
615.708	42758
615.774	45933
615.840	48922
615.906	56796
615.972	77401
616.038	133711
616.104	244946
616.170	431033
616.236	722497
616.302	188772
616.368	76147
616.434	60268
616.500	50004
616.565	49857
616.631	59418
616.697	57165
616.763	51139
616.829	64396
616.895	106794
616.961	142433
617.026	78895
617.092	44604
617.158	41501
617.224	40943
617.289	37716
617.355	36286
617.421	34755
617.487	35329
617.552	33623
617.618	32696
617.684	32865
617.749	33668
617.815	32743
617.880	31369
617.946	31683
618.012	32100
618.077	31885
618.143	31759
618.208	31091
618.274	32076
618.339	34774
618.405	31278
618.470	28842
618.536	29338
618.601	29127
618.667	29124
618.732	26585
618.798	26517
618.863	25099
618.928	25429
618.994	25868
619.059	26003
619.124	27605
619.190	27793
619.255	26278
619.320	25520
619.386	25472
619.451	25817
619.516	25957
619.581	25468
619.647	25642
619.712	26833
619.777	25218
619.842	25467
619.907	24665
619.972	25968
620.038	25652
620.103	25434
620.168	24710
620.233	25948
620.298	25836
620.363	26270
620.428	26264
620.493	26320
620.558	26671
620.623	26475
620.688	28260
620.753	26671
620.818	28786
620.883	28277
620.948	27514
621.013	27838
621.078	26880
621.143	26058
621.207	29061
621.272	27501
621.337	28619
621.402	28224
621.467	28666
621.532	29985
621.596	27527
621.661	27056
621.726	26013
621.791	26216
621.855	26233
621.920	26520
621.985	27138
622.049	28489
622.114	28013
622.179	28024
622.243	28490
622.308	28415
622.373	29656
622.437	29592
622.502	27324
622.566	27980
622.631	26632
622.695	27729
622.760	28556
622.824	27631
622.889	27480
622.953	27678
623.018	29500
623.082	31940
623.147	29575
623.211	29199
623.276	27582
623.340	26655
623.404	26459
623.469	26762
623.533	26046
623.597	26404
623.662	26090
623.726	25278
623.790	24767
623.854	23446
623.919	23476
623.983	23798
624.047	23835
624.111	23597
624.176	24195
624.240	24053
624.304	24722
624.368	25110
624.432	24044
624.496	24530
624.560	25858
624.625	25757
624.689	25527
624.753	25752
624.817	25711
624.881	24566
624.945	22930
625.009	22303
625.073	21967
625.137	22674
625.201	24116
625.265	25262
625.329	23509
625.393	22897
625.456	23802
625.520	23403
625.584	24356
625.648	24890
625.712	28278
625.776	37045
625.839	45334
625.903	35790
625.967	20823
626.031	22679
626.095	30816
626.158	27788
626.222	19577
626.286	17531
626.349	17133
626.413	16178
626.477	16158
626.540	14662
626.604	15078
626.668	16131
626.731	15046
626.795	15023
626.858	15747
626.922	15348
626.986	15096
627.049	14786
627.113	15360
627.176	15065
627.240	14611
627.303	13942
627.366	13917
627.430	14231
627.493	14891
627.557	13957
627.620	14271
627.684	14803
627.747	14440
627.810	14951
627.874	12970
627.937	11875
628.000	13549
628.064	12151
628.127	11419
628.190	11203
628.253	11373
628.317	9920
628.380	11648
628.443	10547
628.506	9829
628.569	9663
628.632	9816
628.696	9528
628.759	9149
628.822	9160
628.885	8100
628.948	9580
629.011	8409
629.074	7596
629.137	8660
629.200	7732
629.263	8296
629.326	6957
629.389	8083
629.452	7711
629.515	7819
629.578	7756
629.641	7013
629.704	8179
629.767	7510
629.830	6974
629.892	7802
629.955	7651
630.018	8222
630.081	7805
630.144	8075
630.207	7512
630.269	7771
630.332	7945
630.395	7800
630.458	6640
630.520	6525
630.583	6911
630.646	6799
630.708	7255
630.771	6868
630.834	6895
630.896	6921
630.959	6319
631.021	6529
631.084	6846
631.146	6765
631.209	6861
631.272	7042
631.334	7575
631.397	6143
631.459	5847
631.522	7145
631.584	7712
631.646	7337
631.709	7370
631.771	8325
631.834	7695
631.896	7469
631.958	6847
632.021	5852
632.083	7156
632.145	6332
632.208	6398
632.270	7039
632.332	5797
632.395	5515
632.457	6357
632.519	6509
632.581	5886
632.643	5471
632.706	6050
632.768	4365
632.830	6183
632.892	6425
632.954	5987
633.016	6599
633.078	6071
633.141	5902
633.203	5864
633.265	6572
633.327	6694
633.389	6006
633.451	5981
633.513	5718
633.575	7204
633.637	6834
633.698	6139
633.760	6538
633.822	5808
633.884	6709
633.946	6625
634.008	6453
634.070	6965
634.132	8586
634.193	8852
634.255	8340
634.317	8664
634.379	8113
634.441	7120
634.502	7310
634.564	6757
634.626	6274
634.687	6268
634.749	6105
634.811	6103
634.873	5247
634.934	6514
634.996	5206
635.057	5617
635.119	5169
635.181	5630
635.242	5953
635.304	4501
635.365	6764
635.427	6426
635.488	6130
635.550	5723
635.611	6512
635.673	5448
635.734	6574
635.796	6380
635.857	6785
635.918	6438
635.980	7347
636.041	7882
636.102	7983
636.164	7881
636.225	8472
636.286	7397
636.348	6998
636.409	6448
636.470	6132
636.531	6174
636.593	5951
636.654	5570
636.715	5353
636.776	5057
636.838	4774
636.899	5499
636.960	4599
637.021	4660
637.082	5122
637.143	4596
637.204	4724
637.265	4428
637.326	4678
637.387	4667
637.448	4978
637.509	4622
637.570	5127
637.631	4768
637.692	4134
637.753	4558
637.814	4104
637.875	4976
637.936	5000
637.997	4288
638.058	5290
638.119	4958
638.179	4341
638.240	4164
638.301	4803
638.362	4048
638.423	4526
638.483	4707
638.544	3787
638.605	4144
638.666	4699
638.726	4317
638.787	4465
638.848	4484
638.908	3901
638.969	3620
639.030	4457
639.090	4069
639.151	3473
639.211	4468
639.272	4133
639.332	5218
639.393	5457
639.453	4210
639.514	4810
639.574	4240
639.635	3436
639.695	4247
639.756	4327
639.816	4698
639.877	4360
639.937	5328
639.997	5585
640.058	4226
640.118	3910
640.178	3681
640.239	4105
640.299	4075
640.359	3962
640.420	4400
640.480	4104
640.540	4211
640.600	5091
640.661	4961
640.721	3772
640.781	5533
640.841	4613
640.901	5131
640.961	4479
641.021	4573
641.082	4606
641.142	5324
641.202	4622
641.262	3899
641.322	4424
641.382	3684
641.442	3815
641.502	3682
641.562	4446
641.622	3535
641.682	3890
641.742	4333
641.802	4156
641.861	4435
641.921	4138
641.981	4487
642.041	3428
642.101	4316
642.161	3921
642.221	3347
642.280	3733
642.340	3188
642.400	3304
642.460	3763
642.519	3338
642.579	3951
642.639	3857
642.698	2502
642.758	4703
642.818	3882
642.877	3613
642.937	3974
642.997	3987
643.056	3955
643.116	2826
643.175	3997
643.235	3956
643.294	4309
643.354	3460
643.414	4554
643.473	6133
643.532	5989
643.592	8952
643.651	14635
643.711	26064
643.770	49788
643.830	99527
643.889	315717
643.948	252581
644.008	24772
644.067	9693
644.126	6843
644.186	5956
644.245	5773
644.304	4220
644.363	4904
644.423	4481
644.482	4728
644.541	4550
644.600	3255
644.659	5980
644.719	5226
644.778	7407
644.837	10193
644.896	21597
644.955	53140
645.014	55052
645.073	9978
645.132	5477
645.191	4361
645.250	3496
645.309	4657
645.368	3303
645.427	4730
645.486	5411
645.545	12602
645.604	9326
645.663	3780
645.722	4529
645.781	4888
645.840	5497
645.898	5392
645.957	8243
646.016	11924
646.075	23565
646.134	42309
646.192	91570
646.251	266807
646.310	122674
646.369	13423
646.427	7504
646.486	6169
646.545	3917
646.603	5014
646.662	3913
646.721	3580
646.779	3927
646.838	3043
646.896	4019
646.955	5007
647.014	7052
647.072	12330
647.131	27974
647.189	42909
647.248	7142
647.306	4055
647.365	3068
647.423	1604
647.481	3111
647.540	1910
647.598	3026
647.657	3063
647.715	2220
647.773	2449
647.832	2883
647.890	1894
647.948	2185
648.007	2435
648.065	2340
648.123	2812
648.181	3036
648.240	2746
648.298	3510
648.356	3229
648.414	2882
648.472	2869
648.531	2281
648.589	2729
648.647	1990
648.705	2676
648.763	2545
648.821	1918
648.879	2103
648.937	3086
648.995	3507
649.053	4127
649.111	5737
649.169	9082
649.227	17237
649.285	30848
649.343	82409
649.401	132489
649.459	21780
649.516	9418
649.574	6975
649.632	11975
649.690	27371
649.748	13785
649.806	6661
649.863	15223
649.921	20054
649.979	34017
650.037	8235
650.094	1940
650.152	2342
650.210	1843
650.268	1764
650.325	2086
650.383	2056
650.440	1327
650.498	2211
650.556	1433
650.613	2008
650.671	2174
650.728	1505
650.786	2107
650.843	1121
650.901	1349
650.958	1934
651.016	2650
651.073	1565
651.131	1114
651.188	508
651.246	2064
651.303	695
651.360	1312
651.418	398
651.475	1998
651.532	1073
651.590	1450
651.647	962
651.704	1535
651.762	1244
651.819	2155
651.876	894
651.933	-127
651.990	1151
652.048	471
652.105	1124
652.162	1724
652.219	1122
652.276	1231
652.333	2031
652.390	-32
652.448	1741
652.505	1001
652.562	-86
652.619	1534
652.676	2497
652.733	5077
652.790	2224
652.847	260
652.904	1727
652.961	846
653.017	481
653.074	1879
653.131	1176
653.188	261
653.245	1359
653.302	1495
653.359	1098
653.415	995
653.472	804
653.529	1157
653.586	1288
653.642	648
653.699	1081
653.756	124
653.813	659
653.869	1347
653.926	861
653.983	319
654.039	529
654.096	909
654.152	899
654.209	336
654.266	946
654.322	412
654.379	1217
654.435	684
654.492	1045
654.548	1425
654.605	1138
654.661	2656
654.717	1196
654.774	1461
654.830	1130
654.887	806
654.943	1007
655.000	1074
655.056	270
655.112	620
655.168	-126
655.225	1056
655.281	1287
655.337	476
655.394	1345
655.450	1897
655.506	2024
655.562	1235
655.618	3758
655.675	6
655.731	786
655.787	594
655.843	1319
655.899	793
655.955	534
656.011	409
656.067	827
656.123	1556
656.179	1007
656.235	1956
656.291	1159
656.347	1509
656.403	869
656.459	998
656.515	1304
656.571	1094
656.627	1118
656.683	914
656.739	1101
656.795	274
656.850	438
656.906	1162
656.962	1010
657.018	120
657.074	304
657.129	1101
657.185	1183
657.241	1828
657.297	3443
657.352	1022
657.408	-167
657.464	1499
657.519	618
657.575	222
657.630	762
657.686	1389
657.742	210
657.797	1097
657.853	657
657.908	638
657.964	400
658.019	610
658.075	1517
658.130	1177
658.186	-7
658.241	792
658.297	1121
658.352	-157
658.407	1246
658.463	1058
658.518	471
658.573	1551
658.629	266
658.684	544
658.739	621
658.795	285
658.850	538
658.905	-209
658.960	1229
659.016	959
659.071	45
659.126	1218
659.181	518
659.236	965
659.291	1488
659.346	1499
659.401	976
659.457	1279
659.512	1955
659.567	1956
659.622	587
659.677	629
659.732	131
659.787	663
659.842	473
659.897	1215
659.952	1663
660.007	933
660.061	167
660.116	94
660.171	551
660.226	283
660.281	959
660.336	623
660.391	860
660.445	180
660.500	-109
660.555	489
660.610	-70
660.664	1007
660.719	-23
660.774	1416
660.828	1305
660.883	1184
660.938	-136
660.992	262
661.047	863
661.101	-112
661.156	83
661.211	402
661.265	247
661.320	-409
661.374	991
661.429	-86
661.483	830
661.538	304
661.592	66
661.647	119
661.701	1393
661.755	859
661.810	53
661.864	38
661.919	193
661.973	842
662.027	-325
662.081	113
662.136	-139
662.190	163
662.244	790
662.299	794
662.353	332
662.407	631
662.461	-786
662.515	418
662.569	-116
662.624	1195
662.678	888
662.732	463
662.786	-603
662.840	857
662.894	752
662.948	325
663.002	585
663.056	625
663.110	-379
663.164	185
663.218	-138
663.272	410
663.326	1152
663.380	-2
663.434	530
663.488	-377
663.542	834
663.595	567
663.649	-425
663.703	702
663.757	78
663.811	-489
663.864	-283
663.918	405
663.972	177
664.026	1037
664.079	-560
664.133	1572
664.187	-407
664.240	259
664.294	-347
664.348	220
664.401	288
664.455	647
664.508	-464
664.562	304
664.615	549
664.669	159
664.722	763
664.776	-113
664.829	243
664.883	332
664.936	248
664.990	652
665.043	218
665.097	111
665.150	751
665.203	372
665.257	884
665.310	179
665.363	1151
665.417	707
665.470	756
665.523	803
665.576	966
665.630	-334
665.683	491
665.736	750
665.789	491
665.842	497
665.895	404
665.949	564
666.002	861
666.055	299
666.108	952
666.161	865
666.214	493
666.267	211
666.320	1012
666.373	846
666.426	854
666.479	-372
666.532	1648
666.585	783
666.638	1120
666.691	-132
666.744	658
666.796	-70
666.849	651
666.902	1298
666.955	376
667.008	476
667.060	-123
667.113	137
667.166	321
667.219	-269
667.271	249
667.324	756
667.377	315
667.430	897
667.482	-176
667.535	1691
667.587	1494
667.640	1742
667.693	-237
667.745	829
667.798	1527
667.850	434
667.903	844
667.955	254
668.008	544
668.060	874
668.113	-85
668.165	681
668.218	584
668.270	559
668.322	838
668.375	834
668.427	735
668.479	237
668.532	923
668.584	222
668.636	163
668.689	386
668.741	32
668.793	164
668.845	243
668.898	351
668.950	828
669.002	1075
669.054	-472
669.106	935
669.158	713
669.211	556
669.263	502
669.315	169
669.367	1003
669.419	1148
669.471	1534
669.523	1900
669.575	1485
669.627	2591
669.679	580
669.731	351
669.783	813
669.835	523
669.886	1115
669.938	763
669.990	1002
670.042	-87
670.094	221
670.146	1110
670.197	-98
670.249	715
670.301	1071
670.353	828
670.404	1204
670.456	582
670.508	2652
670.560	4026
670.611	6102
670.663	11249
670.715	21468
670.766	59635
670.818	50033
670.869	6818
670.921	1493
670.972	1435
671.024	635
671.075	1494
671.127	304
671.178	954
671.230	49
671.281	600
671.333	590
671.384	270
671.436	1552
671.487	1746
671.538	2068
671.590	2733
671.641	4401
671.692	6968
671.744	14463
671.795	23795
671.846	10169
671.897	3107
671.949	1851
672.000	1456
672.051	1921
672.102	1158
672.153	926
672.204	1217
672.256	730
672.307	1621
672.358	730
672.409	838
672.460	1183
672.511	969
672.562	365
672.613	308
672.664	91
672.715	715
672.766	312
672.817	1090
672.868	-171
672.919	-90
672.970	584
673.021	368
673.071	-251
673.122	725
673.173	661
673.224	785
673.275	309
673.326	-12
673.376	9
673.427	603
673.478	24
673.528	468
673.579	517
673.630	153
673.680	566
673.731	293
673.782	107
673.832	418
673.883	249
673.934	141
673.984	345
674.035	816
674.085	-27
674.136	741
674.186	376
674.237	875
674.287	-158
674.338	1920
674.388	-213
674.438	-249
674.489	79
674.539	14
674.589	813
674.640	55
674.690	333
674.740	137
674.791	45
674.841	566
674.891	535
674.942	654
674.992	857
675.042	-478
675.092	-78
675.142	203
675.193	183
675.243	-106
675.293	-161
675.343	216
675.393	746
675.443	484
675.493	635
675.543	-435
675.593	144
675.643	343
675.693	101
675.743	-398
675.793	-64
675.843	384
675.893	517
675.943	195
675.993	271
676.043	685
676.093	428
676.142	-79
676.192	95
676.242	608
676.292	32
676.341	56
676.391	225
676.441	29
676.491	613
676.540	921
676.590	464
676.640	487
676.689	609
676.739	296
676.789	651
676.838	72
676.888	-82
676.937	-667
676.987	686
677.037	63
677.086	-522
677.136	-108
677.185	-168
677.235	-68
677.284	-443
677.333	-18
677.383	-254
677.432	-183
677.482	-442
677.531	395
677.580	-446
677.630	352
677.679	190
677.728	-328
677.778	9
677.827	828
677.876	13
677.925	-211
677.975	-479
678.024	438
678.073	243
678.122	523
678.171	-416
678.220	664
678.269	38
678.319	-66
678.368	432
678.417	314
678.466	-97
678.515	90
678.564	-385
678.613	429
678.662	-32
678.711	-300
678.760	280
678.809	-40
678.857	-474
678.906	126
678.955	-20
679.004	142
679.053	-172
679.102	-573
679.151	-95
679.199	90
679.248	-219
679.297	-729
679.346	-978
679.394	32
679.443	-231
679.492	-188
679.540	-372
679.589	-766
679.638	54
679.686	388
679.735	-1123
679.784	-129
679.832	106
679.881	-302
679.929	607
679.978	-408
680.026	-443
680.075	-254
680.123	-757
680.172	-1193
680.220	-310
680.268	140
680.317	-311
680.365	-194
680.414	-1327
680.462	-323
680.510	109
680.559	-336
680.607	-351
680.655	-161
680.703	-261
680.752	-300
680.800	-502
680.848	161
680.896	-329
680.945	-293
680.993	-721
681.041	-142
681.089	-292
681.137	-693
681.185	-736
681.233	-594
681.258	-284
681.281	-14
681.329	-804
681.377	-502
681.380	-461
681.425	-199
681.473	-330
681.502	-310
681.521	-341
681.569	2
681.617	-262
681.624	-143
681.665	435
681.713	-30
681.745	32
681.761	27
681.809	252
681.857	103
681.867	213
681.904	460
681.952	411
681.989	744
682.000	828
682.048	202
682.096	1184
682.111	857
682.143	49
682.191	698
682.233	1242
682.239	1303
682.286	568
682.334	206
682.354	483
682.382	781
682.430	833
682.476	1095
682.477	1082
682.525	1879
682.572	1439
682.598	1096
682.620	749
682.667	931
682.715	1028
682.720	1135
682.763	1899
682.810	459
682.841	708
682.857	821
682.905	782
682.952	1128
682.963	1323
683.000	1919
683.047	2088
683.085	1603
683.095	1435
683.142	1381
683.190	1953
683.206	1796
683.237	1490
683.284	2068
683.328	2398
683.332	2406
683.379	2269
683.426	1878
683.449	1979
683.473	2031
683.521	2036
683.568	1371
683.571	1418
683.615	1827
683.662	2111
683.693	1967
683.709	1859
683.757	2043
683.804	1949
683.814	1920
683.851	1737
683.898	2201
683.936	2266
683.945	2260
683.992	2378
684.039	2241
684.057	2430
684.086	2773
684.133	2587
684.179	2431
684.180	2409
684.227	2624
684.274	3196
684.300	2640
684.321	2138
684.368	2664
684.415	2381
684.422	2487
684.462	3061
684.509	2952
684.543	2520
684.556	2367
684.603	2664
684.649	3189
684.665	3125
684.696	2871
684.743	3039
684.786	3119
684.790	3128
684.837	3374
684.883	3117
684.908	3357
684.930	3572
684.977	3821
685.023	4008
685.029	3987
685.070	3671
685.117	3851
685.150	3633
685.164	3512
685.210	4510
685.257	4006
685.272	4008
685.303	4080
685.350	4284
685.393	4333
685.396	4309
685.443	4711
685.490	4166
685.514	3940
685.536	3799
685.583	4293
685.629	4638
685.636	4568
685.675	4041
685.722	4164
685.757	4049
685.768	4017
685.815	4400
685.861	4576
685.878	4564
685.908	4544
685.954	4249
686.000	4512
686.000	4512
686.047	4838
686.093	5523
686.121	5750
686.139	5867
686.185	5509
686.232	5602
686.242	5705
686.278	5777
686.324	5422
686.363	4553
686.370	4406
686.416	4900
686.463	4965
686.484	4903
686.509	4976
686.555	4832
686.601	5296
686.606	5344
686.647	5528
686.693	4952
686.727	4757
686.739	4729
686.785	5227
686.831	5255
686.848	5405
686.877	5509
686.923	4750
686.969	5021
686.969	5023
687.015	5438
687.061	5636
687.090	5836
687.107	5854
687.153	5525
687.199	4923
687.211	5020
687.245	5396
687.291	4881
687.332	5305
687.336	5361
687.382	6109
687.428	5630
687.453	5803
687.474	5845
687.520	5555
687.565	5843
687.574	5783
687.611	5567
687.657	6130
687.695	6123
687.702	6164
687.748	6145
687.794	6781
687.816	6790
687.839	6740
687.885	6787
687.931	6750
687.937	6788
687.976	6581
688.022	6348
688.058	5906
688.067	5885
688.113	6205
688.158	6272
688.179	6147
688.204	6079
688.249	5839
688.295	6644
688.300	6625
688.340	6454
688.386	6830
688.421	6914
688.431	6920
688.477	6669
688.522	6688
688.542	6704
688.567	6745
688.613	6420
688.658	6558
688.663	6554
688.703	6660
688.749	6614
688.784	6954
688.794	7067
688.839	7023
688.884	7146
688.905	7236
688.930	7231
688.975	6860
689.020	6754
689.026	6771
689.065	6973
689.110	6780
689.146	6751
689.155	6786
689.201	7173
689.246	6756
689.267	6890
689.291	6940
689.336	6723
689.381	6661
689.388	6561
689.426	6340
689.471	7117
689.509	7165
689.516	7174
689.561	7292
689.606	7372
689.630	7261
689.651	7021
689.696	7052
689.741	6955
689.750	6894
689.785	7066
689.830	7209
689.871	7210
689.875	7189
689.920	7141
689.965	7231
689.992	7156
690.010	7256
690.054	7010
690.099	7501
690.112	7418
690.144	7069
690.189	7191
690.233	6865
690.233	6876
690.278	7266
690.323	7141
690.354	7260
690.367	7340
690.412	8009
690.457	7540
690.474	7665
690.501	7807
690.546	7447
690.590	7906
690.595	7925
690.635	8324
690.680	8139
690.716	8167
690.724	8265
690.769	8832
690.813	9675
690.836	9827
690.857	10102
690.902	10584
690.946	11676
690.957	11838
690.991	14630
691.035	18833
691.077	22814
691.080	23183
691.124	28950
691.168	34419
691.198	37862
691.213	35641
691.257	29624
691.301	23319
691.318	20727
691.346	18623
691.390	15347
691.434	12252
691.439	11867
691.478	10923
691.522	9990
691.559	8889
691.567	8897
691.611	9094
691.655	9606
691.680	9529
691.699	9361
691.743	9278
691.787	8851
691.800	8817
691.831	8920
691.875	9193
691.919	9090
691.921	9071
691.964	9329
692.008	9740
692.041	9883
692.052	9843
692.096	9589
692.139	9315
692.162	9173
692.183	9130
692.227	9098
692.271	9058
692.282	8998
692.315	9104
692.359	9412
692.402	9450
692.403	9467
692.447	9146
692.490	9134
692.523	8909
692.534	8966
692.578	9157
692.622	9570
692.643	9597
692.666	9498
692.709	9258
692.753	9140
692.763	9064
692.797	9059
692.840	8870
692.884	9146
692.884	9170
692.928	9215
692.971	9305
693.004	9473
693.015	9540
693.059	9725
693.102	9418
693.124	9489
693.146	9554
693.189	9416
693.233	9259
693.245	9283
693.276	9784
693.320	10199
693.363	10564
693.365	10557
693.407	10929
693.450	11219
693.485	11521
693.493	11810
693.537	12853
693.580	14291
693.605	14924
693.624	15952
693.667	18702
693.710	21153
693.725	21990
693.753	27270
693.797	35389
693.840	44303
693.845	45292
693.883	57973
693.926	71157
693.966	83183
693.970	81835
694.013	66414
694.056	50807
694.086	39956
694.099	37567
694.142	29835
694.185	22046
694.206	18257
694.229	17431
694.272	15706
694.315	14130
694.326	13744
694.358	13454
694.401	12580
694.444	11756
694.446	11695
694.487	11352
694.530	11010
694.566	10415
694.573	10427
694.616	10722
694.659	10673
694.686	10787
694.702	10723
694.745	10119
694.787	9891
694.806	9729
694.830	9775
694.873	9812
694.916	9679
694.926	9615
694.959	9631
695.002	9891
695.044	9903
695.046	9883
695.087	9934
695.130	9804
695.166	9872
695.172	9946
695.215	10097
695.258	10426
695.286	10475
695.301	10482
695.343	10543
695.386	10333
695.406	10331
695.428	10327
695.471	10180
695.514	10179
695.526	10071
695.556	10074
695.599	10251
695.641	10360
695.646	10350
695.684	10355
695.726	10392
695.766	10111
695.769	10139
695.811	10537
695.854	10531
695.886	10699
695.896	10698
695.938	10449
695.981	10280
696.005	10095
696.023	10075
696.065	10137
696.108	9957
696.125	9980
696.150	10319
696.192	10605
696.235	10933
696.245	10987
696.277	10995
696.319	11050
696.361	10996
696.365	10965
696.404	11199
696.446	11349
696.485	11542
696.488	11575
696.530	11544
696.572	11567
696.604	11462
696.614	11426
696.656	11233
696.698	10982
696.724	10822
696.740	10792
696.783	10592
696.825	10500
696.844	10379
696.867	10415
696.909	10461
696.951	10413
696.964	10391
696.992	10472
697.034	10563
697.076	10636
697.083	10620
697.118	10974
697.160	11389
697.202	11763
697.203	11739
697.244	11467
697.286	11201
697.323	10961
697.327	10996
697.369	10983
697.411	10932
697.442	10910
697.453	10881
697.494	10615
697.536	10357
697.562	10197
697.578	10345
697.620	10521
697.661	10804
697.682	10884
697.703	10990
697.744	11188
697.786	11382
697.801	11411
697.828	11624
697.869	11864
697.911	12184
697.921	12232
697.952	12021
697.994	11634
698.035	11209
698.040	11131
698.077	11261
698.118	11339
698.160	11457
698.160	11424
698.201	11250
698.243	10986
698.279	10786
698.284	10867
698.325	11287
698.367	11724
698.399	12023
698.408	12057
698.449	12008
698.491	12035
698.518	12010
698.532	11985
698.573	11788
698.614	11573
698.638	11431
698.656	11543
698.697	11722
698.738	11896
698.757	11947
698.779	11986
698.820	11977
698.862	11984
698.877	11954
698.903	12116
698.944	12318
698.985	12511
698.996	12530
699.026	12522
699.067	12461
699.116	12354
699.235	11505
699.354	12368
699.474	11677
699.593	12098
699.713	13047
699.832	12359
699.951	11520
700.070	11927
700.190	11929
700.309	12249
700.428	11622
700.547	11732
700.667	11307
700.786	11185
700.905	11341
701.024	10414
701.143	11886
701.262	10156
701.381	10676
701.500	10243
701.619	10344
701.738	10145
701.857	10164
701.976	10305
702.095	9783
702.214	10655
702.333	10547
702.452	10238
702.571	10498
702.690	9986
702.809	10070
702.928	10049
703.047	9861
703.165	10043
703.284	9076
703.403	10067
703.522	9653
703.640	10747
703.759	10043
703.878	12857
703.997	12138
704.115	9793
704.234	9010
704.353	9695
704.471	9265
704.590	8801
704.708	9158
704.827	8699
704.946	9012
705.064	9367
705.183	9957
705.301	10263
705.420	12346
705.538	14331
705.656	12607
705.775	11147
705.893	14463
706.012	23752
706.130	15592
706.249	12287
706.367	11572
706.485	12144
706.604	11751
706.722	12248
706.840	12559
706.958	14155
707.077	13984
707.195	11237
707.313	11527
707.431	10744
707.549	10709
707.668	10927
707.786	10520
707.904	10935
708.022	10855
708.140	10566
708.258	9528
708.376	10817
708.494	9658
708.612	10875
708.730	12625
708.848	16776
708.966	12940
709.084	13228
709.202	12504
709.320	12372
709.438	12721
709.556	12990
709.674	12812
709.791	13026
709.909	12544
710.027	12768
710.145	12498
710.263	12540
710.380	11790
710.498	12564
710.616	12340
710.733	11340
710.851	12145
710.969	12166
711.086	12564
711.204	11881
711.322	10356
711.439	11692
711.557	11281
711.674	10997
711.792	11250
711.909	11482
712.027	11807
712.144	11964
712.262	10346
712.379	11549
712.497	13076
712.614	17730
712.732	15528
712.849	14014
712.966	12992
713.084	14398
713.201	14860
713.318	13794
713.436	13943
713.553	13906
713.670	14408
713.787	13884
713.905	15384
714.022	14020
714.139	12830
714.256	14671
714.373	16050
714.490	20189
714.608	31750
714.725	96996
714.842	347430
714.959	96076
715.076	17520
715.193	14558
715.310	13551
715.427	13626
715.544	12500
715.661	11602
715.778	12186
715.895	12760
716.011	12021
716.128	12822
716.245	10852
716.362	11565
716.479	11748
716.596	12886
716.713	11830
716.829	11335
716.946	11298
717.063	11123
717.180	10767
717.296	10432
717.413	10649
717.530	10532
717.646	9480
717.763	9972
717.880	9931
717.996	9534
718.113	10094
718.229	10337
718.346	9714
718.462	8798
718.579	9833
718.695	11032
718.812	11500
718.928	10840
719.045	11512
719.161	9052
719.277	9679
719.394	9655
719.510	8906
719.626	10215
719.743	11066
719.859	12898
719.975	15054
720.092	30425
720.208	111056
720.324	90405
720.440	13215
720.557	9718
720.673	11312
720.789	12672
720.905	20746
721.021	26998
721.137	9484
721.253	9086
721.369	8648
721.486	9889
721.602	10866
721.718	10564
721.834	8551
721.950	7785
722.066	7586
722.181	8290
722.297	8087
722.413	9144
722.529	7473
722.645	8393
722.761	7794
722.877	8149
722.993	7258
723.108	8018
723.224	7857
723.340	8179
723.456	7870
723.571	7542
723.687	7410
723.803	7706
723.918	7154
724.034	7337
724.150	7352
724.265	7480
724.381	8188
724.497	16359
724.612	9672
724.728	7091
724.843	6158
724.959	8340
725.074	7785
725.190	16090
725.305	9188
725.421	6614
725.536	6477
725.651	6722
725.767	6198
725.882	6925
725.997	6284
726.113	6375
726.228	5945
726.343	6826
726.459	6158
726.574	6691
726.689	6330
726.804	6338
726.920	5681
727.035	7001
727.150	6610
727.265	6173
727.380	6345
727.495	6704
727.610	6134
727.725	5552
727.841	6958
727.956	7843
728.071	12115
728.186	7926
728.301	5356
728.416	5408
728.531	6250
728.645	5503
728.760	5826
728.875	6024
728.990	5777
729.105	6310
729.220	6158
729.335	6306
729.449	5544
729.564	5685
729.679	5302
729.794	4812
729.908	5612
730.023	5854
730.138	4905
730.253	5307
730.367	5074
730.482	4757
730.596	5029
730.711	5978
730.826	5357
730.940	6301
731.055	6220
731.169	5953
731.284	4994
731.398	5138
731.513	5692
731.627	5832
731.742	6038
731.856	6843
731.970	6356
732.085	6133
732.199	7138
732.313	8842
732.428	14945
732.542	36976
732.656	74503
732.771	20073
732.885	6724
732.999	6502
733.113	6442
733.227	6010
733.342	6470
733.456	5586
733.570	5588
733.684	5180
733.798	5237
733.912	4910
734.026	5951
734.140	5716
734.254	5478
734.368	6419
734.482	9186
734.596	6885
734.710	5719
734.824	5378
734.938	4588
735.052	4520
735.166	5353
735.280	5686
735.393	4004
735.507	4925
735.621	4705
735.735	6782
735.849	8676
735.962	5286
736.076	4992
736.190	4802
736.303	5283
736.417	7966
736.531	5445
736.644	4959
736.758	4580
736.872	4606
736.985	4890
737.099	5121
737.212	4662
737.326	4402
737.439	4739
737.553	4829
737.666	4561
737.780	4392
737.893	4812
738.007	4650
738.120	4179
738.233	4008
738.347	3925
738.460	4661
738.573	3916
738.687	4574
738.800	4471
738.913	5072
739.026	4193
739.140	4674
739.253	4276
739.366	4293
739.479	3683
739.592	3957
739.705	4226
739.818	4536
739.932	4446
740.045	4057
740.158	3747
740.271	3593
740.384	4379
740.497	3827
740.610	4665
740.723	4524
740.836	4427
740.949	4172
741.062	4126
741.174	4711
741.287	4150
741.400	4714
741.513	4011
741.626	4689
741.739	5418
741.851	3990
741.964	3319
742.077	3897
742.189	4281
742.302	4755
742.415	4673
742.527	4727
742.640	3985
742.753	4139
742.865	3216
742.978	3734
743.090	2978
743.203	4131
743.316	4384
743.428	3745
743.541	3982
743.653	3654
743.766	3554
743.878	3230
743.990	4154
744.103	4907
744.215	4520
744.327	3375
744.440	3932
744.552	3763
744.664	3601
744.777	3928
744.889	3490
745.001	4116
745.113	3420
745.226	3250
745.338	3869
745.450	3663
745.562	3665
745.674	3037
745.786	3268
745.898	3917
746.010	2793
746.122	2882
746.234	3649
746.347	3688
746.459	3580
746.570	4063
746.682	3706
746.794	4261
746.906	3771
747.018	3145
747.130	2954
747.242	3632
747.354	3219
747.466	3881
747.577	2852
747.689	3980
747.801	3367
747.913	3873
748.024	3027
748.136	2962
748.248	2567
748.359	3270
748.471	3172
748.583	3256
748.694	3506
748.806	3857
748.918	2992
749.029	3854
749.141	3250
749.252	4269
749.364	2992
749.475	3763
749.587	4493
749.698	3275
749.809	3106
749.921	3269
750.032	2564
750.144	2887
750.255	2734
750.366	2985
750.478	2383
750.589	2769
750.700	2538
750.811	2925
750.923	4230
751.034	3193
751.145	3998
751.256	3057
751.367	3100
751.479	2780
751.590	2345
751.701	2711
751.812	3006
751.923	3207
752.034	2440
752.145	3335
752.256	3113
752.367	2346
752.478	2891
752.589	3565
752.700	2235
752.811	2629
752.922	3070
753.032	2665
753.143	3045
753.254	2530
753.365	3225
753.476	2635
753.586	2601
753.697	2217
753.808	2671
753.919	3028
754.029	2442
754.140	3009
754.251	2102
754.361	2362
754.472	3369
754.582	3135
754.693	3226
754.804	2434
754.914	2448
755.025	2902
755.135	2399
755.246	2626
755.356	3031
755.466	2636
755.577	2730
755.687	2694
755.798	2342
755.908	2816
756.018	3281
756.129	2432
756.239	2124
756.349	3369
756.460	3399
756.570	3250
756.680	2940
756.790	2638
756.900	3042
757.011	3427
757.121	3432
757.231	2859
757.341	3035
757.451	2584
757.561	2295
757.671	3066
757.781	3291
757.891	4129
758.001	3152
758.111	3121
758.221	3162
758.331	2848
758.441	3317
758.551	3636
758.661	3470
758.771	3050
758.880	3691
758.990	3688
759.100	3163
759.210	3605
759.320	3656
759.429	3729
759.539	3266
759.649	3657
759.758	3428
759.868	3630
759.978	2800
760.087	3895
760.197	3655
760.307	3976
760.416	4768
760.526	3812
760.635	3415
760.745	3992
760.854	4570
760.964	4684
761.073	4870
761.182	4049
761.292	4569
761.401	4524
761.511	4045
761.620	4920
761.729	3660
761.839	4558
761.948	4363
762.057	4339
762.166	4521
762.276	3956
762.385	4725
762.494	4965
762.603	4493
762.712	5458
762.822	5195
762.931	5361
763.040	5221
763.149	5182
763.258	5916
763.367	5777
763.476	6076
763.585	5961
763.694	6617
763.803	6528
763.912	6774
764.021	8365
764.130	8376
764.238	8481
764.347	8837
764.456	9423
764.565	10031
764.674	9951
764.783	10776
764.891	12178
765.000	12933
765.109	14369
765.217	16192
765.326	19628
765.435	23671
765.543	28441
765.652	32523
765.761	42594
765.869	58418
765.978	82167
766.086	128374
766.195	212590
766.303	399949
766.412	741852
766.520	792032
766.629	709327
766.737	410210
766.846	210895
766.954	126372
767.062	87144
767.171	62625
767.279	47699
767.387	36350
767.496	30095
767.604	25590
767.712	21847
767.820	19900
767.928	18301
768.037	16597
768.145	15285
768.253	14475
768.361	13836
768.469	14500
768.577	13866
768.685	14282
768.793	15226
768.901	15920
769.009	18296
769.117	19442
769.225	25435
769.333	34785
769.441	50934
769.549	82076
769.657	154049
769.765	338354
769.873	689340
769.981	646587
770.088	373461
770.196	153377
770.304	83631
770.412	54706
770.519	38717
770.627	29532
770.735	23397
770.842	19513
770.950	16515
771.058	14318
771.165	13710
771.273	11816
771.380	11100
771.488	9570
771.595	9455
771.703	8415
771.810	8756
771.918	6823
772.025	7648
772.133	7380
772.240	6330
772.348	6828
772.455	6787
772.562	6209
772.670	6096
772.777	5265
772.884	5552
772.991	5249
773.099	5637
773.206	4722
773.313	5235
773.420	4803
773.528	4777
773.635	4081
773.742	4770
773.849	4070
773.956	4077
774.063	4161
774.170	4372
774.277	4268
774.384	4433
774.491	3854
774.598	3971
774.705	4114
774.812	3811
774.919	4571
775.026	4782
775.133	4586
775.239	4429
775.346	3317
775.453	4042
775.560	4150
775.667	3706
775.773	3380
775.880	3133
775.987	3510
776.093	3123
776.200	3935
776.307	2912
776.413	3839
776.520	2728
776.627	3461
776.733	3338
776.840	3028
776.946	3819
777.053	3917
777.159	4345
777.266	4156
777.372	3826
777.478	3697
777.585	3858
777.691	2853
777.798	3804
777.904	3249
778.010	3823
778.117	3584
778.223	3871
778.329	2894
778.435	2673
778.542	2398
778.648	2546
778.754	2548
778.860	2905
778.966	2273
779.072	2583
779.178	2452
779.284	2790
779.391	2059
779.497	2931
779.603	3511
779.708	3891
779.815	5724
779.920	13618
780.026	53269
780.132	49683
780.238	5271
780.344	2876
780.450	3342
780.556	2828
780.661	2697
780.767	2425
780.873	2705
780.979	2216
781.085	1637
781.190	2267
781.296	2139
781.402	2449
781.507	2105
781.613	2453
781.719	2120
781.824	1357
781.930	2295
782.035	1780
782.141	2127
782.246	2325
782.352	1784
782.457	2993
782.563	2257
782.668	2403
782.773	1833
782.879	2333
782.984	2627
783.090	1923
783.195	2075
783.300	2791
783.405	2562
783.511	1816
783.616	2921
783.721	3110
783.826	2392
783.932	2316
784.037	1419
784.142	1790
784.247	2530
784.352	2130
784.457	1572
784.562	2168
784.667	1540
784.772	1136
784.877	1782
784.982	1461
785.087	1680
785.192	1884
785.297	1926
785.402	1326
785.507	1648
785.611	1776
785.716	1719
785.821	1455
785.926	1856
786.031	1710
786.135	1586
786.240	1685
786.345	1039
786.450	1628
786.554	1364
786.659	2387
786.763	1128
786.868	1528
786.973	474
787.077	1828
787.182	1406
787.286	1797
787.391	930
787.495	1530
787.600	835
787.704	864
787.809	1658
787.913	1842
788.017	1045
788.122	1705
788.226	1692
788.330	1803
788.435	1389
788.539	1511
788.643	1091
788.747	934
788.852	793
788.956	1882
789.060	1298
789.164	770
789.268	989
789.372	1636
789.476	990
789.580	969
789.684	824
789.788	1260
789.892	1416
789.996	1306
790.100	1594
790.204	1195
790.308	1205
790.412	1329
790.516	1244
790.620	2238
790.724	1084
790.828	1675
790.931	768
791.035	1347
791.139	1190
791.242	1699
791.346	1252
791.450	1151
791.554	1203
791.657	1028
791.761	992
791.864	1582
791.968	658
792.072	1232
792.175	653
792.279	1410
792.382	714
792.486	1535
792.589	923
792.693	1781
792.796	1263
792.899	1613
793.003	1357
793.106	611
793.209	722
793.313	1879
793.416	517
793.519	1477
793.623	1255
793.726	1741
793.829	1014
793.932	1636
794.035	295
794.138	1383
794.242	570
794.345	2644
794.448	1919
794.551	2898
794.654	7430
794.757	24260
794.860	26419
794.963	3783
795.066	1312
795.169	1746
795.272	1360
795.375	1400
795.477	357
795.580	1166
795.683	204
795.786	995
795.889	-154
795.991	1054
796.094	1205
796.197	1241
796.300	1168
796.402	915
796.505	878
796.608	1213
796.710	782
796.813	946
796.915	1304
797.018	1811
797.120	19
797.223	729
797.326	642
797.428	649
797.530	-15
797.633	968
797.735	1725
797.838	576
797.940	2258
798.042	830
798.145	572
798.247	1196
798.349	322
798.452	1433
798.554	428
798.656	-216
798.758	735
798.860	1223
798.962	1075
799.065	1548
799.167	1063
799.269	1599
799.371	345
799.473	1827
799.575	151
799.677	1248
799.779	1062
799.881	964
799.983	1282
800.085	737
800.187	542
800.289	593
800.390	268
800.492	1180
800.594	430
800.696	899
800.798	442
800.899	36
801.001	1104
801.103	1057
801.205	-57
801.306	619
801.408	272
801.509	460
801.611	147
801.713	784
801.814	36
801.916	133
802.017	203
802.119	365
802.220	804
802.322	363
802.423	2106
802.525	773
802.626	327
802.727	428
802.829	631
802.930	371
803.031	662
803.133	380
803.234	617
803.335	1141
803.436	893
803.538	43
803.639	-113
803.740	853
803.841	334
803.942	180
804.043	370
804.144	626
804.245	447
804.346	475
804.447	55
804.548	718
804.649	573
804.750	1013
804.851	50
804.952	128
805.053	616
805.154	408
805.255	558
805.355	691
805.456	198
805.557	679
805.658	-109
805.758	670
805.859	766
805.960	478
806.061	-385
806.161	439
806.262	749
806.362	78
806.463	503
806.564	905
806.664	477
806.765	1061
806.865	530
806.966	554
807.066	826
807.166	845
807.267	725
807.367	880
807.468	616
807.568	425
807.668	546
807.769	1225
807.869	-32
807.969	762
808.069	455
808.170	71
808.270	999
808.370	715
808.470	-97
808.570	869
808.670	196
808.770	500
808.870	273
808.970	906
809.070	-315
809.170	729
809.271	657
809.370	-589
809.470	433
809.570	348
809.670	457
809.770	214
809.870	918
809.970	1475
810.070	345
810.169	752
810.269	-468
810.369	1081
810.469	687
810.568	698
810.668	330
810.768	-420
810.867	-103
810.967	321
811.066	618
811.166	686
811.265	241
811.365	160
811.464	17
811.564	366
811.663	136
811.763	-649
811.862	444
811.962	637
812.061	598
812.160	1560
812.260	71
812.359	96
812.458	-323
812.557	60
812.657	-171
812.756	486
812.855	699
812.954	431
813.053	209
813.153	1445
813.252	302
813.351	1055
813.450	1006
813.549	796
813.648	779
813.747	293
813.846	426
813.945	1140
814.044	664
814.143	757
814.242	1257
814.341	1162
814.439	352
814.538	1598
814.637	235
814.736	105
814.835	863
814.933	773
815.032	985
815.131	1390
815.229	1807
815.328	2184
815.427	1737
815.525	2576
815.624	1865
815.722	2336
815.821	1820
815.919	2241
816.018	1498
816.116	2539
816.215	2053
816.313	2103
816.412	2849
816.510	2846
816.609	3845
816.707	3107
816.805	3553
816.904	3179
817.002	3539
817.100	4008
817.198	4946
817.296	5255
817.395	5624
817.493	7991
817.591	9217
817.689	11641
817.787	16605
817.885	22495
817.983	38704
818.081	69694
818.179	148300
818.277	339845
818.375	618230
818.473	384965
818.571	130242
818.669	61413
818.767	43116
818.865	38972
818.963	40793
819.061	50960
819.158	75206
819.256	131885
819.354	264543
819.452	558674
819.549	760124
819.647	440807
819.745	173874
819.842	86881
819.940	52562
820.038	36098
820.135	26899
820.233	20751
820.330	16359
820.428	12325
820.525	10254
820.623	9291
820.720	8765
820.818	7789
820.915	6409
821.012	5716
821.110	5138
821.207	4478
821.304	3434
821.402	4270
821.499	4019
821.596	4110
821.693	3691
821.791	3442
821.888	2698
821.985	3629
822.082	3159
822.179	3016
822.276	2686
822.373	2265
822.470	2125
822.567	2626
822.664	2421
822.761	1632
822.858	1152
822.955	1325
823.052	1182
823.149	1157
823.246	839
823.343	2181
823.440	1424
823.536	1328
823.633	1137
823.730	1004
823.827	1319
823.923	1629
824.020	1464
824.117	336
824.213	405
824.310	1522
824.407	711
824.503	608
824.600	1359
824.696	764
824.793	1452
824.889	1621
824.986	1074
825.082	714
825.179	590
825.275	1085
825.371	808
825.468	1771
825.564	653
825.660	859
825.757	908
825.853	1516
825.949	903
826.045	1144
826.142	874
826.238	1313
826.334	846
826.430	500
826.526	197
826.622	471
826.718	83
826.814	671
826.910	916
827.006	918
827.102	664
827.198	932
827.294	105
827.390	447
827.486	44
827.582	249
827.678	-172
827.774	1055
827.869	-313
827.965	1439
828.061	224
828.157	532
828.252	294
828.348	-146
828.444	412
828.539	568
828.635	342
828.731	499
828.826	205
828.922	278
829.017	-177
829.113	285
829.208	291
829.304	390
829.399	1035
829.495	249
829.590	-250
829.685	-16
829.781	339
829.876	-127
829.971	-604
830.066	-305
830.162	385
830.257	-227
830.352	-213
830.447	1034
830.543	224
830.638	-488
830.733	654
830.828	-147
830.923	935
831.018	-208
831.113	870
831.208	246
831.303	-433
831.398	-117
831.493	-146
831.588	134
831.683	-340
831.778	675
831.873	-448
831.967	-245
832.062	-590
832.157	-778
832.252	-288
832.346	509
832.441	202
832.536	245
832.631	183
832.725	1409
832.820	-708
832.914	-77
833.009	-709
833.104	-46
833.198	623
833.293	-395
833.387	-31
833.482	173
833.576	-322
833.670	197
833.765	43
833.859	167
833.954	240
834.048	-53
834.142	235
834.237	38
834.331	-287
834.425	127
834.519	-160
834.613	615
834.708	-1130
834.802	-97
834.896	-597
834.990	-176
835.084	-80
835.178	-536
835.272	-328
835.366	-648
835.460	275
835.554	116
835.648	-403
835.742	406
835.836	336
835.930	-525
836.024	-213
836.117	640
836.211	638
836.305	1240
836.399	-252
836.493	218
836.586	164
836.680	-640
836.774	-1715
836.867	585
836.961	-624
837.055	-334
837.148	-31
837.242	285
837.335	290
837.429	174
837.522	-137
837.616	-1074
837.709	883
837.803	487
837.896	-128
837.989	-12
838.083	583
838.176	934
838.269	1269
838.363	2021
838.456	-938
838.549	-578
838.642	226
838.735	1136
838.829	467
838.922	99
839.015	-662
839.108	109
839.201	-74
839.294	-195
839.387	-124
839.480	-233
839.573	-492
839.666	-668
839.759	-287
839.852	270
839.945	-498
840.038	-21
840.131	-336
840.223	354
840.316	-283
840.409	-438
840.502	-86
840.594	-225
840.687	-1005
840.780	26
840.873	-1055
840.965	-105
841.058	264
841.150	906
841.243	989
841.336	405
841.428	-533
841.521	-221
841.613	-939
841.706	-268
841.798	-366
841.890	-382
841.983	-908
842.075	12
842.167	454
842.260	-330
842.352	-206
842.444	170
842.537	1156
842.629	1784
842.721	1863
842.813	224
842.905	-212
842.997	116
843.090	-160
843.182	189
843.274	294
843.366	3011
843.458	5163
843.550	9356
843.642	2340
843.734	733
843.826	-521
843.918	103
844.009	34
844.101	-772
844.193	-160
844.285	-334
844.377	576
844.469	310
844.560	-460
844.652	-226
844.744	947
844.835	444
844.927	-618
845.019	27
845.110	-516
845.202	-39
845.293	-242
845.385	-171
845.476	218
845.568	476
845.659	-777
845.751	-606
845.842	-557
845.934	-571
846.025	-71
846.116	39
846.208	-105
846.299	-260
846.390	-210
846.482	-78
846.573	-308
846.664	168
846.755	-239
846.846	404
846.937	-334
847.029	-152
847.120	-880
847.211	-973
847.302	557
847.393	-567
847.484	-639
847.575	-774
847.666	-692
847.757	280
847.847	-733
847.938	-314
848.029	65
848.120	-126
848.211	-724
848.302	-733
848.392	-1071
848.483	-1041
848.574	-1174
848.664	-152
848.755	-711
848.846	486
848.936	-980
849.027	277
849.118	-752
849.208	-979
849.299	-559
849.389	461
849.480	872
849.570	1577
849.661	3911
849.751	9025
849.841	10955
849.932	1510
850.022	-551
850.112	185
850.203	-82
850.293	-754
850.383	-771
850.474	-605
850.564	-481
850.654	-193
850.744	-168
850.834	-6
850.924	-698
851.014	-56
851.104	-222
851.194	91
851.284	-1280
851.374	-449
851.464	-253
851.554	172
851.644	-310
851.734	565
851.824	-644
851.914	383
852.004	-224
852.094	-112
852.183	-650
852.273	-345
852.363	-226
852.452	-853
852.542	-405
852.632	-650
852.721	-163
852.811	-531
852.901	-631
852.990	228
853.080	-1014
853.169	-235
853.259	-860
853.348	-639
853.438	-686
853.527	38
853.617	65
853.706	1644
853.795	3850
853.885	8709
853.974	19771
854.063	34768
854.152	70877
854.242	71977
854.331	15456
854.420	2343
854.509	1100
854.598	1144
854.687	156
854.777	1118
854.866	-503
854.955	23
855.044	-693
855.133	-56
855.222	-162
855.311	-141
855.400	-317
855.488	-858
855.577	-384
855.666	324
855.755	-388
855.844	44
855.933	-287
856.021	730
856.110	-778
856.199	-546
856.288	-1146
856.376	-600
856.465	-383
856.554	-538
856.642	-1279
856.731	-608
856.819	-575
856.908	-345
856.996	-855
857.085	-529
857.173	-403
857.262	-98
857.350	-593
857.438	-886
857.527	-891
857.615	-743
857.703	-738
857.792	-756
857.880	-905
857.968	-464
858.056	-760
858.145	-61
858.233	-1084
858.321	-154
858.409	-1019
858.497	-1212
858.585	-1173
858.673	97
858.761	-1487
858.849	-1560
858.937	-933
859.025	-508
859.113	-454
859.201	-831
859.289	246
859.377	-473
859.465	-401
859.552	-988
859.640	-216
859.728	-105
859.816	-652
859.903	-818
859.991	-1538
860.079	-858
860.166	-1082
860.254	12
860.342	-94
860.429	-298
860.517	-363
860.604	-884
860.692	225
860.779	-1135
860.867	-656
860.954	-185
861.042	-348
861.129	-1126
861.216	-738
861.304	-1419
861.391	-1056
861.478	-1016
861.565	-235
861.653	-460
861.740	-1236
861.827	-804
861.914	-647
862.001	-1332
862.089	-750
862.176	54
862.263	-518
862.350	-504
862.437	-1205
862.524	-854
862.611	-337
862.698	-914
862.785	-576
862.871	-284
862.958	-1017
863.045	426
863.132	81
863.219	-295
863.306	-1162
863.392	-542
863.479	-1360
863.566	-640
863.652	-56
863.739	-627
863.826	-903
863.912	-508
863.999	-1330
864.086	-229
864.172	-1280
864.259	-654
864.345	-1027
864.432	-84
864.518	-1063
864.604	-149
864.691	-826
864.777	-303
864.863	-731
864.950	-140
865.036	13
865.122	242
865.209	412
865.295	-269
865.381	601
865.467	734
865.553	192
865.639	845
865.726	911
865.812	4330
865.898	9203
865.984	17200
866.070	23628
866.156	49398
866.242	31024
866.328	5586
866.414	1195
866.499	238
866.585	260
866.671	372
866.757	238
866.843	804
866.928	-374
867.014	-63
867.100	240
867.186	226
867.271	703
867.357	790
867.442	781
867.528	930
867.614	283
867.699	32
867.785	-82
867.870	-567
867.956	-26
868.041	639
868.127	-52
868.212	-358
868.297	395
868.383	220
868.468	-536
868.553	81
868.639	-70
868.724	380
868.809	1394
868.894	1253
868.979	-178
869.065	-424
869.150	-304
869.235	-112
869.320	-163
869.405	-157
869.490	-671
869.575	-385
869.660	-22
869.745	-182
869.830	-958
869.915	-209
870.000	-359
870.085	152
870.169	-732
870.254	296
870.339	-982
870.424	-774
870.509	-378
870.593	152
870.678	-577
870.763	805
870.847	-580
870.932	-882
871.016	-395
871.101	196
871.186	-717
871.270	65
871.355	-1227
871.439	-816
871.523	-1061
871.608	-205
871.692	-539
871.777	-21
871.861	79
871.945	-332
872.030	-369
872.114	-113
872.198	-304
872.282	-568
872.367	-368
872.451	-758
872.535	-499
872.619	-483
872.703	26
872.787	-63
872.871	-1010
872.955	-1282
873.039	-1011
873.123	-312
873.207	-393
873.291	-699
873.375	-726
873.459	-128
873.543	-517
873.627	480
873.711	-558
873.794	153
873.878	-860
873.962	-448
874.045	-672
874.129	-123
874.137	-198
874.213	-946
874.245	-777
874.296	-511
874.352	-523
874.380	-533
874.460	-1154
874.464	-1179
874.547	-608
874.568	-586
874.631	-529
874.676	-521
874.714	-505
874.784	-287
874.798	-259
874.881	458
874.892	303
874.965	-667
874.999	-515
875.048	-329
875.107	-555
875.131	-654
875.215	-661
875.215	-660
875.298	-563
875.323	-606
875.381	-658
875.430	-727
875.465	-770
875.538	-901
875.548	-919
875.631	-288
875.646	-390
875.714	-986
875.753	-1167
875.798	-1296
875.861	-826
875.881	-678
875.964	-199
875.968	-214
876.047	-534
876.076	-733
876.130	-1092
876.183	-818
876.213	-687
876.291	-301
876.296	-268
876.379	-313
876.398	-285
876.462	-241
876.506	-464
876.545	-642
876.613	-602
876.628	-609
876.711	-500
876.721	-529
876.794	-641
876.828	-426
876.877	-185
876.935	-444
876.960	-537
877.043	-552
877.043	-551
877.125	8
877.150	3
877.208	-123
877.258	-292
877.291	-293
877.365	-39
877.374	-47
877.456	286
877.472	199
877.539	47
877.579	306
877.622	511
877.687	242
877.704	195
877.787	172
877.794	133
877.869	-396
877.901	-116
877.952	338
878.008	-256
878.034	-510
878.115	-194
878.117	-187
878.199	-389
878.222	-304
878.282	-58
878.329	-215
878.364	-355
878.437	-34
878.447	4
878.529	-383
878.544	-273
878.611	285
878.651	-22
878.694	-238
878.758	259
878.776	349
878.858	-48
878.865	-74
878.941	-365
878.972	-315
879.023	-119
879.078	-199
879.105	-273
879.185	-284
879.187	-280
879.269	99
879.292	1
879.351	-381
879.399	-339
879.433	-296
879.506	-277
879.516	-238
879.598	29
879.613	10
879.680	-430
879.720	-349
879.762	-56
879.827	-152
879.844	-179
879.926	145
879.933	122
880.007	-336
880.040	-206
880.089	173
880.147	14
880.171	-211
880.253	-488
880.254	-491
880.335	35
880.360	227
880.417	377
880.467	675
880.499	1312
880.574	3136
880.580	3166
880.662	2374
880.680	2074
880.744	787
880.787	168
880.825	-36
880.893	170
880.907	263
880.989	-179
881.000	-44
881.070	314
881.106	-100
881.152	-302
881.213	-31
881.233	-14
881.315	-217
881.319	-212
881.396	-13
881.426	-89
881.478	-89
881.532	33
881.559	5
881.639	-157
881.641	-153
881.722	98
881.745	39
881.803	-255
881.852	-315
881.885	-256
881.958	-139
881.966	-136
882.047	-135
882.064	-190
882.129	-395
882.171	-96
882.210	90
882.277	-196
882.291	-114
882.372	450
882.383	561
882.454	620
882.489	549
882.535	463
882.596	-26
882.616	-60
882.697	679
882.702	658
882.778	-1
882.808	-19
882.859	35
882.914	8
882.940	81
883.020	137
883.021	142
883.102	399
883.127	511
883.183	473
883.233	101
883.264	-27
883.339	310
883.345	328
883.426	20
883.445	-21
883.507	215
883.551	280
883.587	62
883.657	-15
883.668	81
883.749	370
883.763	388
883.830	-43
883.869	-132
883.910	35
883.975	417
883.991	347
884.072	-491
884.081	-562
884.152	113
884.187	456
884.233	473
884.292	523
884.314	440
884.394	-15
884.398	-43
884.475	-542
884.504	-752
884.555	-387
884.610	58
884.636	75
884.716	222
884.716	228
884.797	306
884.821	273
884.877	-182
884.927	-349
884.958	-137
885.033	-73
885.038	-84
885.118	-248
885.139	-228
885.199	-141
885.244	-37
885.279	21
885.350	-118
885.359	-91
885.439	473
885.456	480
885.520	459
885.561	621
885.600	401
885.667	-319
885.680	-371
885.760	-205
885.773	-199
885.840	175
885.878	342
885.920	422
885.984	385
886.000	399
886.080	468
886.089	491
886.160	199
886.195	41
886.240	269
886.300	376
886.320	323
886.400	547
886.406	527
886.480	466
886.511	583
886.560	615
886.616	372
886.640	372
886.720	664
886.722	665
886.800	322
886.827	137
886.879	230
886.932	322
886.959	323
887.038	464
887.039	470
887.119	339
887.143	379
887.198	492
887.248	429
887.278	397
887.354	513
887.358	551
887.437	1047
887.459	1199
887.517	744
887.564	318
887.596	322
887.669	335
887.676	381
887.755	905
887.774	1029
887.835	475
887.880	3
887.914	107
887.985	374
887.994	378
888.073	352
888.090	351
888.153	500
888.195	520
888.232	656
888.300	992
888.311	926
888.391	431
888.405	325
888.470	523
888.510	617
888.549	459
888.615	213
888.628	255
888.708	524
888.720	556
888.787	299
888.825	120
888.866	98
888.930	89
888.945	177
889.024	644
889.035	702
889.103	821
889.140	854
889.182	812
889.245	789
889.261	798
889.340	769
889.349	767
889.419	749
889.454	715
889.498	554
889.559	360
889.577	350
889.656	280
889.664	275
889.735	253
889.768	241
889.814	214
889.873	182
889.978	1082
890.083	828
890.187	586
890.292	1087
890.397	1238
890.501	1470
890.606	717
890.710	715
890.815	286
890.919	89
891.024	438
891.128	798
891.233	-132
891.337	1622
891.442	813
891.546	1079
891.650	675
891.755	72
891.859	1086
891.963	363
892.068	133
892.172	456
892.276	623
892.380	338
892.484	354
892.589	823
892.693	1376
892.797	-56
892.901	318
893.005	209
893.109	638
893.213	1026
893.317	1053
893.421	618
893.525	173
893.629	326
893.733	381
893.837	629
893.941	517
894.045	943
894.148	-299
894.252	266
894.356	107
894.460	762
894.564	958
894.667	603
894.771	536
894.875	326
894.978	258
895.082	624
895.186	441
895.289	1271
895.393	574
895.496	1136
895.600	16
895.703	676
895.807	1009
895.910	1211
896.014	-17
896.117	958
896.221	231
896.324	726
896.427	296
896.531	495
896.634	676
896.737	343
896.840	808
896.944	60
897.047	494
897.150	600
897.253	-13
897.356	806
897.460	-227
897.563	409
897.666	460
897.769	671
897.872	407
897.975	264
898.078	251
898.181	837
898.284	-103
898.387	675
898.490	242
898.593	399
898.695	54
898.798	902
898.901	968
899.004	243
899.107	623
899.209	184
899.312	919
899.415	908
899.518	491
899.620	-372
899.723	597
899.826	562
899.928	1092
900.031	1066
900.133	-232
900.236	1270
900.338	300
900.441	228
900.543	931
900.646	594
900.748	237
900.851	1334
900.953	485
901.055	672
901.158	365
901.260	753
901.362	-249
901.465	906
901.567	416
901.669	633
901.771	-83
901.873	439
901.976	1159
902.078	-27
902.180	200
902.282	931
902.384	606
902.486	758
902.588	1100
902.690	352
902.792	307
902.894	-190
902.996	625
903.098	43
903.200	789
903.302	867
903.404	549
903.505	90
903.607	-91
903.709	571
903.811	195
903.913	772
904.014	213
904.116	1093
904.218	442
904.319	1006
904.421	459
904.523	72
904.624	-225
904.726	194
904.827	211
904.929	670
905.030	-215
905.132	700
905.233	307
905.335	714
905.436	523
905.537	114
905.639	750
905.740	5
905.841	796
905.943	1264
906.044	-185
906.145	999
906.247	642
906.348	548
906.449	372
906.550	349
906.651	888
906.752	-22
906.854	183
906.955	241
907.056	-29
907.157	573
907.258	815
907.359	239
907.460	571
907.561	211
907.662	-61
907.762	851
907.863	204
907.964	590
908.065	-182
908.166	304
908.267	-184
908.367	1081
908.468	422
908.569	633
908.670	359
908.770	417
908.871	1100
908.971	1598
909.072	1082
909.173	793
909.273	641
909.374	-94
909.474	204
909.575	944
909.675	570
909.776	1080
909.876	276
909.977	94
910.077	735
910.177	1449
910.278	897
910.378	986
910.478	338
910.579	589
910.679	1054
910.779	417
910.879	768
910.980	69
911.080	645
911.180	525
911.280	-421
911.380	605
911.480	821
911.580	446
911.680	547
911.780	1867
911.880	-44
911.980	554
912.080	570
912.180	674
912.280	579
912.380	-109
912.480	405
912.580	379
912.679	745
912.779	634
912.879	994
912.979	769
913.078	615
913.178	555
913.278	152
913.377	971
913.477	-294
913.577	250
913.676	192
913.776	671
913.875	152
913.975	484
914.074	370
914.174	119
914.273	747
914.373	1006
914.472	517
914.572	69
914.671	537
914.770	192
914.870	744
914.969	1097
915.068	389
915.167	380
915.267	-429
915.366	99
915.465	755
915.564	740
915.663	287
915.763	716
915.862	1201
915.961	993
916.060	210
916.159	246
916.258	-77
916.357	661
916.456	1241
916.555	-4
916.654	880
916.752	1144
916.851	1205
916.950	355
917.049	271
917.148	162
917.247	97
917.345	98
917.444	1146
917.543	1492
917.642	361
917.740	1091
917.839	562
917.937	473
918.036	517
918.135	878
918.233	866
918.332	325
918.430	162
918.529	409
918.627	539
918.726	447
918.824	45
918.923	-65
919.021	469
919.119	127
919.218	-105
919.316	399
919.414	656
919.512	211
919.611	514
919.709	1207
919.807	271
919.905	1011
920.003	660
920.102	880
920.200	898
920.298	414
920.396	1111
920.494	-282
920.592	-44
920.690	969
920.788	524
920.886	169
920.984	668
921.082	702
921.180	914
921.277	384
921.375	102
921.473	1594
921.571	615
921.669	280
921.766	413
921.864	1793
921.962	314
922.060	543
922.157	1027
922.255	1127
922.352	607
922.450	896
922.548	1097
922.645	654
922.743	542
922.840	1092
922.938	2282
923.035	1851
923.133	2021
923.230	2596
923.327	1867
923.425	3018
923.522	1548
923.619	1756
923.717	1807
923.814	1992
923.911	2115
924.008	1764
924.106	1164
924.203	2238
924.300	2086
924.397	2107
924.494	1910
924.591	2287
924.688	1518
924.786	2201
924.883	2142
924.979	1751
925.077	2614
925.173	2023
925.270	1899
925.367	1502
925.464	2560
925.561	1673
925.658	1822
925.755	1519
925.852	2157
925.948	2370
926.045	2013
926.142	2119
926.239	1936
926.335	2339
926.432	1550
926.529	2141
926.625	2778
926.722	1573
926.818	779
926.915	1663
927.011	1893
927.108	1681
927.204	1965
927.301	1573
927.397	1212
927.494	2380
927.590	977
927.687	836
927.783	1800
927.879	2107
927.976	1292
928.072	1524
928.168	1652
928.264	1988
928.361	936
928.457	1732
928.553	867
928.649	1637
928.745	1865
928.841	1137
928.937	1782
929.033	1491
929.129	1440
929.225	320
929.321	976
929.417	692
929.513	279
929.609	845
929.705	1640
929.801	1138
929.897	2034
929.993	1842
930.089	148
930.184	326
930.280	1087
930.376	1502
930.471	1390
930.567	236
930.663	1079
930.758	1143
930.854	649
930.950	670
931.045	1543
931.141	602
931.236	565
931.332	1950
931.427	607
931.523	1374
931.618	1019
931.714	605
931.809	1050
931.905	1361
932.000	1191
932.095	700
932.191	546
932.286	1608
932.381	841
932.476	1038
932.572	288
932.667	1339
932.762	477
932.857	387
932.952	1241
933.047	1437
933.142	530
933.237	471
933.332	901
933.427	797
933.522	489
933.617	905
933.712	433
933.807	788
933.902	1010
933.997	1546
934.092	850
934.187	1296
934.282	-81
934.376	847
934.471	537
934.566	382
934.661	1450
934.755	1280
934.850	911
934.945	831
935.039	378
935.134	818
935.228	-111
935.323	1264
935.417	894
935.512	151
935.606	272
935.701	214
935.795	380
935.890	551
935.984	1357
936.079	1027
936.173	660
936.267	576
936.362	261
936.456	841
936.550	-63
936.644	639
936.738	301
936.833	657
936.927	631
937.021	1397
937.115	242
937.209	617
937.303	1570
937.397	724
937.491	890
937.585	306
937.679	712
937.773	536
937.867	299
937.961	853
938.055	451
938.149	1459
938.243	355
938.337	575
938.430	-324
938.524	607
938.618	1251
938.712	742
938.805	912
938.899	574
938.993	586
939.086	1540
939.180	983
939.274	1520
939.367	559
939.461	1198
939.554	431
939.648	168
939.741	514
939.835	328
939.928	967
940.022	1263
940.115	479
940.208	630
940.302	710
940.395	590
940.488	859
940.582	468
940.675	122
940.768	364
940.861	305
940.954	763
941.048	-114
941.141	510
941.234	95
941.327	1940
941.420	2873
941.513	2077
941.606	551
941.699	885
941.792	82
941.885	1385
941.978	341
942.071	859
942.164	795
942.257	1113
942.349	139
942.442	73
942.535	-125
942.628	268
942.721	-698
942.813	541
942.906	-239
942.999	303
943.091	-470
943.184	1029
943.277	-40
943.369	876
943.462	243
943.554	828
943.647	-167
943.739	176
943.832	-63
943.924	-774
944.017	494
944.109	443
944.201	742
944.294	688
944.386	-358
944.478	216
944.571	-590
944.663	-259
944.755	-87
944.847	744
944.940	921
945.032	-55
945.124	509
945.216	146
945.308	-93
945.400	120
945.492	612
945.584	884
945.676	335
945.768	201
945.860	29
945.952	667
946.044	520
946.136	1414
946.228	174
946.320	76
946.412	-417
946.503	224
946.595	452
946.687	745
946.779	-237
946.870	132
946.962	-172
947.054	326
947.145	147
947.237	249
947.329	544
947.420	329
947.512	970
947.603	-151
947.695	419
947.786	-205
947.878	-583
947.969	-1088
948.061	61
948.152	-83
948.243	49
948.335	-2
948.426	-235
948.517	460
948.609	-56
948.700	-178
948.791	413
948.882	246
948.973	-715
949.065	61
949.156	565
949.247	-833
949.338	-222
949.429	-218
949.520	-541
949.611	23
949.702	158
949.793	291
949.884	-392
949.975	321
950.066	-78
950.157	-166
950.247	-301
950.338	-189
950.429	-1000
950.520	61
950.611	240
950.701	757
950.792	-7
950.883	1140
950.973	767
951.064	176
951.155	839
951.245	62
951.336	657
951.427	-205
951.517	-552
951.608	-469
951.698	372
951.788	-132
951.879	-203
951.969	-5
952.060	-205
952.150	-606
952.240	-26
952.331	-555
952.421	840
952.511	-398
952.602	735
952.692	-455
952.782	-88
952.872	-472
952.962	-478
953.052	101
953.143	-419
953.233	-5
953.323	-11
953.413	-148
953.503	-148
953.593	-522
953.683	-253
953.773	558
953.863	-582
953.953	-501
954.042	-175
954.132	89
954.222	-435
954.312	540
954.402	-486
954.492	-88
954.581	1042
954.671	1503
954.761	390
954.850	-201
954.940	-117
955.030	-227
955.119	-663
955.209	-771
955.298	116
955.388	-39
955.477	789
955.567	-687
955.656	-609
955.746	316
955.835	-508
955.925	-252
956.014	-445
956.103	-105
956.193	230
956.282	-145
956.371	-549
956.461	-111
956.550	226
956.639	185
956.728	-616
956.817	-357
956.906	-334
956.995	387
957.085	-632
957.174	-344
957.263	-237
957.352	-574
957.441	-144
957.530	-383
957.619	-582
957.708	527
957.796	-481
957.885	-617
957.974	39
958.063	-155
958.152	-612
958.241	-150
958.329	56
958.418	-895
958.507	-189
958.596	-836
958.684	-617
958.773	-255
958.861	-607
958.950	3
959.039	-339
959.127	10
959.216	-508
959.304	148
959.393	-708
959.481	-568
959.570	-278
959.658	23
959.746	-94
959.835	237
959.923	734
960.011	1788
960.100	-331
960.188	-205
960.276	29
960.365	475
960.453	-387
960.541	-670
960.629	-172
960.717	-596
960.805	-495
960.893	-358
960.981	-494
961.069	103
961.158	-379
961.245	-61
961.333	-952
961.421	308
961.509	-832
961.597	335
961.685	-264
961.773	217
961.861	-991
961.949	-278
962.036	-388
962.124	-659
962.212	-709
962.299	-1100
962.387	-1176
962.475	-775
962.562	-773
962.650	-253
962.738	-699
962.825	-792
962.913	-750
963.000	-986
963.088	-1013
963.175	-125
963.263	-49
963.350	-107
963.438	-767
963.525	725
963.612	154
963.700	1813
963.787	6264
963.874	11496
963.962	2279
964.049	-248
964.136	-145
964.223	-856
964.310	-1433
964.398	-478
964.485	-749
964.572	-919
964.659	484
964.746	1551
964.833	-467
964.920	-1041
965.007	-681
965.094	-791
965.181	-741
965.268	-168
965.355	-672
965.441	-310
965.528	-1267
965.615	206
965.702	-955
965.789	-610
965.875	-66
965.962	-640
966.049	-823
966.136	-517
966.222	27
966.309	-51
966.395	-717
966.482	-470
966.569	-508
966.655	-494
966.742	-776
966.828	-635
966.915	-690
967.001	426
967.087	-814
967.174	-757
967.260	-685
967.347	-723
967.433	1297
967.519	4716
967.605	6707
967.692	217
967.778	-116
967.864	-1159
967.950	-925
968.036	-811
968.123	-461
968.209	-176
968.295	-1652
968.381	-609
968.467	-1037
968.553	-653
968.639	-566
968.725	-373
968.811	-388
968.897	1354
968.983	-361
969.069	-509
969.154	-695
969.240	-387
969.326	-1204
969.412	-1337
969.497	-1466
969.583	-994
969.669	-58
969.755	-234
969.840	-844
969.926	-155
970.012	-212
970.097	-167
970.183	-337
970.268	-120
970.354	-491
970.439	443
970.525	2085
970.610	2630
970.696	-115
970.781	-406
970.866	-1236
970.952	-215
971.037	-1299
971.122	-536
971.208	-791
971.293	-860
971.378	-1239
971.463	-694
971.549	-843
971.634	-1650
971.719	-1374
971.804	-607
971.889	-490
971.974	-665
972.059	-442
972.144	-634
972.229	-492
972.314	-802
972.399	-1443
972.484	-977
972.569	-400
972.654	-355
972.739	746
972.824	1414
972.908	945
972.993	-1604
973.078	-428
973.163	-447
973.247	-1363
973.332	-1141
973.417	-29
973.501	-1341
973.586	-862
973.671	-730
973.755	-600
973.840	-25
973.924	-703
974.009	-530
974.093	-1039
974.178	380
974.262	351
974.346	695
974.431	116
974.515	-696
974.600	-933
974.684	-308
974.768	-794
974.852	-648
974.937	-1248
975.021	-748
975.105	-937
975.189	-615
975.273	-448
975.358	-172
975.442	-1025
975.526	-1251
975.610	-1279
975.694	-1001
975.778	-551
975.862	-500
975.946	-1944
976.030	-479
976.114	-1021
976.198	-1008
976.281	-1638
976.365	-377
976.449	-1468
976.533	-888
976.617	-698
976.700	-397
976.784	-1120
976.868	-56
976.951	-1245
977.035	79
977.119	94
977.202	-239
977.286	-488
977.369	-391
977.453	-699
977.536	-432
977.620	-782
977.703	-1101
977.787	-1577
977.870	-200
977.953	-601
978.037	-1100
978.120	165
978.203	-438
978.287	1726
978.370	1200
978.453	83
978.536	-607
978.620	322
978.703	304
978.786	450
978.869	-527
978.952	-694
979.035	-580
979.118	-775
979.201	-665
979.284	-574
979.367	-494
979.450	-317
979.533	-968
979.616	-281
979.699	-1184
979.782	-372
979.865	-609
979.948	-495
980.030	-1107
980.113	-848
980.196	-703
980.279	-889
980.361	-683
980.444	-1036
980.526	-973
980.609	-1279
980.692	-949
980.774	-926
980.857	-932
980.939	150
981.022	-1309
981.104	-800
981.187	-481
981.269	-360
981.352	-290
981.434	-875
981.516	-1047
981.599	-1176
981.681	-102
981.763	-1329
981.846	-903
981.928	-1121
982.010	-568
982.092	-822
982.174	-683
982.256	-449
982.339	-114
982.421	-686
982.503	-201
982.585	-1169
982.667	-715
982.749	-739
982.831	-519
982.913	-28
982.995	-889
983.077	-1153
983.158	354
983.240	-1012
983.322	147
983.404	88
983.486	-1181
983.568	-708
983.649	-305
983.731	-671
983.813	-1021
983.894	-1171
983.976	-416
984.058	-1017
984.139	-202
984.221	-911
984.302	134
984.384	-683
984.465	-989
984.547	-934
984.628	-746
984.710	-425
984.791	-964
984.872	-924
984.954	-1226
985.035	-995
985.116	-1100
985.198	-800
985.279	-1121
985.360	-1159
985.441	-877
985.522	-588
985.604	-31
985.685	-864
985.766	91
985.847	-108
985.928	-1301
986.009	-517
986.090	-1647
986.171	-807
986.252	-712
986.333	-1308
986.414	-1077
986.495	-770
986.576	-332
986.656	-1474
986.737	-369
986.818	-1241
986.899	-866
986.980	-1304
987.060	-430
987.141	-555
987.222	-559
987.302	-817
987.383	-550
987.464	-667
987.544	-645
987.625	-975
987.705	-489
987.786	-832
987.866	-1017
987.947	-1234
988.027	-535
988.108	-659
988.188	-742
988.268	-228
988.349	74
988.429	-459
988.509	79
988.589	-575
988.670	-974
988.750	-207
988.830	-1019
988.910	-1155
988.990	-733
989.070	-1401
989.151	-493
989.231	-964
989.311	-912
989.391	-555
989.471	-100
989.551	-1313
989.631	-854
989.711	-663
989.791	-693
989.870	-1138
989.950	-506
990.030	-1517
990.110	-849
990.190	-943
990.269	-563
990.349	-801
990.429	-613
990.509	-232
990.588	-808
990.668	-615
990.747	-744
990.827	-550
990.907	-1256
990.986	-1495
991.066	-319
991.145	-1006
991.225	-1026
991.304	-2251
991.383	-659
991.463	-809
991.542	-750
991.622	-648
991.701	-1087
991.780	-930
991.859	-701
991.939	-1997
992.018	-1624
992.097	-542
992.176	-496
992.256	-891
992.335	-1655
992.414	-276
992.493	-500
992.572	-1360
992.651	-1365
992.730	-1035
992.809	-653
992.888	-904
992.967	-995
993.046	-1102
993.125	-1243
993.203	-467
993.282	-465
993.361	-587
993.440	-1004
993.519	-1300
993.597	-853
993.676	-1168
993.755	-446
993.834	-1951
993.912	-949
993.991	-837
994.069	-1129
994.148	-836
994.226	-1007
994.305	-1139
994.384	-1285
994.462	-655
994.540	-1357
994.619	-2019
994.697	-848
994.776	-741
994.854	-167
994.932	-1442
995.011	-1093
995.089	-1506
995.167	-1265
995.245	-1299
995.324	-1102
995.402	-1030
995.480	-932
995.558	-1116
995.636	-1351
995.714	-2063
995.792	-1148
995.870	-785
995.948	-1364
996.026	-1426
996.104	-1721
996.182	-712
996.260	-2308
996.338	-860
996.416	-1997
996.494	-1388
996.572	-1256
996.649	-1368
996.727	-1110
996.805	-1527
996.883	-1795
996.960	-1616
997.038	-470
997.116	-1235
997.193	-1565
997.271	-1376
997.348	-1577
997.426	-1783
997.504	-2196
997.581	-412
997.658	-747
997.736	-1820
997.813	-1606
997.891	-706
997.968	-1530
998.046	-1133
998.123	-1493
998.200	-946
998.277	-1330
998.355	-1151
998.432	-1490
998.509	-1717
998.586	-735
998.663	-944
998.741	-1279
998.818	-1502
998.895	-1477
998.972	-872
999.049	-1044
999.126	-1582
999.203	-1474
999.280	-637
999.357	-1540
999.434	-1376
999.511	-1236
999.587	-1179
999.664	-1978
999.741	-761
999.818	-1359
999.895	-1208
999.971	-1459
1000.048	-2052
1000.125	-1534
1000.202	-1869
1000.278	-1416
1000.355	-1230
1000.431	-1530
1000.508	-1479
1000.584	-1457
1000.661	-1563
1000.738	-998
1000.814	-1271
1000.890	-1876
1000.967	-1541
1001.043	-1774
1001.120	-1942
1001.196	-1401
1001.272	-1903
1001.349	-1184
1001.425	-1213
1001.501	-1400
1001.577	-1440
1001.654	-2128
1001.730	-2031
1001.806	-2144
1001.882	-2466
1001.958	-1264
1002.034	-1888
1002.110	-1567
1002.186	-1927
1002.262	-1863
1002.338	-2427
1002.414	-1239
1002.490	-1004
1002.566	-2229
1002.642	-1799
1002.718	-1383
1002.794	-1330
1002.870	-2008
1002.945	-1965
1003.021	-1720
1003.097	-2730
1003.173	-1923
1003.248	-1522
1003.324	-1551
1003.400	-1857
1003.475	-1170
1003.551	-1420
1003.626	-1425
1003.702	-1552
1003.777	-1659
1003.853	-1979
1003.928	-2289
1004.004	-1932
1004.079	-1288
1004.155	-2617
1004.230	-2484
1004.305	-2016
1004.381	-1489
1004.456	-1719
1004.531	-1635
1004.607	-1880
1004.682	-1316
1004.757	-1564
1004.832	-2328
1004.907	-1562
1004.982	-1685
1005.057	-1620
1005.133	-1092
1005.208	-2189
1005.283	-2350
1005.358	-982
1005.433	-1731
1005.508	-1512
1005.583	-1997
1005.657	-1781
1005.732	-1207
1005.807	-1904
1005.882	-2034
1005.957	-2218
1006.032	-2332
1006.106	-2303
1006.181	-1767
1006.256	-2151
1006.331	-1667
1006.405	-2313
1006.480	-1558
1006.554	-2300
1006.629	-2403
1006.704	-2274
1006.778	-1874
1006.853	-2170
1006.927	-2520
1007.002	-1532
1007.076	-1666
1007.150	-1818
1007.225	-1441
1007.299	-1678
1007.373	-2423
1007.448	-2059
1007.522	-957
1007.596	-2331
1007.671	-1832
1007.745	-1431
1007.819	-1845
1007.893	-2189
1007.967	-1898
1008.041	-2930
1008.115	-2407
1008.190	-1887
1008.264	-2878
1008.338	-3310
1008.412	-1966
1008.486	-2485
1008.560	-2476
1008.633	-2952
1008.707	-2002
1008.781	-1928
1008.855	-2319
1008.929	-2260
1009.003	-1851
1009.076	-2336
1009.150	-1519
1009.224	-2404
1009.298	-1479
1009.371	-2562
1009.445	-1888
1009.519	-1015
1009.592	-1697
1009.666	-2571
1009.739	-2350
1009.813	-3669
1009.886	-2160
1009.960	-2923
1010.033	-1353
1010.107	-2259
1010.180	-2092
1010.253	-2670
1010.327	-2245
1010.400	-2018
1010.473	-1451
1010.547	-1614
1010.620	-2253
1010.693	-2243
1010.766	-2027
1010.840	-2327
1010.913	-2625
1010.986	-2191
1011.059	-1744
1011.132	-1866
1011.205	-1559
1011.278	-2383
1011.351	-2733
1011.424	-2010
1011.497	-2123
1011.570	-1683
1011.643	-2668
1011.716	-2681
1011.789	-1593
1011.862	-2029
1011.934	-2022
1012.007	-2326
1012.080	-2585
1012.153	-1519
1012.225	-1785
1012.298	-2826
1012.371	-2479
1012.443	-2604
1012.516	-2166
1012.588	-1954
1012.661	-1459
1012.733	-2201
1012.806	-1616
1012.879	-1781
1012.951	-2173
1013.023	-2329
1013.096	-1288
1013.168	-2378
1013.241	-1802
1013.313	-2622
1013.385	-1634
1013.458	-2451
1013.530	-2161
1013.602	-2363
1013.674	-1818
1013.746	-2421
1013.819	-2173
1013.891	-1973
1013.963	-2204
1014.035	-2417
1014.107	-2192
1014.179	-1751
1014.251	-2631
1014.323	-2015
1014.395	-2864
1014.467	-1998
1014.539	-1258
1014.611	-1959
1014.683	-2173
1014.754	-2165
1014.826	-2537
1014.898	-2542
1014.970	-2616
1015.042	-2275
1015.113	-2403
1015.185	-1791
1015.257	-2839
1015.328	-1860
1015.400	-1878
1015.471	-2385
1015.543	-2899
1015.615	-1772
1015.686	-2259
1015.757	-2913
1015.829	-2222
1015.901	-2323
1015.972	-3133
1016.043	-2055
1016.115	-1597
1016.186	-2345
1016.257	-2435
1016.328	-2107
1016.400	-1406
1016.471	-2537
1016.542	-2021
1016.613	-2690
1016.685	-2157
1016.756	-2541
1016.827	-2216
1016.898	-2267
1016.969	-1257
1017.040	-2696
1017.111	-2219
1017.182	-1692
1017.253	-2086
1017.324	-2158
1017.395	-2018
1017.466	-2388
1017.537	-2230
1017.608	-2395
1017.678	-2446
1017.749	-1750
1017.820	-2396
1017.891	-2032
1017.961	-2609
1018.032	-2794
1018.103	-1688
1018.173	-2352
1018.244	-1986
1018.315	-2350
1018.385	-2328
1018.456	-2068
1018.526	-2368
1018.597	-2370
1018.667	-2250
1018.738	-2557
1018.808	-2110
1018.878	-2319
1018.949	-2506
1019.019	-2176
1019.089	-2474
1019.160	-1831
1019.230	-2776
1019.300	-1862
1019.371	-2703
1019.441	-2394
1019.511	-1885
1019.581	-2570
1019.651	-916
1019.721	-2469
1019.791	-2250
1019.861	-2004
1019.931	-1566
1020.001	-1696
1020.071	-1778
1020.141	-1972
1020.211	-2110
1020.281	-2209
1020.351	-2372
1020.421	-2551
1020.491	-1899
1020.560	-2176
1020.630	-2493
1020.700	-2497
1020.770	-2106
1020.839	-3074
1020.909	-2000
1020.979	-2160
1021.048	-2051
1021.118	-2193
1021.187	-1648
1021.257	-2198
1021.326	-1462
1021.396	-2304
1021.465	-1637
1021.535	-2038
1021.604	-2158
1021.674	-2278
1021.743	-1976
1021.812	-2169
1021.882	-2118
1021.951	-2019
1022.020	-2350
1022.089	-2306
1022.159	-2196
1022.228	-2058
1022.297	-2388
1022.366	-1561
1022.435	-2185
1022.504	-1738
1022.573	-2131
1022.642	-1965
1022.711	-1934
1022.781	-1343
1022.849	-1809
1022.918	-1824
1022.987	-1889
1023.056	-2696
1023.125	-2462
1023.194	-2099
1023.263	-1946
1023.331	-2549
1023.400	-2480
1023.469	-1813
1023.538	-2341
1023.606	-2586
1023.675	-1527
1023.744	-2634
1023.812	-2028
1023.881	-2061
1023.949	-1679
1024.018	-1562
1024.086	-1426
1024.155	-2344
1024.223	-1700
1024.292	-2154
1024.360	-2496
1024.429	-1372
1024.497	-2188
1024.565	-1919
1024.634	-1672
1024.702	-2280
1024.770	-2490
1024.838	-2157
1024.907	-1639
1024.975	-1201
1025.043	-1750
1025.111	-2572
1025.179	-1610
1025.247	-1847
1025.315	-1798
1025.383	-1472
1025.451	-1763
1025.519	-2852
1025.587	-1729
1025.655	-2087
1025.723	-1936
1025.791	-2710
1025.859	-1504
1025.927	-1508
1025.995	-2418
1026.062	-1703
1026.130	-2542
1026.198	-2136
1026.266	-1879
1026.333	-2593
1026.401	-1803
1026.469	-2503
1026.536	-2147
1026.604	-1673
1026.671	-1533
1026.739	-1919
1026.806	-1710
1026.874	-2350
1026.941	-2464
1027.009	-2156
1027.076	-2425
1027.144	-1604
1027.211	-2454
1027.278	-2645
1027.345	-1763
1027.413	-1270
1027.480	-1790
1027.547	-2025
1027.614	-2492
1027.682	-1994
1027.749	-2430
1027.816	-1909
1027.883	-1739
1027.950	-1630
1028.017	-2404
1028.084	-1718
1028.151	-1770
1028.218	-2306
1028.285	-1877
1028.352	-2219
1028.419	-1713
1028.486	-1574
1028.553	-1839
1028.619	-2246
1028.686	-2628
1028.753	-1920
1028.820	-2077
1028.886	-1996
1028.953	-1759
1029.020	-1136
1029.086	-1906
1029.153	-2100
1029.220	-1923
1029.286	-1445
1029.353	-1717
1029.419	-2854
1029.486	-1979
1029.552	-2775
1029.619	-1558
1029.685	-2326
1029.751	-2435
1029.818	-2387
1029.884	-2293
1029.951	-1703
1030.017	-2780
1030.083	-2115
1030.149	-2196
1030.216	-2813
1030.282	-2149
1030.348	-2100
1030.414	-2103
1030.480	-2553
1030.546	-1640
1030.612	-2119
1030.678	-2389
1030.744	-1329
1030.810	-2459
1030.876	-2423
1030.942	-1846
1031.008	-2152
1031.074	-2020
1031.140	-1821
1031.206	-1808
1031.272	-3333
1031.337	-2959
1031.403	-2306
1031.469	-1823
1031.534	-2246
1031.600	-2223
1031.666	-1669
1031.731	-1992
1031.797	-1870
1031.863	-1522
1031.928	-1312
1031.994	-1210
1032.059	-1746
1032.125	-1930
1032.190	-2711
1032.256	-1720
1032.321	-1814
1032.386	-1845
1032.452	-1635
1032.517	-1517
1032.582	-2349
1032.647	-1686
1032.713	-1753
1032.778	-2018
1032.843	-1488
1032.908	-1918
1032.974	-1977
1033.039	-2135
1033.104	-1898
1033.169	-2458
1033.234	-2559
1033.299	-1495
1033.364	-2476
1033.429	-2598
1033.494	-1552
1033.559	-1500
1033.624	-1821
1033.688	-2418
1033.753	-2494
1033.818	-1566
1033.883	-1921
1033.948	-2047
1034.013	-1120
1034.077	-1487
1034.142	-1722
1034.207	-1221
1034.271	-1046
1034.336	-1219
1034.400	-1015
1034.465	-973
1034.530	-1410
1034.594	-1015
1034.658	-2134
1034.723	-2237
1034.787	-1750
1034.852	-2387
1034.916	-2857
1034.981	-1784
1035.045	-1919
1035.109	-1542
1035.173	-1932
1035.238	-2009
1035.302	-2511
1035.366	-1747
1035.430	-3064
1035.495	-1952
1035.559	-1761
1035.623	-2093
1035.687	-2033
1035.751	-2257
1035.815	-2258
1035.879	-1077
1035.943	-2513
1036.007	-1990
1036.071	-1873
1036.135	-1813
1036.198	-2077
1036.262	-2619
1036.326	-1786
1036.390	-1746
1036.454	-2538
1036.517	-2167
1036.581	-1784
1036.645	-2352
1036.709	-2181
1036.772	-2257
1036.836	-2425
1036.900	-1917
1036.963	-1904
1037.026	-1401
1037.090	-2443
1037.154	-1780
1037.217	-1955
1037.280	-1580
1037.344	-2350
1037.407	-1802
1037.471	-1788
1037.534	-2008
1037.597	-2451
1037.661	-1916
1037.724	-1411
1037.787	-1969
1037.850	-2699
1037.913	-2129
1037.977	-1170
1038.040	-1730
1038.103	-2316
1038.166	-2115
1038.229	-1809
1038.292	-2076
1038.355	-1837
1038.418	-1210
1038.481	-2112
1038.544	-1798
1038.607	-2150
1038.670	-1745
1038.732	-2202
1038.795	-1143
1038.858	-1566
1038.921	-2294
1038.984	-2029
1039.046	-3156
1039.109	-2035
1039.172	-2036
1039.234	-2671
1039.297	-1778
1039.360	-3111
1039.422	-1709
1039.485	-2291
1039.547	-2275
1039.610	-2527
1039.672	-1600
1039.734	-1872
1039.797	-2729
1039.859	-1672
1039.922	-1983
1039.984	-2108
1040.046	-2855
1040.109	-1942
1040.171	-2143
1040.233	-2175
1040.295	-2074
1040.358	-2314
1040.420	-2440
1040.482	-2391
1040.544	-1897
1040.606	-1713
1040.668	-1583
1040.730	-2525
1040.792	-2372
1040.854	-1921
1040.916	-2084
1040.978	-1934
1041.040	-923
1041.102	-2083
1041.164	-1294
1041.225	-2036
1041.287	-1611
1041.349	-1563
1041.411	-1653
1041.472	-2665
1041.534	-1485
1041.596	-2252
1041.657	-1794
1041.719	-1875
1041.781	-1563
1041.842	-2297
1041.904	-1433
1041.965	-2435
1042.027	-2560
1042.088	-2368
1042.150	-1969
1042.211	-1550
1042.272	-1531
1042.334	-2330
1042.395	-1848
1042.456	-2011
1042.518	-1406
1042.579	-2021
1042.640	-2198
1042.701	-1721
1042.763	-1919
1042.824	-2338
1042.885	-2284
1042.946	-1857
1043.007	-2197
1043.068	-2266
1043.129	-1553
1043.190	-1789
1043.251	-1630
1043.312	-2280
1043.373	-1767
1043.434	-1651
1043.495	-1756
1043.556	-2678
1043.616	-1675
1043.677	-2665
1043.738	-1872
1043.799	-1600
1043.859	-1850
1043.920	-2891
1043.981	-1877
1044.041	-1833
1044.102	-1530
1044.162	-1814
1044.223	-2517
1044.284	-2294
1044.344	-1713
1044.405	-1730
1044.465	-1728
1044.525	-2404
1044.586	-1850
1044.646	-2421
1044.707	-1724
1044.767	-1721
1044.827	-2320
1044.887	-2447
1044.948	-1436
1045.008	-1171
1045.068	-2108
1045.128	-2169
1045.188	-2153
1045.249	-1259
1045.309	-1173
1045.369	-1493
1045.429	-1873
1045.489	-1823
1045.549	-1946
1045.609	-1588
1045.669	-2001
1045.729	-1659
1045.789	-1952
1045.848	-1953
1045.908	-2004
1045.968	-1631
1046.028	-2292
1046.088	-1295
1046.147	-1561
1046.207	-1727
1046.267	-2007
1046.326	-1691
1046.386	-1009
1046.446	-1579
1046.505	-1722
1046.565	-1745
1046.624	-1630
1046.684	-794
1046.743	-802
1046.803	-916
1046.862	-1101
1046.922	0
