'Start Wavelength	183.907
'End Wavelength	1046.922
'Gate Delay	5.000
'Gate Width (ms)	1.050
'Laser Output Level	0.000
'X Position	0.000
'Y Position	0.000
'Z Position	0.000
'Grid Point Number	1.000
'Shot Number	100.000
183.907	649.000
183.977	468.000
184.047	260
184.116	1256
184.186	106
184.256	439
184.325	-327
184.395	-781
184.465	1432
184.534	141
184.604	-491
184.674	474
184.743	-214
184.813	767
184.883	612
184.952	469
185.022	616
185.092	-99
185.161	86
185.231	337
185.301	29
185.370	1838
185.440	-223
185.509	109
185.579	-277
185.649	-199
185.718	534
185.788	-185
185.857	-371
185.927	577
185.996	1
186.066	-672
186.136	-412
186.205	330
186.275	-231
186.344	916
186.414	628
186.483	-89
186.553	1001
186.622	461
186.692	597
186.761	-331
186.831	452
186.900	1226
186.970	548
187.039	210
187.109	819
187.178	176
187.248	1
187.317	260
187.387	12
187.456	21
187.526	366
187.595	-257
187.664	341
187.734	515
187.803	-119
187.873	260
187.942	-292
188.012	512
188.081	353
188.150	389
188.220	-210
188.289	758
188.358	325
188.428	473
188.497	-229
188.567	178
188.636	153
188.705	222
188.775	105
188.844	-93
188.913	-72
188.983	150
189.052	66
189.121	185
189.191	-670
189.260	535
189.329	340
189.399	745
189.468	59
189.537	227
189.606	411
189.676	-9
189.745	532
189.814	-91
189.883	362
189.953	-167
190.022	675
190.091	305
190.161	278
190.230	617
190.299	449
190.368	-92
190.437	204
190.507	-209
190.576	-295
190.645	-191
190.714	-778
190.783	-711
190.853	-51
190.922	471
190.991	284
191.060	663
191.129	-202
191.198	700
191.268	325
191.337	308
191.406	365
191.475	-223
191.544	-380
191.613	-79
191.682	-405
191.752	398
191.821	372
191.890	772
191.959	295
192.028	428
192.097	-49
192.166	51
192.235	-539
192.304	240
192.373	-398
192.442	-701
192.511	335
192.580	672
192.650	-53
192.719	-284
192.788	502
192.857	1046
192.926	-133
192.995	100
193.064	498
193.133	166
193.202	356
193.271	504
193.340	685
193.409	769
193.478	-31
193.547	-22
193.615	439
193.684	1182
193.753	611
193.822	793
193.891	277
193.960	890
194.029	-569
194.098	-202
194.167	-190
194.236	195
194.305	-284
194.374	347
194.443	-191
194.512	326
194.580	-44
194.649	143
194.718	164
194.787	-286
194.856	157
194.925	219
194.994	569
195.062	537
195.131	-554
195.200	311
195.269	1
195.338	796
195.407	297
195.475	-225
195.544	266
195.613	185
195.682	350
195.751	590
195.819	2
195.888	147
195.957	282
196.026	190
196.094	563
196.163	-274
196.232	-6
196.301	-988
196.369	14
196.438	3
196.507	-151
196.576	550
196.644	-675
196.713	-380
196.782	-358
196.850	622
196.919	434
196.988	430
197.056	406
197.125	328
197.194	655
197.262	-474
197.331	441
197.400	177
197.468	86
197.537	-280
197.606	324
197.674	778
197.743	234
197.812	125
197.880	-32
197.949	819
198.017	723
198.086	-106
198.155	-166
198.223	207
198.292	490
198.360	717
198.429	480
198.497	84
198.566	-140
198.635	492
198.703	907
198.772	754
198.840	-361
198.909	352
198.977	322
199.046	487
199.114	535
199.183	-164
199.251	166
199.320	-609
199.388	-146
199.457	-87
199.525	-428
199.594	172
199.662	379
199.731	-258
199.799	512
199.867	-641
199.936	13
200.004	802
200.073	737
200.141	236
200.210	35
200.278	882
200.346	783
200.415	801
200.483	-110
200.552	358
200.620	-323
200.688	674
200.757	-1
200.825	632
200.893	16
200.962	1437
201.030	-97
201.098	-444
201.167	44
201.235	96
201.303	-22
201.372	1056
201.440	673
201.508	-84
201.577	190
201.645	897
201.713	-11
201.781	-377
201.850	581
201.918	720
201.986	-818
202.055	857
202.123	382
202.191	274
202.259	-277
202.327	631
202.396	784
202.464	110
202.532	-105
202.600	770
202.669	309
202.737	291
202.805	188
202.873	470
202.941	-287
203.009	480
203.078	-218
203.146	1336
203.214	-83
203.282	93
203.350	666
203.418	79
203.487	711
203.555	150
203.623	168
203.691	-192
203.759	294
203.827	169
203.895	356
203.963	141
204.031	-60
204.099	198
204.168	-87
204.236	306
204.304	168
204.372	619
204.440	612
204.508	182
204.576	-324
204.644	183
204.712	-601
204.780	223
204.848	686
204.916	428
204.984	-10
205.052	-662
205.120	275
205.188	463
205.256	0
205.324	199
205.392	536
205.460	297
205.528	225
205.596	328
205.664	-108
205.732	-114
205.799	276
205.867	568
205.935	-358
206.003	626
206.071	-863
206.139	-529
206.207	-363
206.275	117
206.343	83
206.411	637
206.478	163
206.546	430
206.614	49
206.682	-173
206.750	12
206.818	622
206.885	527
206.953	-861
207.021	810
207.089	130
207.157	-161
207.225	323
207.292	180
207.360	446
207.428	-238
207.496	38
207.563	-241
207.631	727
207.699	-125
207.767	754
207.834	-44
207.902	702
207.970	246
208.038	-213
208.105	184
208.173	410
208.241	-24
208.309	1209
208.376	68
208.444	807
208.512	-362
208.579	-609
208.647	296
208.715	1125
208.782	314
208.850	-25
208.918	195
208.985	618
209.053	17
209.120	259
209.188	179
209.256	585
209.323	177
209.391	135
209.459	940
209.526	339
209.594	122
209.661	806
209.729	135
209.796	779
209.864	266
209.932	-661
209.999	881
210.067	257
210.134	641
210.202	-193
210.269	711
210.337	395
210.404	-62
210.472	-8
210.539	666
210.607	150
210.674	193
210.742	1030
210.809	128
210.877	60
210.944	641
211.012	352
211.079	1827
211.146	222
211.214	256
211.281	663
211.349	214
211.416	374
211.484	670
211.551	695
211.618	908
211.686	798
211.753	-334
211.821	638
211.888	269
211.955	429
212.023	519
212.090	254
212.157	759
212.225	522
212.292	1176
212.359	921
212.427	2095
212.494	854
212.561	571
212.629	249
212.696	-100
212.763	562
212.831	-406
212.898	836
212.965	237
213.032	565
213.100	-62
213.167	-236
213.234	717
213.301	1164
213.369	359
213.436	265
213.503	-385
213.570	949
213.638	250
213.705	449
213.772	-282
213.839	306
213.906	813
213.973	742
214.041	-206
214.108	562
214.175	344
214.242	-73
214.309	547
214.376	808
214.444	-13
214.511	665
214.578	850
214.645	1443
214.712	1586
214.779	458
214.846	189
214.913	508
214.980	559
215.048	766
215.115	1403
215.182	778
215.249	529
215.316	224
215.383	1414
215.450	-82
215.517	300
215.584	315
215.651	250
215.718	535
215.785	429
215.852	-586
215.919	852
215.986	712
216.053	110
216.120	298
216.187	239
216.254	320
216.321	1028
216.388	652
216.455	397
216.522	219
216.589	-49
216.656	491
216.722	971
216.789	41
216.856	684
216.923	1005
216.990	696
217.057	503
217.124	832
217.191	301
217.258	1030
217.324	270
217.391	879
217.458	695
217.525	462
217.592	-464
217.659	-121
217.725	1644
217.792	-296
217.859	1231
217.926	-433
217.993	9
218.059	403
218.126	-146
218.193	420
218.260	134
218.327	-367
218.393	-374
218.460	-335
218.527	-139
218.594	-537
218.660	-173
218.727	469
218.794	-528
218.860	498
218.927	-255
218.994	-138
219.061	237
219.127	-50
219.194	-62
219.261	542
219.327	-86
219.394	-143
219.461	-151
219.527	-176
219.594	675
219.661	-323
219.727	-937
219.794	965
219.860	-532
219.927	695
219.994	1074
220.060	1133
220.127	614
220.193	1280
220.260	87
220.326	575
220.393	1384
220.460	780
220.526	773
220.593	-463
220.659	1952
220.726	131
220.792	1734
220.859	1167
220.925	1535
220.992	3280
221.058	2552
221.125	1042
221.191	1343
221.258	-106
221.324	1675
221.391	1186
221.457	-141
221.524	-587
221.590	157
221.657	902
221.723	990
221.789	247
221.856	1278
221.922	-533
221.989	1598
222.055	45
222.121	-152
222.188	1246
222.254	459
222.321	359
222.387	-128
222.453	570
222.520	-349
222.586	-321
222.652	-195
222.719	-118
222.785	1279
222.851	279
222.918	447
222.984	260
223.050	-743
223.116	-379
223.183	265
223.249	-406
223.315	326
223.382	-173
223.448	13
223.514	-581
223.580	67
223.647	-338
223.713	-96
223.779	-111
223.845	978
223.911	69
223.978	-554
224.044	1173
224.110	259
224.176	-169
224.242	672
224.309	-464
224.375	687
224.441	37
224.507	-62
224.573	-146
224.639	505
224.705	-789
224.772	877
224.838	-990
224.904	695
224.970	59
225.036	-34
225.102	-741
225.168	359
225.234	924
225.300	-10
225.366	-151
225.432	305
225.499	-405
225.565	-116
225.631	-411
225.697	205
225.763	719
225.829	302
225.895	797
225.961	1214
226.027	341
226.093	196
226.159	751
226.225	1169
226.291	2021
226.357	3444
226.423	2294
226.489	1104
226.554	1080
226.620	694
226.686	758
226.752	1029
226.818	2576
226.884	4645
226.950	3865
227.016	2417
227.082	1290
227.148	456
227.214	795
227.279	339
227.345	632
227.411	1123
227.477	553
227.543	1019
227.609	1573
227.674	2076
227.740	5
227.806	157
227.872	123
227.938	601
228.003	1212
228.069	374
228.135	364
228.201	99
228.267	880
228.332	581
228.398	-1214
228.464	629
228.530	-49
228.595	-105
228.661	208
228.727	-643
228.792	1018
228.858	96
228.924	-1858
228.990	957
229.055	-258
229.121	463
229.187	602
229.252	-260
229.318	443
229.384	150
229.449	-141
229.515	-1609
229.581	-985
229.646	1535
229.712	396
229.777	107
229.843	-479
229.909	363
229.974	1116
230.040	113
230.105	209
230.171	-546
230.236	433
230.302	324
230.368	51
230.433	-249
230.499	220
230.564	519
230.630	-569
230.695	558
230.761	1156
230.826	-1232
230.892	921
230.957	-810
231.023	-171
231.088	-380
231.154	271
231.219	878
231.284	-422
231.350	493
231.415	-711
231.481	424
231.546	-844
231.612	198
231.677	-420
231.742	-1007
231.808	817
231.873	-472
231.939	-1554
232.004	1554
232.069	346
232.135	-652
232.200	-63
232.265	113
232.331	-281
232.396	-1076
232.461	357
232.527	-209
232.592	-687
232.657	319
232.723	-266
232.788	64
232.853	595
232.918	152
232.984	-505
233.049	-393
233.114	-354
233.179	427
233.245	949
233.310	552
233.375	-749
233.440	295
233.506	-412
233.571	-344
233.636	357
233.701	449
233.766	-407
233.832	21
233.897	-260
233.962	-1280
234.027	449
234.092	130
234.157	7
234.222	625
234.288	466
234.353	1034
234.418	631
234.483	1832
234.548	552
234.613	-362
234.678	236
234.743	162
234.808	1790
234.873	58
234.938	1520
235.004	-235
235.069	114
235.134	-315
235.199	27
235.264	902
235.329	-155
235.394	691
235.459	2094
235.524	-518
235.589	995
235.654	-196
235.719	-1526
235.784	-181
235.849	12
235.913	806
235.978	682
236.043	549
236.108	252
236.173	-656
236.238	184
236.303	-828
236.368	-202
236.433	467
236.498	108
236.563	1303
236.627	2024
236.692	5992
236.757	5794
236.822	1788
236.887	1330
236.952	1273
237.017	-720
237.081	1886
237.146	858
237.211	4452
237.276	5916
237.341	7276
237.405	3603
237.470	3029
237.535	1648
237.600	1056
237.664	1209
237.729	-234
237.794	370
237.859	3089
237.923	738
237.988	467
238.053	1117
238.118	1312
238.182	1447
238.247	2650
238.312	240
238.376	1389
238.441	-1020
238.506	1136
238.570	-401
238.635	1602
238.700	138
238.764	-6
238.829	1383
238.893	-137
238.958	1056
239.023	115
239.087	640
239.152	744
239.216	-56
239.281	880
239.346	900
239.410	509
239.475	-834
239.539	1956
239.604	258
239.668	1353
239.733	470
239.797	2580
239.862	3942
239.926	4370
239.991	1980
240.055	558
240.120	412
240.184	913
240.249	-611
240.313	229
240.378	306
240.442	1618
240.507	1409
240.571	616
240.635	67
240.700	766
240.764	-220
240.829	-137
240.893	-640
240.957	634
241.022	1013
241.086	1995
241.151	-674
241.215	-522
241.279	899
241.344	-22
241.408	34
241.472	-338
241.537	1854
241.601	337
241.665	-859
241.730	145
241.794	1403
241.858	-5
241.922	304
241.987	480
242.051	237
242.115	-525
242.179	570
242.244	408
242.308	1168
242.372	718
242.436	-20
242.501	565
242.565	-222
242.629	5
242.693	854
242.757	-76
242.822	218
242.886	1363
242.950	926
243.014	-669
243.078	471
243.142	197
243.206	-714
243.271	800
243.335	-509
243.399	639
243.463	1448
243.527	4963
243.591	1220
243.655	817
243.719	-161
243.783	2266
243.847	848
243.911	1263
243.975	790
244.040	-911
244.104	1977
244.168	1106
244.232	-253
244.296	1015
244.360	804
244.424	-91
244.488	372
244.552	1333
244.615	-909
244.679	565
244.743	30
244.807	-1115
244.871	252
244.935	1130
244.999	-567
245.063	321
245.127	692
245.191	440
245.255	-683
245.319	-88
245.383	-714
245.446	2241
245.510	-788
245.574	692
245.638	1436
245.702	-758
245.766	1612
245.829	1186
245.893	-461
245.957	-245
246.021	554
246.085	-531
246.149	935
246.212	2158
246.276	649
246.340	912
246.404	1104
246.467	1119
246.531	-908
246.595	1047
246.659	1496
246.722	-414
246.786	0
246.850	630
246.913	16
246.977	-416
247.041	739
247.104	110
247.168	788
247.232	1254
247.295	2157
247.359	1885
247.423	640
247.486	680
247.550	730
247.614	696
247.677	1734
247.741	661
247.804	298
247.868	1248
247.932	604
247.995	3245
248.059	311
248.122	-524
248.186	1643
248.249	1908
248.313	3324
248.376	4902
248.440	2469
248.503	166
248.567	2112
248.630	75
248.694	1753
248.757	3129
248.821	4036
248.884	4297
248.948	2369
249.011	3988
249.075	4684
249.138	4099
249.202	1934
249.265	668
249.328	2047
249.392	471
249.455	723
249.519	1166
249.582	680
249.645	1601
249.709	1168
249.772	1109
249.835	1043
249.899	1002
249.962	910
250.025	526
250.089	811
250.152	3557
250.215	1167
250.279	34
250.342	1056
250.405	1096
250.468	-603
250.532	230
250.595	2208
250.658	3622
250.721	7830
250.785	3115
250.848	3565
250.911	1425
250.974	1147
251.038	1570
251.101	2270
251.164	1091
251.227	2358
251.290	1198
251.354	2447
251.417	6355
251.480	7083
251.543	5493
251.606	11879
251.669	9907
251.732	3677
251.795	3515
251.859	4779
251.922	7698
251.985	5428
252.048	3081
252.111	1522
252.174	1059
252.237	2705
252.300	4849
252.363	5242
252.426	11513
252.489	4479
252.552	2632
252.615	1272
252.678	2954
252.741	4312
252.804	4389
252.867	11335
252.930	7560
252.993	3168
253.056	2894
253.119	946
253.182	1124
253.245	1242
253.308	1441
253.371	453
253.434	1776
253.497	2744
253.559	3523
253.622	1490
253.685	2607
253.748	1883
253.811	1234
253.874	2242
253.937	1244
254.000	1591
254.062	1511
254.125	3248
254.188	3377
254.251	2135
254.314	1636
254.376	1127
254.439	2727
254.502	1570
254.565	1302
254.628	3976
254.690	1817
254.753	357
254.816	120
254.878	1185
254.941	1296
255.004	1646
255.067	871
255.129	328
255.192	1172
255.255	87
255.317	1283
255.380	1127
255.443	145
255.505	-374
255.568	-222
255.631	358
255.693	1008
255.756	310
255.819	1686
255.881	20
255.944	965
256.006	77
256.069	1093
256.132	663
256.194	628
256.257	1090
256.319	1407
256.382	1190
256.444	2336
256.507	924
256.569	1026
256.632	1372
256.694	1077
256.757	4613
256.819	11078
256.882	5261
256.944	2085
257.007	2143
257.069	790
257.132	1040
257.194	1738
257.257	422
257.319	411
257.381	713
257.444	4091
257.506	11274
257.569	14585
257.631	6053
257.693	2762
257.756	1166
257.818	532
257.880	1373
257.943	774
258.005	-152
258.067	525
258.130	487
258.192	738
258.254	544
258.317	1164
258.379	1565
258.441	385
258.503	1929
258.566	1719
258.628	2360
258.690	235
258.753	1287
258.815	1819
258.877	-355
258.939	304
259.001	1452
259.064	540
259.126	-517
259.188	223
259.250	727
259.312	982
259.375	-56
259.437	924
259.499	383
259.561	-52
259.623	719
259.685	-11
259.747	571
259.809	1695
259.872	1957
259.934	3798
259.996	5033
260.058	2420
260.120	462
260.182	763
260.244	46
260.306	-7
260.368	1031
260.430	65
260.492	1911
260.554	3293
260.616	1057
260.678	2543
260.740	2701
260.802	789
260.864	1285
260.926	378
260.988	1393
261.050	736
261.112	1707
261.174	5472
261.236	2674
261.298	1047
261.359	1266
261.421	2569
261.483	386
261.545	1400
261.607	-288
261.669	1163
261.731	922
261.793	1723
261.854	694
261.916	1848
261.978	832
262.040	748
262.102	1200
262.164	450
262.225	1364
262.287	313
262.349	732
262.411	871
262.472	1393
262.534	-81
262.596	1236
262.658	412
262.719	-2
262.781	1063
262.843	943
262.904	1384
262.966	1559
263.028	845
263.090	1972
263.151	7099
263.213	3009
263.275	1896
263.336	1191
263.398	816
263.459	116
263.521	296
263.583	1198
263.644	1143
263.706	718
263.767	239
263.829	680
263.891	19
263.952	187
264.014	-709
264.075	477
264.137	2841
264.198	687
264.260	54
264.321	6
264.383	736
264.444	4550
264.506	1548
264.567	398
264.629	2022
264.690	2972
264.752	1947
264.813	452
264.875	433
264.936	1218
264.998	703
265.059	284
265.120	497
265.182	1489
265.243	6155
265.305	7730
265.366	2667
265.427	1164
265.489	1384
265.550	-218
265.611	499
265.673	129
265.734	185
265.795	762
265.857	762
265.918	486
265.979	1888
266.040	9638
266.102	9377
266.163	2996
266.224	1577
266.286	861
266.347	87
266.408	-159
266.469	1517
266.530	696
266.592	713
266.653	1229
266.714	1446
266.775	231
266.836	276
266.898	-699
266.959	939
267.020	617
267.081	1897
267.142	559
267.203	477
267.264	-313
267.326	1552
267.387	556
267.448	-685
267.509	986
267.570	581
267.631	-96
267.692	-533
267.753	-382
267.814	132
267.875	829
267.936	968
267.997	1356
268.058	872
268.119	386
268.180	317
268.241	-69
268.302	470
268.363	59
268.424	662
268.485	1098
268.546	310
268.607	558
268.668	681
268.729	-457
268.790	214
268.851	952
268.912	699
268.972	1377
269.033	987
269.094	143
269.155	684
269.216	468
269.277	142
269.338	478
269.398	1173
269.459	-82
269.520	599
269.581	335
269.642	518
269.702	346
269.763	759
269.824	-198
269.885	25
269.945	628
270.006	863
270.067	-113
270.128	94
270.188	173
270.249	264
270.310	-67
270.370	839
270.431	102
270.492	-39
270.553	485
270.613	861
270.674	1960
270.734	687
270.795	128
270.856	711
270.916	494
270.977	732
271.038	677
271.098	724
271.159	972
271.219	559
271.280	575
271.340	1175
271.401	166
271.462	824
271.522	1256
271.583	423
271.643	999
271.704	398
271.764	60
271.825	1256
271.885	3800
271.946	6179
272.006	3259
272.066	2882
272.127	4637
272.187	3643
272.248	1649
272.308	98
272.369	3144
272.429	1780
272.489	1860
272.550	1320
272.610	1721
272.671	593
272.731	1445
272.791	919
272.852	577
272.912	1583
272.972	1059
273.033	596
273.093	-353
273.153	1083
273.214	782
273.274	1029
273.334	1837
273.394	4698
273.455	1988
273.515	1110
273.575	3769
273.635	1775
273.696	2199
273.756	4313
273.816	1840
273.876	2576
273.936	1995
273.997	3995
274.057	1103
274.117	584
274.177	1512
274.237	5864
274.297	4962
274.358	3467
274.418	3402
274.478	3046
274.538	504
274.598	556
274.658	2572
274.718	3114
274.778	1611
274.838	941
274.898	395
274.958	2563
275.018	3979
275.078	3248
275.138	1083
275.198	1075
275.258	84
275.318	501
275.378	2025
275.438	2623
275.498	1313
275.558	2339
275.618	4264
275.678	3083
275.738	1884
275.798	2650
275.858	809
275.918	284
275.978	1168
276.038	220
276.098	181
276.157	1257
276.217	4263
276.277	2358
276.337	920
276.397	751
276.457	208
276.517	1508
276.576	1132
276.636	238
276.696	194
276.756	2399
276.815	1164
276.875	956
276.935	363
276.995	1240
277.055	1615
277.114	1134
277.174	216
277.234	2852
277.293	1902
277.353	617
277.413	1435
277.472	575
277.532	1265
277.592	877
277.651	2083
277.711	3720
277.771	1062
277.830	4426
277.890	5121
277.950	2288
278.009	7918
278.069	3465
278.128	3066
278.188	4812
278.248	1558
278.307	3878
278.367	3409
278.426	1037
278.486	138
278.545	619
278.605	-460
278.664	291
278.724	-133
278.783	2065
278.843	5130
278.902	2102
278.962	1322
279.021	997
279.081	1129
279.140	1147
279.199	941
279.259	1048
279.318	2232
279.378	2354
279.437	2080
279.496	6624
279.556	15911
279.615	13818
279.675	5099
279.734	3217
279.793	3442
279.853	5242
279.912	2721
279.971	2709
280.031	1496
280.090	2517
280.149	5021
280.208	2909
280.268	11835
280.327	12683
280.386	3517
280.445	2481
280.505	2874
280.564	1095
280.623	1313
280.682	1569
280.742	2874
280.801	904
280.860	885
280.919	250
280.978	403
281.037	258
281.097	392
281.156	831
281.215	1074
281.274	235
281.333	3230
281.392	2458
281.451	694
281.510	259
281.569	-82
281.628	414
281.688	1180
281.747	660
281.806	1429
281.865	998
281.924	0
281.983	679
282.042	921
282.101	421
282.160	804
282.219	10
282.278	99
282.337	1737
282.396	1486
282.454	672
282.513	1302
282.572	2857
282.631	2517
282.690	576
282.749	131
282.808	1375
282.867	436
282.926	1174
282.985	873
283.043	922
283.102	249
283.161	436
283.220	2058
283.279	3114
283.338	1407
283.396	1073
283.455	1423
283.514	735
283.573	1128
283.631	1157
283.690	1312
283.749	537
283.808	1865
283.866	2715
283.925	125
283.984	740
284.043	1720
284.101	1448
284.160	412
284.219	1539
284.277	1274
284.336	2086
284.395	4379
284.453	4391
284.512	2008
284.570	2205
284.629	1593
284.688	1929
284.746	1847
284.805	2134
284.863	2149
284.922	3320
284.981	3809
285.039	5309
285.098	7666
285.156	15835
285.215	23764
285.273	24297
285.332	18837
285.390	11447
285.449	5752
285.507	4417
285.566	3540
285.624	3402
285.683	2826
285.741	2593
285.799	1158
285.858	2106
285.916	1014
285.975	1497
286.033	954
286.091	863
286.150	1026
286.208	1843
286.267	1325
286.325	1192
286.383	1934
286.442	1746
286.500	1039
286.558	677
286.616	322
286.675	1637
286.733	1463
286.791	748
286.850	769
286.908	830
286.966	1785
287.024	1255
287.083	208
287.141	810
287.199	1577
287.257	1387
287.315	1024
287.374	1559
287.432	2221
287.490	1353
287.548	768
287.606	1424
287.664	709
287.723	885
287.781	1929
287.839	1911
287.897	1270
287.955	1870
288.013	1990
288.071	3836
288.129	10964
288.187	34925
288.245	18725
288.303	6934
288.361	2704
288.419	1995
288.477	1272
288.535	1597
288.593	834
288.651	1386
288.709	-92
288.767	909
288.825	509
288.883	1443
288.941	138
288.999	345
289.057	917
289.115	524
289.173	1091
289.231	447
289.289	-9
289.346	822
289.404	1464
289.462	1339
289.520	2417
289.578	590
289.636	1401
289.694	394
289.751	924
289.809	1411
289.867	1167
289.925	1496
289.983	1013
290.040	1439
290.098	749
290.156	1279
290.214	971
290.271	526
290.329	1250
290.387	1670
290.444	350
290.502	702
290.560	1159
290.617	785
290.675	993
290.733	502
290.790	935
290.848	512
290.906	804
290.963	739
291.021	1318
291.078	1252
291.136	773
291.194	2028
291.251	4456
291.309	1862
291.366	1059
291.424	1156
291.481	436
291.539	555
291.596	1535
291.654	403
291.711	466
291.769	1362
291.826	717
291.884	1237
291.941	1005
291.999	1275
292.056	564
292.114	569
292.171	1200
292.228	1066
292.286	1258
292.343	1244
292.401	1836
292.458	1624
292.515	916
292.573	1377
292.630	1635
292.687	830
292.745	830
292.802	1602
292.859	3451
292.917	5131
292.974	3539
293.031	2131
293.089	1108
293.146	1579
293.203	845
293.260	782
293.318	195
293.375	1952
293.432	577
293.489	972
293.546	939
293.604	1584
293.661	2820
293.718	7580
293.775	4362
293.832	2153
293.889	1515
293.947	1974
294.004	1117
294.061	1489
294.118	2131
294.175	4455
294.232	8081
294.289	3702
294.346	1075
294.403	1632
294.460	1392
294.517	1546
294.574	262
294.631	1633
294.688	1685
294.745	2659
294.802	7585
294.859	11351
294.916	3904
294.973	2257
295.030	1688
295.087	1693
295.144	1733
295.201	1818
295.258	1754
295.315	1098
295.372	2877
295.429	6092
295.486	2826
295.542	1705
295.599	5000
295.656	9065
295.713	5084
295.770	6077
295.827	2476
295.883	2465
295.940	1633
295.997	2201
296.054	2042
296.111	742
296.167	973
296.224	1330
296.281	1569
296.338	1831
296.394	610
296.451	1588
296.508	3117
296.564	5749
296.621	5233
296.678	6136
296.734	9878
296.791	4986
296.848	2994
296.904	2425
296.961	5229
297.018	6127
297.074	5519
297.131	2147
297.187	1898
297.244	2327
297.301	5331
297.357	10083
297.414	4200
297.470	2150
297.527	1409
297.583	1636
297.640	1460
297.696	1401
297.753	978
297.809	1341
297.866	515
297.922	869
297.979	1113
298.035	1661
298.092	1916
298.148	4305
298.204	4109
298.261	2379
298.317	3058
298.374	7866
298.430	5201
298.486	2358
298.543	1452
298.599	2569
298.656	1465
298.712	1801
298.768	5002
298.824	5004
298.881	2158
298.937	1990
298.993	934
299.050	1395
299.106	1658
299.162	1395
299.218	1634
299.275	1618
299.331	1397
299.387	2608
299.443	7860
299.500	11869
299.556	7451
299.612	4515
299.668	3246
299.724	6270
299.780	8292
299.837	3926
299.893	3321
299.949	8529
300.005	13015
300.061	9835
300.117	14673
300.173	7308
300.229	3422
300.285	3369
300.341	4092
300.397	1975
300.453	1885
300.510	1442
300.566	1652
300.622	3412
300.678	9988
300.734	16130
300.790	10043
300.845	9851
300.901	8021
300.957	12833
301.013	8239
301.069	4152
301.125	1985
301.181	755
301.237	2081
301.293	1406
301.349	898
301.405	961
301.461	1689
301.516	1518
301.572	1492
301.628	2997
301.684	1596
301.740	2460
301.796	4559
301.851	4325
301.907	5394
301.963	5142
302.019	6191
302.074	15337
302.130	18159
302.186	11202
302.242	4614
302.297	2525
302.353	2394
302.409	4838
302.464	4377
302.520	3611
302.576	7059
302.631	9236
302.687	5043
302.743	3264
302.798	1911
302.854	1798
302.910	2392
302.965	2500
303.021	3120
303.076	3127
303.132	3876
303.187	4261
303.243	2556
303.299	2771
303.354	2477
303.410	2203
303.465	2003
303.521	2354
303.576	1112
303.632	2186
303.687	2292
303.743	5689
303.798	6669
303.853	3595
303.909	2226
303.964	2521
304.020	2465
304.075	4147
304.130	3648
304.186	5557
304.241	6362
304.297	5121
304.352	3572
304.358	3461
304.407	2557
304.449	2098
304.463	1944
304.518	1676
304.539	1489
304.573	1190
304.629	1582
304.630	1588
304.684	1897
304.720	3928
304.739	4926
304.794	7745
304.811	7001
304.850	5142
304.902	2757
304.905	2610
304.960	2484
304.992	2025
305.015	1643
305.071	2548
305.083	2406
305.126	1931
305.173	1639
305.181	1597
305.236	1264
305.264	1483
305.292	1708
305.347	1516
305.354	1607
305.402	2141
305.445	2469
305.457	2581
305.512	3175
305.535	3066
305.567	2876
305.622	2594
305.626	2642
305.678	4290
305.716	7180
305.733	8018
305.788	9486
305.807	8481
305.843	7053
305.897	7977
305.898	7975
305.953	8138
305.988	5992
306.008	5052
306.063	3246
306.078	2978
306.118	2105
306.168	1983
306.173	1999
306.228	1817
306.259	1758
306.283	1686
306.338	2371
306.349	2293
306.393	2063
306.440	2848
306.448	2994
306.503	2120
306.530	2413
306.558	3157
306.613	4800
306.620	5108
306.668	7043
306.711	9452
306.723	9631
306.778	7687
306.801	6316
306.833	4955
306.888	2679
306.892	2637
306.943	2659
306.982	2202
306.997	2054
307.052	2179
307.072	2220
307.107	2521
307.162	3161
307.163	3164
307.217	3612
307.253	3933
307.272	4086
307.327	4201
307.343	4166
307.381	3828
307.434	3307
307.436	3403
307.491	5924
307.524	8441
307.546	8851
307.600	8841
307.614	8131
307.655	5765
307.704	3593
307.710	3561
307.765	4036
307.795	4661
307.819	5295
307.874	7856
307.885	7949
307.929	7328
307.975	7209
307.984	7717
308.038	11474
308.065	13707
308.093	21648
308.148	41662
308.156	45439
308.202	62651
308.246	75551
308.257	73430
308.312	46683
308.336	34345
308.366	26375
308.421	15906
308.426	15002
308.475	10173
308.517	7024
308.530	6612
308.585	5618
308.607	5546
308.639	5713
308.694	5763
308.697	5780
308.748	8371
308.787	10873
308.803	10744
308.857	8727
308.877	8146
308.912	8502
308.967	8435
308.967	8440
309.021	12300
309.058	14945
309.076	18675
309.130	31342
309.148	36071
309.185	56437
309.238	89295
309.239	89609
309.293	94367
309.328	91620
309.348	81906
309.402	47635
309.418	38258
309.457	28036
309.508	16934
309.511	16664
309.566	13688
309.598	12073
309.620	12242
309.674	13585
309.688	13996
309.729	13287
309.778	11617
309.783	11483
309.837	9639
309.868	8599
309.892	10210
309.946	14564
309.959	15865
310.001	20045
310.049	23807
310.055	22947
310.109	13787
310.139	8451
310.163	7002
310.218	4662
310.229	4192
310.272	3935
310.319	4019
310.326	3992
310.381	3773
310.409	3533
310.435	3477
310.489	3597
310.499	3601
310.543	3763
310.589	3791
310.598	3746
310.652	3537
310.679	3438
310.706	3417
310.760	3198
310.769	3184
310.814	3133
310.859	2930
310.868	2942
310.923	3020
310.948	3041
310.977	3363
311.031	4049
311.038	4135
311.085	4120
311.128	3939
311.139	3920
311.193	3980
311.218	3911
311.247	3862
311.301	3862
311.308	3835
311.356	3602
311.398	3438
311.410	3504
311.464	3797
311.488	3895
311.518	3684
311.572	3320
311.578	3267
311.626	4376
311.668	5383
311.680	5289
311.734	4731
311.758	4466
311.788	4469
311.842	4485
311.847	4475
311.896	5624
311.937	6611
311.950	6623
312.004	6576
312.027	6539
312.058	5586
312.112	3855
312.117	3675
312.165	4181
312.207	4604
312.297	6299
312.386	4960
312.476	4415
312.566	8246
312.656	4151
312.745	4077
312.835	4054
312.925	5463
313.015	3928
313.104	4988
313.194	4401
313.284	4858
313.374	5728
313.463	5422
313.553	5364
313.643	5249
313.732	5189
313.822	5791
313.912	5950
314.001	5548
314.091	6196
314.180	7511
314.270	7430
314.360	6906
314.449	6441
314.539	6062
314.628	5529
314.718	6731
314.808	7238
314.897	7059
314.987	6389
315.076	7307
315.166	7572
315.255	7507
315.345	6674
315.434	6614
315.524	6326
315.613	7946
315.703	8433
315.792	14328
315.881	38889
315.971	14910
316.060	9673
316.150	9898
316.239	9302
316.328	6275
316.418	6074
316.507	6111
316.597	8037
316.686	8391
316.775	7678
316.865	9877
316.954	5872
317.043	4524
317.133	5969
317.222	4643
317.311	4913
317.400	3715
317.490	6437
317.579	6245
317.668	5435
317.757	8607
317.847	20481
317.936	60420
318.025	22535
318.114	17110
318.203	10210
318.293	10189
318.382	15328
318.471	14928
318.560	17098
318.649	29848
318.738	7833
318.828	7565
318.917	6111
319.006	6313
319.095	11776
319.184	34552
319.273	19119
319.362	11039
319.451	5142
319.540	5661
319.629	8044
319.718	13417
319.807	7244
319.896	14236
319.985	40836
320.074	15728
320.163	6266
320.252	6951
320.341	8798
320.430	8783
320.519	9123
320.608	7677
320.697	7821
320.786	7556
320.875	8459
320.964	9831
321.053	12817
321.142	15626
321.230	17034
321.319	15950
321.408	26610
321.497	15481
321.586	13935
321.675	13490
321.764	14239
321.852	12105
321.941	16053
322.030	12953
322.119	15048
322.207	25828
322.296	18988
322.385	16982
322.474	17650
322.562	31946
322.651	19532
322.740	14994
322.829	15038
322.917	14519
323.006	10951
323.095	11104
323.183	8121
323.272	10204
323.361	13340
323.449	27596
323.538	10761
323.626	20149
323.715	12856
323.804	8443
323.892	18959
323.981	12029
324.069	6733
324.158	11164
324.246	11015
324.335	7989
324.424	10382
324.512	6095
324.601	8224
324.689	12409
324.778	18546
324.866	10060
324.954	5147
325.043	5789
325.131	6718
325.220	9524
325.308	9056
325.397	8368
325.485	5837
325.574	4800
325.662	4526
325.750	4819
325.839	5184
325.927	4098
326.015	5044
326.104	5878
326.192	7098
326.280	4079
326.369	4334
326.457	6239
326.545	9569
326.634	6092
326.722	4589
326.810	4981
326.898	5532
326.987	6400
327.075	7670
327.163	8178
327.251	5249
327.340	10153
327.428	15349
327.516	7777
327.604	6510
327.692	6143
327.781	5216
327.869	5797
327.957	5261
328.045	5739
328.133	4796
328.221	4716
328.309	4726
328.397	4570
328.485	5936
328.574	8337
328.662	18178
328.750	10905
328.838	5604
328.926	5818
329.014	5013
329.102	6597
329.190	10861
329.278	7232
329.366	4705
329.454	4391
329.542	4319
329.630	5261
329.718	4895
329.806	5654
329.893	5450
329.981	3620
330.069	4933
330.157	9740
330.245	20877
330.333	11773
330.421	4772
330.509	6080
330.597	16652
330.684	11730
330.772	6397
330.860	7457
330.948	9608
331.036	6228
331.123	4307
331.211	4874
331.299	4926
331.387	10203
331.475	13557
331.562	5473
331.650	4698
331.738	5478
331.825	5499
331.913	4058
332.001	4655
332.089	5283
332.176	7153
332.264	10255
332.352	9410
332.439	6314
332.527	5343
332.614	4539
332.702	4891
332.790	5216
332.877	6756
332.965	10128
333.052	5230
333.140	5611
333.228	8492
333.315	4683
333.403	5397
333.490	7918
333.578	6773
333.665	10064
333.753	7846
333.840	5331
333.928	7203
334.015	9989
334.103	15705
334.190	42561
334.278	19119
334.365	17798
334.452	16438
334.540	12292
334.627	12719
334.715	16524
334.802	23247
334.889	50598
334.977	56338
335.064	25710
335.151	15410
335.239	12144
335.326	11364
335.413	27617
335.501	33360
335.588	12018
335.675	12326
335.762	15715
335.850	20403
335.937	24940
336.024	40202
336.111	76233
336.199	52094
336.286	24452
336.373	14115
336.460	11646
336.547	9553
336.635	8273
336.722	7501
336.809	7676
336.896	7634
336.983	16148
337.070	33748
337.157	42989
337.245	22754
337.332	16664
337.419	7132
337.506	5627
337.593	6501
337.680	14308
337.767	35419
337.854	11869
337.941	12793
338.028	10423
338.115	6212
338.202	8145
338.289	9784
338.376	20843
338.463	9875
338.550	21221
338.637	20421
338.724	8280
338.811	8321
338.898	5316
338.984	4740
339.071	5374
339.158	5898
339.245	10659
339.332	7849
339.419	7928
339.506	6581
339.593	3827
339.679	5040
339.766	5087
339.853	5905
339.940	8329
340.027	5019
340.113	5557
340.200	5973
340.287	5662
340.374	5468
340.460	7764
340.547	4602
340.634	7068
340.720	15982
340.807	10258
340.894	4894
340.980	4742
341.067	5140
341.154	5100
341.240	6413
341.327	10121
341.414	6126
341.500	5083
341.587	4758
341.674	5869
341.760	8466
341.847	8082
341.933	4724
342.020	3277
342.106	4008
342.193	5456
342.279	6443
342.366	5864
342.452	7172
342.539	5515
342.625	9260
342.712	17003
342.798	9188
342.885	5989
342.971	3326
343.058	4433
343.144	4055
343.230	4742
343.317	4742
343.403	3989
343.490	3627
343.576	3614
343.662	4309
343.749	4859
343.835	4681
343.921	7102
344.008	24564
344.094	51741
344.180	13876
344.267	8135
344.353	17570
344.439	16833
344.525	10574
344.612	11186
344.698	10929
344.784	7062
344.870	5283
344.957	5402
345.043	6480
345.129	5599
345.215	7943
345.301	4915
345.387	4191
345.474	4329
345.560	3676
345.646	4167
345.732	4461
345.818	5092
345.904	4119
345.990	5157
346.076	4488
346.162	5342
346.249	5469
346.335	4206
346.421	5183
346.507	9571
346.593	22304
346.679	7707
346.765	5961
346.851	7784
346.937	6448
347.023	6021
347.108	4653
347.194	5190
347.280	4656
347.366	6463
347.452	15217
347.538	34229
347.624	24278
347.710	18665
347.796	5348
347.882	5409
347.967	4940
348.053	6160
348.139	5300
348.225	5203
348.311	4245
348.397	4097
348.482	5162
348.568	5913
348.654	5958
348.740	15035
348.825	16751
348.911	11171
348.997	15423
349.083	24893
349.168	7027
349.254	6089
349.340	5169
349.425	4984
349.511	6065
349.597	6049
349.682	9179
349.768	19928
349.854	9887
349.939	5909
350.025	4821
350.110	6296
350.196	4507
350.282	4058
350.367	5373
350.453	5129
350.538	4345
350.624	5478
350.709	5688
350.795	3854
350.880	4340
350.966	5127
351.051	5372
351.137	5461
351.222	4930
351.308	8850
351.393	19108
351.479	7487
351.564	4115
351.649	4820
351.735	3766
351.820	3817
351.906	4465
351.991	5688
352.076	12372
352.162	17288
352.247	5789
352.332	5229
352.418	6479
352.503	8362
352.588	25383
352.673	20380
352.759	6086
352.844	4286
352.929	4680
353.014	5870
353.100	4705
353.185	6679
353.270	7895
353.355	8472
353.441	4483
353.526	4545
353.611	7737
353.696	7339
353.781	5509
353.866	4057
353.952	5193
354.037	6836
354.122	13527
354.207	12364
354.292	6999
354.377	4148
354.462	4816
354.547	5686
354.632	5316
354.717	6840
354.802	6166
354.887	4847
354.972	4249
355.057	3676
355.142	3901
355.227	5666
355.312	6170
355.397	9537
355.482	19199
355.567	10993
355.652	9328
355.737	9395
355.822	21108
355.907	16774
355.991	6120
356.076	4426
356.161	5245
356.246	4712
356.331	4790
356.416	7556
356.501	29946
356.585	29743
356.670	6796
356.755	7898
356.840	7641
356.924	22787
357.009	65068
357.094	28036
357.179	8388
357.263	7371
357.348	7089
357.433	7390
357.517	7759
357.602	5667
357.687	5167
357.771	8147
357.856	17105
357.941	12357
358.025	19217
358.110	63989
358.195	32400
358.279	8348
358.364	7626
358.448	16438
358.533	39698
358.617	29183
358.702	29200
358.787	12652
358.871	8736
358.956	8310
359.040	5161
359.125	4986
359.209	5821
359.294	10061
359.378	16230
359.462	9921
359.547	6601
359.631	4869
359.716	4400
359.800	5029
359.885	6750
359.969	4851
360.053	5547
360.138	4980
360.222	6029
360.306	9185
360.391	8030
360.475	11154
360.559	19738
360.644	16557
360.728	12451
360.812	18681
360.896	42857
360.981	21631
361.065	14081
361.149	6521
361.233	6682
361.318	5165
361.402	6468
361.486	7348
361.570	5733
361.654	7089
361.739	10909
361.823	31260
361.907	43842
361.991	13947
362.075	11652
362.159	19387
362.243	25486
362.327	46386
362.411	62561
362.495	27566
362.580	15201
362.664	13966
362.748	14758
362.832	22873
362.916	44502
363.000	112767
363.084	153813
363.168	90745
363.252	29061
363.336	16759
363.420	15986
363.503	35432
363.587	39013
363.671	13290
363.755	11357
363.839	15725
363.923	11866
364.007	17436
364.091	22749
364.175	34795
364.258	90230
364.342	141375
364.426	203697
364.510	113334
364.594	43046
364.677	25921
364.761	44216
364.845	32678
364.929	16852
365.013	13130
365.096	11196
365.180	12629
365.264	17557
365.347	49314
365.431	23678
365.515	9435
365.598	6769
365.682	8081
365.766	9432
365.849	10920
365.933	6684
366.017	9628
366.100	8062
366.184	5627
366.267	6860
366.351	5953
366.435	5755
366.518	5779
366.602	5286
366.685	6573
366.769	6939
366.852	9197
366.936	11526
367.019	8330
367.103	7303
367.186	13015
367.270	6757
367.353	5403
367.436	6681
367.520	5566
367.603	7555
367.687	7302
367.770	10133
367.853	9335
367.937	15854
368.020	22924
368.104	8368
368.187	9110
368.270	11432
368.353	11114
368.437	10071
368.520	15461
368.603	12394
368.687	16360
368.770	28153
368.853	9976
368.936	11546
369.020	11276
369.103	6997
369.186	5307
369.269	4924
369.352	8386
369.436	9206
369.519	6586
369.602	4273
369.685	6875
369.768	5198
369.851	5496
369.934	4665
370.018	6025
370.101	7592
370.184	8845
370.267	6819
370.350	8046
370.433	12190
370.516	24456
370.599	37766
370.682	14771
370.765	20508
370.848	22730
370.931	33937
371.014	16368
371.097	5516
371.180	5800
371.263	5991
371.346	3797
371.429	5681
371.511	4844
371.594	6910
371.677	9518
371.760	12522
371.843	9362
371.926	27744
372.009	57447
372.091	23516
372.174	15133
372.257	29905
372.340	13510
372.423	13540
372.505	16378
372.588	8182
372.671	14489
372.754	32706
372.836	17665
372.919	16582
373.002	31484
373.085	10579
373.167	9840
373.250	16283
373.332	30308
373.415	40279
373.498	72236
373.580	33786
373.663	52219
373.746	62016
373.828	17080
373.911	10696
373.993	10080
374.076	30288
374.159	27601
374.241	13305
374.324	30874
374.406	22042
374.489	26094
374.571	62030
374.654	28298
374.736	16019
374.819	39379
374.901	55460
374.983	55227
375.066	14291
375.148	10126
375.231	26211
375.313	45552
375.395	20084
375.478	8641
375.560	8374
375.643	8317
375.725	16605
375.807	47041
375.890	37630
375.972	14778
376.054	12179
376.136	13973
376.219	8379
376.301	17486
376.383	41242
376.465	18301
376.548	12997
376.630	15042
376.712	37190
376.794	18247
376.877	5918
376.959	5703
377.041	6736
377.123	8988
377.205	11098
377.287	4783
377.369	5024
377.452	5848
377.534	4794
377.616	5906
377.698	5501
377.780	5256
377.862	6228
377.944	6432
378.026	4833
378.108	6030
378.190	5117
378.272	5325
378.354	3917
378.436	4027
378.518	6043
378.600	15203
378.682	12536
378.764	22036
378.846	19075
378.928	9063
379.010	9183
379.091	8220
379.173	5700
379.255	4813
379.337	5977
379.419	12231
379.501	29569
379.583	14467
379.664	6438
379.746	9094
379.828	24041
379.910	28531
379.991	25657
380.073	7097
380.155	5511
380.237	5119
380.318	5102
380.400	4815
380.482	7659
380.564	9372
380.645	9198
380.727	8904
380.809	6677
380.890	5326
380.972	4237
381.053	4939
381.135	5809
381.217	9604
381.298	23340
381.380	12935
381.461	10257
381.543	35338
381.624	43160
381.706	11458
381.787	7099
381.869	8703
381.951	17734
382.032	54683
382.113	38821
382.195	10763
382.276	9922
382.358	14229
382.439	31983
382.521	35904
382.602	51321
382.684	26589
382.765	46815
382.846	44665
382.928	50775
383.009	28914
383.090	23713
383.172	73497
383.253	102545
383.334	43265
383.416	48763
383.497	26590
383.578	13965
383.659	22318
383.741	67146
383.822	153455
383.903	79686
383.984	35306
384.066	62351
384.147	41053
384.228	13244
384.309	10457
384.390	10590
384.471	8911
384.553	8465
384.634	10429
384.715	10188
384.796	7312
384.877	7042
384.958	22619
385.039	24859
385.120	12041
385.201	8346
385.282	8634
385.363	10530
385.444	9184
385.525	12506
385.606	27355
385.687	24924
385.768	11021
385.849	11716
385.930	33060
386.011	51988
386.092	18871
386.173	9575
386.254	9296
386.335	9482
386.416	8752
386.496	17587
386.577	26876
386.658	13011
386.739	9908
386.820	10665
386.901	9264
386.981	9703
387.062	9382
387.143	12119
387.224	26879
387.304	26874
387.385	16738
387.466	12274
387.547	16074
387.627	13043
387.708	18035
387.789	42405
387.869	44862
387.950	19579
388.031	10339
388.111	9279
388.192	14862
388.273	18143
388.353	11963
388.434	8931
388.514	11314
388.595	33055
388.676	41304
388.756	25609
388.837	24124
388.917	15691
388.998	6681
389.078	8194
389.159	7082
389.239	5447
389.320	10007
389.400	6763
389.480	12486
389.561	24411
389.641	15012
389.722	8040
389.802	10317
389.883	14139
389.963	27848
390.043	18592
390.124	8911
390.204	11949
390.284	26556
390.365	17674
390.445	21682
390.525	38657
390.605	32044
390.686	15991
390.766	9795
390.846	8576
390.927	6320
391.007	6766
391.087	8672
391.167	7595
391.247	6562
391.328	8548
391.408	11924
391.488	10098
391.568	6253
391.648	8551
391.728	10599
391.808	10303
391.888	10843
391.969	18323
392.049	25105
392.129	16083
392.209	16730
392.289	30495
392.369	21893
392.449	22469
392.529	17229
392.609	17382
392.689	20070
392.769	36603
392.849	36089
392.929	37495
393.009	61215
393.089	68550
393.169	99930
393.248	216608
393.328	404812
393.408	406167
393.488	223490
393.568	98364
393.648	54525
393.728	35026
393.807	25095
393.887	22452
393.967	18804
394.047	18368
394.127	18917
394.206	24559
394.286	60127
394.366	181623
394.446	193268
394.525	65844
394.605	24040
394.685	18679
394.764	28249
394.844	45497
394.924	41998
395.003	17521
395.083	11471
395.163	10991
395.242	10479
395.322	10016
395.402	8677
395.481	11746
395.561	21608
395.640	56365
395.720	73875
395.799	61437
395.879	41882
395.958	32811
396.038	86714
396.117	229178
396.197	246546
396.276	107977
396.356	48210
396.435	37355
396.515	34680
396.594	43083
396.673	80132
396.753	198486
396.832	374469
396.912	306957
396.991	120413
397.070	51149
397.150	30043
397.229	26423
397.308	45137
397.388	83958
397.467	43500
397.546	16989
397.625	10510
397.705	13296
397.784	11204
397.863	9028
397.942	7940
398.022	9025
398.101	16443
398.180	36799
398.259	21142
398.338	10127
398.417	7624
398.497	6558
398.576	7079
398.655	5261
398.734	6574
398.813	6328
398.892	14641
398.971	37554
399.050	19395
399.129	5275
399.208	5556
399.287	5696
399.366	5327
399.445	5470
399.524	5686
399.603	3930
399.682	5909
399.761	13465
399.840	39042
399.919	30431
399.998	6804
400.077	3856
400.156	4006
400.235	6716
400.313	5079
400.392	5629
400.471	13493
400.550	20429
400.629	7567
400.708	5554
400.786	5652
400.865	10888
400.944	11589
401.023	7771
401.102	3891
401.180	3458
401.259	4189
401.338	4791
401.416	5352
401.495	4263
401.574	6189
401.652	4298
401.731	4978
401.810	4194
401.888	4032
401.967	3338
402.046	3684
402.124	4571
402.203	5554
402.281	4442
402.360	5575
402.438	12493
402.517	9294
402.596	4991
402.674	4158
402.753	3409
402.831	4418
402.910	4705
402.988	8181
403.066	25546
403.145	16145
403.223	11536
403.302	22399
403.380	18190
403.459	16154
403.537	8913
403.615	5669
403.694	3922
403.772	4637
403.850	3849
403.929	3999
404.007	4526
404.085	8153
404.164	6141
404.242	5925
404.320	14980
404.398	40186
404.477	38205
404.555	52796
404.633	46841
404.711	31577
404.789	22314
404.868	7741
404.946	3957
405.024	4716
405.102	3621
405.180	2935
405.258	2062
405.336	4192
405.415	3162
405.493	5835
405.571	5230
405.649	3750
405.727	2725
405.805	6045
405.883	5364
405.961	6080
406.039	4789
406.117	3460
406.195	4512
406.273	12035
406.351	40793
406.429	25599
406.507	6466
406.585	4315
406.663	4286
406.740	4771
406.818	3592
406.896	3501
406.974	4500
407.052	4972
407.130	25311
407.208	34906
407.285	8690
407.363	3471
407.441	4498
407.519	4142
407.596	5412
407.674	15970
407.752	56014
407.830	45595
407.907	11658
407.985	3901
408.063	3487
408.141	3382
408.218	5245
408.296	4895
408.373	4545
408.451	5810
408.529	5355
408.606	3994
408.684	4893
408.762	4459
408.839	4474
408.917	4655
408.994	6204
409.072	5739
409.149	6342
409.227	10839
409.304	13589
409.382	17039
409.459	17754
409.537	22108
409.614	21674
409.692	18344
409.769	16560
409.846	21657
409.924	28386
410.001	22005
410.079	16859
410.156	12974
410.233	10264
410.311	8538
410.388	8099
410.465	8153
410.543	6198
410.620	7205
410.697	6853
410.775	6992
410.852	4605
410.929	6998
411.006	7478
411.083	6246
411.161	7911
411.238	8804
411.315	6873
411.392	5447
411.469	6312
411.547	5906
411.624	3770
411.701	5234
411.778	4510
411.855	6133
411.932	3795
412.009	4640
412.086	4285
412.163	5608
412.240	3850
412.317	5171
412.394	4750
412.471	4397
412.548	3230
412.625	4244
412.702	3906
412.779	6400
412.856	5273
412.933	2967
413.010	3977
413.087	4595
413.164	12374
413.241	17366
413.318	5373
413.395	5503
413.471	5842
413.548	4642
413.625	3995
413.702	2709
413.779	3584
413.855	2886
413.932	3108
414.009	2317
414.086	3362
414.162	3470
414.239	4259
414.316	11339
414.393	24423
414.469	9733
414.546	3109
414.623	4040
414.699	2409
414.776	3465
414.853	2615
414.929	3436
415.006	2932
415.082	3420
415.159	2500
415.236	3376
415.312	3272
415.389	4714
415.465	4858
415.542	3546
415.618	2131
415.695	5120
415.771	2910
415.848	3263
415.924	3640
416.000	3232
416.077	3301
416.153	2371
416.230	1690
416.306	2734
416.383	2274
416.459	3641
416.535	2167
416.612	2694
416.688	2935
416.764	2562
416.841	1986
416.917	2991
416.993	3182
417.069	3477
417.146	4258
417.222	5787
417.298	3459
417.374	3489
417.451	3514
417.527	3561
417.603	3336
417.679	3073
417.755	2984
417.831	2462
417.908	3096
417.984	3140
418.060	2045
418.136	4950
418.212	5581
418.288	4407
418.364	2720
418.440	2638
418.516	4366
418.592	5633
418.668	7098
418.744	9038
418.820	6753
418.896	3860
418.972	2012
419.048	3350
419.124	6407
419.200	4469
419.276	2881
419.352	2862
419.428	3393
419.504	3701
419.579	4753
419.655	4863
419.731	4439
419.807	7567
419.883	10993
419.959	8547
420.034	4896
420.110	7326
420.186	18101
420.262	15994
420.337	6600
420.413	6427
420.489	5640
420.565	7347
420.640	5814
420.716	7384
420.792	5883
420.867	7694
420.943	7455
421.019	10172
421.094	8870
421.170	9147
421.245	9217
421.321	10849
421.397	12128
421.472	21667
421.548	45194
421.623	32147
421.699	18815
421.774	18566
421.850	19512
421.925	24625
422.001	27916
422.076	33947
422.152	41726
422.227	54674
422.302	74141
422.378	104969
422.453	157726
422.529	218589
422.604	216937
422.679	159046
422.755	209880
422.830	224939
422.905	165617
422.981	115480
423.056	82669
423.131	62603
423.207	47493
423.282	38614
423.357	34314
423.432	27799
423.508	25373
423.583	24527
423.658	21568
423.733	17402
423.808	15199
423.883	16741
423.959	15294
424.034	15874
424.109	16066
424.184	11381
424.259	9834
424.334	9373
424.409	7995
424.484	8081
424.559	7603
424.634	7819
424.709	6700
424.784	7591
424.859	6641
424.934	6912
425.009	13409
425.084	21007
425.159	10223
425.234	5872
425.309	4615
425.384	8314
425.459	9362
425.534	5868
425.609	4012
425.683	5084
425.758	5265
425.833	4698
425.908	5662
425.983	8544
426.058	20368
426.132	10630
426.207	4640
426.282	7215
426.357	5169
426.431	4459
426.506	4650
426.581	3807
426.655	3816
426.730	3899
426.805	3463
426.879	4058
426.954	4182
427.029	5936
427.103	16650
427.178	37764
427.253	17478
427.327	5279
427.402	5111
427.476	10795
427.551	6300
427.625	4796
427.700	4738
427.774	3409
427.849	4516
427.923	4210
427.998	3699
428.072	5218
428.147	10151
428.221	36427
428.296	100219
428.370	57454
428.444	11532
428.519	7671
428.593	10993
428.667	10564
428.742	12654
428.816	19369
428.890	66646
428.965	97800
429.039	30183
429.113	14262
429.188	6465
429.262	3854
429.336	5205
429.410	10554
429.485	8558
429.559	10003
429.633	8338
429.707	6099
429.781	15589
429.855	68085
429.930	94125
430.004	39464
430.078	44673
430.152	60689
430.226	127625
430.300	125337
430.374	34009
430.448	12007
430.522	16780
430.596	36285
430.670	33090
430.744	86163
430.818	99093
430.892	22044
430.966	5467
431.040	5216
431.114	2468
431.188	2911
431.262	2560
431.336	2736
431.410	5320
431.484	11152
431.557	7940
431.631	4350
431.705	6364
431.779	26611
431.853	93611
431.927	64935
432.000	12048
432.074	4745
432.148	3835
432.222	2735
432.295	2919
432.369	2518
432.443	3144
432.516	15081
432.590	35278
432.664	14148
432.737	2954
432.811	1301
432.885	1300
432.958	2393
433.032	1407
433.106	1221
433.179	1668
433.253	1929
433.326	1626
433.400	1698
433.473	1563
433.547	1214
433.620	1541
433.694	3683
433.767	3330
433.841	1508
433.914	2456
433.988	1318
434.061	1687
434.134	1793
434.208	1180
434.281	2011
434.355	1531
434.428	2998
434.501	1508
434.575	1404
434.648	1336
434.721	2376
434.795	1585
434.868	1403
434.941	1817
435.014	1767
435.088	2142
435.161	2143
435.234	3117
435.307	4303
435.381	4616
435.454	6754
435.527	10117
435.600	11817
435.673	10403
435.746	8252
435.819	6860
435.892	5607
435.966	4066
436.039	3509
436.112	3329
436.185	2970
436.258	2012
436.331	2013
436.404	1839
436.477	1760
436.550	1677
436.623	2677
436.696	1903
436.769	1999
436.842	1528
436.915	1838
436.987	3217
437.060	2574
437.133	2070
437.206	1728
437.279	1839
437.352	1672
437.425	1761
437.498	2753
437.570	3876
437.643	3162
437.716	1434
437.789	875
437.861	2453
437.934	5335
438.007	2435
438.080	1393
438.152	2162
438.225	2755
438.298	17477
438.370	46119
438.443	19501
438.516	5394
438.588	2566
438.661	2205
438.734	2162
438.806	2488
438.879	2517
438.951	1859
439.024	3143
439.096	2379
439.169	1540
439.241	1914
439.314	1127
439.386	1938
439.459	3485
439.531	3314
439.604	2334
439.676	2243
439.749	1119
439.821	2253
439.893	1698
439.966	1214
440.038	1626
440.110	2204
440.183	1327
440.255	1959
440.327	2380
440.400	9299
440.472	32124
440.544	20628
440.617	3323
440.689	3979
440.761	3591
440.833	5308
440.905	3750
440.978	2497
441.050	1825
441.122	1950
441.194	1198
441.266	2133
441.338	2019
441.411	3066
441.483	11985
441.555	15980
441.627	5121
441.699	4181
441.771	3431
441.843	3164
441.915	2466
441.987	2085
442.059	2833
442.131	3943
442.203	5048
442.275	7248
442.347	9691
442.419	20732
442.491	80431
442.563	161911
442.635	74153
442.706	24281
442.778	14689
442.850	6565
442.922	5231
442.994	5201
443.066	6198
443.137	8346
443.209	9909
443.281	14057
443.353	30303
443.425	93570
443.496	225821
443.568	243683
443.640	114387
443.711	30016
443.783	12523
443.855	8854
443.926	6122
443.998	4607
444.070	5073
444.141	4379
444.213	4739
444.285	6187
444.356	4932
444.428	3765
444.499	4034
444.571	3193
444.642	3305
444.714	4260
444.785	5204
444.857	6886
444.928	10073
445.000	9162
445.071	10246
445.143	14115
445.214	14663
445.285	26524
445.357	64398
445.428	163186
445.500	262018
445.571	234333
445.642	162551
445.714	64558
445.785	27554
445.856	11819
445.928	7983
445.999	6699
446.070	5115
446.141	6180
446.213	5114
446.284	3853
446.355	4041
446.426	2972
446.497	2529
446.569	3671
446.640	4410
446.711	3251
446.782	2633
446.853	2339
446.924	3373
446.995	2004
447.066	2564
447.138	3834
447.209	2929
447.280	1579
447.351	1623
447.422	1323
447.493	1169
447.564	2236
447.635	2386
447.706	2764
447.777	37
447.847	1647
447.918	409
447.989	1885
448.060	2586
448.131	4911
448.202	4054
448.273	3517
448.344	1392
448.414	1854
448.485	1342
448.556	1868
448.627	787
448.698	1572
448.768	1041
448.839	1050
448.910	2767
448.981	3017
449.051	1180
449.122	1918
449.193	779
449.263	1778
449.334	1327
449.405	2198
449.475	3293
449.546	3545
449.616	3443
449.687	3777
449.758	2095
449.828	1040
449.899	727
449.969	1123
450.040	343
450.110	1085
450.181	1129
450.251	893
450.322	1255
450.392	2214
450.463	1229
450.533	1065
450.604	1196
450.674	1654
450.744	1934
450.815	1861
450.885	2575
450.955	2344
451.026	1411
451.096	2327
451.166	2021
451.237	4963
451.307	9382
451.377	4952
451.447	2070
451.518	1067
451.588	1699
451.658	2099
451.728	3450
451.799	8911
451.869	9082
451.939	2430
452.009	982
452.079	1047
452.149	1236
452.219	2858
452.289	9369
452.360	7808
452.430	2781
452.500	3381
452.570	6136
452.640	11103
452.710	25133
452.780	31799
452.850	18899
452.920	11556
452.990	5571
453.060	3678
453.129	3119
453.199	4092
453.269	10521
453.339	20126
453.409	29781
453.479	30681
453.549	42575
453.619	46220
453.688	16960
453.758	4017
453.828	1666
453.898	1333
453.968	1009
454.037	851
454.087	919
454.107	928
454.168	887
454.177	857
454.247	1846
454.249	1835
454.316	998
454.330	1252
454.386	2056
454.411	3172
454.456	4816
454.492	6227
454.525	7449
454.574	4377
454.595	3057
454.655	1411
454.665	1132
454.734	2069
454.736	2151
454.804	3566
454.817	4620
454.873	8293
454.898	8855
454.943	9676
454.979	6070
455.013	2910
455.060	2246
455.082	2114
455.141	3458
455.152	3614
455.221	8274
455.222	8415
455.291	13776
455.303	13804
455.360	13118
455.384	16788
455.430	21944
455.465	16937
455.499	12519
455.546	10561
455.569	9463
455.627	6549
455.638	6085
455.707	2061
455.708	2086
455.777	2162
455.789	2309
455.846	2814
455.869	2607
455.916	2250
455.950	2491
455.985	2608
456.031	2511
456.054	2449
456.112	2608
456.124	2619
456.193	2859
456.193	2836
456.262	3658
456.274	3666
456.332	3555
456.355	3480
456.401	3063
456.436	3135
456.470	3233
456.516	3219
456.540	3223
456.597	2659
456.609	2496
456.678	3239
456.678	3220
456.747	2689
456.759	2716
456.817	2634
456.840	2702
456.886	2841
456.920	3167
456.955	3627
457.001	3791
457.024	3739
457.082	3656
457.093	3621
457.162	4273
457.163	4303
457.232	5027
457.243	4901
457.301	3974
457.324	3955
457.370	4306
457.405	4501
457.439	4638
457.485	4909
457.508	4997
457.566	5339
457.577	5638
457.646	8775
457.647	8841
457.715	17689
457.727	19761
457.784	32668
457.808	42006
457.853	52767
457.889	62450
457.922	63209
457.969	43769
457.991	43749
458.050	51416
458.060	53017
458.129	87085
458.130	88205
458.198	90832
458.211	82696
458.267	49278
458.292	34765
458.336	22657
458.372	21178
458.405	27511
458.453	40799
458.474	50892
458.533	88480
458.543	91069
458.611	137883
458.614	138691
458.680	91762
458.694	73995
458.749	36002
458.775	25595
458.818	15094
458.855	12221
458.887	10345
458.936	8700
458.955	8211
459.016	7519
459.024	7493
459.093	7565
459.097	7559
459.162	6426
459.177	6403
459.230	6543
459.257	6570
459.299	6649
459.338	6726
459.368	6716
459.418	6830
459.437	6818
459.499	6082
459.505	5988
459.574	6498
459.579	6483
459.643	6330
459.659	6288
459.711	6098
459.740	6255
459.780	6626
459.820	6742
459.849	6701
459.900	6736
459.917	6638
459.981	6986
459.986	6988
460.054	6249
460.061	6233
460.123	7128
460.141	7305
460.191	7152
460.222	7330
460.260	7966
460.302	8522
460.328	8544
460.382	8466
460.397	8500
460.462	8703
460.465	9016
460.534	17017
460.543	18078
460.602	46071
460.623	56861
460.671	84669
460.703	110608
460.739	99601
460.783	76425
460.808	64632
460.864	18319
460.876	14455
460.944	8693
460.945	8628
461.013	7489
461.024	7341
461.081	7381
461.104	7606
461.150	7263
461.184	6889
461.218	7104
461.264	7224
461.286	7109
461.345	6983
461.355	6935
461.423	6971
461.425	6959
461.491	7109
461.505	7283
461.559	9726
461.585	10722
461.628	13884
461.665	17098
461.696	17882
461.745	20265
461.764	18411
461.825	8653
461.832	8464
461.901	7603
461.905	7640
461.969	7269
461.985	7088
462.037	7455
462.065	7529
462.105	7568
462.145	7963
462.173	9538
462.225	12286
462.241	12780
462.305	15572
462.310	15292
462.378	10552
462.385	9892
462.446	8661
462.465	8261
462.514	8029
462.545	8224
462.582	7920
462.625	7412
462.650	7487
462.705	7852
462.718	7960
462.785	8235
462.786	8249
462.854	8950
462.865	9135
462.922	10079
462.945	10423
462.990	9431
463.025	8260
463.058	7700
463.104	7138
463.126	7239
463.184	7549
463.194	7652
463.262	8109
463.264	8131
463.330	7489
463.344	7344
463.398	8120
463.424	8447
463.466	7990
463.504	7623
463.533	7706
463.583	7727
463.601	7834
463.663	8292
463.669	8395
463.737	9453
463.743	9539
463.805	13311
463.823	14405
463.873	18052
463.903	20492
463.940	21016
463.982	21533
464.008	18436
464.062	11129
464.076	10778
464.142	8557
464.144	8546
464.211	8746
464.221	8752
464.279	8506
464.301	8405
464.347	9104
464.381	9530
464.414	9702
464.461	10123
464.482	10329
464.540	10740
464.550	10610
464.617	9452
464.620	9402
464.685	11059
464.699	11431
464.753	13455
464.779	14395
464.820	15311
464.859	16289
464.888	15715
464.938	14359
464.956	14472
465.018	15034
465.023	14971
465.091	13313
465.098	13194
465.158	12650
465.177	12375
465.226	12199
465.257	12084
465.293	12560
465.336	13072
465.361	13485
465.416	14218
465.428	14655
465.495	17083
465.496	17149
465.563	23179
465.575	24215
465.631	27834
465.654	29497
465.698	21544
465.734	14360
465.765	13544
465.813	12289
465.833	12225
465.893	12335
465.900	12352
465.968	12336
465.972	12303
466.035	12102
466.052	12074
466.102	12249
466.131	12254
466.170	12533
466.210	12811
466.237	12798
466.290	12716
466.304	12797
466.369	13012
466.372	13032
466.439	12887
466.449	12859
466.506	13230
466.528	13319
466.573	16162
466.607	18250
466.641	23889
466.687	31639
466.708	33670
466.766	39329
466.775	36862
466.842	17597
466.845	16646
466.909	14395
466.925	13890
466.977	14007
467.004	14051
467.044	14872
467.083	15629
467.111	17349
467.163	20496
467.178	20846
467.242	22106
467.245	22038
467.312	19737
467.321	19396
467.379	19160
467.400	19016
467.446	19563
467.480	19893
467.559	18122
467.638	18169
467.717	17875
467.796	18302
467.875	19190
467.955	20636
468.034	25521
468.113	41332
468.192	54074
468.271	27844
468.350	29061
468.429	35472
468.508	35749
468.588	27720
468.667	20440
468.746	19372
468.825	18553
468.904	17371
468.983	18870
469.062	22275
469.141	23682
469.220	16998
469.299	16991
469.378	17623
469.456	22408
469.535	19994
469.614	18555
469.693	18285
469.772	20801
469.851	23294
469.930	18908
470.009	17791
470.088	17603
470.166	18838
470.245	18827
470.324	19433
470.403	18622
470.482	17899
470.560	17819
470.639	17411
470.718	17716
470.797	17310
470.875	18397
470.954	20668
471.033	21118
471.111	14945
471.190	16686
471.269	15517
471.347	14806
471.426	16285
471.505	18429
471.583	20369
471.662	18365
471.740	16988
471.819	17483
471.898	17726
471.976	16698
472.055	16636
472.133	18268
472.212	24394
472.290	20004
472.369	16639
472.447	15783
472.526	16027
472.604	16562
472.683	17494
472.761	16198
472.839	16842
472.918	16688
472.996	16757
473.075	16717
473.153	17857
473.231	15662
473.310	17963
473.388	16288
473.466	16689
473.545	17996
473.623	20175
473.701	19170
473.780	17927
473.858	16022
473.936	19304
474.014	17530
474.093	20129
474.171	23223
474.249	24917
474.327	18191
474.405	16253
474.484	16381
474.562	16124
474.640	15480
474.718	15925
474.796	15377
474.874	15175
474.952	14959
475.030	15324
475.108	15415
475.187	15717
475.265	15273
475.343	18555
475.421	18639
475.499	15819
475.577	15671
475.655	18402
475.733	25637
475.811	36073
475.889	32935
475.966	25213
476.044	15872
476.122	15292
476.200	16894
476.278	16063
476.356	14343
476.434	16676
476.512	16029
476.590	18295
476.667	17186
476.745	14387
476.823	15968
476.901	15826
476.979	14789
477.056	15894
477.134	15280
477.212	16068
477.290	15536
477.367	15057
477.445	14576
477.523	14554
477.601	14379
477.678	14828
477.756	17043
477.834	17329
477.911	14293
477.989	14877
478.066	14203
478.144	15628
478.222	16784
478.299	18342
478.377	19626
478.454	16678
478.532	13743
478.609	14684
478.687	15694
478.764	14240
478.842	14982
478.919	14135
478.997	14270
479.074	14879
479.152	15590
479.229	17160
479.307	13276
479.384	13540
479.461	13673
479.539	14232
479.616	15637
479.694	13914
479.771	14238
479.848	15307
479.926	16057
480.003	18509
480.080	13846
480.157	14054
480.235	14011
480.312	13994
480.389	15314
480.467	18589
480.544	20512
480.621	15881
480.698	15646
480.775	16881
480.853	15375
480.930	15236
481.007	16117
481.084	21362
481.161	29137
481.238	22594
481.315	13523
481.392	14871
481.470	15362
481.547	14544
481.624	14563
481.701	14643
481.778	15933
481.855	16301
481.932	18900
482.009	24972
482.086	20898
482.163	17518
482.240	19984
482.317	23155
482.393	20311
482.470	17259
482.547	16180
482.624	15248
482.701	15462
482.778	14931
482.855	15189
482.932	16089
483.009	15339
483.085	19822
483.162	25478
483.239	24659
483.316	18318
483.393	18997
483.469	16371
483.546	17664
483.623	17517
483.699	15039
483.776	14863
483.853	16136
483.930	19056
484.006	33619
484.083	51517
484.160	41471
484.236	60923
484.313	49061
484.389	38739
484.466	37189
484.543	36535
484.619	39983
484.696	40848
484.772	37493
484.849	35623
484.925	32974
485.002	31458
485.078	33089
485.155	31224
485.231	30180
485.308	28948
485.384	30378
485.461	34509
485.537	42315
485.614	45475
485.690	29458
485.766	27871
485.843	29201
485.919	31216
485.995	32294
486.072	27342
486.148	27500
486.224	27360
486.301	26820
486.377	28733
486.453	28482
486.530	31024
486.606	38362
486.682	42013
486.758	42556
486.835	45024
486.911	39890
486.987	50235
487.063	51334
487.139	57511
487.215	54123
487.292	40821
487.368	38155
487.444	42736
487.520	51472
487.596	67228
487.672	122679
487.748	321955
487.824	478076
487.900	178022
487.976	63572
488.052	42417
488.128	40114
488.204	33592
488.280	31791
488.356	32365
488.432	45948
488.508	58120
488.584	30751
488.660	27287
488.736	27394
488.812	26121
488.888	30352
488.964	35073
489.039	49176
489.115	62945
489.191	46089
489.267	28387
489.343	26437
489.418	25739
489.494	24328
489.570	22425
489.646	25981
489.722	23891
489.797	24872
489.873	30490
489.949	45238
490.024	40443
490.100	23644
490.176	23129
490.251	24700
490.327	27625
490.403	22892
490.478	23024
490.554	20721
490.629	22249
490.705	20555
490.781	22141
490.856	21022
490.932	23959
491.007	21896
491.083	22146
491.158	20691
491.234	25518
491.309	36872
491.385	34893
491.460	21989
491.536	22419
491.611	20689
491.686	20615
491.762	23774
491.837	32185
491.913	47401
491.988	58819
492.063	68623
492.139	30878
492.214	23584
492.289	18781
492.365	18961
492.440	20092
492.515	19575
492.590	20782
492.666	18529
492.741	20670
492.816	25576
492.891	19106
492.967	19666
493.042	17204
493.117	18613
493.192	18743
493.267	27164
493.342	59702
493.418	74135
493.493	22530
493.568	16824
493.643	16897
493.718	19126
493.793	22143
493.868	23669
493.943	18632
494.018	18453
494.093	15854
494.168	17226
494.243	15713
494.318	16537
494.393	15033
494.468	16608
494.543	15387
494.618	17288
494.693	16082
494.768	15589
494.842	16079
494.917	15786
494.992	16357
495.067	15656
495.142	15738
495.217	16620
495.292	16616
495.366	16832
495.441	18327
495.516	20200
495.591	24534
495.665	54070
495.740	107219
495.815	51312
495.890	19750
495.964	16553
496.039	19925
496.114	21911
496.188	30230
496.263	27417
496.338	16722
496.412	19456
496.487	20333
496.561	19550
496.636	20258
496.710	19803
496.785	20114
496.860	21123
496.934	17506
497.009	17700
497.083	17259
497.158	18384
497.232	18472
497.307	20907
497.381	18187
497.455	19536
497.530	22784
497.604	19348
497.679	18745
497.753	25209
497.827	26797
497.902	22568
497.976	28577
498.050	63104
498.125	211074
498.199	198940
498.273	30760
498.348	23522
498.422	21532
498.496	22619
498.570	20267
498.645	18192
498.719	18242
498.793	21386
498.867	27728
498.941	37612
499.016	94701
499.090	226738
499.164	79493
499.238	19185
499.312	17215
499.386	19869
499.460	19749
499.534	17661
499.609	20244
499.683	26013
499.757	25508
499.831	47975
499.905	155938
499.979	141462
500.053	30484
500.127	28387
500.201	21783
500.275	18388
500.349	17815
500.422	19247
500.496	22948
500.570	39026
500.644	92153
500.718	158550
500.792	41985
500.866	19540
500.940	21277
501.013	20694
501.087	19110
501.161	26698
501.235	31039
501.309	58062
501.382	144341
501.456	121511
501.530	34631
501.603	51272
501.677	26359
501.751	15107
501.825	19189
501.898	28550
501.972	62678
502.046	40962
502.119	17094
502.193	34121
502.266	64630
502.340	37262
502.413	34771
502.487	58339
502.561	36047
502.634	18035
502.708	17896
502.781	15629
502.855	15485
502.928	14716
503.002	14669
503.075	14666
503.149	16003
503.222	15571
503.295	15940
503.369	17980
503.442	21399
503.516	50985
503.589	109201
503.662	75541
503.736	34874
503.809	61629
503.882	57624
503.956	83420
504.029	107172
504.102	182183
504.175	253187
504.249	108610
504.322	46267
504.395	31402
504.468	21926
504.542	20276
504.615	17334
504.688	16257
504.761	13553
504.834	17176
504.907	17026
504.980	22099
505.053	15042
505.127	15295
505.200	20941
505.273	18100
505.346	14359
505.419	13658
505.492	14237
505.565	12392
505.638	12569
505.711	12595
505.784	11863
505.857	12412
505.930	13968
506.003	10913
506.076	14036
506.149	13763
506.221	14634
506.294	16673
506.367	28705
506.440	79526
506.513	45067
506.586	16720
506.659	13074
506.731	12863
506.804	13054
506.877	14544
506.950	14228
507.022	13887
507.095	13415
507.168	16323
507.241	12923
507.313	10772
507.386	11259
507.459	15585
507.531	12553
507.604	11336
507.677	12598
507.749	11103
507.822	15351
507.894	23751
507.967	28886
508.040	20150
508.112	19124
508.185	17639
508.257	15566
508.330	20714
508.402	17364
508.475	16760
508.547	17313
508.620	17777
508.692	20723
508.765	17093
508.837	15062
508.909	15659
508.982	14372
509.054	15430
509.127	13791
509.199	14779
509.271	14187
509.344	13808
509.416	14307
509.488	14527
509.560	15173
509.633	14773
509.705	15909
509.777	16443
509.849	19750
509.922	17200
509.994	16043
510.066	17288
510.138	17657
510.210	30981
510.283	26941
510.355	22456
510.427	21255
510.499	19640
510.571	18615
510.643	18942
510.715	22196
510.787	18943
510.859	19349
510.931	20045
511.003	22404
511.076	23078
511.148	17539
511.219	19368
511.291	24106
511.363	24730
511.435	18469
511.507	18365
511.579	17900
511.651	18106
511.723	16995
511.795	16572
511.867	16027
511.939	18039
512.010	24476
512.082	22451
512.154	16359
512.226	17555
512.298	22804
512.369	29438
512.441	24579
512.513	23125
512.585	18827
512.656	20987
512.728	20326
512.800	18708
512.871	18662
512.943	18921
513.015	17047
513.086	18055
513.158	18396
513.230	17617
513.301	20044
513.373	21560
513.444	18755
513.516	17360
513.588	16280
513.659	18070
513.731	19438
513.802	16863
513.874	24185
513.945	32281
514.016	19328
514.088	17847
514.159	17059
514.231	20026
514.302	26323
514.374	23029
514.445	19731
514.516	29829
514.588	23957
514.659	20415
514.730	25585
514.802	24012
514.873	16655
514.944	19978
515.016	19134
515.087	20302
515.158	23196
515.229	27867
515.301	17740
515.372	19329
515.443	17261
515.514	18225
515.585	16611
515.656	18320
515.728	17816
515.799	17002
515.870	18730
515.941	19030
516.012	18053
516.083	22866
516.154	22784
516.225	24052
516.296	24080
516.367	20917
516.438	21262
516.509	22549
516.580	29020
516.651	59359
516.722	154964
516.793	84725
516.864	29752
516.935	28729
517.006	29628
517.077	33941
517.148	61618
517.219	164731
517.289	239065
517.360	105293
517.431	44104
517.502	22368
517.573	22421
517.643	22792
517.714	24092
517.785	25771
517.856	24672
517.926	28165
517.997	27984
518.068	29259
518.138	34903
518.209	43283
518.280	119831
518.350	365603
518.421	152305
518.492	42173
518.562	42011
518.633	49393
518.703	67979
518.774	139133
518.845	328774
518.915	296169
518.986	99389
519.056	51343
519.127	47162
519.197	55362
519.268	99168
519.338	68254
519.408	29256
519.479	29721
519.549	24349
519.620	23647
519.690	19284
519.760	20435
519.831	18954
519.901	19892
519.971	19518
520.042	19908
520.112	21278
520.182	22042
520.253	21552
520.323	19260
520.393	19939
520.463	26808
520.534	19842
520.604	30175
520.674	22009
520.744	21697
520.814	31415
520.885	31664
520.955	38896
521.025	104057
521.095	47319
521.165	19505
521.235	17187
521.305	17194
521.375	17983
521.445	19744
521.515	18547
521.585	22168
521.655	20074
521.725	20058
521.795	19532
521.865	15688
521.935	21673
522.005	19544
522.075	16608
522.145	19162
522.215	19267
522.285	23143
522.355	24924
522.424	36671
522.494	32381
522.564	22956
522.634	29903
522.704	64167
522.774	31480
522.843	18713
522.913	18782
522.983	20517
523.053	17645
523.122	18749
523.192	20010
523.262	36369
523.331	36382
523.401	19646
523.471	15721
523.540	16676
523.610	16020
523.680	16739
523.749	18037
523.819	20249
523.888	21320
523.958	17486
524.027	17536
524.097	18106
524.166	17134
524.236	15806
524.305	18296
524.375	16704
524.444	16413
524.514	20233
524.583	16890
524.653	19213
524.722	20567
524.791	16986
524.861	18603
524.930	16948
524.999	17018
525.069	19886
525.138	17738
525.207	21124
525.277	19493
525.346	19445
525.415	19811
525.484	22017
525.554	23233
525.623	27990
525.692	31616
525.761	32532
525.830	35164
525.900	42624
525.969	63491
526.038	114197
526.107	233220
526.176	620176
526.245	479628
526.314	154060
526.383	315516
526.452	426235
526.522	593950
526.591	534187
526.660	116054
526.729	66642
526.797	69893
526.867	114843
526.935	365351
527.004	911110
527.073	536956
527.142	88885
527.211	40933
527.280	32191
527.349	28082
527.418	21754
527.487	21059
527.555	19067
527.624	18592
527.693	16711
527.762	19421
527.831	16924
527.899	17392
527.968	17711
528.037	15486
528.106	18567
528.174	21247
528.243	20074
528.312	23478
528.380	25243
528.449	16287
528.518	17857
528.586	15441
528.655	17154
528.723	15959
528.792	17631
528.861	16233
528.929	16183
528.998	18848
529.066	24769
529.135	38754
529.203	36090
529.272	45734
529.340	59428
529.409	53383
529.477	48658
529.545	49178
529.614	54497
529.682	61116
529.751	67440
529.819	70149
529.887	78770
529.956	73483
530.024	70591
530.092	64296
530.161	64715
530.229	66126
530.297	72532
530.365	71423
530.434	73132
530.502	78427
530.570	68696
530.638	62355
530.707	59436
530.775	55919
530.843	56724
530.911	66025
530.979	61924
531.047	71752
531.115	70404
531.183	62496
531.252	60330
531.320	59026
531.388	58264
531.456	66295
531.524	70366
531.592	71944
531.660	81812
531.728	74237
531.796	70606
531.864	69924
531.932	69894
532.000	69895
532.067	77347
532.135	80321
532.203	83401
532.271	89707
532.339	88795
532.407	98641
532.475	88581
532.542	80982
532.610	80279
532.678	86354
532.746	122942
532.814	182442
532.881	110988
532.949	84295
533.017	78698
533.084	77012
533.152	72615
533.220	71675
533.287	74420
533.355	77000
533.423	76883
533.490	80987
533.558	75599
533.625	72931
533.693	72204
533.761	70108
533.828	68678
533.896	68510
533.963	80636
534.031	83577
534.098	90448
534.166	79625
534.233	71972
534.300	74325
534.368	72074
534.435	68171
534.503	67696
534.570	69926
534.637	72938
534.705	77575
534.772	83540
534.840	108817
534.907	309810
534.974	358473
535.041	87059
535.109	63166
535.176	56407
535.243	59771
535.310	58229
535.378	58792
535.445	56348
535.512	54105
535.579	52854
535.646	49839
535.714	50773
535.781	52851
535.848	54369
535.915	57409
535.982	58271
536.049	57518
536.116	55323
536.183	49091
536.250	47398
536.317	46133
536.384	47811
536.451	48919
536.518	50488
536.585	47072
536.652	51366
536.719	50628
536.786	45967
536.853	44371
536.920	47005
536.987	50240
537.053	49820
537.120	92149
537.187	88290
537.254	45609
537.321	43550
537.388	44410
537.454	41374
537.521	39701
537.588	39550
537.654	41110
537.721	43436
537.788	42642
537.855	40616
537.921	40791
537.988	40655
538.055	39691
538.121	36825
538.188	36566
538.254	37281
538.321	43195
538.388	40047
538.454	38399
538.521	38679
538.587	38068
538.654	37842
538.720	38137
538.787	38173
538.853	37414
538.920	37949
538.986	33743
539.053	33508
539.119	34372
539.185	34805
539.252	36748
539.318	40034
539.385	41501
539.451	39743
539.517	38019
539.583	39354
539.650	46775
539.716	72728
539.782	40894
539.849	32403
539.915	34216
539.981	35004
540.047	35421
540.114	34677
540.180	36202
540.246	34985
540.312	37332
540.378	41348
540.444	42540
540.510	46340
540.576	76417
540.643	44160
540.709	31694
540.775	34282
540.841	33266
540.907	34391
540.973	39171
541.039	36333
541.105	35776
541.171	34525
541.237	34776
541.303	34610
541.369	36700
541.435	35768
541.500	40404
541.566	33013
541.632	30280
541.698	31684
541.764	32637
541.830	32148
541.896	30999
541.961	31528
542.027	29687
542.093	34664
542.159	33660
542.224	32105
542.290	37258
542.356	39617
542.421	39109
542.487	33413
542.553	30903
542.618	33610
542.684	31079
542.750	31950
542.815	33739
542.881	38684
542.947	68410
543.012	58613
543.078	32134
543.143	31272
543.209	31734
543.274	31778
543.340	33299
543.405	43335
543.471	53603
543.536	34953
543.602	33056
543.667	31250
543.732	32470
543.798	31945
543.863	32964
543.928	31681
543.994	30710
544.059	32617
544.124	32080
544.190	32917
544.255	33239
544.320	34319
544.386	33750
544.451	36720
544.516	36096
544.581	37058
544.646	56137
544.712	72544
544.777	39033
544.842	36537
544.907	36675
544.972	35310
545.037	36489
545.102	38415
545.168	36941
545.233	38613
545.298	39102
545.363	40453
545.428	42645
545.493	48987
545.558	65973
545.623	46421
545.688	39766
545.753	41265
545.818	41371
545.883	44271
545.947	44051
546.012	46108
546.077	45459
546.142	47760
546.207	48759
546.272	51532
546.337	52507
546.401	52989
546.466	54074
546.531	55350
546.596	58883
546.661	60226
546.725	62833
546.790	64148
546.855	68890
546.919	73615
546.984	82026
547.049	87714
547.113	97441
547.178	105428
547.243	115204
547.307	134097
547.372	148030
547.436	149037
547.501	154872
547.565	166547
547.630	154253
547.695	148887
547.759	149501
547.823	152078
547.888	150790
547.952	157835
548.017	162304
548.081	175424
548.146	170175
548.210	168559
548.274	179504
548.339	177910
548.403	161674
548.468	152646
548.532	152208
548.596	156410
548.660	157014
548.725	170324
548.789	183918
548.853	181097
548.917	171833
548.982	169751
549.046	155462
549.110	139753
549.174	141820
549.238	164547
549.303	178331
549.367	182060
549.431	177402
549.495	165406
549.559	165332
549.623	187377
549.687	209084
549.751	206047
549.815	237969
549.879	240764
549.943	231012
550.007	242362
550.071	242790
550.135	222010
550.199	209578
550.263	207637
550.327	198121
550.391	208107
550.455	224273
550.519	234356
550.582	245365
550.646	275993
550.710	280884
550.774	274752
550.838	277289
550.901	282851
550.965	296700
551.029	311481
551.093	330534
551.156	354491
551.220	384602
551.284	397910
551.347	330925
551.411	316443
551.475	308964
551.538	300496
551.602	285310
551.666	272423
551.729	256895
551.793	252905
551.856	249778
551.920	245103
551.983	246548
552.047	242356
552.110	246812
552.174	248619
552.237	254804
552.301	240169
552.364	228276
552.428	224734
552.491	228285
552.554	234787
552.618	233513
552.681	236152
552.745	227306
552.808	235079
552.871	245992
552.934	242439
552.998	235207
553.061	232133
553.124	225445
553.187	223761
553.251	229985
553.314	232758
553.377	236083
553.440	255386
553.503	301403
553.567	337407
553.630	261592
553.693	250963
553.756	255141
553.819	253966
553.882	243688
553.945	243941
554.008	246337
554.071	245955
554.134	250339
554.197	239418
554.260	238308
554.323	238637
554.386	241200
554.449	248087
554.512	246522
554.575	239236
554.638	237018
554.701	236845
554.764	236494
554.827	229257
554.889	222575
554.952	210512
555.015	206448
555.078	207648
555.141	211412
555.203	208432
555.266	205871
555.329	204958
555.391	197383
555.454	196633
555.517	188256
555.580	182767
555.642	177471
555.705	175572
555.768	173486
555.830	170455
555.893	161217
555.955	159568
556.018	155885
556.080	154019
556.143	157910
556.206	157741
556.268	153288
556.330	151288
556.393	146071
556.455	144447
556.518	142832
556.580	140396
556.643	132017
556.705	128654
556.767	127803
556.830	126494
556.892	124270
556.955	125654
557.017	119610
557.079	118490
557.142	114181
557.204	115256
557.266	117959
557.328	112774
557.391	101010
557.453	100904
557.515	99286
557.577	100176
557.639	101125
557.701	98890
557.764	97330
557.826	98161
557.888	98698
557.950	101039
558.012	106108
558.074	127776
558.136	225797
558.198	446721
558.260	191614
558.322	101559
558.384	99954
558.446	100514
558.508	105995
558.570	116310
558.632	132737
558.694	164917
558.756	239426
558.818	569919
558.880	1051892
558.942	485224
559.003	470797
559.065	246698
559.127	115300
559.189	110720
559.251	120986
559.312	162337
559.374	328615
559.436	818612
559.498	434608
559.559	130517
559.621	109672
559.683	123672
559.744	182805
559.806	478028
559.868	635270
559.929	177836
559.991	120243
560.052	177798
560.114	424554
560.176	284732
560.237	262145
560.299	386494
560.360	113926
560.422	64124
560.483	57256
560.545	54595
560.606	52770
560.667	52327
560.729	49931
560.790	49578
560.852	48299
560.913	48754
560.974	46906
561.036	46704
561.097	47348
561.158	45350
561.220	45782
561.281	44287
561.342	44383
561.403	46504
561.465	47022
561.526	55667
561.587	59915
561.648	44314
561.709	42668
561.771	42711
561.832	40744
561.893	41433
561.954	40884
562.015	40753
562.076	40260
562.137	40904
562.198	40620
562.259	40445
562.320	39496
562.381	41231
562.442	41886
562.503	40192
562.564	38502
562.625	39041
562.686	38283
562.747	38148
562.808	37075
562.869	37790
562.930	39845
562.991	38574
563.051	38655
563.112	36986
563.173	36598
563.234	35967
563.294	36141
563.355	37071
563.416	37549
563.477	37402
563.537	35301
563.598	36057
563.659	35346
563.720	34935
563.780	35835
563.841	36020
563.901	35589
563.962	36145
564.023	34703
564.083	35060
564.144	35598
564.204	35555
564.265	35231
564.325	36053
564.386	41853
564.446	39693
564.507	34124
564.567	34152
564.628	33803
564.688	33837
564.749	34452
564.809	35487
564.869	36516
564.930	34096
564.990	34084
565.050	33888
565.111	32994
565.171	33858
565.231	32702
565.292	34084
565.352	31505
565.412	33843
565.472	34153
565.532	32454
565.593	33573
565.653	34073
565.713	33162
565.773	34436
565.833	34491
565.893	36467
565.953	33256
566.013	32817
566.074	32570
566.134	35366
566.194	39071
566.254	38882
566.314	34527
566.374	32984
566.434	32770
566.494	32612
566.554	33130
566.614	33152
566.673	33683
566.733	34075
566.793	34285
566.853	33877
566.913	32894
566.973	34166
567.033	34228
567.092	34459
567.152	32836
567.212	33681
567.272	34458
567.331	34690
567.391	34513
567.451	35888
567.511	37306
567.570	37252
567.630	34315
567.690	33535
567.749	33144
567.809	32783
567.868	32562
567.928	34236
567.988	34487
568.047	34541
568.107	35387
568.166	35728
568.226	36897
568.285	39103
568.345	38521
568.404	37683
568.464	36568
568.523	35859
568.582	35809
568.642	36580
568.701	36812
568.761	38076
568.820	42640
568.879	44385
568.939	43135
568.998	39915
569.057	35172
569.116	35802
569.176	34127
569.235	32792
569.294	33324
569.353	32743
569.413	32851
569.472	32665
569.531	31444
569.590	31908
569.649	31671
569.708	31406
569.767	32093
569.827	33404
569.886	31652
569.945	30984
570.004	31019
570.063	33003
570.122	32518
570.181	33127
570.240	33031
570.299	33357
570.358	32613
570.417	32841
570.475	32790
570.534	32614
570.593	32178
570.652	32490
570.711	32441
570.770	31905
570.829	31917
570.887	31735
570.946	32618
571.005	33562
571.064	32065
571.122	32763
571.181	31642
571.240	31479
571.299	31575
571.357	31947
571.416	30642
571.475	32164
571.533	33336
571.592	32673
571.650	32342
571.709	33044
571.768	33783
571.826	34195
571.885	33113
571.943	31368
572.002	30781
572.060	31147
572.119	29933
572.177	30662
572.236	29705
572.294	30577
572.352	31214
572.411	31673
572.469	30074
572.528	30782
572.586	29224
572.644	30801
572.703	31239
572.761	29461
572.819	29331
572.877	29487
572.936	28316
572.994	29004
573.052	28290
573.110	28875
573.169	29041
573.227	29661
573.285	28544
573.343	28546
573.401	28337
573.459	28769
573.517	28784
573.576	28658
573.634	27946
573.692	29248
573.750	28183
573.808	27738
573.866	27585
573.924	30887
573.982	29027
574.040	28025
574.098	27206
574.155	26804
574.213	26989
574.271	27113
574.329	28195
574.387	26481
574.445	26113
574.503	25553
574.560	25763
574.618	25663
574.676	25516
574.734	26269
574.792	25714
574.849	25815
574.907	23739
574.965	24300
575.022	23855
575.080	23616
575.138	23785
575.195	23656
575.253	23089
575.311	24798
575.368	23073
575.426	22417
575.483	24272
575.541	24765
575.598	23345
575.656	22780
575.713	23464
575.771	24222
575.828	23968
575.886	23368
575.943	24145
576.001	23100
576.058	23003
576.115	24267
576.173	23738
576.230	25828
576.287	25344
576.345	24965
576.402	24221
576.459	24065
576.517	23803
576.574	23749
576.631	24509
576.688	24304
576.746	22218
576.803	23382
576.860	21712
576.917	22662
576.974	22121
577.031	23787
577.089	23698
577.146	22144
577.203	22561
577.260	22338
577.317	22555
577.374	23584
577.431	23224
577.488	22887
577.545	22249
577.602	24101
577.659	22863
577.716	23043
577.773	23852
577.830	23812
577.886	22470
577.943	22563
578.000	23731
578.057	24579
578.114	26058
578.171	28230
578.227	32407
578.284	32481
578.341	28648
578.398	26773
578.454	25156
578.511	24400
578.568	24787
578.625	23383
578.681	24272
578.738	23310
578.794	22003
578.851	23937
578.908	23136
578.964	24162
579.021	24617
579.077	23613
579.134	23463
579.190	23851
579.247	23411
579.303	22633
579.360	23381
579.416	23181
579.473	23334
579.529	23531
579.586	24066
579.642	24068
579.698	24989
579.755	24862
579.811	25064
579.867	25475
579.924	26418
579.980	28299
580.036	29476
580.093	33713
580.149	42420
580.205	48515
580.261	39296
580.317	33147
580.374	30961
580.430	30018
580.486	28732
580.542	27714
580.598	28256
580.619	27927
580.654	27387
580.692	27202
580.710	27170
580.765	27884
580.767	27940
580.823	27517
580.838	28016
580.879	29458
580.911	28579
580.935	27990
580.984	27487
580.991	27459
581.047	30120
581.057	29929
581.103	29215
581.130	29915
581.159	30745
581.203	33105
581.215	33755
581.270	32055
581.276	31904
581.326	30846
581.349	30135
581.382	29137
581.422	29947
581.438	30321
581.494	30049
581.494	30021
581.550	29698
581.567	29641
581.606	29616
581.640	29803
581.661	29950
581.713	30462
581.717	30530
581.773	29960
581.786	29912
581.829	29788
581.859	30362
581.885	30943
581.932	31219
581.940	31280
581.996	32537
582.004	32345
582.052	31456
582.077	31754
582.107	32012
582.150	32056
582.163	32173
582.219	32725
582.223	32773
582.274	33387
582.296	32786
582.330	31886
582.368	32914
582.386	33410
582.441	34255
582.441	34269
582.497	33824
582.514	33851
582.552	34095
582.587	34586
582.608	34858
582.659	35606
582.663	35677
582.719	36010
582.732	35925
582.774	35786
582.805	36271
582.830	36781
582.877	38770
582.885	39120
582.941	41696
582.950	42392
582.996	45782
583.023	48862
583.052	52493
583.095	53507
583.107	53599
583.162	52674
583.168	52635
583.218	52220
583.240	49844
583.273	46312
583.313	43063
583.328	41903
583.384	38741
583.385	38683
583.439	36850
583.458	36580
583.494	36143
583.531	35440
583.549	35147
583.603	35209
583.605	35211
583.660	34367
583.676	34129
583.715	33259
583.748	33475
583.770	33773
583.820	33988
583.825	33983
583.881	34052
583.893	33689
583.936	32519
583.965	32893
583.991	33191
584.038	33881
584.046	34036
584.101	33726
584.110	33892
584.156	34294
584.183	34497
584.211	34745
584.255	34631
584.266	34667
584.321	36345
584.328	36358
584.376	36310
584.400	36079
584.431	35502
584.472	35593
584.486	35691
584.541	38036
584.545	38037
584.596	37592
584.617	37351
584.651	37430
584.689	38520
584.706	38733
584.761	39540
584.762	39556
584.816	40113
584.834	40201
584.871	39938
584.906	39947
584.926	40200
584.978	41408
584.980	41425
585.035	41639
585.051	41987
585.090	43071
585.123	43862
585.145	44216
585.195	44661
585.200	44783
585.254	48372
585.267	49138
585.309	51778
585.340	54500
585.364	56615
585.412	61352
585.419	62150
585.473	70927
585.484	74023
585.528	90598
585.556	106966
585.583	134004
585.628	200729
585.637	222658
585.692	420380
585.700	453602
585.747	583258
585.772	505805
585.801	340560
585.845	152839
585.856	124897
585.910	75190
585.917	70918
585.965	60436
585.989	56187
586.019	52809
586.061	50543
586.074	49955
586.128	47990
586.133	47724
586.183	44742
586.205	44201
586.237	43909
586.277	42631
586.292	41945
586.346	40257
586.349	40248
586.401	41037
586.421	40769
586.455	39611
586.493	39898
586.509	40479
586.564	41703
586.565	41803
586.618	46175
586.637	46397
586.672	45450
586.709	44876
586.727	44832
586.781	46602
586.781	46582
586.835	41838
586.853	40391
586.889	38041
586.925	36617
586.944	36126
586.996	35723
586.998	35700
587.052	35419
587.068	35337
587.106	35455
587.140	35554
587.161	35465
587.212	35015
587.215	35019
587.269	36150
587.284	36362
587.323	36532
587.356	36959
587.377	37297
587.427	38150
587.431	38184
587.485	38313
587.499	38403
587.539	38660
587.571	39348
587.593	39883
587.643	40326
587.648	40357
587.702	40889
587.715	41047
587.755	41338
587.786	42052
587.810	42378
587.858	41889
587.864	41893
587.917	43183
587.930	43339
587.971	44171
588.001	45255
588.025	45658
588.073	45806
588.079	45983
588.133	48035
588.145	48604
588.187	49867
588.217	50823
588.241	52225
588.288	55132
588.295	55463
588.348	59059
588.360	59716
588.402	63266
588.431	66323
588.456	68949
588.503	74106
588.510	75092
588.564	85241
588.575	87686
588.617	97544
588.646	104726
588.671	114095
588.718	136222
588.725	141548
588.778	190761
588.789	203343
588.832	296685
588.861	370351
588.886	466195
588.932	656969
588.939	669074
588.993	697619
589.004	696063
589.047	526061
589.075	398700
589.100	316534
589.147	185853
589.154	178217
589.207	138654
589.218	131860
589.261	124678
589.290	123487
589.314	127819
589.361	140499
589.368	145948
589.421	198828
589.433	212487
589.475	327257
589.504	419732
589.528	500452
589.576	635523
589.582	621584
589.635	434218
589.647	390427
589.689	237770
589.718	144812
589.742	121135
589.790	85507
589.795	83851
589.849	72481
589.861	70343
589.902	65988
589.932	62766
589.955	60021
590.004	54100
590.009	53739
590.062	51161
590.075	50478
590.115	48469
590.146	47285
590.168	46698
590.218	45390
590.222	45430
590.275	46378
590.289	46595
590.328	46569
590.360	46740
590.381	46538
590.431	45662
590.435	45621
590.488	45428
590.503	45359
590.541	45456
590.574	45536
590.594	45747
590.645	46333
590.647	46343
590.700	46992
590.716	47077
590.753	47177
590.787	47307
590.806	47602
590.859	48529
590.859	48540
590.912	49254
590.930	49524
590.965	49297
591.001	48852
591.018	48849
591.071	48983
591.072	48987
591.124	48536
591.143	48291
591.177	48798
591.214	49545
591.230	49738
591.283	50287
591.285	50298
591.336	49344
591.356	49076
591.389	49128
591.427	49040
591.442	48922
591.495	48477
591.498	48446
591.547	48567
591.569	48711
591.600	48641
591.640	48435
591.653	48932
591.706	51049
591.711	51277
591.759	51323
591.782	51354
591.811	52762
591.853	54881
591.864	54553
591.917	52635
591.924	52363
591.969	52805
591.995	53104
592.022	52989
592.066	52712
592.075	52952
592.127	54516
592.137	54819
592.180	55730
592.208	56247
592.233	56310
592.279	56451
592.285	56531
592.338	57229
592.350	57368
592.390	56551
592.421	55980
592.443	56553
592.491	57796
592.495	57869
592.548	58801
592.562	59061
592.600	58739
592.633	58439
592.653	58420
592.704	58057
592.705	58393
592.775	58669
592.846	62411
592.916	61233
592.987	61415
593.058	61867
593.128	64375
593.199	62692
593.270	63196
593.341	63573
593.411	66065
593.482	67209
593.553	69580
593.623	69451
593.694	71983
593.764	72461
593.835	71281
593.906	72810
593.976	73936
594.047	75783
594.117	79759
594.188	81628
594.258	80391
594.329	78375
594.399	81728
594.470	84162
594.540	86490
594.611	87427
594.681	86596
594.751	87172
594.822	90923
594.892	94293
594.963	96101
595.033	96648
595.103	100149
595.174	101423
595.244	107090
595.314	108794
595.384	107142
595.455	110116
595.525	113689
595.595	117919
595.665	118401
595.736	113907
595.806	118080
595.876	118067
595.946	119968
596.016	124470
596.087	126691
596.157	127380
596.227	130130
596.297	135663
596.367	142360
596.437	151002
596.507	151623
596.577	153382
596.647	155134
596.717	160827
596.787	163554
596.857	164936
596.927	165223
596.997	167993
597.067	168171
597.137	172554
597.207	172895
597.277	174151
597.347	167975
597.417	162689
597.487	164951
597.557	167433
597.626	171350
597.696	174549
597.766	174100
597.836	169519
597.906	160068
597.975	158229
598.045	160382
598.115	167469
598.185	176358
598.254	194021
598.324	206368
598.394	212071
598.464	205914
598.533	202812
598.603	194395
598.672	190716
598.742	192766
598.812	194833
598.881	200243
598.951	200647
599.020	205514
599.090	208935
599.159	214099
599.229	208309
599.299	206423
599.368	211782
599.437	210423
599.507	199240
599.576	194967
599.646	192330
599.715	195317
599.785	192460
599.854	190945
599.924	189720
599.993	192243
600.062	194485
600.132	200136
600.201	210171
600.270	234366
600.340	243193
600.409	242589
600.478	241868
600.547	248133
600.617	233455
600.686	203078
600.755	194840
600.824	190594
600.894	189648
600.963	192940
601.032	194092
601.101	191733
601.170	191706
601.239	190827
601.308	192686
601.378	195223
601.447	197718
601.516	202355
601.585	204167
601.654	212452
601.723	212733
601.792	218529
601.861	226612
601.930	236420
601.999	241471
602.068	240674
602.137	241995
602.206	244784
602.275	245814
602.343	251783
602.412	250707
602.481	254894
602.550	254109
602.619	262795
602.688	259267
602.756	263935
602.825	261410
602.894	270207
602.963	269936
603.032	275503
603.100	274693
603.169	272106
603.238	277705
603.307	270728
603.375	271155
603.444	282401
603.513	269229
603.581	273624
603.650	282246
603.719	249835
603.787	246983
603.856	252182
603.924	255760
603.993	264614
604.061	270685
604.130	280450
604.198	284462
604.267	288972
604.335	292742
604.404	295162
604.472	303220
604.541	304573
604.609	311075
604.678	316808
604.746	319705
604.815	331017
604.883	324308
604.951	320634
605.020	325626
605.088	314019
605.156	306038
605.225	311010
605.293	307348
605.361	310358
605.429	308570
605.498	316739
605.566	315382
605.634	332192
605.702	333823
605.771	341775
605.839	345709
605.907	331980
605.975	332247
606.043	320933
606.111	318140
606.180	331854
606.248	313851
606.316	309042
606.384	322595
606.452	286571
606.520	264348
606.588	272307
606.656	271625
606.724	267350
606.792	253488
606.860	233662
606.928	214291
606.996	207171
607.064	202553
607.132	209444
607.200	218281
607.267	226893
607.335	231138
607.403	235877
607.471	228387
607.539	221982
607.607	222271
607.674	198555
607.742	199799
607.810	197628
607.878	197678
607.946	198886
608.013	209595
608.081	212968
608.149	214051
608.216	222604
608.284	226980
608.352	227083
608.419	223942
608.487	220045
608.555	213618
608.622	221699
608.690	232573
608.757	253456
608.825	255733
608.893	249838
608.960	236081
609.028	226462
609.095	228617
609.163	225334
609.230	204246
609.298	188995
609.365	199276
609.432	213229
609.500	229654
609.567	260928
609.635	295178
609.702	307451
609.769	293351
609.837	234352
609.904	203725
609.971	209933
610.039	226886
610.106	275197
610.173	438715
610.241	826318
610.308	560047
610.375	278939
610.442	228028
610.509	212423
610.577	212300
610.644	215365
610.711	222317
610.778	227466
610.845	236727
610.912	248517
610.980	257858
611.047	261332
611.114	255106
611.181	248059
611.248	244916
611.315	258142
611.382	266199
611.449	275546
611.516	279279
611.583	275378
611.650	277169
611.717	279848
611.784	284945
611.851	294612
611.918	307039
611.984	342344
612.051	426796
612.118	675839
612.185	1219015
612.252	913028
612.319	429069
612.386	361318
612.452	331249
612.519	313821
612.586	308242
612.653	312355
612.719	323565
612.786	311232
612.853	290547
612.919	286152
612.986	287240
613.053	274291
613.120	258734
613.186	250409
613.253	253748
613.319	254523
613.386	253350
613.453	258245
613.519	262865
613.586	256760
613.652	262432
613.719	256162
613.785	262287
613.852	263779
613.918	262434
613.985	264882
614.051	276111
614.118	281126
614.184	271841
614.250	262818
614.317	266499
614.383	263217
614.449	266885
614.516	264384
614.582	267423
614.648	263307
614.715	261824
614.781	255801
614.847	254932
614.914	255573
614.980	249205
615.046	249970
615.112	258428
615.179	257335
615.245	262396
615.311	257725
615.377	261709
615.443	264957
615.509	266871
615.575	272918
615.642	271586
615.708	278547
615.774	289108
615.840	299504
615.906	313704
615.972	356275
616.038	464919
616.104	771034
616.170	1321421
616.236	1169880
616.302	561280
616.368	442335
616.434	351135
616.500	323584
616.565	341952
616.631	404366
616.697	356959
616.763	359241
616.829	473657
616.895	739281
616.961	718709
617.026	398127
617.092	298370
617.158	281718
617.224	274797
617.289	255406
617.355	245778
617.421	244195
617.487	243512
617.552	234508
617.618	229783
617.684	234077
617.749	232805
617.815	224648
617.880	220514
617.946	222066
618.012	225690
618.077	230501
618.143	222946
618.208	222059
618.274	236986
618.339	238198
618.405	202641
618.470	204830
618.536	203414
618.601	200725
618.667	190129
618.732	184572
618.798	180881
618.863	180616
618.928	178937
618.994	181992
619.059	182815
619.124	183431
619.190	180802
619.255	181279
619.320	181536
619.386	182063
619.451	179413
619.516	175761
619.581	177969
619.647	184861
619.712	182672
619.777	177080
619.842	179497
619.907	178950
619.972	184841
620.038	181164
620.103	178508
620.168	178416
620.233	182925
620.298	181951
620.363	182952
620.428	187101
620.493	190560
620.558	192976
620.623	195241
620.688	194986
620.753	194150
620.818	197937
620.883	198415
620.948	197531
621.013	197821
621.078	194798
621.143	196840
621.207	201105
621.272	195637
621.337	193298
621.402	189720
621.467	192149
621.532	190679
621.596	191177
621.661	185752
621.726	185429
621.791	186015
621.855	187676
621.920	184026
621.985	187720
622.049	190039
622.114	191696
622.179	192827
622.243	197088
622.308	199662
622.373	208765
622.437	203241
622.502	195051
622.566	193114
622.631	191482
622.695	196154
622.760	195970
622.824	193364
622.889	194868
622.953	194670
623.018	205599
623.082	206534
623.147	204038
623.211	197629
623.276	197914
623.340	192354
623.404	190451
623.469	189384
623.533	191016
623.597	187688
623.662	186511
623.726	176119
623.790	166780
623.854	164536
623.919	169607
623.983	166718
624.047	169103
624.111	170992
624.176	172992
624.240	173565
624.304	179478
624.368	170445
624.432	173089
624.496	176045
624.560	181454
624.625	182507
624.689	178932
624.753	187199
624.817	178222
624.881	174001
624.945	163418
625.009	157494
625.073	161137
625.137	162742
625.201	170922
625.265	170410
625.329	162914
625.393	163899
625.456	165025
625.520	168020
625.584	170238
625.648	174353
625.712	180584
625.776	189548
625.839	185230
625.903	149468
625.967	139415
626.031	149341
626.095	172961
626.158	153972
626.222	126971
626.286	119356
626.349	117739
626.413	109103
626.477	109064
626.540	110711
626.604	108366
626.668	109326
626.731	106100
626.795	105060
626.858	106515
626.922	102333
626.986	102733
627.049	101145
627.113	105916
627.176	103229
627.240	98189
627.303	97657
627.366	96949
627.430	98834
627.493	97629
627.557	96878
627.620	97670
627.684	100484
627.747	100745
627.810	91207
627.874	85496
627.937	80785
628.000	85177
628.064	82353
628.127	74777
628.190	73715
628.253	74557
628.317	70608
628.380	67911
628.443	66377
628.506	65349
628.569	63239
628.632	59824
628.696	61040
628.759	60424
628.822	58482
628.885	56590
628.948	55880
629.011	55552
629.074	53950
629.137	52885
629.200	51572
629.263	52566
629.326	48809
629.389	50426
629.452	48558
629.515	50406
629.578	47437
629.641	50178
629.704	48414
629.767	48916
629.830	45819
629.892	47085
629.955	44767
630.018	47991
630.081	43922
630.144	46447
630.207	42775
630.269	45624
630.332	43393
630.395	43410
630.458	42101
630.520	41141
630.583	42073
630.646	42188
630.708	41921
630.771	42338
630.834	44473
630.896	44451
630.959	43318
631.021	41872
631.084	41951
631.146	42655
631.209	42510
631.272	41861
631.334	42968
631.397	42144
631.459	41338
631.522	44046
631.584	44639
631.646	47998
631.709	46647
631.771	49087
631.834	47048
631.896	45680
631.958	41694
632.021	42395
632.083	40659
632.145	41291
632.208	40182
632.270	40570
632.332	38347
632.395	39391
632.457	39583
632.519	38637
632.581	39717
632.643	39230
632.706	39532
632.768	37804
632.830	38860
632.892	40300
632.954	39124
633.016	41628
633.078	39268
633.141	39872
633.203	38719
633.265	39551
633.327	38384
633.389	38393
633.451	39998
633.513	39369
633.575	39862
633.637	40155
633.698	40793
633.760	43069
633.822	42156
633.884	43200
633.946	43029
634.008	44371
634.070	45096
634.132	48535
634.193	49415
634.255	52598
634.317	50911
634.379	53894
634.441	47725
634.502	46004
634.564	42868
634.626	40869
634.687	38721
634.749	38874
634.811	38748
634.873	37377
634.934	38060
634.996	38037
635.057	37527
635.119	37699
635.181	37972
635.242	39593
635.304	36723
635.365	40889
635.427	37573
635.488	37540
635.550	36747
635.611	39456
635.673	36895
635.734	41889
635.796	41808
635.857	46229
635.918	46163
635.980	51490
636.041	51250
636.102	54630
636.164	54444
636.225	52440
636.286	46739
636.348	44901
636.409	40899
636.470	39187
636.531	38922
636.593	38322
636.654	36957
636.715	36053
636.776	34617
636.838	35173
636.899	35297
636.960	35933
637.021	32568
637.082	33498
637.143	32745
637.204	31830
637.265	32651
637.326	33974
637.387	33858
637.448	32969
637.509	33435
637.570	31980
637.631	33676
637.692	31619
637.753	31162
637.814	32048
637.875	31810
637.936	32847
637.997	31453
638.058	31835
638.119	32454
638.179	31796
638.240	30923
638.301	32160
638.362	30550
638.423	29899
638.483	31295
638.544	28782
638.605	31744
638.666	29871
638.726	30671
638.787	30820
638.848	30928
638.908	29022
638.969	29498
639.030	29508
639.090	28251
639.151	30356
639.211	29434
639.272	31163
639.332	31816
639.393	30487
639.453	30198
639.514	32399
639.574	29183
639.635	27524
639.695	27205
639.756	27306
639.816	27876
639.877	28852
639.937	29812
639.997	30822
640.058	26876
640.118	26402
640.178	29056
640.239	27901
640.299	27349
640.359	27694
640.420	29506
640.480	31742
640.540	32883
640.600	34506
640.661	31899
640.721	31605
640.781	35226
640.841	34449
640.901	29653
640.961	27844
641.021	29521
641.082	29851
641.142	28187
641.202	27699
641.262	26011
641.322	28112
641.382	24967
641.442	27784
641.502	25911
641.562	26933
641.622	26576
641.682	28224
641.742	31316
641.802	29515
641.861	26842
641.921	26824
641.981	25480
642.041	25922
642.101	25309
642.161	25090
642.221	23965
642.280	25484
642.340	25029
642.400	23748
642.460	26658
642.519	25714
642.579	26121
642.639	26333
642.698	24351
642.758	27619
642.818	26154
642.877	25624
642.937	25323
642.997	26975
643.056	27072
643.116	24527
643.175	27027
643.235	26830
643.294	27312
643.354	28850
643.414	29346
643.473	33572
643.532	35634
643.592	45387
643.651	61924
643.711	99907
643.770	179059
643.830	387349
643.889	683904
643.948	228289
644.008	64158
644.067	41612
644.126	33784
644.186	30629
644.245	28423
644.304	25915
644.363	27893
644.423	24974
644.482	26135
644.541	28240
644.600	25760
644.659	32759
644.719	36517
644.778	51222
644.837	78527
644.896	148699
644.955	308791
645.014	114669
645.073	37341
645.132	30797
645.191	28472
645.250	26596
645.309	29814
645.368	30576
645.427	37692
645.486	57473
645.545	89470
645.604	35371
645.663	26179
645.722	26489
645.781	27045
645.840	29351
645.898	32989
645.957	41660
646.016	56600
646.075	94598
646.134	171813
646.192	402352
646.251	537834
646.310	126054
646.369	47747
646.427	39530
646.486	31498
646.545	27631
646.603	24656
646.662	25290
646.721	22961
646.779	23407
646.838	23139
646.896	28473
646.955	34895
647.014	50083
647.072	89075
647.131	216650
647.189	109409
647.248	27269
647.306	22758
647.365	21641
647.423	18312
647.481	20700
647.540	17467
647.598	19603
647.657	18442
647.715	20068
647.773	16311
647.832	19678
647.890	16235
647.948	16800
648.007	16647
648.065	15621
648.123	15326
648.181	17560
648.240	16691
648.298	16056
648.356	15363
648.414	16063
648.472	15807
648.531	16068
648.589	14785
648.647	15834
648.705	15618
648.763	15414
648.821	16091
648.879	15193
648.937	16633
648.995	19475
649.053	22157
649.111	31574
649.169	46922
649.227	78083
649.285	155994
649.343	392840
649.401	199457
649.459	41961
649.516	26963
649.574	20916
649.632	26984
649.690	29534
649.748	28666
649.806	38675
649.863	67487
649.921	159383
649.979	108765
650.037	22025
650.094	13576
650.152	15797
650.210	14208
650.268	14808
650.325	15063
650.383	16515
650.440	11832
650.498	13052
650.556	11779
650.613	11472
650.671	11183
650.728	11905
650.786	11960
650.843	16677
650.901	12148
650.958	11379
651.016	10599
651.073	11557
651.131	9900
651.188	9193
651.246	10733
651.303	9840
651.360	10284
651.418	9730
651.475	9830
651.532	9718
651.590	9395
651.647	8633
651.704	9095
651.762	9809
651.819	8911
651.876	9072
651.933	9322
651.990	9206
652.048	7189
652.105	9066
652.162	8690
652.219	7923
652.276	9001
652.333	8403
652.390	7746
652.448	8306
652.505	9319
652.562	9080
652.619	8698
652.676	10369
652.733	10875
652.790	8454
652.847	6762
652.904	8559
652.961	6288
653.017	7554
653.074	7801
653.131	8403
653.188	6332
653.245	7773
653.302	7156
653.359	6690
653.415	8345
653.472	8010
653.529	8236
653.586	7455
653.642	7158
653.699	7609
653.756	7049
653.813	7446
653.869	8065
653.926	7886
653.983	6690
654.039	8074
654.096	6240
654.152	8540
654.209	5997
654.266	7224
654.322	6327
654.379	7741
654.435	7827
654.492	7488
654.548	7886
654.605	8622
654.661	9449
654.717	7034
654.774	7249
654.830	7022
654.887	6845
654.943	7869
655.000	9125
655.056	8162
655.112	7147
655.168	6659
655.225	6479
655.281	7779
655.337	7361
655.394	8786
655.450	7992
655.506	7082
655.562	7572
655.618	8922
655.675	6460
655.731	7687
655.787	5822
655.843	7765
655.899	6086
655.955	6654
656.011	6484
656.067	5831
656.123	7030
656.179	7734
656.235	7656
656.291	5721
656.347	8025
656.403	6722
656.459	6680
656.515	7468
656.571	6795
656.627	6725
656.683	7008
656.739	7673
656.795	6503
656.850	7078
656.906	7161
656.962	8155
657.018	6797
657.074	8357
657.129	10900
657.185	16050
657.241	30326
657.297	18161
657.352	7625
657.408	6852
657.464	6814
657.519	6119
657.575	5532
657.630	6944
657.686	6340
657.742	5945
657.797	5416
657.853	6189
657.908	6465
657.964	6424
658.019	6389
658.075	6456
658.130	6851
658.186	5612
658.241	5986
658.297	5822
658.352	5992
658.407	7667
658.463	5734
658.518	6713
658.573	5950
658.629	6282
658.684	5168
658.739	7090
658.795	4963
658.850	6078
658.905	4880
658.960	6979
659.016	4999
659.071	6021
659.126	6313
659.181	6254
659.236	7487
659.291	8063
659.346	5670
659.401	6457
659.457	6523
659.512	6807
659.567	7361
659.622	5897
659.677	5561
659.732	5809
659.787	5366
659.842	6282
659.897	5382
659.952	6892
660.007	5690
660.061	6330
660.116	5831
660.171	5586
660.226	6414
660.281	6895
660.336	5193
660.391	6705
660.445	5907
660.500	6350
660.555	6333
660.610	5694
660.664	5907
660.719	6097
660.774	5551
660.828	6492
660.883	5833
660.938	6370
660.992	4920
661.047	6293
661.101	5456
661.156	5534
661.211	5347
661.265	6154
661.320	5602
661.374	5910
661.429	4521
661.483	5896
661.538	4420
661.592	5687
661.647	6539
661.701	8261
661.755	5929
661.810	6155
661.864	4410
661.919	5786
661.973	5230
662.027	5329
662.081	4127
662.136	5229
662.190	5581
662.244	5600
662.299	5415
662.353	5828
662.407	4637
662.461	5942
662.515	5005
662.569	4727
662.624	5246
662.678	4818
662.732	5021
662.786	5586
662.840	5302
662.894	5793
662.948	5459
663.002	5812
663.056	5082
663.110	5257
663.164	4632
663.218	6241
663.272	4866
663.326	6031
663.380	4943
663.434	5687
663.488	4793
663.542	5309
663.595	5080
663.649	5333
663.703	5374
663.757	5924
663.811	4183
663.864	5043
663.918	5057
663.972	5546
664.026	4843
664.079	5396
664.133	6258
664.187	6248
664.240	4748
664.294	5954
664.348	5835
664.401	5415
664.455	5028
664.508	6007
664.562	4309
664.615	5417
664.669	4483
664.722	5576
664.776	5006
664.829	5394
664.883	5500
664.936	5102
664.990	5549
665.043	5769
665.097	5244
665.150	6779
665.203	4761
665.257	4625
665.310	5073
665.363	6089
665.417	5681
665.470	5042
665.523	4542
665.576	5605
665.630	5729
665.683	5566
665.736	5287
665.789	5563
665.842	5213
665.895	5297
665.949	5236
666.002	5963
666.055	4961
666.108	6316
666.161	4720
666.214	6419
666.267	6199
666.320	6806
666.373	6413
666.426	5861
666.479	5347
666.532	5272
666.585	5717
666.638	6623
666.691	4704
666.744	6734
666.796	4990
666.849	6064
666.902	5647
666.955	5326
667.008	4454
667.060	5934
667.113	4856
667.166	5494
667.219	5655
667.271	6038
667.324	6410
667.377	6136
667.430	6020
667.482	6716
667.535	5497
667.587	6650
667.640	4624
667.693	5829
667.745	6295
667.798	6248
667.850	5809
667.903	6341
667.955	5308
668.008	4760
668.060	5708
668.113	5604
668.165	5163
668.218	5617
668.270	5631
668.322	6026
668.375	4954
668.427	6346
668.479	4351
668.532	4913
668.584	5111
668.636	5312
668.689	5460
668.741	5004
668.793	5423
668.845	5582
668.898	4930
668.950	5570
669.002	4825
669.054	5004
669.106	4833
669.158	5657
669.211	4910
669.263	5526
669.315	5878
669.367	6473
669.419	4752
669.471	6399
669.523	5816
669.575	6677
669.627	5166
669.679	5563
669.731	4736
669.783	5855
669.835	5508
669.886	5939
669.938	5068
669.990	5854
670.042	5209
670.094	5755
670.146	5440
670.197	7856
670.249	6480
670.301	7010
670.353	9529
670.404	13149
670.456	16390
670.508	23883
670.560	34667
670.611	56213
670.663	93316
670.715	203243
670.766	316816
670.818	121769
670.869	25594
670.921	13413
670.972	11118
671.024	8701
671.075	7400
671.127	7818
671.178	6337
671.230	7427
671.281	6979
671.333	6699
671.384	7444
671.436	9774
671.487	12502
671.538	16389
671.590	23923
671.641	38368
671.692	64111
671.744	115401
671.795	85244
671.846	33176
671.897	17134
671.949	12207
672.000	9502
672.051	7483
672.102	7336
672.153	5829
672.204	5408
672.256	6170
672.307	5223
672.358	5087
672.409	4880
672.460	4826
672.511	3952
672.562	4763
672.613	3368
672.664	4249
672.715	4904
672.766	4158
672.817	4017
672.868	5404
672.919	4309
672.970	3453
673.021	3270
673.071	3979
673.122	3683
673.173	4121
673.224	3700
673.275	3459
673.326	3330
673.376	4278
673.427	3027
673.478	4575
673.528	4079
673.579	4017
673.630	3522
673.680	4865
673.731	3061
673.782	3851
673.832	3406
673.883	4390
673.934	4035
673.984	3488
674.035	3818
674.085	5072
674.136	3063
674.186	4398
674.237	3691
674.287	4083
674.338	3848
674.388	4384
674.438	3264
674.489	4252
674.539	4777
674.589	4393
674.640	4116
674.690	4066
674.740	3584
674.791	4112
674.841	3153
674.891	3797
674.942	4120
674.992	3349
675.042	3143
675.092	2906
675.142	2919
675.193	3035
675.243	2818
675.293	3578
675.343	2618
675.393	3482
675.443	3431
675.493	3107
675.543	3016
675.593	3042
675.643	2992
675.693	3785
675.743	2731
675.793	4033
675.843	2722
675.893	2780
675.943	2992
675.993	3031
676.043	3143
676.093	4250
676.142	2899
676.192	2850
676.242	2519
676.292	3670
676.341	2487
676.391	4219
676.441	2742
676.491	3518
676.540	2466
676.590	2807
676.640	3139
676.689	2661
676.739	1774
676.789	3759
676.838	1948
676.888	3429
676.937	2364
676.987	2277
677.037	2450
677.086	2321
677.136	1636
677.185	1954
677.235	2739
677.284	3445
677.333	2288
677.383	2335
677.432	1932
677.482	3338
677.531	1719
677.580	2183
677.630	2226
677.679	3205
677.728	1978
677.778	3223
677.827	1802
677.876	2768
677.925	2092
677.975	3217
678.024	3064
678.073	2665
678.122	2550
678.171	3195
678.220	2294
678.269	3750
678.319	3783
678.368	3599
678.417	3593
678.466	3470
678.515	3136
678.564	2158
678.613	1845
678.662	2363
678.711	3069
678.760	2960
678.809	2848
678.857	2753
678.906	2872
678.955	3404
679.004	2594
679.053	3545
679.102	2927
679.151	2685
679.199	2292
679.248	2325
679.297	2374
679.346	2048
679.394	1615
679.443	2157
679.492	2104
679.540	2271
679.589	1132
679.638	3627
679.686	1490
679.735	2369
679.784	3120
679.832	3237
679.881	3148
679.929	2776
679.978	2051
680.026	2644
680.075	2050
680.123	2577
680.172	1354
680.220	2525
680.268	1874
680.317	2554
680.365	1628
680.414	2408
680.462	1439
680.510	2491
680.559	1921
680.607	2134
680.655	1656
680.703	2277
680.752	2466
680.800	2861
680.848	2350
680.896	1899
680.945	2348
680.993	1600
681.041	1493
681.089	2170
681.137	2057
681.185	2150
681.233	2187
681.258	2483
681.281	2743
681.329	966
681.377	1933
681.380	1927
681.425	1423
681.473	2214
681.502	2004
681.521	1808
681.569	3349
681.617	1539
681.624	1751
681.665	2989
681.713	2215
681.745	2511
681.761	2611
681.809	1637
681.857	3320
681.867	3220
681.904	2810
681.952	3535
681.989	2375
682.000	1995
682.048	3112
682.096	1984
682.111	2221
682.143	2682
682.191	2208
682.233	3836
682.239	4055
682.286	2529
682.334	3057
682.354	2728
682.382	2252
682.430	3302
682.476	2107
682.477	2061
682.525	3614
682.572	3057
682.598	3093
682.620	3093
682.667	3181
682.715	3511
682.720	3517
682.763	3379
682.810	3315
682.841	3028
682.857	2846
682.905	3373
682.952	3799
682.963	3867
683.000	4024
683.047	3030
683.085	4039
683.095	4293
683.142	3242
683.190	3053
683.206	3026
683.237	2900
683.284	4300
683.328	3146
683.332	3038
683.379	3578
683.426	3596
683.449	3836
683.473	4095
683.521	3558
683.568	4491
683.571	4478
683.615	3956
683.662	4531
683.693	4148
683.709	3907
683.757	3831
683.804	4036
683.814	4031
683.851	4012
683.898	3551
683.936	4294
683.945	4444
683.992	4017
684.039	4162
684.057	3911
684.086	3571
684.133	4316
684.179	3544
684.180	3499
684.227	4620
684.274	4550
684.300	4571
684.321	4630
684.368	3879
684.415	4740
684.422	4686
684.462	4173
684.509	4500
684.543	4433
684.556	4436
684.603	5264
684.649	4437
684.665	4800
684.696	5461
684.743	4965
684.786	5522
684.790	5549
684.837	5076
684.883	5252
684.908	4777
684.930	4423
684.977	5030
685.023	5533
685.029	5540
685.070	5371
685.117	4894
685.150	5604
685.164	5904
685.210	5183
685.257	6116
685.272	6106
685.303	5937
685.350	5531
685.393	5893
685.396	5909
685.443	5906
685.490	5597
685.514	5471
685.536	5433
685.583	5017
685.629	5778
685.636	5746
685.675	5479
685.722	5646
685.757	5957
685.768	6044
685.815	5942
685.861	5285
685.878	5377
685.908	5496
685.954	5701
686.000	6336
686.000	6344
686.047	5657
686.093	6029
686.121	6233
686.139	6250
686.185	6691
686.232	5851
686.242	6083
686.278	6812
686.324	5872
686.363	6100
686.370	6164
686.416	6114
686.463	6550
686.484	6243
686.509	5926
686.555	6729
686.601	6304
686.606	6383
686.647	6922
686.693	5963
686.727	6824
686.739	7171
686.785	6315
686.831	6436
686.848	6538
686.877	6653
686.923	6734
686.969	6733
686.969	6732
687.015	7029
687.061	6801
687.090	7149
687.107	7266
687.153	7301
687.199	7246
687.211	6965
687.245	6304
687.291	6636
687.332	7063
687.336	7127
687.382	7521
687.428	7199
687.453	7511
687.474	7607
687.520	7534
687.565	8209
687.574	8054
687.611	7914
687.657	8444
687.695	9193
687.702	9430
687.748	11202
687.794	12789
687.816	13089
687.839	12176
687.885	10060
687.931	9547
687.937	9226
687.976	8187
688.022	7911
688.058	8122
688.067	8217
688.113	7467
688.158	7389
688.179	7490
688.204	7810
688.249	7405
688.295	7792
688.300	7826
688.340	7939
688.386	8728
688.421	7688
688.431	7422
688.477	8022
688.522	8338
688.542	8430
688.567	8575
688.613	7976
688.658	8412
688.663	8373
688.703	8069
688.749	8475
688.784	8615
688.794	8642
688.839	8840
688.884	8787
688.905	8632
688.930	8508
688.975	8709
689.020	8918
689.026	8848
689.065	8441
689.110	8697
689.146	8743
689.155	8801
689.201	9536
689.246	9342
689.267	9373
689.291	9060
689.336	8609
689.381	8288
689.388	8142
689.426	7894
689.471	8279
689.509	8313
689.516	8323
689.561	8921
689.606	8207
689.630	8449
689.651	8724
689.696	8542
689.741	9100
689.750	9093
689.785	9077
689.830	9340
689.871	9072
689.875	9048
689.920	9458
689.965	9006
689.992	8884
690.010	8863
690.054	9253
690.099	9476
690.112	9526
690.144	9636
690.189	9446
690.233	9018
690.233	9027
690.278	9001
690.323	8630
690.354	8768
690.367	9038
690.412	9423
690.457	9564
690.474	9712
690.501	9673
690.546	9918
690.590	9989
690.595	9929
690.635	9825
690.680	9802
690.716	10288
690.724	10465
690.769	11075
690.813	11656
690.836	11611
690.857	12573
690.902	16192
690.946	18789
690.957	19616
690.991	24940
691.035	32101
691.077	39536
691.080	39537
691.124	34668
691.168	30071
691.198	27309
691.213	25342
691.257	20209
691.301	15165
691.318	13232
691.346	12701
691.390	11480
691.434	10892
691.439	10751
691.478	10306
691.522	10272
691.559	9752
691.567	9759
691.611	10525
691.655	10483
691.680	10556
691.699	10536
691.743	10896
691.787	10552
691.800	10501
691.831	10521
691.875	10612
691.919	10429
691.921	10426
691.964	10745
692.008	10438
692.041	10364
692.052	10399
692.096	10173
692.139	10474
692.162	10358
692.183	10101
692.227	9888
692.271	9011
692.282	8975
692.315	9412
692.359	9353
692.402	10149
692.403	10172
692.447	9861
692.490	9784
692.523	9494
692.534	9465
692.578	9766
692.622	9590
692.643	9777
692.666	10069
692.709	10421
692.753	10327
692.763	10402
692.797	10626
692.840	10623
692.884	10202
692.884	10221
692.928	10843
692.971	10871
693.004	10830
693.015	10815
693.059	10338
693.102	10591
693.124	10382
693.146	10360
693.189	10538
693.233	10698
693.245	10787
693.276	11334
693.320	11801
693.363	12130
693.365	12117
693.407	12671
693.450	13895
693.485	14158
693.493	14444
693.537	16512
693.580	18042
693.605	19223
693.624	21614
693.667	27138
693.710	32797
693.725	34824
693.753	45021
693.797	61663
693.840	78523
693.845	80088
693.883	71573
693.926	60559
693.966	51948
693.970	50864
694.013	38861
694.056	27291
694.086	18869
694.099	18109
694.142	16331
694.185	14149
694.206	13112
694.229	13044
694.272	12995
694.315	13073
694.326	12937
694.358	12395
694.401	12236
694.444	11904
694.446	11849
694.487	11700
694.530	11389
694.566	11624
694.573	11662
694.616	11035
694.659	11028
694.686	10795
694.702	10886
694.745	11329
694.787	11313
694.806	11468
694.830	11519
694.873	11265
694.916	11191
694.926	11105
694.959	11166
695.002	11496
695.044	11475
695.046	11461
695.087	11852
695.130	11941
695.166	12268
695.172	12293
695.215	11749
695.258	11749
695.286	11435
695.301	11518
695.343	12184
695.386	12327
695.406	12583
695.428	13118
695.471	13537
695.514	14447
695.526	14634
695.556	14889
695.599	15212
695.641	15491
695.646	15486
695.684	15117
695.726	14448
695.766	14175
695.769	14192
695.811	13672
695.854	13144
695.886	12887
695.896	13104
695.938	13741
695.981	14183
696.005	14606
696.023	14752
696.065	14663
696.108	14948
696.125	14930
696.150	15093
696.192	15480
696.235	15660
696.245	15721
696.277	16202
696.319	16558
696.361	17048
696.365	17046
696.404	17003
696.446	16975
696.485	16815
696.488	16826
696.530	16586
696.572	16206
696.604	15957
696.614	15943
696.656	15483
696.698	15288
696.724	15010
696.740	15014
696.783	15068
696.825	15079
696.844	15066
696.867	15210
696.909	15348
696.951	15499
696.964	15518
696.992	15725
697.034	15974
697.076	16089
697.083	16099
697.118	16743
697.160	17314
697.202	18062
697.203	18034
697.244	17340
697.286	16734
697.323	15989
697.327	16059
697.369	16488
697.411	16831
697.442	17082
697.453	17075
697.494	16757
697.536	16521
697.562	16387
697.578	16533
697.620	16716
697.661	16886
697.682	16951
697.703	17106
697.744	17251
697.786	17557
697.801	17590
697.828	17721
697.869	17720
697.911	17848
697.921	17852
697.952	17770
697.994	17527
698.035	17267
698.040	17187
698.077	17273
698.118	17420
698.160	17483
698.160	17438
698.201	17795
698.243	18027
698.279	18229
698.284	18364
698.325	19167
698.367	20003
698.399	20555
698.408	20547
698.449	20319
698.491	20088
698.518	19878
698.532	19953
698.573	20036
698.614	20084
698.638	20058
698.656	20055
698.697	19998
698.738	19866
698.757	19770
698.779	19910
698.820	20070
698.862	20237
698.877	20246
698.903	20339
698.944	20408
698.985	20481
698.996	20451
699.026	20274
699.067	19955
699.116	19527
699.235	20107
699.354	19805
699.474	18922
699.593	19681
699.713	19784
699.832	19679
699.951	20189
700.070	19553
700.190	18491
700.309	17720
700.428	17147
700.547	17769
700.667	17290
700.786	18080
700.905	17561
701.024	17487
701.143	16325
701.262	17690
701.381	17783
701.500	17713
701.619	17024
701.738	16779
701.857	17412
701.976	16950
702.095	17345
702.214	17897
702.333	17817
702.452	17452
702.571	17364
702.690	17468
702.809	16886
702.928	17370
703.047	16644
703.165	15769
703.284	16054
703.403	16564
703.522	16020
703.640	15578
703.759	15501
703.878	16358
703.997	16018
704.115	15691
704.234	15556
704.353	16281
704.471	14189
704.590	13993
704.708	14462
704.827	14006
704.946	15023
705.064	14212
705.183	14929
705.301	16326
705.420	16992
705.538	15569
705.656	14520
705.775	16596
705.893	20552
706.012	22125
706.130	14615
706.249	16139
706.367	14405
706.485	15051
706.604	14964
706.722	14863
706.840	18620
706.958	28620
707.077	20422
707.195	14248
707.313	13555
707.431	11924
707.549	12474
707.668	12777
707.786	14039
707.904	13908
708.022	13866
708.140	13053
708.258	12288
708.376	13961
708.494	13677
708.612	14932
708.730	15867
708.848	14518
708.966	13914
709.084	14321
709.202	14775
709.320	13295
709.438	13807
709.556	13911
709.674	12583
709.791	13715
709.909	12635
710.027	12379
710.145	12570
710.263	12817
710.380	11777
710.498	12815
710.616	12073
710.733	12143
710.851	12450
710.969	13138
711.086	12998
711.204	12787
711.322	12060
711.439	13330
711.557	11752
711.674	11687
711.792	11497
711.909	11522
712.027	13314
712.144	11833
712.262	11682
712.379	12159
712.497	13490
712.614	13995
712.732	12917
712.849	12881
712.966	13098
713.084	14036
713.201	12746
713.318	13613
713.436	13605
713.553	13318
713.670	13461
713.787	15146
713.905	13382
714.022	13791
714.139	13449
714.256	18524
714.373	26341
714.490	47223
714.608	125561
714.725	490589
714.842	480924
714.959	49810
715.076	21425
715.193	17188
715.310	15060
715.427	13004
715.544	12689
715.661	12540
715.778	11507
715.895	12106
716.011	13075
716.128	12319
716.245	11978
716.362	12078
716.479	11542
716.596	10607
716.713	12153
716.829	10427
716.946	10616
717.063	10287
717.180	9535
717.296	10153
717.413	9663
717.530	9304
717.646	8560
717.763	9591
717.880	8782
717.996	9316
718.113	9845
718.229	9439
718.346	8677
718.462	9564
718.579	9195
718.695	11299
718.812	10580
718.928	10640
719.045	9091
719.161	9528
719.277	9067
719.394	10070
719.510	9413
719.626	11291
719.743	14528
719.859	22256
719.975	44526
720.092	176262
720.208	385225
720.324	47431
720.440	13834
720.557	12915
720.673	12362
720.789	12942
720.905	19029
721.021	11380
721.137	8276
721.253	8811
721.369	8762
721.486	9456
721.602	10616
721.718	8425
721.834	8059
721.950	8310
722.066	7877
722.181	7677
722.297	8942
722.413	8150
722.529	7659
722.645	7925
722.761	7413
722.877	7998
722.993	8298
723.108	11001
723.224	8801
723.340	8271
723.456	7912
723.571	7709
723.687	7310
723.803	8245
723.918	7104
724.034	7935
724.150	8075
724.265	7930
724.381	9639
724.497	11043
724.612	7444
724.728	7097
724.843	6052
724.959	7010
725.074	9518
725.190	10400
725.305	7531
725.421	6852
725.536	7347
725.651	7205
725.767	6871
725.882	7028
725.997	6641
726.113	7037
726.228	6939
726.343	6270
726.459	6063
726.574	7344
726.689	6236
726.804	6879
726.920	6910
727.035	5977
727.150	6898
727.265	6459
727.380	7103
727.495	6547
727.610	7021
727.725	6221
727.841	7035
727.956	10965
728.071	8579
728.186	6449
728.301	6501
728.416	6634
728.531	6566
728.645	5933
728.760	7405
728.875	6276
728.990	6318
729.105	6602
729.220	6566
729.335	6549
729.449	5382
729.564	6386
729.679	5691
729.794	6512
729.908	6662
730.023	6338
730.138	5560
730.253	6529
730.367	6220
730.482	6331
730.596	6748
730.711	7561
730.826	10874
730.940	11402
731.055	7759
731.169	7155
731.284	7641
731.398	7141
731.513	7915
731.627	8926
731.742	10924
731.856	12528
731.970	12762
732.085	16021
732.199	23466
732.313	42105
732.428	111008
732.542	316990
732.656	179062
732.771	34624
732.885	19226
732.999	16700
733.113	16163
733.227	14670
733.342	13545
733.456	13759
733.570	11922
733.684	12434
733.798	11867
733.912	12441
734.026	11324
734.140	12354
734.254	11555
734.368	12108
734.482	12898
734.596	11594
734.710	10800
734.824	11618
734.938	11287
735.052	10933
735.166	11195
735.280	11345
735.393	9996
735.507	10633
735.621	10247
735.735	12097
735.849	9847
735.962	9719
736.076	9878
736.190	10182
736.303	10932
736.417	11974
736.531	9986
736.644	9742
736.758	9518
736.872	9635
736.985	9022
737.099	10018
737.212	8642
737.326	9899
737.439	9989
737.553	9196
737.666	9351
737.780	8369
737.893	9199
738.007	8531
738.120	9926
738.233	8658
738.347	8888
738.460	8845
738.573	9495
738.687	9102
738.800	8759
738.913	9105
739.026	8568
739.140	8305
739.253	9012
739.366	9182
739.479	9072
739.592	9123
739.705	8715
739.818	9372
739.932	8307
740.045	8241
740.158	8372
740.271	8349
740.384	8353
740.497	7511
740.610	8499
740.723	7804
740.836	8107
740.949	7434
741.062	9385
741.174	8255
741.287	8426
741.400	8479
741.513	7540
741.626	8015
741.739	7535
741.851	8325
741.964	8177
742.077	7550
742.189	7039
742.302	7705
742.415	6562
742.527	7373
742.640	7502
742.753	7275
742.865	8054
742.978	6722
743.090	7412
743.203	7628
743.316	7714
743.428	6608
743.541	7733
743.653	6997
743.766	7032
743.878	7273
743.990	7751
744.103	7602
744.215	6770
744.327	7198
744.440	7606
744.552	7684
744.664	7116
744.777	7795
744.889	6360
745.001	6449
745.113	6841
745.226	6500
745.338	7055
745.450	7251
745.562	6667
745.674	7015
745.786	7550
745.898	7023
746.010	6835
746.122	6876
746.234	6628
746.347	7495
746.459	7082
746.570	6077
746.682	6427
746.794	7996
746.906	5174
747.018	6429
747.130	6586
747.242	5778
747.354	5956
747.466	7282
747.577	6228
747.689	6285
747.801	6312
747.913	5757
748.024	5843
748.136	6379
748.248	5473
748.359	5361
748.471	6902
748.583	5623
748.694	6283
748.806	6553
748.918	5504
749.029	6060
749.141	5920
749.252	6529
749.364	5793
749.475	6243
749.587	6132
749.698	5493
749.809	5917
749.921	5927
750.032	5504
750.144	5566
750.255	5640
750.366	5666
750.478	5280
750.589	6116
750.700	4986
750.811	6051
750.923	6033
751.034	6745
751.145	7128
751.256	5440
751.367	5641
751.479	5616
751.590	5563
751.701	5870
751.812	5063
751.923	5232
752.034	6035
752.145	4941
752.256	5628
752.367	5596
752.478	5235
752.589	5970
752.700	5111
752.811	6243
752.922	5652
753.032	5649
753.143	5794
753.254	5090
753.365	7143
753.476	6336
753.586	5637
753.697	5528
753.808	5684
753.919	5355
754.029	5825
754.140	5492
754.251	5187
754.361	5588
754.472	5623
754.582	5629
754.693	5128
754.804	5726
754.914	5094
755.025	4953
755.135	5765
755.246	6313
755.356	5962
755.466	4917
755.577	5651
755.687	5995
755.798	4900
755.908	6113
756.018	5645
756.129	5642
756.239	5292
756.349	6507
756.460	5893
756.570	7819
756.680	5954
756.790	5920
756.900	6203
757.011	5965
757.121	5416
757.231	5868
757.341	6105
757.451	5748
757.561	6203
757.671	6234
757.781	4523
757.891	6399
758.001	6004
758.111	6822
758.221	6525
758.331	6917
758.441	7024
758.551	7297
758.661	6841
758.771	7649
758.880	6459
758.990	6552
759.100	5711
759.210	6414
759.320	8350
759.429	6724
759.539	7626
759.649	8294
759.758	8548
759.868	9599
759.978	9145
760.087	8956
760.197	10029
760.307	10171
760.416	9210
760.526	8858
760.635	9396
760.745	9404
760.854	10240
760.964	11621
761.073	11912
761.182	11264
761.292	10226
761.401	9826
761.511	8540
761.620	8602
761.729	9272
761.839	8462
761.948	9458
762.057	9677
762.166	9330
762.276	8942
762.385	10833
762.494	9859
762.603	10078
762.712	10851
762.822	11138
762.931	11516
763.040	10319
763.149	12077
763.258	11616
763.367	13060
763.476	12998
763.585	14385
763.694	14341
763.803	14945
763.912	15272
764.021	17123
764.130	16748
764.238	18849
764.347	20172
764.456	20460
764.565	22726
764.674	23895
764.783	26786
764.891	27764
765.000	32190
765.109	35903
765.217	41203
765.326	48645
765.435	55460
765.543	69380
765.652	85520
765.761	112876
765.869	147687
765.978	206698
766.086	297169
766.195	422800
766.303	535845
766.412	441161
766.520	467437
766.629	519784
766.737	373171
766.846	254165
766.954	176893
767.062	131714
767.171	101650
767.279	82889
767.387	66375
767.496	56736
767.604	49025
767.712	41488
767.820	38525
767.928	35374
768.037	33821
768.145	30447
768.253	29905
768.361	28071
768.469	29301
768.577	29154
768.685	30903
768.793	33263
768.901	35819
769.009	41346
769.117	50270
769.225	65193
769.333	89763
769.441	133118
769.549	211195
769.657	350111
769.765	477913
769.873	421241
769.981	455100
770.088	297450
770.196	181085
770.304	120908
770.412	87785
770.519	67329
770.627	53973
770.735	45253
770.842	38084
770.950	33634
771.058	29338
771.165	27835
771.273	24985
771.380	23012
771.488	23049
771.595	22315
771.703	20643
771.810	18667
771.918	17330
772.025	18613
772.133	19225
772.240	18611
772.348	18673
772.455	17702
772.562	15428
772.670	16009
772.777	15683
772.884	15853
772.991	14011
773.099	15077
773.206	12731
773.313	13732
773.420	13583
773.528	13718
773.635	12519
773.742	13893
773.849	11444
773.956	11963
774.063	11549
774.170	12123
774.277	11967
774.384	10893
774.491	11206
774.598	11260
774.705	10414
774.812	10722
774.919	10483
775.026	10623
775.133	9925
775.239	10472
775.346	10132
775.453	10353
775.560	8956
775.667	10252
775.773	8466
775.880	10150
775.987	9001
776.093	9507
776.200	9130
776.307	7755
776.413	8754
776.520	9630
776.627	8848
776.733	8105
776.840	7133
776.946	10250
777.053	9103
777.159	7945
777.266	6739
777.372	9206
777.478	8753
777.585	8166
777.691	6105
777.798	8729
777.904	8280
778.010	8485
778.117	8571
778.223	8103
778.329	7063
778.435	6610
778.542	8112
778.648	7015
778.754	7047
778.860	7717
778.966	7135
779.072	6908
779.178	6309
779.284	7107
779.391	7576
779.497	7415
779.603	9931
779.708	11442
779.815	23666
779.920	75440
780.026	100529
780.132	16979
780.238	7192
780.344	7087
780.450	7332
780.556	6448
780.661	6276
780.767	7372
780.873	4851
780.979	5543
781.085	5419
781.190	5442
781.296	5660
781.402	6314
781.507	5602
781.613	5407
781.719	4870
781.824	6521
781.930	5486
782.035	5967
782.141	6399
782.246	4450
782.352	5017
782.457	5196
782.563	5662
782.668	5197
782.773	5189
782.879	4859
782.984	5621
783.090	5489
783.195	5101
783.300	5196
783.405	4633
783.511	4602
783.616	5389
783.721	4844
783.826	4368
783.932	4138
784.037	4428
784.142	4680
784.247	3761
784.352	3954
784.457	3748
784.562	5179
784.667	4786
784.772	4154
784.877	3814
784.982	6073
785.087	4865
785.192	4876
785.297	4082
785.402	4121
785.507	4346
785.611	4514
785.716	4508
785.821	4856
785.926	3907
786.031	4226
786.135	3758
786.240	4320
786.345	2800
786.450	3839
786.554	3721
786.659	3487
786.763	3284
786.868	4335
786.973	3994
787.077	2905
787.182	3175
787.286	4282
787.391	3863
787.495	3061
787.600	3089
787.704	3281
787.809	3898
787.913	3433
788.017	4707
788.122	4401
788.226	3305
788.330	2277
788.435	2656
788.539	3246
788.643	2278
788.747	2578
788.852	1685
788.956	3242
789.060	4513
789.164	3275
789.268	2335
789.372	3500
789.476	3166
789.580	2493
789.684	3212
789.788	3703
789.892	2571
789.996	3277
790.100	2565
790.204	3075
790.308	3838
790.412	2820
790.516	2558
790.620	2861
790.724	4165
790.828	2602
790.931	1581
791.035	3669
791.139	3021
791.242	2167
791.346	3677
791.450	2923
791.554	2635
791.657	1412
791.761	3167
791.864	3193
791.968	2920
792.072	3800
792.175	2124
792.279	3436
792.382	2524
792.486	3165
792.589	2811
792.693	2492
792.796	1777
792.899	3438
793.003	3765
793.106	2583
793.209	2238
793.313	3323
793.416	717
793.519	2435
793.623	3898
793.726	3433
793.829	1982
793.932	2590
794.035	852
794.138	3909
794.242	4300
794.345	2968
794.448	4721
794.551	12059
794.654	40774
794.757	59592
794.860	9757
794.963	3839
795.066	2652
795.169	2864
795.272	2209
795.375	2665
795.477	980
795.580	2243
795.683	1882
795.786	2316
795.889	1395
795.991	2905
796.094	3415
796.197	1399
796.300	2911
796.402	1122
796.505	1522
796.608	1461
796.710	2672
796.813	2390
796.915	1842
797.018	2790
797.120	1876
797.223	1710
797.326	2554
797.428	2290
797.530	1474
797.633	2358
797.735	2626
797.838	2037
797.940	3439
798.042	1803
798.145	1460
798.247	2672
798.349	1129
798.452	2375
798.554	1700
798.656	1786
798.758	3415
798.860	2161
798.962	2118
799.065	1557
799.167	1027
799.269	2893
799.371	2888
799.473	4183
799.575	2114
799.677	1663
799.779	2390
799.881	781
799.983	2456
800.085	1656
800.187	1445
800.289	1014
800.390	1499
800.492	2614
800.594	2460
800.696	994
800.798	2294
800.899	1758
801.001	1158
801.103	1444
801.205	1436
801.306	2021
801.408	850
801.509	2342
801.611	985
801.713	2859
801.814	1717
801.916	1674
802.017	1205
802.119	1238
802.220	1321
802.322	71
802.423	2516
802.525	321
802.626	1547
802.727	1894
802.829	960
802.930	-58
803.031	2974
803.133	815
803.234	1626
803.335	2245
803.436	1336
803.538	2422
803.639	830
803.740	2459
803.841	1026
803.942	1832
804.043	1261
804.144	748
804.245	1164
804.346	706
804.447	497
804.548	975
804.649	1818
804.750	799
804.851	916
804.952	729
805.053	237
805.154	-140
805.255	2078
805.355	1260
805.456	1268
805.557	270
805.658	503
805.758	1913
805.859	583
805.960	1344
806.061	1356
806.161	823
806.262	1172
806.362	181
806.463	432
806.564	2398
806.664	1351
806.765	732
806.865	770
806.966	337
807.066	281
807.166	1284
807.267	1428
807.367	937
807.468	1879
807.568	-336
807.668	1276
807.769	1563
807.869	365
807.969	784
808.069	1131
808.170	530
808.270	71
808.370	1253
808.470	1364
808.570	1062
808.670	977
808.770	829
808.870	532
808.970	1119
809.070	572
809.170	-31
809.271	1553
809.370	407
809.470	641
809.570	799
809.670	-287
809.770	811
809.870	1005
809.970	619
810.070	651
810.169	2017
810.269	-276
810.369	1972
810.469	845
810.568	1347
810.668	574
810.768	228
810.867	712
810.967	602
811.066	830
811.166	873
811.265	1707
811.365	802
811.464	650
811.564	1114
811.663	1200
811.763	703
811.862	1588
811.962	1519
812.061	750
812.160	-53
812.260	420
812.359	647
812.458	1335
812.557	1926
812.657	2412
812.756	2150
812.855	498
812.954	954
813.053	823
813.153	1381
813.252	526
813.351	1238
813.450	1047
813.549	435
813.648	475
813.747	864
813.846	712
813.945	1108
814.044	334
814.143	1216
814.242	687
814.341	480
814.439	1927
814.538	1128
814.637	1388
814.736	1167
814.835	1951
814.933	1396
815.032	1482
815.131	3039
815.229	4279
815.328	5990
815.427	3084
815.525	4556
815.624	3716
815.722	4152
815.821	3993
815.919	3484
816.018	3043
816.116	4184
816.215	3852
816.313	4283
816.412	4525
816.510	5789
816.609	6353
816.707	5802
816.805	4886
816.904	4967
817.002	5097
817.100	5621
817.198	5777
817.296	5283
817.395	5163
817.493	5937
817.591	4543
817.689	5562
817.787	4290
817.885	6037
817.983	6203
818.081	8973
818.179	14659
818.277	32904
818.375	26906
818.473	8643
818.571	6081
818.669	5460
818.767	5416
818.865	5198
818.963	4477
819.061	7023
819.158	7593
819.256	14482
819.354	27032
819.452	59809
819.549	35846
819.647	11279
819.745	5412
819.842	5458
819.940	5015
820.038	4517
820.135	3399
820.233	4998
820.330	3648
820.428	2542
820.525	4367
820.623	3359
820.720	3155
820.818	4497
820.915	4545
821.012	3454
821.110	2247
821.207	4828
821.304	3633
821.402	3126
821.499	4163
821.596	3985
821.693	3152
821.791	4100
821.888	3345
821.985	4025
822.082	2380
822.179	3948
822.276	3689
822.373	3426
822.470	2571
822.567	2996
822.664	1941
822.761	3880
822.858	3039
822.955	2301
823.052	3092
823.149	3068
823.246	1942
823.343	2284
823.440	3381
823.536	2898
823.633	3517
823.730	2425
823.827	3360
823.923	3210
824.020	3586
824.117	3622
824.213	2326
824.310	2562
824.407	1806
824.503	3225
824.600	2295
824.696	2364
824.793	3249
824.889	2926
824.986	2761
825.082	1635
825.179	2808
825.275	2800
825.371	2875
825.468	2351
825.564	1195
825.660	3469
825.757	3235
825.853	3329
825.949	1280
826.045	2422
826.142	2091
826.238	2913
826.334	2914
826.430	2041
826.526	1426
826.622	1760
826.718	3571
826.814	2441
826.910	2700
827.006	974
827.102	93
827.198	3289
827.294	2062
827.390	3150
827.486	2114
827.582	1100
827.678	439
827.774	3399
827.869	1034
827.965	2473
828.061	527
828.157	2108
828.252	1836
828.348	1224
828.444	1520
828.539	1255
828.635	1667
828.731	2663
828.826	958
828.922	2966
829.017	2500
829.113	2994
829.208	1572
829.304	2366
829.399	4054
829.495	3034
829.590	1533
829.685	1319
829.781	2525
829.876	1970
829.971	846
830.066	497
830.162	2104
830.257	2365
830.352	2057
830.447	2368
830.543	1400
830.638	752
830.733	2515
830.828	1078
830.923	2607
831.018	2228
831.113	2035
831.208	729
831.303	486
831.398	1395
831.493	1786
831.588	3181
831.683	717
831.778	1562
831.873	1185
831.967	2656
832.062	1927
832.157	1533
832.252	1974
832.346	2094
832.441	1852
832.536	1763
832.631	2305
832.725	1820
832.820	1023
832.914	1121
833.009	505
833.104	1084
833.198	1761
833.293	705
833.387	2136
833.482	1137
833.576	251
833.670	1974
833.765	1652
833.859	1933
833.954	2058
834.048	1316
834.142	1585
834.237	1407
834.331	780
834.425	2100
834.519	613
834.613	1668
834.708	167
834.802	1029
834.896	444
834.990	651
835.084	893
835.178	1090
835.272	620
835.366	1095
835.460	1390
835.554	1049
835.648	1136
835.742	-85
835.836	663
835.930	-411
836.024	1432
836.117	1507
836.211	966
836.305	1426
836.399	1594
836.493	376
836.586	1864
836.680	557
836.774	45
836.867	673
836.961	-112
837.055	-1357
837.148	316
837.242	1051
837.335	807
837.429	757
837.522	570
837.616	1238
837.709	1717
837.803	584
837.896	1032
837.989	1128
838.083	499
838.176	893
838.269	165
838.363	907
838.456	171
838.549	1349
838.642	1448
838.735	2478
838.829	1177
838.922	1084
839.015	69
839.108	-229
839.201	1229
839.294	926
839.387	1206
839.480	-36
839.573	417
839.666	1560
839.759	152
839.852	639
839.945	872
840.038	132
840.131	181
840.223	608
840.316	669
840.409	1655
840.502	704
840.594	1701
840.687	-507
840.780	902
840.873	-274
840.965	43
841.058	1117
841.150	1797
841.243	97
841.336	1680
841.428	345
841.521	-22
841.613	79
841.706	735
841.798	666
841.890	783
841.983	8
842.075	1033
842.167	-390
842.260	835
842.352	691
842.444	969
842.537	1316
842.629	963
842.721	-382
842.813	1013
842.905	113
842.997	927
843.090	133
843.182	766
843.274	352
843.366	3652
843.458	4608
843.550	4350
843.642	489
843.734	973
843.826	-304
843.918	609
844.009	111
844.101	482
844.193	199
844.285	438
844.377	442
844.469	186
844.560	-543
844.652	399
844.744	591
844.835	870
844.927	526
845.019	48
845.110	538
845.202	530
845.293	349
845.385	-186
845.476	-200
845.568	857
845.659	253
845.751	346
845.842	-464
845.934	-23
846.025	136
846.116	641
846.208	-250
846.299	52
846.390	-416
846.482	68
846.573	467
846.664	880
846.755	-113
846.846	620
846.937	-795
847.029	-346
847.120	-498
847.211	175
847.302	591
847.393	-811
847.484	1122
847.575	-143
847.666	315
847.757	525
847.847	263
847.938	929
848.029	518
848.120	378
848.211	-247
848.302	-347
848.392	-489
848.483	707
848.574	-23
848.664	657
848.755	645
848.846	638
848.936	-457
849.027	1112
849.118	888
849.208	341
849.299	1663
849.389	3260
849.480	6487
849.570	13827
849.661	27476
849.751	46884
849.841	17268
849.932	2783
850.022	695
850.112	-340
850.203	2
850.293	-412
850.383	483
850.474	-871
850.564	-226
850.654	-265
850.744	-76
850.834	-236
850.924	330
851.014	106
851.104	722
851.194	429
851.284	-63
851.374	-83
851.464	-684
851.554	-207
851.644	36
851.734	696
851.824	217
851.914	888
852.004	2149
852.094	1407
852.183	-207
852.273	808
852.363	861
852.452	472
852.542	762
852.632	207
852.721	41
852.811	537
852.901	1353
852.990	545
853.080	546
853.169	812
853.259	557
853.348	1046
853.438	1693
853.527	2831
853.617	3241
853.706	8145
853.795	13896
853.885	31045
853.974	58957
854.063	105643
854.152	151155
854.242	67552
854.331	16076
854.420	6890
854.509	4422
854.598	3289
854.687	1937
854.777	2246
854.866	-172
854.955	1383
855.044	723
855.133	644
855.222	496
855.311	249
855.400	127
855.488	599
855.577	173
855.666	797
855.755	181
855.844	757
855.933	10
856.021	958
856.110	588
856.199	-534
856.288	-7
856.376	510
856.465	-430
856.554	738
856.642	-7
856.731	817
856.819	499
856.908	-159
856.996	-25
857.085	335
857.173	3
857.262	315
857.350	-237
857.438	262
857.527	262
857.615	-653
857.703	526
857.792	-145
857.880	-397
857.968	-706
858.056	-221
858.145	-121
858.233	113
858.321	59
858.409	-104
858.497	350
858.585	-1023
858.673	-50
858.761	-325
858.849	297
858.937	326
859.025	-267
859.113	426
859.201	557
859.289	620
859.377	516
859.465	-383
859.552	-635
859.640	-594
859.728	250
859.816	-1162
859.903	177
859.991	-302
860.079	-189
860.166	45
860.254	511
860.342	421
860.429	-1034
860.517	-470
860.604	499
860.692	-651
860.779	-567
860.867	76
860.954	-615
861.042	449
861.129	-290
861.216	351
861.304	227
861.391	204
861.478	178
861.565	220
861.653	622
861.740	-489
861.827	-228
861.914	146
862.001	126
862.089	-220
862.176	112
862.263	-506
862.350	868
862.437	-777
862.524	27
862.611	-821
862.698	-136
862.785	-77
862.871	275
862.958	178
863.045	297
863.132	-232
863.219	1
863.306	-782
863.392	482
863.479	91
863.566	547
863.652	971
863.739	309
863.826	480
863.912	608
863.999	-426
864.086	669
864.172	-362
864.259	731
864.345	403
864.432	304
864.518	899
864.604	756
864.691	98
864.777	1051
864.863	810
864.950	2311
865.036	1871
865.122	5212
865.209	5933
865.295	4493
865.381	5466
865.467	5906
865.553	5799
865.639	6763
865.726	10901
865.812	19584
865.898	35135
865.984	50850
866.070	88296
866.156	95316
866.242	31922
866.328	11067
866.414	6304
866.499	5236
866.585	4960
866.671	5039
866.757	4276
866.843	4240
866.928	3642
867.014	3787
867.100	3974
867.186	3831
867.271	3574
867.357	3784
867.442	3156
867.528	3470
867.614	3149
867.699	3298
867.785	3594
867.870	3602
867.956	2736
868.041	2836
868.127	2618
868.212	3000
868.297	2806
868.383	3533
868.468	3449
868.553	4208
868.639	4580
868.724	4447
868.809	4531
868.894	3042
868.979	2346
869.065	3158
869.150	2169
869.235	2327
869.320	2683
869.405	2165
869.490	2615
869.575	2705
869.660	2982
869.745	3060
869.830	2442
869.915	1573
870.000	2210
870.085	2087
870.169	3024
870.254	3140
870.339	1015
870.424	2143
870.509	2079
870.593	2755
870.678	3415
870.763	2189
870.847	1135
870.932	2642
871.016	1699
871.101	1132
871.186	2445
871.270	3341
871.355	1418
871.439	3183
871.523	2291
871.608	1498
871.692	2033
871.777	3432
871.861	3236
871.945	2386
872.030	2823
872.114	2383
872.198	2120
872.282	1528
872.367	1749
872.451	2199
872.535	1334
872.619	1701
872.703	838
872.787	1652
872.871	2286
872.955	1278
873.039	1277
873.123	2499
873.207	2204
873.291	1927
873.375	1046
873.459	1489
873.543	1548
873.627	1582
873.711	1708
873.794	1352
873.878	1523
873.962	1746
874.045	1140
874.129	1768
874.137	1755
874.213	1631
874.245	1489
874.296	1248
874.352	632
874.380	333
874.460	1137
874.464	1168
874.547	985
874.568	1118
874.631	1521
874.676	1585
874.714	1608
874.784	1694
874.798	1722
874.881	2454
874.892	2164
874.965	160
874.999	846
875.048	1778
875.107	1914
875.131	1949
875.215	1073
875.215	1074
875.298	1422
875.323	1524
875.381	1708
875.430	1851
875.465	1965
875.538	1868
875.548	1831
875.631	969
875.646	976
875.714	1357
875.753	1419
875.798	1330
875.861	1266
875.881	1238
875.964	2249
875.968	2172
876.047	953
876.076	1638
876.130	2887
876.183	2451
876.213	2237
876.291	3009
876.296	3055
876.379	1761
876.398	1783
876.462	1736
876.506	1280
876.545	980
876.613	1657
876.628	1812
876.711	1675
876.721	1808
876.794	2790
876.828	2505
876.877	1894
876.935	1874
876.960	2006
877.043	1453
877.043	1456
877.125	2317
877.150	2401
877.208	2507
877.258	2323
877.291	2148
877.365	1486
877.374	1427
877.456	1603
877.472	1634
877.539	1892
877.579	2022
877.622	2168
877.687	2534
877.704	2583
877.787	1706
877.794	1725
877.869	2268
877.901	2377
877.952	2067
878.008	1425
878.034	1377
878.115	1767
878.117	1775
878.199	1725
878.222	1926
878.282	2583
878.329	2847
878.364	2915
878.437	2661
878.447	2615
878.529	1385
878.544	1460
878.611	1908
878.651	1783
878.694	1949
878.758	2865
878.776	2975
878.858	2824
878.865	2803
878.941	2563
878.972	2051
879.023	1377
879.078	1758
879.105	2148
879.185	3072
879.187	3078
879.269	3071
879.292	2782
879.351	2323
879.399	2027
879.433	1766
879.506	2402
879.516	2495
879.598	2066
879.613	2000
879.680	1859
879.720	2277
879.762	2805
879.827	2301
879.844	2073
879.926	2786
879.933	2772
880.007	3061
880.040	2923
880.089	2562
880.147	2463
880.171	2607
880.253	3447
880.254	3443
880.335	3088
880.360	3123
880.417	3948
880.467	4208
880.499	4114
880.574	4248
880.580	4289
880.662	4130
880.680	4008
880.744	2669
880.787	2103
880.825	2382
880.893	2958
880.907	2873
880.989	2639
881.000	2505
881.070	2973
881.106	3247
881.152	2819
881.213	2492
881.233	2589
881.315	2398
881.319	2443
881.396	3234
881.426	3035
881.478	2975
881.532	3517
881.559	3505
881.639	2390
881.641	2382
881.722	2774
881.745	2822
881.803	3087
881.852	3101
881.885	2937
881.958	2767
881.966	2836
882.047	3538
882.064	3537
882.129	3056
882.171	3030
882.210	2889
882.277	2626
882.291	2740
882.372	3274
882.383	3328
882.454	3503
882.489	3501
882.535	3552
882.596	4011
882.616	4001
882.697	3071
882.702	3057
882.778	3305
882.808	3173
882.859	2879
882.914	2748
882.940	2945
883.020	3343
883.021	3357
883.102	3760
883.127	3936
883.183	4202
883.233	4395
883.264	3979
883.339	3078
883.345	3120
883.426	2808
883.445	2932
883.507	3117
883.551	3059
883.587	3353
883.657	4534
883.668	4734
883.749	4921
883.763	4968
883.830	3835
883.869	3377
883.910	3173
883.975	2700
883.991	2866
884.072	3521
884.081	3633
884.152	4159
884.187	4172
884.233	4509
884.292	5108
884.314	4792
884.394	3064
884.398	2980
884.475	2325
884.504	2155
884.555	2662
884.610	3079
884.636	3248
884.716	3712
884.716	3733
884.797	5453
884.821	5697
884.877	5049
884.927	4664
884.958	4121
885.033	2744
885.038	2771
885.118	2959
885.139	3019
885.199	2790
885.244	2641
885.279	3160
885.350	4327
885.359	4477
885.439	5521
885.456	5639
885.520	4591
885.561	4111
885.600	3994
885.667	3798
885.680	3981
885.760	4838
885.773	4931
885.840	3802
885.878	3323
885.920	3429
885.984	3344
886.000	3541
886.080	4485
886.089	4600
886.160	5182
886.195	5293
886.240	4830
886.300	4243
886.320	4303
886.400	4616
886.406	4617
886.480	3878
886.511	3497
886.560	3657
886.616	3925
886.640	3884
886.720	3724
886.722	3702
886.800	3654
886.827	3723
886.879	3939
886.932	4114
886.959	4628
887.038	6214
887.039	6219
887.119	4782
887.143	4517
887.198	4892
887.248	5097
887.278	4891
887.354	4081
887.358	4105
887.437	4393
887.459	4492
887.517	4810
887.564	4975
887.596	4699
887.669	4134
887.676	4074
887.755	3134
887.774	2855
887.835	3114
887.880	3420
887.914	3795
887.985	4361
887.994	4553
888.073	6309
888.090	6622
888.153	6779
888.195	6770
888.232	6215
888.300	5322
888.311	5238
888.391	4492
888.405	4332
888.470	4572
888.510	4647
888.549	4526
888.615	4384
888.628	4593
888.708	5725
888.720	5879
888.787	5461
888.825	5197
888.866	4846
888.930	4258
888.945	4268
889.024	4213
889.035	4203
889.103	5282
889.140	5794
889.182	5088
889.245	4035
889.261	4272
889.340	5329
889.349	5436
889.419	4661
889.454	4239
889.498	4656
889.559	5231
889.577	5238
889.656	5178
889.664	5159
889.735	5538
889.768	5692
889.814	5201
889.873	4511
889.978	5435
890.083	3922
890.187	5184
890.292	6521
890.397	5476
890.501	4310
890.606	4330
890.710	5143
890.815	6706
890.919	5089
891.024	5031
891.128	4891
891.233	4116
891.337	5474
891.442	6283
891.546	5911
891.650	4209
891.755	3513
891.859	6058
891.963	6275
892.068	5092
892.172	3953
892.276	3529
892.380	3527
892.484	5483
892.589	5479
892.693	4906
892.797	3465
892.901	4007
893.005	4448
893.109	6078
893.213	6708
893.317	5504
893.421	3944
893.525	3865
893.629	3714
893.733	4962
893.837	3820
893.941	4393
894.045	4035
894.148	5637
894.252	8793
894.356	7987
894.460	6528
894.564	4392
894.667	3990
894.771	3814
894.875	2769
894.978	4721
895.082	4711
895.186	5988
895.289	3985
895.393	4415
895.496	5388
895.600	4058
895.703	3593
895.807	4183
895.910	3709
896.014	4484
896.117	3558
896.221	5809
896.324	4338
896.427	3345
896.531	3967
896.634	4684
896.737	4372
896.840	5143
896.944	5048
897.047	5334
897.150	3896
897.253	3447
897.356	3116
897.460	3285
897.563	2467
897.666	5028
897.769	5157
897.872	3699
897.975	3911
898.078	3931
898.181	3436
898.284	4337
898.387	5158
898.490	5418
898.593	3777
898.695	3439
898.798	3141
898.901	4726
899.004	3830
899.107	4918
899.209	4227
899.312	6670
899.415	3044
899.518	3045
899.620	2439
899.723	3359
899.826	4467
899.928	4650
900.031	3755
900.133	5342
900.236	3622
900.338	3048
900.441	2858
900.543	3990
900.646	3668
900.748	3712
900.851	4589
900.953	3605
901.055	3594
901.158	4159
901.260	2710
901.362	2867
901.465	3060
901.567	4386
901.669	5123
901.771	3888
901.873	2748
901.976	4487
902.078	4135
902.180	3215
902.282	3279
902.384	3917
902.486	4947
902.588	3819
902.690	3025
902.792	3060
902.894	4225
902.996	5452
903.098	3790
903.200	3443
903.302	3223
903.404	3392
903.505	3014
903.607	2915
903.709	4982
903.811	4842
903.913	3547
904.014	3830
904.116	2299
904.218	3316
904.319	4728
904.421	5531
904.523	3989
904.624	4230
904.726	3361
904.827	3490
904.929	2407
905.030	4389
905.132	4809
905.233	4059
905.335	2571
905.436	3330
905.537	3094
905.639	3804
905.740	3678
905.841	4088
905.943	3923
906.044	3148
906.145	2069
906.247	3664
906.348	3452
906.449	4119
906.550	3921
906.651	4076
906.752	2932
906.854	4082
906.955	2793
907.056	3799
907.157	3628
907.258	4980
907.359	3154
907.460	3142
907.561	2587
907.662	3155
907.762	2902
907.863	4533
907.964	4219
908.065	3234
908.166	2510
908.267	3640
908.367	2842
908.468	3519
908.569	3661
908.670	4616
908.770	3344
908.871	4090
908.971	4138
909.072	3769
909.173	3264
909.273	4173
909.374	2809
909.474	4281
909.575	4072
909.675	4188
909.776	3908
909.876	3807
909.977	2759
910.077	4460
910.177	4523
910.278	4122
910.378	2942
910.478	4159
910.579	3681
910.679	3697
910.779	3838
910.879	4268
910.980	3202
911.080	4695
911.180	3287
911.280	3255
911.380	2217
911.480	3171
911.580	3611
911.680	3987
911.780	3620
911.880	4309
911.980	3026
912.080	3589
912.180	3310
912.280	4780
912.380	3017
912.480	2849
912.580	2495
912.679	4632
912.779	3968
912.879	4403
912.979	2914
913.078	3271
913.178	2256
913.278	3227
913.377	2626
913.477	3781
913.577	3161
913.676	5124
913.776	4021
913.875	3860
913.975	3354
914.074	4130
914.174	3966
914.273	3283
914.373	3902
914.472	3636
914.572	2687
914.671	3557
914.770	3208
914.870	3813
914.969	2638
915.068	4112
915.167	3095
915.267	3639
915.366	3352
915.465	4319
915.564	3670
915.663	4167
915.763	3507
915.862	4682
915.961	3569
916.060	3207
916.159	3219
916.258	3983
916.357	3043
916.456	3717
916.555	4383
916.654	4210
916.752	4597
916.851	4055
916.950	2739
917.049	3716
917.148	2932
917.247	3786
917.345	3169
917.444	3853
917.543	2757
917.642	3810
917.740	3886
917.839	5111
917.937	5337
918.036	4368
918.135	3849
918.233	3188
918.332	2958
918.430	3920
918.529	2935
918.627	4368
918.726	4039
918.824	4325
918.923	3295
919.021	3660
919.119	3470
919.218	3957
919.316	3796
919.414	3623
919.512	4274
919.611	4989
919.709	3824
919.807	4333
919.905	4524
920.003	4226
920.102	4240
920.200	5326
920.298	5049
920.396	5279
920.494	4909
920.592	4433
920.690	4564
920.788	5170
920.886	4728
920.984	5482
921.082	5082
921.180	6115
921.277	5914
921.375	6654
921.473	8351
921.571	7913
921.669	7608
921.766	6957
921.864	7008
921.962	6981
922.060	6160
922.157	8342
922.255	6666
922.352	7654
922.450	7998
922.548	7795
922.645	8512
922.743	11858
922.840	15668
922.938	17755
923.035	15238
923.133	15866
923.230	18075
923.327	21411
923.425	19271
923.522	20718
923.619	17961
923.717	16539
923.814	15511
923.911	16320
924.008	16568
924.106	15961
924.203	14746
924.300	16284
924.397	15320
924.494	16904
924.591	15471
924.688	14753
924.786	16055
924.883	16280
924.979	15234
925.077	15319
925.173	13965
925.270	16898
925.367	14603
925.464	16155
925.561	16418
925.658	16263
925.755	13809
925.852	16050
925.948	15044
926.045	14391
926.142	15568
926.239	15516
926.335	12899
926.432	14568
926.529	15820
926.625	16142
926.722	12500
926.818	13745
926.915	15740
927.011	14693
927.108	13426
927.204	14916
927.301	13394
927.397	15292
927.494	15637
927.590	12498
927.687	12565
927.783	16936
927.879	15027
927.976	13590
928.072	12690
928.168	14536
928.264	14413
928.361	13340
928.457	14709
928.553	12806
928.649	13271
928.745	13703
928.841	11883
928.937	14011
929.033	12379
929.129	13577
929.225	14868
929.321	12460
929.417	11540
929.513	14422
929.609	11476
929.705	12370
929.801	14098
929.897	12103
929.993	12278
930.089	12965
930.184	11125
930.280	13049
930.376	14566
930.471	11416
930.567	10204
930.663	12317
930.758	10824
930.854	12188
930.950	11894
931.045	10470
931.141	11905
931.236	15190
931.332	10990
931.427	10089
931.523	12588
931.618	12602
931.714	9219
931.809	10564
931.905	12117
932.000	9519
932.095	9535
932.191	13537
932.286	14059
932.381	11853
932.476	9866
932.572	11111
932.667	9220
932.762	10283
932.857	11111
932.952	12984
933.047	10058
933.142	10134
933.237	11258
933.332	11610
933.427	12279
933.522	10458
933.617	9237
933.712	10800
933.807	12555
933.902	13646
933.997	12568
934.092	9258
934.187	9970
934.282	11404
934.376	11463
934.471	11868
934.566	8770
934.661	9450
934.755	10544
934.850	11773
934.945	8935
935.039	8932
935.134	8016
935.228	10333
935.323	13305
935.417	9426
935.512	7076
935.606	8678
935.701	9944
935.795	10729
935.890	9686
935.984	9201
936.079	7355
936.173	9751
936.267	8561
936.362	8322
936.456	9058
936.550	11476
936.644	9441
936.738	8507
936.833	7395
936.927	8207
937.021	8740
937.115	10064
937.209	8826
937.303	8954
937.397	7156
937.491	8914
937.585	10932
937.679	9761
937.773	7669
937.867	7445
937.961	7767
938.055	10415
938.149	8581
938.243	7259
938.337	6159
938.430	8175
938.524	10546
938.618	7985
938.712	6622
938.805	8035
938.899	8434
938.993	10786
939.086	6546
939.180	5791
939.274	6208
939.367	10682
939.461	9341
939.554	7794
939.648	6789
939.741	7623
939.835	8192
939.928	10935
940.022	9275
940.115	8120
940.208	8833
940.302	10462
940.395	9429
940.488	7262
940.582	7452
940.675	6802
940.768	7128
940.861	9535
940.954	8528
941.048	5968
941.141	5704
941.234	7175
941.327	7925
941.420	8674
941.513	8595
941.606	7024
941.699	6646
941.792	9060
941.885	7385
941.978	8482
942.071	7335
942.164	5276
942.257	6155
942.349	7043
942.442	7730
942.535	6135
942.628	6495
942.721	6863
942.813	6517
942.906	7543
942.999	5653
943.091	6056
943.184	5746
943.277	6589
943.369	5614
943.462	5596
943.554	6309
943.647	6859
943.739	8199
943.832	7543
943.924	4870
944.017	6026
944.109	4982
944.201	5443
944.294	6444
944.386	6872
944.478	5311
944.571	6290
944.663	5091
944.755	6399
944.847	7205
944.940	6024
945.032	4725
945.124	5845
945.216	6764
945.308	5818
945.400	5571
945.492	6042
945.584	7781
945.676	7325
945.768	6342
945.860	7702
945.952	6864
946.044	6763
946.136	5382
946.228	6227
946.320	5447
946.412	7340
946.503	7255
946.595	6476
946.687	4684
946.779	5108
946.870	5312
946.962	5147
947.054	4665
947.145	6330
947.237	4933
947.329	5633
947.420	6449
947.512	5178
947.603	4370
947.695	5042
947.786	4815
947.878	5531
947.969	5668
948.061	6069
948.152	5919
948.243	5051
948.335	3989
948.426	4290
948.517	5021
948.609	6177
948.700	5211
948.791	5401
948.882	3295
948.973	4771
949.065	5048
949.156	5030
949.247	4031
949.338	4992
949.429	3596
949.520	4935
949.611	4654
949.702	5645
949.793	4076
949.884	5205
949.975	3583
950.066	3272
950.157	4535
950.247	5377
950.338	3837
950.429	4793
950.520	4887
950.611	5056
950.701	5396
950.792	7404
950.883	6723
950.973	5360
951.064	4956
951.155	5277
951.245	5027
951.336	5870
951.427	5009
951.517	6974
951.608	4343
951.698	5005
951.788	3534
951.879	3107
951.969	4201
952.060	5014
952.150	4851
952.240	5874
952.331	3970
952.421	5470
952.511	3505
952.602	3611
952.692	3862
952.782	3335
952.872	3676
952.962	5380
953.052	3879
953.143	3974
953.233	4210
953.323	4528
953.413	3949
953.503	4485
953.593	4566
953.683	4388
953.773	2937
953.863	3540
953.953	3931
954.042	4476
954.132	5427
954.222	5819
954.312	3579
954.402	3825
954.492	3346
954.581	4981
954.671	4101
954.761	4162
954.850	4408
954.940	2680
955.030	2505
955.119	3332
955.209	3791
955.298	4507
955.388	5688
955.477	5475
955.567	2867
955.656	4527
955.746	3689
955.835	3486
955.925	3150
956.014	4113
956.103	4524
956.193	5990
956.282	4572
956.371	4396
956.461	3770
956.550	4296
956.639	3009
956.728	3642
956.817	3710
956.906	4623
956.995	5042
957.085	3738
957.174	3718
957.263	4450
957.352	3397
957.441	3480
957.530	4113
957.619	3881
957.708	4181
957.796	3691
957.885	4250
957.974	4162
958.063	4053
958.152	3326
958.241	3502
958.329	4038
958.418	2891
958.507	4210
958.596	4838
958.684	3744
958.773	4837
958.861	4082
958.950	3115
959.039	4308
959.127	3380
959.216	5210
959.304	3504
959.393	4922
959.481	4646
959.570	5026
959.658	3222
959.746	4558
959.835	4828
959.923	5743
960.011	3825
960.100	5044
960.188	4901
960.276	3643
960.365	3290
960.453	4516
960.541	2979
960.629	3625
960.717	2510
960.805	3564
960.893	3836
960.981	4139
961.069	5097
961.158	5839
961.245	4581
961.333	5618
961.421	3197
961.509	3942
961.597	3885
961.685	4086
961.773	3615
961.861	3699
961.949	4164
962.036	2814
962.124	3625
962.212	3830
962.299	2297
962.387	3041
962.475	2089
962.562	3281
962.650	3957
962.738	3649
962.825	2908
962.913	2971
963.000	3004
963.088	4045
963.175	3383
963.263	3033
963.350	3385
963.438	3645
963.525	2600
963.612	3927
963.700	3518
963.787	7404
963.874	3945
963.962	3509
964.049	2753
964.136	2906
964.223	1956
964.310	2550
964.398	2780
964.485	2934
964.572	2279
964.659	3956
964.746	2730
964.833	3102
964.920	2452
965.007	3559
965.094	1801
965.181	2773
965.268	3735
965.355	3538
965.441	2676
965.528	3818
965.615	3454
965.702	4134
965.789	2899
965.875	3779
965.962	4002
966.049	2673
966.136	4514
966.222	3813
966.309	2961
966.395	3256
966.482	4034
966.569	3070
966.655	3079
966.742	2803
966.828	2501
966.915	2511
967.001	2732
967.087	2273
967.174	2825
967.260	3171
967.347	3036
967.433	4797
967.519	4583
967.605	3392
967.692	3460
967.778	3421
967.864	2363
967.950	2582
968.036	1708
968.123	3189
968.209	2557
968.295	2320
968.381	3006
968.467	2925
968.553	1992
968.639	3073
968.725	2684
968.811	4256
968.897	3474
968.983	3528
969.069	2167
969.154	2435
969.240	2424
969.326	2452
969.412	1701
969.497	2832
969.583	2110
969.669	3806
969.755	3220
969.840	2712
969.926	4094
970.012	5640
970.097	5610
970.183	5302
970.268	3898
970.354	4106
970.439	1621
970.525	4969
970.610	2440
970.696	3564
970.781	2598
970.866	2676
970.952	2894
971.037	2339
971.122	2995
971.208	3445
971.293	2137
971.378	1768
971.463	2457
971.549	2979
971.634	2295
971.719	3114
971.804	2321
971.889	3104
971.974	1797
972.059	3006
972.144	2345
972.229	3018
972.314	1640
972.399	3183
972.484	2347
972.569	2915
972.654	2144
972.739	4104
972.824	2205
972.908	2949
972.993	1666
973.078	2231
973.163	2227
973.247	3017
973.332	1663
973.417	3572
973.501	1762
973.586	3203
973.671	2885
973.755	2651
973.840	2770
973.924	3305
974.009	4118
974.093	4653
974.178	4835
974.262	4314
974.346	3390
974.431	3693
974.515	2674
974.600	3185
974.684	2703
974.768	3197
974.852	3749
974.937	2708
975.021	3069
975.105	3089
975.189	2179
975.273	3315
975.358	2536
975.442	2142
975.526	2620
975.610	2533
975.694	2240
975.778	3732
975.862	2122
975.946	567
976.030	3859
976.114	2878
976.198	2000
976.281	3040
976.365	3239
976.449	3379
976.533	2957
976.617	2449
976.700	2093
976.784	2391
976.868	1985
976.951	2862
977.035	2606
977.119	2514
977.202	2376
977.286	3099
977.369	3728
977.453	5689
977.536	4293
977.620	3018
977.703	3984
977.787	2863
977.870	3512
977.953	4176
978.037	1924
978.120	4311
978.203	3302
978.287	3365
978.370	3188
978.453	2574
978.536	2697
978.620	4198
978.703	2997
978.786	2919
978.869	1872
978.952	2579
979.035	4117
979.118	3201
979.201	2787
979.284	4081
979.367	2269
979.450	4080
979.533	2178
979.616	2718
979.699	2047
979.782	3850
979.865	2808
979.948	2991
980.030	1943
980.113	3773
980.196	1904
980.279	3002
980.361	2829
980.444	2704
980.526	3300
980.609	4802
980.692	5731
980.774	5660
980.857	2807
980.939	5017
981.022	3361
981.104	3226
981.187	3219
981.269	4807
981.352	3568
981.434	2671
981.516	2878
981.599	3840
981.681	3073
981.763	3680
981.846	3324
981.928	4239
982.010	2612
982.092	2331
982.174	4081
982.256	2900
982.339	2487
982.421	3555
982.503	2348
982.585	2610
982.667	3256
982.749	3966
982.831	2946
982.913	2871
982.995	3371
983.077	2776
983.158	4095
983.240	2942
983.322	5180
983.404	6506
983.486	5445
983.568	5652
983.649	3609
983.731	4912
983.813	4127
983.894	4881
983.976	3897
984.058	2780
984.139	4077
984.221	3378
984.302	3837
984.384	3445
984.465	3484
984.547	3614
984.628	3225
984.710	4995
984.791	3272
984.872	4044
984.954	3437
985.035	3703
985.116	3177
985.198	3239
985.279	4228
985.360	3336
985.441	3344
985.522	4633
985.604	4298
985.685	2734
985.766	4128
985.847	5089
985.928	3387
986.009	4337
986.090	3788
986.171	5294
986.252	3009
986.333	4759
986.414	3355
986.495	4209
986.576	4015
986.656	4873
986.737	4795
986.818	4987
986.899	3248
986.980	4942
987.060	4368
987.141	4613
987.222	4884
987.302	5869
987.383	4843
987.464	5118
987.544	5048
987.625	5281
987.705	5418
987.786	5329
987.866	4864
987.947	4961
988.027	5119
988.108	5701
988.188	4826
988.268	4998
988.349	5567
988.429	4170
988.509	4679
988.589	4278
988.670	2940
988.750	5431
988.830	3362
988.910	4831
988.990	3919
989.070	3987
989.151	3665
989.231	4472
989.311	4298
989.391	4196
989.471	3893
989.551	3535
989.631	2840
989.711	4539
989.791	3517
989.870	3763
989.950	4316
990.030	3401
990.110	4219
990.190	3406
990.269	2858
990.349	3841
990.429	3461
990.509	4758
990.588	2477
990.668	4297
990.747	3823
990.827	4345
990.907	3577
990.986	4365
991.066	3370
991.145	4025
991.225	4308
991.304	3303
991.383	3893
991.463	3744
991.542	3535
991.622	2659
991.701	2236
991.780	3586
991.859	2281
991.939	2974
992.018	3374
992.097	4360
992.176	3668
992.256	2934
992.335	2533
992.414	3916
992.493	2912
992.572	2278
992.651	3685
992.730	3360
992.809	3152
992.888	2612
992.967	3356
993.046	3493
993.125	2113
993.203	2830
993.282	3001
993.361	3150
993.440	2707
993.519	2435
993.597	2577
993.676	2462
993.755	2375
993.834	3333
993.912	1483
993.991	4870
994.069	2674
994.148	3604
994.226	1685
994.305	2921
994.384	2560
994.462	3860
994.540	1461
994.619	1645
994.697	2273
994.776	2853
994.854	3018
994.932	1768
995.011	2193
995.089	2173
995.167	2044
995.245	2224
995.324	1424
995.402	3199
995.480	1463
995.558	2652
995.636	940
995.714	2303
995.792	2654
995.870	2105
995.948	1826
996.026	2237
996.104	913
996.182	3269
996.260	655
996.338	3057
996.416	918
996.494	2366
996.572	2184
996.649	2105
996.727	989
996.805	2441
996.883	1243
996.960	2251
997.038	2162
997.116	1689
997.193	1332
997.271	1362
997.348	740
997.426	1742
997.504	1863
997.581	2577
997.658	1732
997.736	811
997.813	1055
997.891	3127
997.968	1139
998.046	2296
998.123	1912
998.200	1633
998.277	872
998.355	2317
998.432	-296
998.509	1783
998.586	2333
998.663	1600
998.741	1426
998.818	1392
998.895	934
998.972	2196
999.049	1880
999.126	1772
999.203	1128
999.280	1371
999.357	1163
999.434	1528
999.511	939
999.587	1857
999.664	657
999.741	1819
999.818	1152
999.895	488
999.971	983
1000.048	1211
1000.125	1514
1000.202	1429
1000.278	1197
1000.355	2302
1000.431	1288
1000.508	169
1000.584	389
1000.661	1602
1000.738	333
1000.814	1588
1000.890	2169
1000.967	1483
1001.043	570
1001.120	680
1001.196	831
1001.272	1632
1001.349	1246
1001.425	1180
1001.501	434
1001.577	897
1001.654	837
1001.730	729
1001.806	1083
1001.882	1160
1001.958	1143
1002.034	1200
1002.110	122
1002.186	36
1002.262	830
1002.338	994
1002.414	913
1002.490	1631
1002.566	-46
1002.642	728
1002.718	899
1002.794	1093
1002.870	673
1002.945	438
1003.021	243
1003.097	829
1003.173	701
1003.248	425
1003.324	904
1003.400	1369
1003.475	-603
1003.551	1103
1003.626	577
1003.702	575
1003.777	847
1003.853	843
1003.928	451
1004.004	944
1004.079	572
1004.155	963
1004.230	1
1004.305	1659
1004.381	77
1004.456	-243
1004.531	14
1004.607	1053
1004.682	-205
1004.757	1008
1004.832	154
1004.907	-90
1004.982	512
1005.057	1100
1005.133	909
1005.208	643
1005.283	-537
1005.358	410
1005.433	-845
1005.508	1320
1005.583	149
1005.657	901
1005.732	268
1005.807	602
1005.882	-652
1005.957	521
1006.032	347
1006.106	462
1006.181	-608
1006.256	432
1006.331	-117
1006.405	-834
1006.480	162
1006.554	131
1006.629	217
1006.704	240
1006.778	478
1006.853	1037
1006.927	-196
1007.002	327
1007.076	59
1007.150	527
1007.225	-184
1007.299	536
1007.373	-333
1007.448	1143
1007.522	-364
1007.596	-123
1007.671	-252
1007.745	380
1007.819	-266
1007.893	433
1007.967	-92
1008.041	-286
1008.115	823
1008.190	-648
1008.264	122
1008.338	-626
1008.412	-476
1008.486	-178
1008.560	-341
1008.633	-317
1008.707	-21
1008.781	1475
1008.855	-160
1008.929	359
1009.003	-1067
1009.076	49
1009.150	-21
1009.224	636
1009.298	122
1009.371	-318
1009.445	230
1009.519	-373
1009.592	-749
1009.666	1168
1009.739	247
1009.813	-248
1009.886	351
1009.960	-283
1010.033	117
1010.107	228
1010.180	-1286
1010.253	287
1010.327	-1208
1010.400	-722
1010.473	72
1010.547	1140
1010.620	-871
1010.693	455
1010.766	-659
1010.840	67
1010.913	-60
1010.986	-507
1011.059	-563
1011.132	-305
1011.205	180
1011.278	-686
1011.351	-379
1011.424	51
1011.497	-678
1011.570	278
1011.643	-1112
1011.716	609
1011.789	-736
1011.862	242
1011.934	-853
1012.007	-872
1012.080	-820
1012.153	500
1012.225	-10
1012.298	-887
1012.371	-1346
1012.443	-62
1012.516	-1318
1012.588	-10
1012.661	-307
1012.733	-851
1012.806	-392
1012.879	-767
1012.951	-1035
1013.023	179
1013.096	-455
1013.168	-399
1013.241	110
1013.313	213
1013.385	-817
1013.458	-544
1013.530	-1035
1013.602	-290
1013.674	-327
1013.746	-1095
1013.819	-323
1013.891	93
1013.963	-1327
1014.035	354
1014.107	-80
1014.179	570
1014.251	-1034
1014.323	349
1014.395	-819
1014.467	-228
1014.539	-893
1014.611	-621
1014.683	-1545
1014.754	-184
1014.826	-1828
1014.898	686
1014.970	-775
1015.042	900
1015.113	-403
1015.185	-765
1015.257	-1078
1015.328	-334
1015.400	-1204
1015.471	-190
1015.543	-1377
1015.615	-1169
1015.686	-766
1015.757	-179
1015.829	77
1015.901	-639
1015.972	-858
1016.043	-684
1016.115	-919
1016.186	-830
1016.257	-1576
1016.328	37
1016.400	-664
1016.471	-633
1016.542	-554
1016.613	-896
1016.685	-1032
1016.756	68
1016.827	-883
1016.898	-651
1016.969	26
1017.040	-390
1017.111	-918
1017.182	-579
1017.253	-743
1017.324	-536
1017.395	-341
1017.466	-771
1017.537	-884
1017.608	-1261
1017.678	-577
1017.749	-868
1017.820	-731
1017.891	-1102
1017.961	-1455
1018.032	-415
1018.103	-782
1018.173	-400
1018.244	-1760
1018.315	-1068
1018.385	-314
1018.456	-433
1018.526	-1481
1018.597	-921
1018.667	-1606
1018.738	-1301
1018.808	-1104
1018.878	-212
1018.949	-2047
1019.019	-476
1019.089	-627
1019.160	-858
1019.230	-1511
1019.300	-28
1019.371	-1419
1019.441	-393
1019.511	-1850
1019.581	-1160
1019.651	-1249
1019.721	-373
1019.791	-1456
1019.861	106
1019.931	-2053
1020.001	-943
1020.071	-764
1020.141	-1305
1020.211	-2006
1020.281	-972
1020.351	-770
1020.421	-658
1020.491	-1085
1020.560	-1424
1020.630	-984
1020.700	-1155
1020.770	-1642
1020.839	-1051
1020.909	-1336
1020.979	-2048
1021.048	-1053
1021.118	-929
1021.187	-1631
1021.257	-95
1021.326	-521
1021.396	-869
1021.465	-1327
1021.535	-1071
1021.604	-2095
1021.674	-692
1021.743	-622
1021.812	-1402
1021.882	-820
1021.951	-832
1022.020	-776
1022.089	-864
1022.159	-1697
1022.228	-682
1022.297	-1567
1022.366	-1163
1022.435	-1076
1022.504	-1132
1022.573	-1865
1022.642	87
1022.711	-1752
1022.781	-156
1022.849	-663
1022.918	-872
1022.987	-1333
1023.056	-702
1023.125	-1899
1023.194	-1165
1023.263	-1560
1023.331	113
1023.400	-1631
1023.469	-1068
1023.538	-527
1023.606	-1564
1023.675	-802
1023.744	-890
1023.812	-1702
1023.881	-1202
1023.949	-837
1024.018	-407
1024.086	-1787
1024.155	-311
1024.223	-1301
1024.292	-729
1024.360	-1679
1024.429	-1514
1024.497	-1084
1024.565	-471
1024.634	-1954
1024.702	-258
1024.770	-1319
1024.838	-1636
1024.907	-737
1024.975	-1466
1025.043	-1967
1025.111	-553
1025.179	-1209
1025.247	-447
1025.315	-1401
1025.383	-456
1025.451	-772
1025.519	-821
1025.587	-812
1025.655	-910
1025.723	-1571
1025.791	-482
1025.859	-1385
1025.927	-621
1025.995	-1354
1026.062	-1214
1026.130	-641
1026.198	-692
1026.266	-1677
1026.333	-1060
1026.401	-912
1026.469	-357
1026.536	-1200
1026.604	-1646
1026.671	-982
1026.739	-838
1026.806	-943
1026.874	-1543
1026.941	-1276
1027.009	-1126
1027.076	-1337
1027.144	-612
1027.211	-1713
1027.278	-970
1027.345	-1316
1027.413	-982
1027.480	-1339
1027.547	-527
1027.614	-1265
1027.682	-862
1027.749	-1190
1027.816	-901
1027.883	-1633
1027.950	-744
1028.017	-1463
1028.084	-698
1028.151	-1338
1028.218	-352
1028.285	-1430
1028.352	-1175
1028.419	-1581
1028.486	-1073
1028.553	-1985
1028.619	-912
1028.686	-1562
1028.753	-727
1028.820	-1301
1028.886	-681
1028.953	-1354
1029.020	-1025
1029.086	-1402
1029.153	-753
1029.220	-1622
1029.286	-968
1029.353	-1058
1029.419	-1588
1029.486	-889
1029.552	-1069
1029.619	-2013
1029.685	-1189
1029.751	-1053
1029.818	9
1029.884	-1714
1029.951	859
1030.017	-1339
1030.083	-875
1030.149	-664
1030.216	-1744
1030.282	-868
1030.348	-341
1030.414	-1794
1030.480	-696
1030.546	-1852
1030.612	-231
1030.678	-1972
1030.744	-1244
1030.810	-1434
1030.876	-550
1030.942	-2034
1031.008	-941
1031.074	-1500
1031.140	-1142
1031.206	-1085
1031.272	-802
1031.337	-1272
1031.403	-784
1031.469	-839
1031.534	-1423
1031.600	-980
1031.666	-1429
1031.731	-2238
1031.797	-949
1031.863	-1725
1031.928	-1112
1031.994	-1312
1032.059	-821
1032.125	-1467
1032.190	-1438
1032.256	-1154
1032.321	-1728
1032.386	-1247
1032.452	-879
1032.517	-439
1032.582	-592
1032.647	-1369
1032.713	-1258
1032.778	-1487
1032.843	-559
1032.908	-1496
1032.974	-453
1033.039	-1681
1033.104	-224
1033.169	-2274
1033.234	-903
1033.299	-1017
1033.364	-698
1033.429	-2008
1033.494	-584
1033.559	-846
1033.624	-640
1033.688	-454
1033.753	-569
1033.818	-946
1033.883	-841
1033.948	-830
1034.013	-227
1034.077	-289
1034.142	1579
1034.207	-240
1034.271	1384
1034.336	2331
1034.400	1704
1034.465	-279
1034.530	-1108
1034.594	-932
1034.658	-972
1034.723	-1502
1034.787	-496
1034.852	-1490
1034.916	-659
1034.981	-1355
1035.045	-1522
1035.109	-1785
1035.173	-1243
1035.238	-2169
1035.302	-1305
1035.366	-1948
1035.430	-305
1035.495	-1033
1035.559	-689
1035.623	-522
1035.687	-1197
1035.751	-987
1035.815	-332
1035.879	-918
1035.943	-1029
1036.007	-1659
1036.071	-521
1036.135	-1321
1036.198	-552
1036.262	-1259
1036.326	-1205
1036.390	-1568
1036.454	-498
1036.517	-759
1036.581	-1180
1036.645	-1220
1036.709	-528
1036.772	-1152
1036.836	-1062
1036.900	-1397
1036.963	-1013
1037.026	-1602
1037.090	-1800
1037.154	-1659
1037.217	246
1037.280	-1998
1037.344	-762
1037.407	-1598
1037.471	-881
1037.534	-1749
1037.597	-909
1037.661	-1539
1037.724	-1334
1037.787	-1655
1037.850	-657
1037.913	-1243
1037.977	-130
1038.040	-1395
1038.103	-1913
1038.166	-279
1038.229	-418
1038.292	-2188
1038.355	-1635
1038.418	-865
1038.481	-139
1038.544	-1115
1038.607	-622
1038.670	-1597
1038.732	-945
1038.795	-1087
1038.858	-839
1038.921	-614
1038.984	-1217
1039.046	-1131
1039.109	-1107
1039.172	-1365
1039.234	-760
1039.297	-2182
1039.360	-643
1039.422	-1243
1039.485	-798
1039.547	-1978
1039.610	-1371
1039.672	-1494
1039.734	-1332
1039.797	-726
1039.859	-1129
1039.922	-1269
1039.984	-1245
1040.046	-1755
1040.109	-1308
1040.171	-1766
1040.233	-1058
1040.295	-2126
1040.358	-1568
1040.420	-1643
1040.482	-935
1040.544	-1543
1040.606	-745
1040.668	-1768
1040.730	-1176
1040.792	-1054
1040.854	-1004
1040.916	-2284
1040.978	-954
1041.040	-1101
1041.102	-1268
1041.164	-1542
1041.225	-791
1041.287	-1828
1041.349	-1135
1041.411	-1895
1041.472	-1417
1041.534	-2004
1041.596	-1321
1041.657	-1121
1041.719	-858
1041.781	-1586
1041.842	-1433
1041.904	-1162
1041.965	-1152
1042.027	-2192
1042.088	-1429
1042.150	-1358
1042.211	-1040
1042.272	-1039
1042.334	-1890
1042.395	-2268
1042.456	-1160
1042.518	-2229
1042.579	-308
1042.640	-1783
1042.701	-1063
1042.763	-1587
1042.824	-1457
1042.885	-2400
1042.946	-562
1043.007	-2327
1043.068	-1300
1043.129	-1094
1043.190	-974
1043.251	-1303
1043.312	-1366
1043.373	-1472
1043.434	-1167
1043.495	-1757
1043.556	-800
1043.616	-1525
1043.677	-1528
1043.738	-1047
1043.799	-883
1043.859	-1678
1043.920	-728
1043.981	-1976
1044.041	-78
1044.102	-1322
1044.162	-1264
1044.223	-2000
1044.284	-1229
1044.344	-529
1044.405	-976
1044.465	-1199
1044.525	-967
1044.586	-1370
1044.646	-506
1044.707	-1443
1044.767	-680
1044.827	-2206
1044.887	-1198
1044.948	-863
1045.008	-83
1045.068	-962
1045.128	-238
1045.188	-1171
1045.249	-253
1045.309	-1404
1045.369	-1450
1045.429	-1949
1045.489	-1196
1045.549	-763
1045.609	-395
1045.669	-982
1045.729	-2002
1045.789	-1749
1045.848	-894
1045.908	-1449
1045.968	-551
1046.028	-1755
1046.088	-370
1046.147	-1119
1046.207	-385
1046.267	-1764
1046.326	-1299
1046.386	-1651
1046.446	-215
1046.505	-1163
1046.565	-29
1046.624	-495
1046.684	9
1046.743	-571
1046.803	-244
1046.862	-36
1046.922	0
