'Start Wavelength	183.907
'End Wavelength	1046.922
'Gate Delay	5.000
'Gate Width (ms)	1.050
'Laser Output Level	0.000
'X Position	0.000
'Y Position	0.000
'Z Position	0.000
'Grid Point Number	1.000
'Shot Number	100.000
183.907	312.000
183.977	256.000
184.047	122
184.116	336
184.186	358
184.256	-71
184.325	-479
184.395	-355
184.465	729
184.534	-75
184.604	-737
184.674	65
184.743	231
184.813	293
184.883	646
184.952	141
185.022	-656
185.092	-528
185.161	-33
185.231	30
185.301	467
185.370	372
185.440	-93
185.509	-105
185.579	-8
185.649	289
185.718	-15
185.788	372
185.857	-508
185.927	-12
185.996	303
186.066	137
186.136	-423
186.205	89
186.275	213
186.344	-553
186.414	448
186.483	-249
186.553	638
186.622	45
186.692	-81
186.761	77
186.831	-50
186.900	248
186.970	-264
187.039	241
187.109	513
187.178	-175
187.248	637
187.317	195
187.387	-184
187.456	340
187.526	294
187.595	84
187.664	-478
187.734	-419
187.803	-493
187.873	847
187.942	-46
188.012	91
188.081	-324
188.150	42
188.220	-69
188.289	378
188.358	-352
188.428	654
188.497	-138
188.567	94
188.636	266
188.705	-112
188.775	181
188.844	-187
188.913	1094
188.983	-696
189.052	-218
189.121	-113
189.191	-509
189.260	346
189.329	264
189.399	2
189.468	216
189.537	55
189.606	192
189.676	375
189.745	-471
189.814	559
189.883	595
189.953	-258
190.022	-477
190.091	437
190.161	579
190.230	105
190.299	-708
190.368	132
190.437	-279
190.507	-280
190.576	304
190.645	-136
190.714	-250
190.783	-1
190.853	488
190.922	778
190.991	-227
191.060	-2
191.129	-395
191.198	434
191.268	-213
191.337	-14
191.406	885
191.475	-172
191.544	-267
191.613	-217
191.682	-120
191.752	-299
191.821	-122
191.890	-410
191.959	53
192.028	-31
192.097	853
192.166	392
192.235	-785
192.304	942
192.373	-139
192.442	-135
192.511	3
192.580	283
192.650	536
192.719	-494
192.788	944
192.857	108
192.926	294
192.995	558
193.064	-842
193.133	451
193.202	129
193.271	473
193.340	390
193.409	509
193.478	641
193.547	466
193.615	1004
193.684	478
193.753	533
193.822	474
193.891	-622
193.960	125
194.029	-186
194.098	743
194.167	-140
194.236	458
194.305	-28
194.374	-435
194.443	-67
194.512	423
194.580	509
194.649	-284
194.718	-190
194.787	-242
194.856	-418
194.925	373
194.994	-903
195.062	-15
195.131	160
195.200	388
195.269	-378
195.338	725
195.407	-485
195.475	31
195.544	47
195.613	-132
195.682	192
195.751	477
195.819	-186
195.888	-408
195.957	770
196.026	280
196.094	-219
196.163	324
196.232	290
196.301	-126
196.369	847
196.438	-458
196.507	-84
196.576	-600
196.644	-614
196.713	-318
196.782	-304
196.850	116
196.919	520
196.988	402
197.056	19
197.125	-288
197.194	-56
197.262	-495
197.331	-663
197.400	-413
197.468	22
197.537	-447
197.606	-12
197.674	215
197.743	749
197.812	172
197.880	504
197.949	501
198.017	499
198.086	-310
198.155	-85
198.223	491
198.292	417
198.360	673
198.429	-97
198.497	163
198.566	234
198.635	1441
198.703	769
198.772	1069
198.840	-130
198.909	774
198.977	596
199.046	727
199.114	412
199.183	198
199.251	-11
199.320	599
199.388	-816
199.457	-85
199.525	120
199.594	349
199.662	373
199.731	-399
199.799	-222
199.867	91
199.936	-483
200.004	-351
200.073	424
200.141	-287
200.210	-187
200.278	106
200.346	2
200.415	322
200.483	-122
200.552	400
200.620	-55
200.688	385
200.757	-583
200.825	238
200.893	259
200.962	-103
201.030	-474
201.098	252
201.167	863
201.235	480
201.303	-206
201.372	-131
201.440	389
201.508	-388
201.577	-148
201.645	69
201.713	-91
201.781	-265
201.850	182
201.918	650
201.986	249
202.055	775
202.123	458
202.191	-268
202.259	138
202.327	428
202.396	-255
202.464	177
202.532	-85
202.600	1640
202.669	501
202.737	467
202.805	153
202.873	-243
202.941	918
203.009	133
203.078	92
203.146	179
203.214	454
203.282	-418
203.350	70
203.418	254
203.487	329
203.555	636
203.623	9
203.691	374
203.759	384
203.827	-667
203.895	166
203.963	140
204.031	-136
204.099	532
204.168	-159
204.236	1233
204.304	38
204.372	-305
204.440	48
204.508	581
204.576	-110
204.644	-126
204.712	-308
204.780	185
204.848	-918
204.916	-3
204.984	176
205.052	191
205.120	-170
205.188	434
205.256	533
205.324	-231
205.392	-559
205.460	621
205.528	-570
205.596	911
205.664	-240
205.732	-176
205.799	1455
205.867	1553
205.935	350
206.003	476
206.071	-998
206.139	359
206.207	428
206.275	-224
206.343	-61
206.411	310
206.478	-94
206.546	680
206.614	298
206.682	153
206.750	-1
206.818	734
206.885	704
206.953	-717
207.021	1414
207.089	939
207.157	12
207.225	775
207.292	803
207.360	-384
207.428	-515
207.496	512
207.563	-34
207.631	824
207.699	-153
207.767	-7
207.834	-249
207.902	589
207.970	215
208.038	932
208.105	-103
208.173	-72
208.241	-54
208.309	897
208.376	168
208.444	479
208.512	269
208.579	-382
208.647	-64
208.715	688
208.782	95
208.850	-675
208.918	255
208.985	504
209.053	277
209.120	128
209.188	-430
209.256	410
209.323	-590
209.391	559
209.459	197
209.526	660
209.594	923
209.661	370
209.729	551
209.796	-177
209.864	219
209.932	-1272
209.999	1211
210.067	843
210.134	362
210.202	560
210.269	300
210.337	-132
210.404	1280
210.472	-472
210.539	241
210.607	828
210.674	261
210.742	98
210.809	-23
210.877	402
210.944	714
211.012	127
211.079	1577
211.146	18
211.214	570
211.281	289
211.349	-468
211.416	402
211.484	421
211.551	-217
211.618	73
211.686	468
211.753	362
211.821	537
211.888	379
211.955	509
212.023	-2
212.090	1129
212.157	634
212.225	862
212.292	756
212.359	1466
212.427	3889
212.494	1733
212.561	1272
212.629	1025
212.696	248
212.763	1403
212.831	-545
212.898	163
212.965	-129
213.032	584
213.100	578
213.167	628
213.234	750
213.301	299
213.369	-48
213.436	596
213.503	788
213.570	871
213.638	1222
213.705	139
213.772	-374
213.839	-91
213.906	278
213.973	872
214.041	173
214.108	291
214.175	630
214.242	488
214.309	605
214.376	1082
214.444	143
214.511	556
214.578	236
214.645	1224
214.712	1393
214.779	794
214.846	205
214.913	877
214.980	666
215.048	1150
215.115	1205
215.182	1034
215.249	930
215.316	560
215.383	790
215.450	313
215.517	25
215.584	582
215.651	113
215.718	564
215.785	689
215.852	341
215.919	1370
215.986	928
216.053	497
216.120	338
216.187	564
216.254	691
216.321	-178
216.388	371
216.455	541
216.522	1072
216.589	427
216.656	1303
216.722	1279
216.789	1660
216.856	1265
216.923	1040
216.990	1822
217.057	1131
217.124	1255
217.191	288
217.258	1444
217.324	1117
217.391	2691
217.458	2048
217.525	1991
217.592	1301
217.659	243
217.725	1315
217.792	759
217.859	1426
217.926	95
217.993	-299
218.059	667
218.126	355
218.193	502
218.260	210
218.327	-141
218.393	68
218.460	61
218.527	631
218.594	316
218.660	319
218.727	750
218.794	-477
218.860	1254
218.927	131
218.994	327
219.061	449
219.127	974
219.194	819
219.261	773
219.327	462
219.394	299
219.461	-559
219.527	482
219.594	487
219.661	296
219.727	-28
219.794	207
219.860	-407
219.927	770
219.994	1237
220.060	1559
220.127	149
220.193	1222
220.260	192
220.326	2126
220.393	2524
220.460	3193
220.526	1390
220.593	952
220.659	2673
220.726	513
220.792	2381
220.859	2695
220.925	3727
220.992	5621
221.058	5509
221.125	3262
221.191	2449
221.258	945
221.324	1720
221.391	979
221.457	397
221.524	941
221.590	1080
221.657	2354
221.723	1666
221.789	1332
221.856	2357
221.922	446
221.989	469
222.055	305
222.121	-181
222.188	1248
222.254	316
222.321	1003
222.387	477
222.453	123
222.520	85
222.586	-456
222.652	271
222.719	-9
222.785	793
222.851	-465
222.918	-35
222.984	-152
223.050	-342
223.116	-948
223.183	1296
223.249	-291
223.315	186
223.382	589
223.448	426
223.514	123
223.580	478
223.647	-30
223.713	378
223.779	155
223.845	496
223.911	862
223.978	-781
224.044	8
224.110	97
224.176	-373
224.242	342
224.309	-431
224.375	859
224.441	626
224.507	478
224.573	-184
224.639	229
224.705	-418
224.772	-87
224.838	-644
224.904	-996
224.970	346
225.036	34
225.102	-1203
225.168	456
225.234	-62
225.300	-431
225.366	127
225.432	1145
225.499	-175
225.565	50
225.631	263
225.697	-337
225.763	587
225.829	1307
225.895	589
225.961	320
226.027	-30
226.093	-282
226.159	1511
226.225	1686
226.291	4524
226.357	7021
226.423	3804
226.489	2141
226.554	1112
226.620	1655
226.686	641
226.752	1911
226.818	3244
226.884	8674
226.950	8815
227.016	3162
227.082	1621
227.148	985
227.214	676
227.279	815
227.345	587
227.411	1048
227.477	56
227.543	974
227.609	846
227.674	385
227.740	119
227.806	1153
227.872	1041
227.938	42
228.003	432
228.069	560
228.135	-373
228.201	52
228.267	-384
228.332	18
228.398	237
228.464	697
228.530	-36
228.595	1129
228.661	-319
228.727	-21
228.792	873
228.858	-503
228.924	-1010
228.990	718
229.055	-387
229.121	376
229.187	-384
229.252	-188
229.318	-165
229.384	454
229.449	-148
229.515	-1062
229.581	-1008
229.646	1469
229.712	439
229.777	226
229.843	462
229.909	930
229.974	883
230.040	49
230.105	829
230.171	-216
230.236	383
230.302	899
230.368	114
230.433	-432
230.499	993
230.564	1777
230.630	-865
230.695	548
230.761	662
230.826	-645
230.892	775
230.957	-612
231.023	-295
231.088	-308
231.154	346
231.219	333
231.284	-244
231.350	216
231.415	-164
231.481	698
231.546	202
231.612	66
231.677	-167
231.742	63
231.808	687
231.873	300
231.939	-1297
232.004	1052
232.069	1002
232.135	-512
232.200	-446
232.265	355
232.331	-408
232.396	577
232.461	-949
232.527	46
232.592	-733
232.657	3
232.723	129
232.788	-745
232.853	162
232.918	173
232.984	-529
233.049	-245
233.114	-628
233.179	914
233.245	1396
233.310	504
233.375	-127
233.440	200
233.506	453
233.571	-118
233.636	271
233.701	572
233.766	143
233.832	902
233.897	-147
233.962	-845
234.027	153
234.092	531
234.157	526
234.222	25
234.288	664
234.353	1177
234.418	1359
234.483	966
234.548	426
234.613	8
234.678	794
234.743	19
234.808	1878
234.873	441
234.938	1376
235.004	274
235.069	280
235.134	164
235.199	454
235.264	152
235.329	-914
235.394	9
235.459	942
235.524	-125
235.589	598
235.654	485
235.719	-592
235.784	162
235.849	93
235.913	315
235.978	824
236.043	898
236.108	693
236.173	242
236.238	821
236.303	666
236.368	44
236.433	901
236.498	770
236.563	1205
236.627	2301
236.692	11289
236.757	8883
236.822	3248
236.887	1931
236.952	1872
237.017	624
237.081	1590
237.146	1624
237.211	4911
237.276	10535
237.341	17430
237.405	7149
237.470	2956
237.535	1637
237.600	977
237.664	796
237.729	338
237.794	477
237.859	4407
237.923	1311
237.988	620
238.053	1161
238.118	414
238.182	2783
238.247	3442
238.312	535
238.376	1548
238.441	-823
238.506	1694
238.570	-629
238.635	1382
238.700	558
238.764	19
238.829	393
238.893	884
238.958	894
239.023	579
239.087	-3
239.152	212
239.216	-121
239.281	564
239.346	-76
239.410	-18
239.475	-15
239.539	2716
239.604	818
239.668	1924
239.733	122
239.797	72
239.862	1566
239.926	1812
239.991	736
240.055	230
240.120	55
240.184	717
240.249	-150
240.313	563
240.378	124
240.442	1091
240.507	2032
240.571	717
240.635	117
240.700	1330
240.764	-551
240.829	298
240.893	-812
240.957	533
241.022	1083
241.086	1562
241.151	-231
241.215	-1051
241.279	1837
241.344	583
241.408	623
241.472	-647
241.537	700
241.601	242
241.665	-535
241.730	-321
241.794	696
241.858	590
241.922	42
241.987	332
242.051	-809
242.115	-851
242.179	1165
242.244	-534
242.308	491
242.372	-265
242.436	432
242.501	-9
242.565	-783
242.629	-365
242.693	1138
242.757	43
242.822	-373
242.886	957
242.950	792
243.014	-668
243.078	1143
243.142	334
243.206	-189
243.271	526
243.335	-358
243.399	1259
243.463	3414
243.527	13340
243.591	4428
243.655	2372
243.719	109
243.783	1501
243.847	1077
243.911	2041
243.975	995
244.040	238
244.104	1738
244.168	121
244.232	13
244.296	942
244.360	1544
244.424	-194
244.488	603
244.552	349
244.615	-660
244.679	-128
244.743	11
244.807	-219
244.871	483
244.935	721
244.999	-1014
245.063	321
245.127	980
245.191	1562
245.255	244
245.319	65
245.383	-773
245.446	1776
245.510	-542
245.574	-165
245.638	1066
245.702	-323
245.766	2140
245.829	1412
245.893	-308
245.957	34
246.021	859
246.085	402
246.149	-19
246.212	2496
246.276	3692
246.340	547
246.404	664
246.467	777
246.531	-614
246.595	1293
246.659	1358
246.722	266
246.786	632
246.850	621
246.913	730
246.977	-133
247.041	225
247.104	388
247.168	562
247.232	1381
247.295	4474
247.359	2351
247.423	426
247.486	1065
247.550	924
247.614	570
247.677	1029
247.741	913
247.804	-293
247.868	640
247.932	608
247.995	3758
248.059	1300
248.122	-671
248.186	1834
248.249	714
248.313	7145
248.376	8196
248.440	4303
248.503	889
248.567	2246
248.630	-49
248.694	2575
248.757	3250
248.821	7840
248.884	4426
248.948	3186
249.011	5519
249.075	9917
249.138	7728
249.202	3052
249.265	1968
249.328	2356
249.392	642
249.455	1237
249.519	1654
249.582	-79
249.645	2223
249.709	2021
249.772	817
249.835	474
249.899	703
249.962	1253
250.025	207
250.089	2861
250.152	4381
250.215	776
250.279	1064
250.342	1349
250.405	1530
250.468	666
250.532	295
250.595	3288
250.658	10728
250.721	22103
250.785	6287
250.848	4250
250.911	1827
250.974	1754
251.038	1949
251.101	4678
251.164	2427
251.227	2160
251.290	2501
251.354	3345
251.417	17240
251.480	17621
251.543	11361
251.606	33276
251.669	24422
251.732	7567
251.795	6293
251.859	7593
251.922	20323
251.985	11179
252.048	3993
252.111	2991
252.174	1226
252.237	3761
252.300	10311
252.363	9926
252.426	27372
252.489	9532
252.552	4218
252.615	1928
252.678	2968
252.741	8023
252.804	10183
252.867	26847
252.930	14179
252.993	6313
253.056	3674
253.119	2667
253.182	1134
253.245	3344
253.308	2347
253.371	1129
253.434	979
253.497	2085
253.559	5222
253.622	2691
253.685	2615
253.748	2417
253.811	550
253.874	1852
253.937	635
254.000	1099
254.062	1617
254.125	3968
254.188	4416
254.251	2014
254.314	971
254.376	1467
254.439	2470
254.502	2341
254.565	2318
254.628	5167
254.690	1667
254.753	864
254.816	-84
254.878	103
254.941	2514
255.004	2465
255.067	1719
255.129	72
255.192	796
255.255	-162
255.317	967
255.380	530
255.443	-356
255.505	272
255.568	-470
255.631	130
255.693	350
255.756	-156
255.819	807
255.881	-667
255.944	912
256.006	172
256.069	175
256.132	-105
256.194	576
256.257	2025
256.319	1415
256.382	-156
256.444	1855
256.507	451
256.569	974
256.632	666
256.694	1658
256.757	6037
256.819	19219
256.882	5972
256.944	2355
257.007	2351
257.069	1169
257.132	917
257.194	1556
257.257	148
257.319	145
257.381	470
257.444	4323
257.506	20436
257.569	22243
257.631	5921
257.693	3733
257.756	1437
257.818	2045
257.880	959
257.943	1151
258.005	476
258.067	236
258.130	-132
258.192	188
258.254	1033
258.317	767
258.379	687
258.441	1524
258.503	2621
258.566	1488
258.628	3936
258.690	7
258.753	1415
258.815	1072
258.877	-172
258.939	322
259.001	1579
259.064	304
259.126	-279
259.188	-339
259.250	121
259.312	-45
259.375	1018
259.437	722
259.499	726
259.561	505
259.623	24
259.685	402
259.747	-402
259.809	2168
259.872	4941
259.934	7382
259.996	7953
260.058	2103
260.120	312
260.182	1037
260.244	1014
260.306	-18
260.368	332
260.430	363
260.492	1198
260.554	2549
260.616	64
260.678	3789
260.740	5200
260.802	1160
260.864	982
260.926	-626
260.988	997
261.050	539
261.112	1686
261.174	5897
261.236	4448
261.298	1295
261.359	1584
261.421	3311
261.483	-607
261.545	1749
261.607	-706
261.669	571
261.731	262
261.793	3066
261.854	205
261.916	670
261.978	252
262.040	44
262.102	158
262.164	129
262.225	-416
262.287	53
262.349	626
262.411	1542
262.472	935
262.534	17
262.596	1350
262.658	998
262.719	-354
262.781	868
262.843	593
262.904	1742
262.966	182
263.028	1033
263.090	5576
263.151	18241
263.213	6023
263.275	2085
263.336	563
263.398	90
263.459	-231
263.521	204
263.583	1647
263.644	1140
263.706	374
263.767	-253
263.829	451
263.891	-314
263.952	-167
264.014	366
264.075	190
264.137	3063
264.198	1282
264.260	3
264.321	-317
264.383	761
264.444	5005
264.506	480
264.567	417
264.629	2188
264.690	2225
264.752	1024
264.813	367
264.875	-136
264.936	1460
264.998	548
265.059	157
265.120	523
265.182	662
265.243	9339
265.305	10601
265.366	1698
265.427	985
265.489	539
265.550	-723
265.611	-272
265.673	-159
265.734	474
265.795	507
265.857	-258
265.918	-57
265.979	1904
266.040	15982
266.102	13936
266.163	2800
266.224	1514
266.286	955
266.347	-394
266.408	138
266.469	-354
266.530	147
266.592	-727
266.653	1065
266.714	1169
266.775	1137
266.836	139
266.898	-756
266.959	-212
267.020	1023
267.081	484
267.142	-242
267.203	122
267.264	-342
267.326	560
267.387	-575
267.448	-550
267.509	-33
267.570	543
267.631	-336
267.692	-655
267.753	-383
267.814	-452
267.875	256
267.936	2314
267.997	772
268.058	197
268.119	-485
268.180	-311
268.241	-922
268.302	-134
268.363	-651
268.424	-257
268.485	-155
268.546	-172
268.607	-519
268.668	-105
268.729	-614
268.790	-429
268.851	-150
268.912	1595
268.972	967
269.033	271
269.094	-571
269.155	263
269.216	-554
269.277	690
269.338	-247
269.398	-304
269.459	-300
269.520	392
269.581	212
269.642	772
269.702	-97
269.763	134
269.824	-780
269.885	182
269.945	891
270.006	717
270.067	-679
270.128	-271
270.188	-238
270.249	-678
270.310	-505
270.370	430
270.431	209
270.492	-1009
270.553	-358
270.613	126
270.674	1037
270.734	867
270.795	-19
270.856	16
270.916	-783
270.977	-197
271.038	1152
271.098	489
271.159	351
271.219	198
271.280	-586
271.340	-118
271.401	-598
271.462	583
271.522	-54
271.583	550
271.643	-227
271.704	-191
271.764	-266
271.825	1131
271.885	5899
271.946	9478
272.006	2515
272.066	3150
272.127	8280
272.187	1792
272.248	439
272.308	1417
272.369	5655
272.429	2563
272.489	1217
272.550	1147
272.610	1734
272.671	370
272.731	443
272.791	1070
272.852	33
272.912	1151
272.972	-361
273.033	172
273.093	-111
273.153	969
273.214	965
273.274	115
273.334	3609
273.394	8640
273.455	2677
273.515	2936
273.575	5984
273.635	2372
273.696	2734
273.756	7381
273.816	2167
273.876	1455
273.936	2068
273.997	4078
274.057	535
274.117	-95
274.177	1200
274.237	8621
274.297	8624
274.358	3858
274.418	5557
274.478	3685
274.538	1292
274.598	-131
274.658	1895
274.718	3524
274.778	1235
274.838	346
274.898	1811
274.958	5154
275.018	6881
275.078	4448
275.138	956
275.198	330
275.258	314
275.318	398
275.378	969
275.438	1818
275.498	1113
275.558	1131
275.618	6706
275.678	4843
275.738	2051
275.798	2024
275.858	25
275.918	-341
275.978	231
276.038	-149
276.098	-451
276.157	830
276.217	3938
276.277	1132
276.337	-48
276.397	-586
276.457	-155
276.517	-72
276.576	107
276.636	-535
276.696	244
276.756	1661
276.815	1040
276.875	405
276.935	785
276.995	489
277.055	-717
277.114	-23
277.174	147
277.234	2659
277.293	450
277.353	21
277.413	1067
277.472	-292
277.532	152
277.592	692
277.651	4333
277.711	11225
277.771	1954
277.830	10451
277.890	8974
277.950	5169
278.009	21449
278.069	8407
278.128	5474
278.188	10644
278.248	3209
278.307	9574
278.367	6747
278.426	1427
278.486	567
278.545	-91
278.605	-24
278.664	341
278.724	433
278.783	2581
278.843	8826
278.902	2300
278.962	194
279.021	872
279.081	1641
279.140	1201
279.199	240
279.259	1022
279.318	1451
279.378	1544
279.437	2790
279.496	11140
279.556	46039
279.615	43041
279.675	8456
279.734	3949
279.793	3958
279.853	7787
279.912	2410
279.971	2053
280.031	1727
280.090	2850
280.149	4392
280.208	5048
280.268	31316
280.327	38011
280.386	7202
280.445	3662
280.505	2781
280.564	1164
280.623	321
280.682	1157
280.742	3239
280.801	358
280.860	-6
280.919	-160
280.978	227
281.037	-81
281.097	-1044
281.156	188
281.215	366
281.274	-594
281.333	3835
281.392	3985
281.451	472
281.510	576
281.569	-849
281.628	16
281.688	-253
281.747	535
281.806	-79
281.865	631
281.924	-336
281.983	-709
282.042	-166
282.101	-810
282.160	94
282.219	44
282.278	104
282.337	1236
282.396	971
282.454	236
282.513	-246
282.572	2713
282.631	1318
282.690	188
282.749	-993
282.808	264
282.867	-149
282.926	341
282.985	-692
283.043	41
283.102	664
283.161	255
283.220	324
283.279	4717
283.338	710
283.396	169
283.455	662
283.514	-185
283.573	955
283.631	939
283.690	84
283.749	165
283.808	595
283.866	1327
283.925	267
283.984	953
284.043	-111
284.101	537
284.160	376
284.219	423
284.277	881
284.336	819
284.395	4350
284.453	3592
284.512	1264
284.570	1306
284.629	2206
284.688	1472
284.746	1264
284.805	2058
284.863	4109
284.922	3796
284.981	6242
285.039	7623
285.098	13443
285.156	33396
285.215	75503
285.273	77691
285.332	40499
285.390	20475
285.449	10968
285.507	7687
285.566	4641
285.624	3886
285.683	2846
285.741	1410
285.799	1958
285.858	1689
285.916	1243
285.975	667
286.033	745
286.091	209
286.150	-160
286.208	35
286.267	981
286.325	457
286.383	1250
286.442	705
286.500	-271
286.558	67
286.616	-106
286.675	1299
286.733	144
286.791	91
286.850	-843
286.908	285
286.966	896
287.024	-6
287.083	57
287.141	-32
287.199	256
287.257	196
287.315	465
287.374	-315
287.432	1544
287.490	753
287.548	-387
287.606	170
287.664	64
287.723	237
287.781	677
287.839	-480
287.897	838
287.955	1471
288.013	1730
288.071	4420
288.129	22827
288.187	79796
288.245	34350
288.303	8994
288.361	3987
288.419	2887
288.477	1583
288.535	1806
288.593	248
288.651	474
288.709	-1147
288.767	-565
288.825	105
288.883	307
288.941	254
288.999	-135
289.057	-916
289.115	223
289.173	-268
289.231	-153
289.289	-553
289.346	-753
289.404	-937
289.462	291
289.520	-649
289.578	-344
289.636	-694
289.694	-268
289.751	-318
289.809	-528
289.867	-90
289.925	-150
289.983	20
290.040	-736
290.098	-1160
290.156	-947
290.214	-724
290.271	-605
290.329	-848
290.387	-1056
290.444	-384
290.502	-618
290.560	-733
290.617	-318
290.675	145
290.733	-983
290.790	-771
290.848	42
290.906	-550
290.963	-332
291.021	-661
291.078	363
291.136	-423
291.194	887
291.251	4823
291.309	491
291.366	-679
291.424	-268
291.481	-827
291.539	-968
291.596	-210
291.654	-1109
291.711	-354
291.769	-241
291.826	-120
291.884	401
291.941	-1170
291.999	-559
292.056	-494
292.114	-1046
292.171	-702
292.228	-982
292.286	-246
292.343	520
292.401	-18
292.458	317
292.515	-423
292.573	-253
292.630	-799
292.687	-374
292.745	-317
292.802	-304
292.859	1459
292.917	4885
292.974	1907
293.031	714
293.089	-274
293.146	-452
293.203	-512
293.260	-476
293.318	-618
293.375	667
293.432	-940
293.489	-21
293.546	-293
293.604	-227
293.661	2207
293.718	10494
293.775	4032
293.832	1190
293.889	467
293.947	170
294.004	-829
294.061	-94
294.118	1568
294.175	4083
294.232	7666
294.289	2412
294.346	774
294.403	1396
294.460	-127
294.517	-413
294.574	-405
294.631	-96
294.688	729
294.745	1406
294.802	11121
294.859	12780
294.916	3665
294.973	604
295.030	86
295.087	-54
295.144	94
295.201	763
295.258	26
295.315	34
295.372	2317
295.429	8281
295.486	3095
295.542	1179
295.599	3518
295.656	9773
295.713	4170
295.770	6966
295.827	2832
295.883	1480
295.940	41
295.997	1404
296.054	126
296.111	308
296.167	378
296.224	-130
296.281	-703
296.338	158
296.394	-529
296.451	452
296.508	2045
296.564	5983
296.621	3587
296.678	8198
296.734	13232
296.791	3503
296.848	1796
296.904	953
296.961	3542
297.018	7339
297.074	6524
297.131	1989
297.187	1388
297.244	1957
297.301	8159
297.357	18558
297.414	6243
297.470	2259
297.527	-78
297.583	201
297.640	270
297.696	-914
297.753	376
297.809	-59
297.866	302
297.922	-126
297.979	-524
298.035	-351
298.092	691
298.148	3784
298.204	4134
298.261	952
298.317	3352
298.374	10994
298.430	6656
298.486	1570
298.543	681
298.599	665
298.656	321
298.712	2111
298.768	8081
298.824	5915
298.881	1198
298.937	1005
298.993	106
299.050	590
299.106	-87
299.162	-535
299.218	-302
299.275	-190
299.331	-206
299.387	787
299.443	8794
299.500	10824
299.556	3087
299.612	449
299.668	541
299.724	689
299.780	680
299.837	1242
299.893	494
299.949	5741
300.005	8011
300.061	6179
300.117	14404
300.173	7477
300.229	1562
300.285	1131
300.341	2411
300.397	944
300.453	215
300.510	238
300.566	-248
300.622	434
300.678	2025
300.734	5493
300.790	6509
300.845	9530
300.901	5108
300.957	5911
301.013	5022
301.069	1490
301.125	584
301.181	1630
301.237	412
301.293	-170
301.349	584
301.405	-223
301.461	-262
301.516	602
301.572	131
301.628	725
301.684	385
301.740	1704
301.796	4557
301.851	2744
301.907	3486
301.963	4302
302.019	7566
302.074	27556
302.130	29518
302.186	12383
302.242	5049
302.297	2275
302.353	1626
302.409	3835
302.464	4553
302.520	2307
302.576	7951
302.631	11466
302.687	5651
302.743	1895
302.798	483
302.854	374
302.910	426
302.965	884
303.021	2081
303.076	1922
303.132	1491
303.187	2414
303.243	413
303.299	665
303.354	-119
303.410	988
303.465	16
303.521	-162
303.576	608
303.632	345
303.687	2093
303.743	8498
303.798	8547
303.853	3310
303.909	173
303.964	863
304.020	710
304.075	1354
304.130	1486
304.186	3500
304.241	4018
304.297	2277
304.352	1448
304.358	1351
304.407	565
304.449	508
304.463	491
304.518	951
304.539	628
304.573	100
304.629	504
304.630	516
304.684	1112
304.720	4253
304.739	5815
304.794	11353
304.811	9814
304.850	6143
304.902	2072
304.905	1811
304.960	1660
304.992	1092
305.015	631
305.071	517
305.083	439
305.126	194
305.173	340
305.181	370
305.236	555
305.264	622
305.292	710
305.347	543
305.354	580
305.402	784
305.445	587
305.457	513
305.512	1598
305.535	1229
305.567	830
305.622	1608
305.626	1655
305.678	2964
305.716	7294
305.733	8799
305.788	11049
305.807	9316
305.843	6433
305.897	8482
305.898	8501
305.953	10499
305.988	6326
306.008	4010
306.063	2276
306.078	2023
306.118	1393
306.168	469
306.173	396
306.228	560
306.259	358
306.283	227
306.338	272
306.349	317
306.393	537
306.440	1043
306.448	1115
306.503	1131
306.530	1130
306.558	1673
306.613	4090
306.620	4531
306.668	6772
306.711	7802
306.723	7761
306.778	6283
306.801	4704
306.833	3030
306.888	1613
306.892	1532
306.943	845
306.982	710
306.997	666
307.052	1057
307.072	899
307.107	890
307.162	1305
307.163	1320
307.217	3132
307.253	3810
307.272	3912
307.327	4437
307.343	3995
307.381	2860
307.434	2238
307.436	2335
307.491	5688
307.524	8375
307.546	8699
307.600	8266
307.614	7293
307.655	4560
307.704	1932
307.710	1855
307.765	2844
307.795	3963
307.819	5060
307.874	8448
307.885	8703
307.929	7504
307.975	5267
307.984	5420
308.038	8337
308.065	10283
308.093	17623
308.148	36702
308.156	41741
308.202	67740
308.246	83409
308.257	81545
308.312	45290
308.336	31072
308.366	22224
308.421	12521
308.426	11738
308.475	7434
308.517	5382
308.530	5027
308.585	4765
308.607	4621
308.639	4713
308.694	4639
308.697	4676
308.748	7678
308.787	11402
308.803	11541
308.857	9080
308.877	7942
308.912	7133
308.967	6877
308.967	6876
309.021	9792
309.058	12396
309.076	15413
309.130	25559
309.148	29966
309.185	52525
309.238	93435
309.239	93781
309.293	106394
309.328	99280
309.348	86669
309.402	44609
309.418	34059
309.457	23460
309.508	13831
309.511	13560
309.566	11761
309.598	10909
309.620	12553
309.674	19269
309.688	20929
309.729	19365
309.778	15108
309.783	14726
309.837	9777
309.868	7287
309.892	7691
309.946	9712
309.959	10455
310.001	12984
310.049	15207
310.055	14689
310.109	9052
310.139	5520
310.163	4335
310.218	2775
310.229	2479
310.272	2163
310.319	2085
310.326	2034
310.381	1716
310.409	1456
310.435	1347
310.489	1375
310.499	1353
310.543	1366
310.589	1336
310.598	1354
310.652	1709
310.679	1833
310.706	1611
310.760	878
310.769	810
310.814	950
310.859	1040
310.868	1051
310.923	1007
310.948	949
310.977	1135
311.031	1815
311.038	1866
311.085	1675
311.128	1530
311.139	1541
311.193	1536
311.218	1601
311.247	1711
311.301	1801
311.308	1797
311.356	1458
311.398	1297
311.410	1423
311.464	1838
311.488	2045
311.518	1694
311.572	991
311.578	926
311.626	1719
311.668	2328
311.680	2353
311.734	2433
311.758	2465
311.788	2284
311.842	1973
311.847	1934
311.896	3319
311.937	4526
311.950	4399
312.004	3780
312.027	3502
312.058	3026
312.112	2151
312.117	2062
312.165	1971
312.207	1892
312.297	2690
312.386	2446
312.476	2011
312.566	3690
312.656	1506
312.745	1804
312.835	1542
312.925	1773
313.015	1932
313.104	2386
313.194	1182
313.284	1515
313.374	1921
313.463	1576
313.553	1605
313.643	1272
313.732	1115
313.822	1859
313.912	1674
314.001	1943
314.091	1767
314.180	3037
314.270	2279
314.360	1981
314.449	1588
314.539	1020
314.628	2097
314.718	1437
314.808	1987
314.897	1115
314.987	1519
315.076	1356
315.166	1490
315.255	1955
315.345	1846
315.434	2312
315.524	2059
315.613	1995
315.703	2342
315.792	2142
315.881	3509
315.971	2538
316.060	2661
316.150	5927
316.239	5899
316.328	2816
316.418	1124
316.507	937
316.597	2455
316.686	1941
316.775	2056
316.865	7406
316.954	1329
317.043	819
317.133	1536
317.222	1796
317.311	1581
317.400	574
317.490	1825
317.579	1801
317.668	1473
317.757	1313
317.847	3079
317.936	6432
318.025	4590
318.114	2260
318.203	1434
318.293	3297
318.382	6120
318.471	5294
318.560	9072
318.649	22051
318.738	2842
318.828	1581
318.917	2735
319.006	2971
319.095	7661
319.184	26055
319.273	11729
319.362	4232
319.451	1200
319.540	1090
319.629	3404
319.718	5376
319.807	3293
319.896	7115
319.985	31686
320.074	8369
320.163	1703
320.252	3349
320.341	3387
320.430	3596
320.519	2376
320.608	2049
320.697	1387
320.786	865
320.875	1627
320.964	2177
321.053	2579
321.142	5104
321.230	5009
321.319	4407
321.408	10630
321.497	4671
321.586	3791
321.675	5868
321.764	6334
321.852	3925
321.941	5319
322.030	3410
322.119	4273
322.207	10099
322.296	10383
322.385	4741
322.474	3454
322.562	10892
322.651	6484
322.740	3261
322.829	4771
322.917	7868
323.006	4067
323.095	3107
323.183	3449
323.272	4450
323.361	7705
323.449	28032
323.538	8521
323.626	18734
323.715	10492
323.804	4842
323.892	17250
323.981	7814
324.069	3337
324.158	10156
324.246	8964
324.335	2730
324.424	3630
324.512	1823
324.601	2284
324.689	4353
324.778	9480
324.866	5486
324.954	1717
325.043	1574
325.131	3166
325.220	7403
325.308	8225
325.397	5267
325.485	3012
325.574	1227
325.662	1301
325.750	1145
325.839	1271
325.927	640
326.015	2362
326.104	2670
326.192	3967
326.280	901
326.369	867
326.457	931
326.545	3713
326.634	1273
326.722	786
326.810	48
326.898	1279
326.987	1782
327.075	1731
327.163	3996
327.251	1920
327.340	3409
327.428	5018
327.516	1334
327.604	483
327.692	1491
327.781	1739
327.869	2851
327.957	1790
328.045	871
328.133	1712
328.221	1049
328.309	1448
328.397	1090
328.485	1095
328.574	1556
328.662	6100
328.750	2879
328.838	1979
328.926	656
329.014	330
329.102	1315
329.190	4463
329.278	2714
329.366	531
329.454	926
329.542	983
329.630	589
329.718	354
329.806	1328
329.893	1378
329.981	880
330.069	870
330.157	1425
330.245	3028
330.333	1420
330.421	643
330.509	1366
330.597	6405
330.684	4598
330.772	2100
330.860	3572
330.948	5310
331.036	1510
331.123	540
331.211	1026
331.299	1517
331.387	3795
331.475	6590
331.562	1748
331.650	783
331.738	933
331.825	1756
331.913	228
332.001	1311
332.089	1327
332.176	2849
332.264	9260
332.352	6905
332.439	1886
332.527	830
332.614	1137
332.702	1803
332.790	1337
332.877	3349
332.965	8702
333.052	2287
333.140	2706
333.228	6554
333.315	871
333.403	1107
333.490	4797
333.578	4697
333.665	8141
333.753	2711
333.840	749
333.928	1475
334.015	5373
334.103	9658
334.190	32899
334.278	7311
334.365	2447
334.452	2345
334.540	1408
334.627	1462
334.715	2341
334.802	4871
334.889	32715
334.977	31543
335.064	3703
335.151	567
335.239	2212
335.326	2412
335.413	16821
335.501	22953
335.588	1894
335.675	1301
335.762	2460
335.850	5021
335.937	2772
336.024	8126
336.111	37310
336.199	14697
336.286	2497
336.373	829
336.460	583
336.547	740
336.635	1078
336.722	950
336.809	935
336.896	1413
336.983	7876
337.070	23797
337.157	35109
337.245	23036
337.332	15210
337.419	1478
337.506	1268
337.593	1335
337.680	7595
337.767	25966
337.854	5229
337.941	5965
338.028	6933
338.115	2026
338.202	3343
338.289	5146
338.376	21680
338.463	6696
338.550	13425
338.637	15188
338.724	3597
338.811	6198
338.898	1446
338.984	955
339.071	1388
339.158	1325
339.245	3567
339.332	3052
339.419	4082
339.506	3754
339.593	-293
339.679	117
339.766	900
339.853	1321
339.940	2717
340.027	1322
340.113	1126
340.200	1302
340.287	800
340.374	324
340.460	2265
340.547	-251
340.634	1225
340.720	6478
340.807	3042
340.894	1097
340.980	1060
341.067	34
341.154	2318
341.240	1085
341.327	2497
341.414	962
341.500	751
341.587	1398
341.674	884
341.760	1777
341.847	2786
341.933	-469
342.020	-381
342.106	564
342.193	-176
342.279	1115
342.366	955
342.452	2310
342.539	1087
342.625	1392
342.712	6715
342.798	3113
342.885	990
342.971	57
343.058	219
343.144	410
343.230	811
343.317	1031
343.403	560
343.490	974
343.576	-552
343.662	307
343.749	128
343.835	884
343.921	1698
344.008	15359
344.094	36553
344.180	7419
344.267	1679
344.353	9977
344.439	10988
344.525	3500
344.612	3781
344.698	4065
344.784	1004
344.870	917
344.957	454
345.043	1533
345.129	352
345.215	1879
345.301	604
345.387	576
345.474	-23
345.560	226
345.646	280
345.732	313
345.818	277
345.904	388
345.990	15
346.076	1554
346.162	2940
346.249	653
346.335	21
346.421	250
346.507	3016
346.593	14804
346.679	2116
346.765	869
346.851	1057
346.937	430
347.023	1125
347.108	1136
347.194	111
347.280	807
347.366	1098
347.452	3593
347.538	16654
347.624	12481
347.710	10687
347.796	1181
347.882	750
347.967	490
348.053	846
348.139	549
348.225	907
348.311	-101
348.397	711
348.482	650
348.568	1426
348.654	100
348.740	235
348.825	-675
348.911	2116
348.997	7464
349.083	16941
349.168	1825
349.254	478
349.340	771
349.425	19
349.511	-68
349.597	934
349.682	1890
349.768	9387
349.854	3556
349.939	731
350.025	842
350.110	1147
350.196	-224
350.282	-1052
350.367	-84
350.453	1303
350.538	450
350.624	401
350.709	850
350.795	50
350.880	432
350.966	1192
351.051	1024
351.137	916
351.222	381
351.308	2506
351.393	7827
351.479	1039
351.564	-136
351.649	769
351.735	373
351.820	133
351.906	-152
351.991	991
352.076	4862
352.162	7804
352.247	792
352.332	655
352.418	1297
352.503	1941
352.588	10970
352.673	8304
352.759	1146
352.844	236
352.929	69
353.014	362
353.100	-6
353.185	930
353.270	1466
353.355	2314
353.441	877
353.526	954
353.611	1461
353.696	1325
353.781	1452
353.866	-408
353.952	918
354.037	1100
354.122	3894
354.207	3373
354.292	908
354.377	193
354.462	326
354.547	-335
354.632	522
354.717	1774
354.802	582
354.887	8
354.972	213
355.057	-449
355.142	285
355.227	530
355.312	790
355.397	1640
355.482	7444
355.567	2742
355.652	2737
355.737	1563
355.822	11154
355.907	8882
355.991	1735
356.076	89
356.161	1221
356.246	107
356.331	774
356.416	759
356.501	19602
356.585	19614
356.670	1146
356.755	2560
356.840	2020
356.924	9699
357.009	43172
357.094	15517
357.179	2544
357.263	1415
357.348	1533
357.433	1568
357.517	1692
357.602	217
357.687	619
357.771	2167
357.856	10393
357.941	5573
358.025	8654
358.110	43928
358.195	19128
358.279	1940
358.364	1000
358.448	5946
358.533	20198
358.617	13426
358.702	14097
358.787	4143
358.871	1823
358.956	2195
359.040	-4
359.125	-33
359.209	683
359.294	4536
359.378	8066
359.462	2046
359.547	1526
359.631	929
359.716	393
359.800	412
359.885	1786
359.969	-403
360.053	1504
360.138	218
360.222	797
360.306	1964
360.391	1875
360.475	4338
360.559	9472
360.644	6857
360.728	4310
360.812	10100
360.896	29652
360.981	10780
361.065	5555
361.149	1430
361.233	744
361.318	123
361.402	993
361.486	1503
361.570	444
361.654	156
361.739	2336
361.823	16858
361.907	29421
361.991	3328
362.075	1091
362.159	3306
362.243	4204
362.327	2649
362.411	4915
362.495	2006
362.580	589
362.664	394
362.748	-378
362.832	474
362.916	320
363.000	6822
363.084	23189
363.168	32960
363.252	6656
363.336	2035
363.420	3386
363.503	22281
363.587	28516
363.671	2896
363.755	694
363.839	2770
363.923	968
364.007	2459
364.091	2163
364.175	5796
364.258	37652
364.342	19470
364.426	15533
364.510	7865
364.594	4899
364.677	4989
364.761	24329
364.845	17574
364.929	3790
365.013	2910
365.096	2953
365.180	3270
365.264	7795
365.347	39879
365.431	16246
365.515	2510
365.598	30
365.682	1592
365.766	2329
365.849	4515
365.933	816
366.017	2496
366.100	1538
366.184	157
366.267	762
366.351	525
366.435	-578
366.518	-260
366.602	417
366.685	681
366.769	-24
366.852	2759
366.936	3566
367.019	1384
367.103	120
367.186	5550
367.270	113
367.353	-849
367.436	448
367.520	774
367.603	642
367.687	629
367.770	2077
367.853	1851
367.937	7498
368.020	11821
368.104	855
368.187	2413
368.270	2620
368.353	2416
368.437	3903
368.520	12967
368.603	6577
368.687	6330
368.770	15186
368.853	2854
368.936	3726
369.020	4670
369.103	654
369.186	-457
369.269	337
369.352	1243
369.436	2620
369.519	1085
369.602	-796
369.685	1647
369.768	-546
369.851	1076
369.934	-37
370.018	481
370.101	642
370.184	2747
370.267	1095
370.350	2355
370.433	3884
370.516	12535
370.599	15146
370.682	2241
370.765	6609
370.848	10826
370.931	18485
371.014	8605
371.097	-462
371.180	1127
371.263	634
371.346	-1040
371.429	230
371.511	601
371.594	1344
371.677	3642
371.760	6173
371.843	2903
371.926	15877
372.009	36136
372.091	12549
372.174	6605
372.257	19654
372.340	7012
372.423	5836
372.505	8911
372.588	2291
372.671	5408
372.754	18273
372.836	9234
372.919	9615
373.002	22426
373.085	4820
373.167	1938
373.250	6624
373.332	18831
373.415	23435
373.498	49004
373.580	17895
373.663	21433
373.746	29546
373.828	5343
373.911	2923
373.993	2824
374.076	20543
374.159	19093
374.241	5296
374.324	14603
374.406	9966
374.489	12724
374.571	42107
374.654	16767
374.736	6998
374.819	24127
374.901	35481
374.983	37153
375.066	5337
375.148	2277
375.231	16100
375.313	34408
375.395	10259
375.478	1690
375.560	1215
375.643	1074
375.725	6477
375.807	31540
375.890	27703
375.972	10654
376.054	5863
376.136	10322
376.219	4354
376.301	8968
376.383	27855
376.465	9841
376.548	4375
376.630	5928
376.712	23671
376.794	10215
376.877	663
376.959	-232
377.041	1080
377.123	3457
377.205	4411
377.287	-114
377.369	-160
377.452	231
377.534	102
377.616	-125
377.698	-282
377.780	-19
377.862	8
377.944	171
378.026	-781
378.108	729
378.190	160
378.272	693
378.354	-698
378.436	-431
378.518	327
378.600	7486
378.682	5128
378.764	9803
378.846	8184
378.928	892
379.010	2156
379.091	1018
379.173	580
379.255	-314
379.337	291
379.419	3731
379.501	15964
379.583	5219
379.664	1070
379.746	1741
379.828	10697
379.910	12785
379.991	12436
380.073	832
380.155	924
380.237	-279
380.318	241
380.400	332
380.482	1404
380.564	1564
380.645	1389
380.727	1196
380.809	1220
380.890	160
380.972	-679
381.053	118
381.135	1342
381.217	2269
381.298	11157
381.380	4694
381.461	3760
381.543	22067
381.624	29155
381.706	5145
381.787	1864
381.869	1805
381.951	8222
382.032	38175
382.113	26092
382.195	3258
382.276	3460
382.358	4711
382.439	19568
382.521	24018
382.602	38201
382.684	16199
382.765	29106
382.846	37654
382.928	68171
383.009	35852
383.090	21464
383.172	89114
383.253	144796
383.334	45144
383.416	35580
383.497	19329
383.578	8598
383.659	17466
383.741	73096
383.822	203705
383.903	104036
383.984	25568
384.066	39718
384.147	23005
384.228	5715
384.309	3244
384.390	2509
384.471	1937
384.553	1445
384.634	2765
384.715	2945
384.796	1654
384.877	1759
384.958	9533
385.039	10967
385.120	3378
385.201	2079
385.282	2161
385.363	3903
385.444	1634
385.525	3802
385.606	15605
385.687	14299
385.768	2752
385.849	3384
385.930	16955
386.011	31364
386.092	7114
386.173	901
386.254	1214
386.335	2194
386.416	1262
386.496	5547
386.577	11611
386.658	3383
386.739	1594
386.820	2732
386.901	1365
386.981	1459
387.062	298
387.143	450
387.224	10317
387.304	9566
387.385	2952
387.466	-138
387.547	3120
387.627	208
387.708	3248
387.789	18677
387.869	24156
387.950	6677
388.031	28
388.111	-1057
388.192	5009
388.273	7502
388.353	4435
388.434	1004
388.514	2621
388.595	18582
388.676	24212
388.756	10374
388.837	8542
388.917	4700
388.998	-444
389.078	1217
389.159	604
389.239	-1036
389.320	2594
389.400	-1297
389.480	3926
389.561	11660
389.641	5584
389.722	1116
389.802	1823
389.883	4910
389.963	15116
390.043	9263
390.124	2734
390.204	3344
390.284	11103
390.365	6806
390.445	13574
390.525	33398
390.605	26632
390.686	5729
390.766	2658
390.846	1332
390.927	-362
391.007	-351
391.087	1561
391.167	794
391.247	-364
391.328	2645
391.408	4027
391.488	3139
391.568	-569
391.648	649
391.728	1970
391.808	1685
391.888	1218
391.969	5349
392.049	9536
392.129	4905
392.209	5040
392.289	13676
392.369	7540
392.449	8230
392.529	4520
392.609	2469
392.689	3697
392.769	12422
392.849	11163
392.929	8815
393.009	20489
393.089	13241
393.169	8735
393.248	29104
393.328	150928
393.408	167661
393.488	34497
393.568	7561
393.648	3533
393.728	2380
393.807	1351
393.887	2828
393.967	2005
394.047	2911
394.127	3603
394.206	9465
394.286	38762
394.366	158286
394.446	174977
394.525	44747
394.605	11206
394.685	7775
394.764	13725
394.844	22641
394.924	15862
395.003	3326
395.083	1723
395.163	1999
395.242	2069
395.322	2600
395.402	314
395.481	4366
395.561	8182
395.640	24586
395.720	17649
395.799	30171
395.879	26405
395.958	16833
396.038	61277
396.117	208336
396.197	228390
396.276	77468
396.356	23240
396.435	14411
396.515	7958
396.594	5134
396.673	9375
396.753	38932
396.832	143056
396.912	105428
396.991	19133
397.070	5572
397.150	1781
397.229	1872
397.308	1710
397.388	4311
397.467	1979
397.546	1386
397.625	-1873
397.705	2175
397.784	736
397.863	-298
397.942	183
398.022	254
398.101	6198
398.180	24372
398.259	12690
398.338	3011
398.417	228
398.497	841
398.576	980
398.655	-536
398.734	217
398.813	871
398.892	7169
398.971	27220
399.050	12912
399.129	-25
399.208	-589
399.287	575
399.366	-560
399.445	-23
399.524	128
399.603	-1396
399.682	1078
399.761	4925
399.840	27870
399.919	23376
399.998	2014
400.077	-970
400.156	-772
400.235	1704
400.313	-819
400.392	-225
400.471	4908
400.550	8018
400.629	199
400.708	1132
400.786	299
400.865	3717
400.944	3925
401.023	1878
401.102	-363
401.180	-177
401.259	-963
401.338	207
401.416	111
401.495	-42
401.574	588
401.652	-1017
401.731	949
401.810	-809
401.888	-438
401.967	-1003
402.046	15
402.124	1486
402.203	-546
402.281	334
402.360	204
402.438	6389
402.517	3841
402.596	903
402.674	81
402.753	-472
402.831	-26
402.910	189
402.988	655
403.066	4915
403.145	2568
403.223	2366
403.302	2867
403.380	2547
403.459	2099
403.537	494
403.615	-163
403.694	-1481
403.772	342
403.850	-15
403.929	-601
404.007	-820
404.085	1400
404.164	-488
404.242	197
404.320	5536
404.398	22230
404.477	20910
404.555	32431
404.633	30011
404.711	17857
404.789	10208
404.868	917
404.946	-384
405.024	-62
405.102	-370
405.180	-1271
405.258	-1930
405.336	832
405.415	-675
405.493	1610
405.571	757
405.649	-896
405.727	-1069
405.805	1059
405.883	-448
405.961	67
406.039	1371
406.117	-1080
406.195	678
406.273	4831
406.351	24204
406.429	15861
406.507	1596
406.585	-244
406.663	-262
406.740	278
406.818	-814
406.896	-443
406.974	747
407.052	-790
407.130	12559
407.208	19938
407.285	3824
407.363	-1261
407.441	-612
407.519	-674
407.596	93
407.674	2120
407.752	8597
407.830	9062
407.907	2524
407.985	-1114
408.063	-229
408.141	-285
408.218	1482
408.296	-678
408.373	-684
408.451	-102
408.529	-267
408.606	-563
408.684	-1096
408.762	-682
408.839	-635
408.917	-1257
408.994	-403
409.072	-1778
409.149	-1161
409.227	50
409.304	-45
409.382	-144
409.459	-986
409.537	579
409.614	-73
409.692	-467
409.769	-564
409.846	-199
409.924	1531
410.001	-761
410.079	-338
410.156	440
410.233	-612
410.311	-663
410.388	-403
410.465	-53
410.543	-847
410.620	-115
410.697	-10
410.775	-129
410.852	-1499
410.929	-95
411.006	696
411.083	-973
411.161	-325
411.238	1746
411.315	548
411.392	-571
411.469	-102
411.547	798
411.624	-1619
411.701	-1009
411.778	154
411.855	-465
411.932	-636
412.009	-1085
412.086	-94
412.163	-205
412.240	-141
412.317	746
412.394	354
412.471	-500
412.548	-869
412.625	-1503
412.702	98
412.779	-192
412.856	343
412.933	-1444
413.010	-682
413.087	-50
413.164	4041
413.241	6558
413.318	-89
413.395	163
413.471	191
413.548	-232
413.625	266
413.702	-819
413.779	-674
413.855	-509
413.932	-499
414.009	-1268
414.086	-384
414.162	-1747
414.239	432
414.316	3255
414.393	10607
414.469	2529
414.546	-1511
414.623	-1122
414.699	-631
414.776	-871
414.853	-646
414.929	-506
415.006	-1414
415.082	-252
415.159	-906
415.236	-471
415.312	-510
415.389	142
415.465	-699
415.542	-609
415.618	-1051
415.695	406
415.771	-520
415.848	-1114
415.924	-895
416.000	-621
416.077	879
416.153	-1031
416.230	-1619
416.306	-1687
416.383	-1107
416.459	-52
416.535	-1513
416.612	-1473
416.688	-1462
416.764	-1064
416.841	-1035
416.917	-529
416.993	617
417.069	-684
417.146	-183
417.222	303
417.298	-150
417.374	-1481
417.451	-460
417.527	-985
417.603	-246
417.679	-933
417.755	-1014
417.831	-1864
417.908	-441
417.984	-680
418.060	-2335
418.136	191
418.212	405
418.288	-598
418.364	-809
418.440	-1387
418.516	-97
418.592	649
418.668	1672
418.744	1215
418.820	915
418.896	-822
418.972	-1907
419.048	-1026
419.124	786
419.200	-1083
419.276	-286
419.352	-1253
419.428	-1218
419.504	-1288
419.579	-1339
419.655	-1340
419.731	-1410
419.807	536
419.883	1488
419.959	1193
420.034	-687
420.110	-32
420.186	5736
420.262	5058
420.337	-626
420.413	-998
420.489	-1433
420.565	-352
420.640	-1877
420.716	-593
420.792	-2569
420.867	-500
420.943	-1623
421.019	-155
421.094	-484
421.170	-1100
421.245	-1197
421.321	-796
421.397	-401
421.472	729
421.548	3245
421.623	1913
421.699	-178
421.774	-330
421.850	-1078
421.925	-117
422.001	1453
422.076	180
422.152	36
422.227	574
422.302	2420
422.378	2828
422.453	6390
422.529	18839
422.604	74479
422.679	145880
422.755	85573
422.830	22627
422.905	7825
422.981	3138
423.056	1564
423.131	1460
423.207	618
423.282	-144
423.357	1474
423.432	57
423.508	206
423.583	1497
423.658	1606
423.733	-266
423.808	258
423.883	577
423.959	-511
424.034	-894
424.109	289
424.184	-1259
424.259	-1084
424.334	-1132
424.409	-793
424.484	-1312
424.559	-966
424.634	-1541
424.709	-1024
424.784	-693
424.859	-623
424.934	-490
425.009	2299
425.084	6391
425.159	1757
425.234	-355
425.309	-1590
425.384	1946
425.459	3842
425.534	693
425.609	-832
425.683	-1150
425.758	-869
425.833	-318
425.908	153
425.983	223
426.058	6655
426.132	2814
426.207	-725
426.282	970
426.357	-257
426.431	-909
426.506	-523
426.581	-708
426.655	-681
426.730	-584
426.805	-1658
426.879	158
426.954	-436
427.029	611
427.103	6396
427.178	20139
427.253	7979
427.327	238
427.402	1085
427.476	5526
427.551	1992
427.625	114
427.700	466
427.774	-7
427.849	-39
427.923	-1677
427.998	-1650
428.072	-548
428.147	1124
428.221	4285
428.296	19787
428.370	9273
428.444	599
428.519	585
428.593	3837
428.667	3385
428.742	3823
428.816	3455
428.890	13373
428.965	22598
429.039	8103
429.113	5645
429.188	309
429.262	-513
429.336	215
429.410	2883
429.485	1616
429.559	3713
429.633	2588
429.707	-427
429.781	1120
429.855	15001
429.930	24038
430.004	14031
430.078	23849
430.152	19830
430.226	30181
430.300	31288
430.374	2849
430.448	1034
430.522	5737
430.596	23861
430.670	14031
430.744	21450
430.818	32936
430.892	5704
430.966	-889
431.040	-216
431.114	-1280
431.188	-1160
431.262	-1642
431.336	-795
431.410	1256
431.484	3717
431.557	3230
431.631	-1103
431.705	-577
431.779	1174
431.853	16381
431.927	11359
432.000	-8
432.074	-883
432.148	-210
432.222	-1036
432.295	-320
432.369	-537
432.443	-454
432.516	7271
432.590	21388
432.664	8228
432.737	-571
432.811	-1579
432.885	-1513
432.958	-439
433.032	-1495
433.106	-1159
433.179	-1130
433.253	-1463
433.326	-649
433.400	-938
433.473	-929
433.547	-1774
433.620	-615
433.694	-1292
433.767	204
433.841	-880
433.914	-676
433.988	-837
434.061	-905
434.134	-805
434.208	-1514
434.281	-1586
434.355	-1097
434.428	-817
434.501	-780
434.575	-1624
434.648	-1583
434.721	-1900
434.795	-1200
434.868	-950
434.941	-1537
435.014	-1454
435.088	-1001
435.161	-311
435.234	-270
435.307	-535
435.381	-909
435.454	-1611
435.527	-709
435.600	-739
435.673	-362
435.746	-427
435.819	-882
435.892	-1073
435.966	-911
436.039	-1343
436.112	-489
436.185	-1333
436.258	-1767
436.331	-1240
436.404	-1543
436.477	-1421
436.550	-1184
436.623	-690
436.696	-1198
436.769	-1590
436.842	-1279
436.915	-674
436.987	-711
437.060	-759
437.133	-657
437.206	-1662
437.279	-1034
437.352	-1686
437.425	-1344
437.498	-1003
437.570	131
437.643	-11
437.716	-1233
437.789	-1496
437.861	-699
437.934	1071
438.007	-403
438.080	-888
438.152	-879
438.225	299
438.298	10432
438.370	32558
438.443	12298
438.516	1432
438.588	-402
438.661	-1410
438.734	-1098
438.806	-1373
438.879	-402
438.951	-1189
439.024	129
439.096	-849
439.169	-590
439.241	-1031
439.314	-893
439.386	-1069
439.459	209
439.531	12
439.604	-450
439.676	-345
439.749	-1211
439.821	-1142
439.893	-437
439.966	-1761
440.038	-472
440.110	-230
440.183	-1429
440.255	-1476
440.327	-199
440.400	3061
440.472	18377
440.544	11817
440.617	273
440.689	255
440.761	510
440.833	1604
440.905	-179
440.978	-1373
441.050	-949
441.122	-927
441.194	-1308
441.266	-562
441.338	-1410
441.411	-888
441.483	4089
441.555	7052
441.627	675
441.699	537
441.771	379
441.843	-1304
441.915	-500
441.987	-904
442.059	-1260
442.131	330
442.203	321
442.275	-16
442.347	-494
442.419	35
442.491	5639
442.563	17949
442.635	7612
442.706	5294
442.778	3538
442.850	-501
442.922	-1394
442.994	-456
443.066	340
443.137	-256
443.209	-530
443.281	262
443.353	1180
443.425	8829
443.496	35150
443.568	32273
443.640	10491
443.711	88
443.783	-512
443.855	-986
443.926	-649
443.998	-550
444.070	262
444.141	-881
444.213	-354
444.285	619
444.356	-288
444.428	-109
444.499	-863
444.571	-1204
444.642	-774
444.714	-464
444.785	-37
444.857	342
444.928	3585
445.000	1331
445.071	2041
445.143	2505
445.214	681
445.285	1342
445.357	8156
445.428	25105
445.500	62732
445.571	36428
445.642	14897
445.714	5878
445.785	7303
445.856	511
445.928	234
445.999	287
446.070	-173
446.141	-402
446.213	186
446.284	-921
446.355	-292
446.426	-326
446.497	-1616
446.569	482
446.640	816
446.711	-484
446.782	-41
446.853	-441
446.924	148
446.995	-770
447.066	-909
447.138	1016
447.209	411
447.280	-1180
447.351	-934
447.422	-1008
447.493	-699
447.564	-878
447.635	-899
447.706	-398
447.777	-1196
447.847	-884
447.918	-319
447.989	-570
448.060	-102
448.131	2050
448.202	1009
448.273	576
448.344	394
448.414	-695
448.485	-1239
448.556	-417
448.627	-475
448.698	-732
448.768	-466
448.839	-587
448.910	243
448.981	321
449.051	-406
449.122	-482
449.193	-742
449.263	-747
449.334	-1201
449.405	-311
449.475	1034
449.546	244
449.616	1093
449.687	207
449.758	-786
449.828	-748
449.899	-1155
449.969	-916
450.040	-526
450.110	-247
450.181	-105
450.251	-1023
450.322	-536
450.392	-436
450.463	-432
450.533	-1017
450.604	-402
450.674	-1159
450.744	30
450.815	-1267
450.885	-452
450.955	-491
451.026	-696
451.096	-1089
451.166	-709
451.237	921
451.307	5053
451.377	537
451.447	-929
451.518	-626
451.588	-1027
451.658	20
451.728	478
451.799	4991
451.869	4958
451.939	-285
452.009	-534
452.079	-697
452.149	-255
452.219	1001
452.289	5818
452.360	3755
452.430	-150
452.500	-273
452.570	62
452.640	1151
452.710	2747
452.780	6329
452.850	2715
452.920	1164
452.990	-63
453.060	225
453.129	-393
453.199	509
453.269	6917
453.339	14549
453.409	22217
453.479	25383
453.549	36498
453.619	38225
453.688	11677
453.758	1337
453.828	-338
453.898	-320
453.968	-42
454.037	-157
454.087	-230
454.107	-264
454.168	-53
454.177	-30
454.247	-1239
454.249	-1198
454.316	-379
454.330	-352
454.386	-280
454.411	695
454.456	2264
454.492	3163
454.525	3991
454.574	1911
454.595	1001
454.655	-826
454.665	-1124
454.734	-724
454.736	-672
454.804	992
454.817	1916
454.873	5628
454.898	5807
454.943	6108
454.979	3388
455.013	972
455.060	448
455.082	193
455.141	416
455.152	444
455.221	3937
455.222	3993
455.291	7727
455.303	7603
455.360	6851
455.384	10036
455.430	15284
455.465	10871
455.499	6873
455.546	5880
455.569	5351
455.627	3016
455.638	2622
455.707	32
455.708	38
455.777	460
455.789	411
455.846	81
455.869	-93
455.916	-585
455.950	-570
455.985	-380
456.031	-54
456.054	43
456.112	-198
456.124	-257
456.193	-83
456.193	-89
456.262	439
456.274	449
456.332	357
456.355	272
456.401	2
456.436	152
456.470	336
456.516	27
456.540	-169
456.597	-309
456.609	-283
456.678	275
456.678	266
456.747	-102
456.759	-221
456.817	-359
456.840	-323
456.886	-576
456.920	-648
456.955	-555
457.001	-202
457.024	-49
457.082	174
457.093	217
457.162	836
457.163	843
457.232	830
457.243	754
457.301	235
457.324	-72
457.370	-493
457.405	-175
457.439	42
457.485	-453
457.508	-612
457.566	135
457.577	259
457.646	367
457.647	376
457.715	787
457.727	803
457.784	1197
457.808	1730
457.853	2152
457.889	2390
457.922	2557
457.969	1870
457.991	1830
458.050	1868
458.060	1868
458.129	3618
458.130	3675
458.198	4350
458.211	3871
458.267	1910
458.292	1222
458.336	510
458.372	435
458.405	880
458.453	1675
458.474	1913
458.533	3109
458.543	3291
458.611	7164
458.614	7204
458.680	4762
458.694	3725
458.749	1715
458.775	1535
458.818	881
458.855	481
458.887	274
458.936	123
458.955	175
459.016	564
459.024	607
459.093	814
459.097	807
459.162	44
459.177	-32
459.230	103
459.257	408
459.299	891
459.338	930
459.368	763
459.418	452
459.437	322
459.499	309
459.505	377
459.574	717
459.579	753
459.643	633
459.659	635
459.711	711
459.740	733
459.780	574
459.820	374
459.849	437
459.900	572
459.917	601
459.981	657
459.986	653
460.054	735
460.061	766
460.123	789
460.141	746
460.191	1104
460.222	1477
460.260	1767
460.302	1910
460.328	1918
460.382	1839
460.397	1706
460.462	900
460.465	930
460.534	2220
460.543	2353
460.602	5149
460.623	6481
460.671	10702
460.703	15678
460.739	15953
460.783	13015
460.808	11680
460.864	3637
460.876	2583
460.944	1035
460.945	1019
461.013	1018
461.024	1006
461.081	769
461.104	886
461.150	1003
461.184	841
461.218	854
461.264	762
461.286	726
461.345	1026
461.355	1108
461.423	1412
461.425	1406
461.491	465
461.505	504
461.559	2074
461.585	2454
461.628	3400
461.665	4865
461.696	5180
461.745	6718
461.764	6531
461.825	2353
461.832	2160
461.901	954
461.905	968
461.969	957
461.985	883
462.037	1484
462.065	1748
462.105	1586
462.145	1840
462.173	2291
462.225	2658
462.241	2746
462.305	3899
462.310	3859
462.378	2969
462.385	2696
462.446	1348
462.465	1138
462.514	977
462.545	1117
462.582	1341
462.625	1545
462.650	1464
462.705	1094
462.718	1065
462.785	1092
462.786	1095
462.854	1003
462.865	1040
462.922	1858
462.945	2299
462.990	2310
463.025	1735
463.058	1197
463.104	974
463.126	911
463.184	589
463.194	739
463.262	1471
463.264	1510
463.330	1557
463.344	1553
463.398	1865
463.424	1869
463.466	1220
463.504	1061
463.533	1646
463.583	1998
463.601	1698
463.663	1022
463.669	1118
463.737	2302
463.743	2412
463.805	3339
463.823	3521
463.873	4849
463.903	6108
463.940	6453
463.982	6565
464.008	5597
464.062	2687
464.076	2494
464.142	1653
464.144	1645
464.211	1500
464.221	1566
464.279	1157
464.301	842
464.347	1582
464.381	2220
464.414	1812
464.461	1358
464.482	1836
464.540	3063
464.550	2931
464.617	1780
464.620	1741
464.685	2710
464.699	2927
464.753	2520
464.779	2262
464.820	3109
464.859	4113
464.888	3718
464.938	2860
464.956	3200
465.018	4224
465.023	4145
465.091	3061
465.098	2947
465.158	3258
465.177	3435
465.226	3148
465.257	2841
465.293	3083
465.336	3411
465.361	3449
465.416	3416
465.428	3587
465.495	4707
465.496	4723
465.563	6017
465.575	6298
465.631	8609
465.654	9654
465.698	6409
465.734	3051
465.765	2727
465.813	2635
465.833	2526
465.893	2303
465.900	2349
465.968	2808
465.972	2836
466.035	2112
466.052	1896
466.102	2671
466.131	3085
466.170	2550
466.210	2006
466.237	2361
466.290	3083
466.304	3133
466.369	3297
466.372	3303
466.439	3374
466.449	3366
466.506	3493
466.528	3564
466.573	4262
466.607	4725
466.641	6448
466.687	8860
466.708	9816
466.766	12665
466.775	11722
466.842	4227
466.845	3868
466.909	3738
466.925	3743
466.977	2836
467.004	2367
467.044	3042
467.083	3716
467.111	4094
467.163	4786
467.178	4924
467.242	5495
467.245	5471
467.312	4862
467.321	4779
467.379	4840
467.400	4853
467.446	4700
467.480	4581
467.559	4381
467.638	3911
467.717	3567
467.796	4120
467.875	5102
467.955	3801
468.034	6825
468.113	11180
468.192	16506
468.271	4860
468.350	3608
468.429	3852
468.508	4452
468.588	4167
468.667	4800
468.746	3418
468.825	3763
468.904	3186
468.983	4380
469.062	5445
469.141	5460
469.220	3198
469.299	3831
469.378	3826
469.456	5541
469.535	5263
469.614	4858
469.693	3836
469.772	5780
469.851	6036
469.930	5212
470.009	4865
470.088	3927
470.166	5194
470.245	7905
470.324	7225
470.403	5739
470.482	4028
470.560	4049
470.639	2698
470.718	4445
470.797	4328
470.875	4789
470.954	4338
471.033	6769
471.111	2422
471.190	2652
471.269	2496
471.347	2813
471.426	4281
471.505	4442
471.583	4276
471.662	4891
471.740	3179
471.819	3888
471.898	4026
471.976	3641
472.055	3066
472.133	4070
472.212	4781
472.290	4413
472.369	3437
472.447	4302
472.526	3179
472.604	4190
472.683	3021
472.761	3572
472.839	2851
472.918	4073
472.996	3281
473.075	4452
473.153	3325
473.231	3449
473.310	3289
473.388	3799
473.466	3419
473.545	3705
473.623	3955
473.701	4165
473.780	3226
473.858	2817
473.936	4232
474.014	3220
474.093	3931
474.171	5240
474.249	5936
474.327	4294
474.405	2265
474.484	2588
474.562	3017
474.640	3569
474.718	3039
474.796	2900
474.874	2618
474.952	3133
475.030	2625
475.108	2891
475.187	2236
475.265	3347
475.343	3022
475.421	3583
475.499	3105
475.577	3161
475.655	3499
475.733	6731
475.811	9560
475.889	9735
475.966	5758
476.044	2704
476.122	2727
476.200	3773
476.278	2379
476.356	3131
476.434	2903
476.512	3370
476.590	2945
476.667	4151
476.745	1413
476.823	3438
476.901	2451
476.979	3633
477.056	2481
477.134	3492
477.212	2648
477.290	3850
477.367	1916
477.445	3417
477.523	2493
477.601	2959
477.678	2721
477.756	3621
477.834	3270
477.911	2716
477.989	2873
478.066	2521
478.144	2974
478.222	2826
478.299	3014
478.377	2767
478.454	2075
478.532	2342
478.609	2206
478.687	3515
478.764	2071
478.842	3176
478.919	2395
478.997	2608
479.074	2576
479.152	2986
479.229	3295
479.307	2910
479.384	1550
479.461	2531
479.539	1959
479.616	3136
479.694	1674
479.771	2734
479.848	3024
479.926	2750
480.003	4331
480.080	3064
480.157	2461
480.235	2449
480.312	1913
480.389	2625
480.467	2949
480.544	4975
480.621	2534
480.698	3040
480.775	2284
480.853	3120
480.930	2705
481.007	3327
481.084	2240
481.161	3605
481.238	2623
481.315	2189
481.392	2375
481.470	2350
481.547	2334
481.624	2599
481.701	2291
481.778	2897
481.855	2477
481.932	3901
482.009	5263
482.086	4305
482.163	2326
482.240	3083
482.317	2069
482.393	2812
482.470	1915
482.547	2889
482.624	2011
482.701	1974
482.778	1426
482.855	1485
482.932	2256
483.009	1978
483.085	1450
483.162	2366
483.239	2039
483.316	1579
483.393	1265
483.469	3192
483.546	1906
483.623	2825
483.699	994
483.776	2431
483.853	2375
483.930	4673
484.006	7842
484.083	15609
484.160	10558
484.236	17901
484.313	13009
484.389	10040
484.466	10077
484.543	8551
484.619	7284
484.696	9605
484.772	8435
484.849	10259
484.925	7281
485.002	8750
485.078	8089
485.155	8086
485.231	7383
485.308	7351
485.384	7044
485.461	8426
485.537	11496
485.614	14336
485.690	7145
485.766	6809
485.843	6529
485.919	8124
485.995	7742
486.072	6905
486.148	6372
486.224	7119
486.301	6162
486.377	7911
486.453	6310
486.530	8664
486.606	10662
486.682	11306
486.758	11378
486.835	12608
486.911	9111
486.987	14285
487.063	12560
487.139	14340
487.215	10753
487.292	7895
487.368	7847
487.444	8032
487.520	7995
487.596	7830
487.672	9977
487.748	19209
487.824	23574
487.900	11032
487.976	6971
488.052	7442
488.128	8303
488.204	6571
488.280	6307
488.356	7367
488.432	12260
488.508	17671
488.584	6887
488.660	6174
488.736	5694
488.812	6062
488.888	7610
488.964	8470
489.039	12159
489.115	16786
489.191	10080
489.267	6642
489.343	5825
489.418	5925
489.494	5234
489.570	4802
489.646	5648
489.722	6349
489.797	5567
489.873	7335
489.949	13063
490.024	10831
490.100	4477
490.176	5447
490.251	5846
490.327	6491
490.403	3761
490.478	5744
490.554	3978
490.629	4247
490.705	4427
490.781	5407
490.856	3580
490.932	5320
491.007	4513
491.083	6008
491.158	3592
491.234	5360
491.309	9945
491.385	9854
491.460	4175
491.536	5288
491.611	3822
491.686	4471
491.762	4534
491.837	7321
491.913	11475
491.988	16145
492.063	17424
492.139	7531
492.214	5771
492.289	4705
492.365	3631
492.440	4482
492.515	3625
492.590	3756
492.666	3062
492.741	5179
492.816	5630
492.891	3478
492.967	4003
493.042	3693
493.117	3755
493.192	4586
493.267	6844
493.342	19723
493.418	26898
493.493	5310
493.568	3452
493.643	4048
493.718	4011
493.793	4845
493.868	5376
493.943	3790
494.018	3236
494.093	3606
494.168	3200
494.243	3078
494.318	2362
494.393	3193
494.468	1804
494.543	2683
494.618	3206
494.693	2630
494.768	2773
494.842	4090
494.917	2913
494.992	2875
495.067	3470
495.142	3269
495.217	3297
495.292	3191
495.366	3121
495.441	3436
495.516	4130
495.591	5986
495.665	14145
495.740	29697
495.815	11846
495.890	4223
495.964	1520
496.039	5828
496.114	3832
496.188	3968
496.263	3869
496.338	3545
496.412	2826
496.487	4097
496.561	3211
496.636	3663
496.710	3784
496.785	3669
496.860	3390
496.934	2588
497.009	3724
497.083	2664
497.158	3323
497.232	4698
497.307	4643
497.381	4050
497.455	3402
497.530	5409
497.604	3375
497.679	4675
497.753	4931
497.827	6253
497.902	4683
497.976	7886
498.050	22708
498.125	89315
498.199	87284
498.273	9028
498.348	5277
498.422	3987
498.496	4379
498.570	5061
498.645	3207
498.719	3491
498.793	5115
498.867	7249
498.941	10591
499.016	34934
499.090	93060
499.164	33119
499.238	3733
499.312	3900
499.386	4084
499.460	4293
499.534	3850
499.609	6098
499.683	6003
499.757	7033
499.831	15454
499.905	61697
499.979	56360
500.053	9086
500.127	6661
500.201	3897
500.275	4004
500.349	3463
500.422	3760
500.496	6367
500.570	9920
500.644	32472
500.718	58973
500.792	14885
500.866	4545
500.940	4907
501.013	4637
501.087	3743
501.161	5906
501.235	6745
501.309	19016
501.382	51592
501.456	44486
501.530	9269
501.603	14281
501.677	7007
501.751	1718
501.825	4658
501.898	7924
501.972	19057
502.046	11783
502.119	3626
502.193	9145
502.266	20707
502.340	10172
502.413	9658
502.487	17609
502.561	9859
502.634	3554
502.708	2415
502.781	1737
502.855	3731
502.928	1427
503.002	2031
503.075	1741
503.149	2416
503.222	1849
503.295	2876
503.369	2437
503.442	4346
503.516	13161
503.589	34632
503.662	22075
503.736	7503
503.809	16226
503.882	13843
503.956	20026
504.029	18054
504.102	8304
504.175	12282
504.249	3400
504.322	3109
504.395	3108
504.468	3152
504.542	1324
504.615	1489
504.688	1864
504.761	954
504.834	2612
504.907	3336
504.980	3343
505.053	2092
505.127	-75
505.200	5412
505.273	2727
505.346	2077
505.419	742
505.492	2735
505.565	1479
505.638	2213
505.711	1239
505.784	1697
505.857	1842
505.930	3676
506.003	616
506.076	4571
506.149	813
506.221	2088
506.294	4088
506.367	7293
506.440	26023
506.513	14833
506.586	2693
506.659	1743
506.731	1901
506.804	1406
506.877	1623
506.950	2447
507.022	1266
507.095	1539
507.168	1910
507.241	2080
507.313	794
507.386	961
507.459	2457
507.531	1338
507.604	1001
507.677	1990
507.749	1009
507.822	2697
507.894	4409
507.967	7949
508.040	4087
508.112	5096
508.185	3016
508.257	2389
508.330	4308
508.402	2554
508.475	2510
508.547	3171
508.620	2636
508.692	4931
508.765	3309
508.837	1531
508.909	2371
508.982	2136
509.054	2901
509.127	2435
509.199	2052
509.271	2624
509.344	1719
509.416	3213
509.488	2423
509.560	3187
509.633	2536
509.705	2718
509.777	3055
509.849	4441
509.922	2148
509.994	2885
510.066	2957
510.138	2306
510.210	8240
510.283	5968
510.355	5006
510.427	4300
510.499	3554
510.571	5104
510.643	3206
510.715	5385
510.787	2608
510.859	4664
510.931	3308
511.003	4714
511.076	4649
511.148	3841
511.219	2861
511.291	5726
511.363	6328
511.435	4364
511.507	2878
511.579	4347
511.651	3860
511.723	2941
511.795	3035
511.867	3210
511.939	3684
512.010	5159
512.082	4710
512.154	1749
512.226	3250
512.298	6026
512.369	6958
512.441	6335
512.513	5031
512.585	3209
512.656	4213
512.728	4532
512.800	3301
512.871	4500
512.943	3597
513.015	3444
513.086	3022
513.158	4410
513.230	1474
513.301	3814
513.373	5026
513.444	4377
513.516	3481
513.588	3071
513.659	2654
513.731	3948
513.802	1479
513.874	5905
513.945	6921
514.016	3516
514.088	3019
514.159	2370
514.231	3730
514.302	6278
514.374	5260
514.445	4074
514.516	8889
514.588	5644
514.659	4024
514.730	5782
514.802	5934
514.873	2907
514.944	4718
515.016	4354
515.087	3235
515.158	5182
515.229	6479
515.301	3270
515.372	4208
515.443	2320
515.514	3135
515.585	2350
515.656	2700
515.728	3868
515.799	1796
515.870	3890
515.941	3264
516.012	3423
516.083	6259
516.154	4911
516.225	6032
516.296	7454
516.367	4744
516.438	4584
516.509	5990
516.580	9491
516.651	30406
516.722	96219
516.793	39349
516.864	8758
516.935	8954
517.006	10246
517.077	12857
517.148	31241
517.219	131204
517.289	188878
517.360	42902
517.431	15825
517.502	4774
517.573	4886
517.643	5123
517.714	5572
517.785	6355
517.856	6110
517.926	8859
517.997	9593
518.068	8112
518.138	15014
518.209	21936
518.280	87980
518.350	315742
518.421	104145
518.492	11161
518.562	6194
518.633	5575
518.703	4868
518.774	7670
518.845	15676
518.915	14511
518.986	5252
519.056	5462
519.127	9011
519.197	11816
519.268	29481
519.338	20997
519.408	5792
519.479	5093
519.549	3063
519.620	3676
519.690	3640
519.760	2667
519.831	3093
519.901	2626
519.971	3012
520.042	3511
520.112	2387
520.182	4212
520.253	4200
520.323	2808
520.393	4370
520.463	6829
520.534	2751
520.604	9658
520.674	5801
520.744	4110
520.814	8824
520.885	8014
520.955	10329
521.025	35576
521.095	14563
521.165	3986
521.235	2928
521.305	1718
521.375	2692
521.445	3034
521.515	2754
521.585	3966
521.655	1638
521.725	3280
521.795	3870
521.865	1223
521.935	5295
522.005	2753
522.075	2500
522.145	2660
522.215	1925
522.285	3349
522.355	5167
522.424	7981
522.494	6158
522.564	2496
522.634	5818
522.704	14573
522.774	5615
522.843	2721
522.913	2453
522.983	2548
523.053	2285
523.122	3122
523.192	2881
523.262	7248
523.331	6433
523.401	3277
523.471	1950
523.540	1701
523.610	1958
523.680	1567
523.749	2561
523.819	2563
523.888	2316
523.958	1452
524.027	2720
524.097	1361
524.166	2278
524.236	349
524.305	3896
524.375	561
524.444	779
524.514	3765
524.583	1643
524.653	1749
524.722	3402
524.791	41
524.861	3354
524.930	794
524.999	1665
525.069	2504
525.138	2018
525.207	2103
525.277	2289
525.346	1175
525.415	1716
525.484	1609
525.554	1280
525.623	1921
525.692	2133
525.761	2267
525.830	2698
525.900	1981
525.969	4023
526.038	5067
526.107	7857
526.176	26690
526.245	19472
526.314	7418
526.383	15012
526.452	15788
526.522	34031
526.591	31702
526.660	9419
526.729	4196
526.797	7120
526.867	11487
526.935	52120
527.004	79948
527.073	37898
527.142	3829
527.211	2713
527.280	3069
527.349	2484
527.418	104
527.487	2981
527.555	679
527.624	1499
527.693	-1077
527.762	2482
527.831	-101
527.899	1721
527.968	938
528.037	-72
528.106	2040
528.174	2910
528.243	2581
528.312	3183
528.380	2532
528.449	1283
528.518	2670
528.586	228
528.655	2615
528.723	1730
528.792	131
528.861	662
528.929	-331
528.998	2451
529.066	1279
529.135	1856
529.203	676
529.272	1170
529.340	2438
529.409	3235
529.477	22
529.545	1710
529.614	3549
529.682	1235
529.751	1879
529.819	5122
529.887	2628
529.956	2395
530.024	2203
530.092	1307
530.161	2398
530.229	2783
530.297	1077
530.365	2818
530.434	1555
530.502	1571
530.570	2793
530.638	606
530.707	2553
530.775	2474
530.843	1252
530.911	2028
530.979	1384
531.047	1575
531.115	1066
531.183	2326
531.252	2203
531.320	1548
531.388	609
531.456	2531
531.524	-751
531.592	2198
531.660	2707
531.728	1075
531.796	1006
531.864	1915
531.932	1918
532.000	1583
532.067	1799
532.135	2548
532.203	3518
532.271	1644
532.339	4458
532.407	7050
532.475	3618
532.542	3640
532.610	3430
532.678	3651
532.746	14008
532.814	31575
532.881	6657
532.949	3429
533.017	2007
533.084	2544
533.152	1260
533.220	1955
533.287	1092
533.355	2419
533.423	2687
533.490	1256
533.558	2588
533.625	2605
533.693	2127
533.761	3394
533.828	2182
533.896	1549
533.963	4954
534.031	5911
534.098	5692
534.166	3040
534.233	1296
534.300	4154
534.368	3512
534.435	1440
534.503	2026
534.570	3342
534.637	1009
534.705	2837
534.772	1844
534.840	3542
534.907	12938
534.974	14427
535.041	3141
535.109	1685
535.176	573
535.243	1791
535.310	1309
535.378	815
535.445	1422
535.512	1512
535.579	1747
535.646	1405
535.714	1369
535.781	3287
535.848	2344
535.915	3141
535.982	2820
536.049	2415
536.116	3481
536.183	2038
536.250	2096
536.317	1120
536.384	2083
536.451	3670
536.518	2743
536.585	1394
536.652	2690
536.719	2891
536.786	280
536.853	945
536.920	2721
536.987	4478
537.053	3080
537.120	16094
537.187	12085
537.254	2037
537.321	663
537.388	2819
537.454	403
537.521	676
537.588	1372
537.654	2545
537.721	1969
537.788	3474
537.855	1019
537.921	1901
537.988	1947
538.055	2586
538.121	404
538.188	1281
538.254	2718
538.321	3964
538.388	2504
538.454	2155
538.521	1377
538.587	1444
538.654	1205
538.720	1564
538.787	1761
538.853	1669
538.920	1762
538.986	1448
539.053	1129
539.119	1453
539.185	1223
539.252	2823
539.318	1676
539.385	3247
539.451	1891
539.517	3182
539.583	2267
539.650	4437
539.716	10068
539.782	3377
539.849	599
539.915	2574
539.981	809
540.047	2027
540.114	1010
540.180	2872
540.246	757
540.312	2329
540.378	3316
540.444	5198
540.510	4824
540.576	12196
540.643	3773
540.709	281
540.775	1739
540.841	1517
540.907	3798
540.973	4425
541.039	3050
541.105	3421
541.171	1530
541.237	1851
541.303	2172
541.369	4083
541.435	2582
541.500	4077
541.566	1166
541.632	1248
541.698	1496
541.764	2974
541.830	1128
541.896	516
541.961	1953
542.027	969
542.093	1545
542.159	1474
542.224	1541
542.290	3047
542.356	2333
542.421	4661
542.487	2795
542.553	1852
542.618	1589
542.684	1342
542.750	481
542.815	3064
542.881	2673
542.947	10434
543.012	7837
543.078	1463
543.143	909
543.209	2297
543.274	684
543.340	1893
543.405	3331
543.471	6570
543.536	1951
543.602	2428
543.667	274
543.732	2695
543.798	49
543.863	2039
543.928	820
543.994	1630
544.059	1976
544.124	2184
544.190	1747
544.255	1322
544.320	2263
544.386	1464
544.451	2841
544.516	2327
544.581	2251
544.646	6587
544.712	10759
544.777	3545
544.842	2142
544.907	1787
544.972	2116
545.037	2964
545.102	2978
545.168	2961
545.233	2423
545.298	4072
545.363	1959
545.428	3050
545.493	5979
545.558	8691
545.623	3357
545.688	2111
545.753	1931
545.818	2844
545.883	2535
545.947	2239
546.012	2319
546.077	3361
546.142	2816
546.207	2471
546.272	3473
546.337	3415
546.401	3179
546.466	3371
546.531	2199
546.596	3518
546.661	3353
546.725	3943
546.790	1706
546.855	2734
546.919	1623
546.984	3423
547.049	2073
547.113	3551
547.178	2788
547.243	4334
547.307	4916
547.372	4651
547.436	4629
547.501	4551
547.565	3931
547.630	4713
547.695	4422
547.759	5486
547.823	4012
547.888	5049
547.952	4108
548.017	4726
548.081	4646
548.146	6367
548.210	5030
548.274	5020
548.339	4000
548.403	4854
548.468	3511
548.532	3701
548.596	3745
548.660	3978
548.725	4831
548.789	5822
548.853	6333
548.917	4602
548.982	4826
549.046	5519
549.110	3731
549.174	4292
549.238	3591
549.303	4338
549.367	5568
549.431	4431
549.495	4295
549.559	3918
549.623	4538
549.687	6137
549.751	5147
549.815	6659
549.879	6737
549.943	5586
550.007	5955
550.071	6792
550.135	6644
550.199	5206
550.263	5253
550.327	6574
550.391	6978
550.455	5977
550.519	5517
550.582	7027
550.646	6968
550.710	8558
550.774	7250
550.838	7199
550.901	7445
550.965	8691
551.029	6773
551.093	9095
551.156	10959
551.220	16114
551.284	16308
551.347	11696
551.411	14768
551.475	16070
551.538	8232
551.602	7338
551.666	6269
551.729	5803
551.793	6146
551.856	6663
551.920	5459
551.983	6312
552.047	6145
552.110	6500
552.174	5349
552.237	6174
552.301	5165
552.364	6178
552.428	5268
552.491	5793
552.554	6098
552.618	7026
552.681	6601
552.745	6622
552.808	10156
552.871	12673
552.934	8368
552.998	6363
553.061	5939
553.124	6600
553.187	5498
553.251	5985
553.314	6628
553.377	7825
553.440	9718
553.503	19666
553.567	31253
553.630	10058
553.693	6117
553.756	7064
553.819	5248
553.882	5473
553.945	6100
554.008	6563
554.071	5388
554.134	6379
554.197	6258
554.260	6781
554.323	6698
554.386	6954
554.449	5840
554.512	7165
554.575	6125
554.638	6293
554.701	5544
554.764	6496
554.827	5727
554.889	5485
554.952	4660
555.015	5349
555.078	4599
555.141	5976
555.203	5350
555.266	5189
555.329	4896
555.391	5424
555.454	4423
555.517	5020
555.580	3469
555.642	4696
555.705	3677
555.768	5101
555.830	5025
555.893	4512
555.955	4427
556.018	4358
556.080	4021
556.143	5046
556.206	3290
556.268	4998
556.330	4364
556.393	4371
556.455	4530
556.518	5413
556.580	4529
556.643	3781
556.705	3870
556.767	2607
556.830	3572
556.892	3543
556.955	3543
557.017	4270
557.079	3653
557.142	3599
557.204	2847
557.266	5562
557.328	4524
557.391	3094
557.453	2589
557.515	3586
557.577	3738
557.639	4362
557.701	3368
557.764	2496
557.826	2812
557.888	3996
557.950	3434
558.012	5026
558.074	4641
558.136	10989
558.198	20963
558.260	8772
558.322	3086
558.384	4449
558.446	5456
558.508	5663
558.570	6353
558.632	9240
558.694	13275
558.756	18620
558.818	52993
558.880	117963
558.942	34294
559.003	23432
559.065	10696
559.127	6515
559.189	6196
559.251	6987
559.312	10006
559.374	24431
559.436	71487
559.498	32950
559.559	5369
559.621	6466
559.683	6543
559.744	12625
559.806	33950
559.868	48112
559.929	9314
559.991	6557
560.052	7754
560.114	22234
560.176	13495
560.237	13545
560.299	18962
560.360	5156
560.422	3165
560.483	3882
560.545	2742
560.606	2938
560.667	2261
560.729	2614
560.790	2750
560.852	3483
560.913	2656
560.974	2362
561.036	3181
561.097	2505
561.158	1832
561.220	3088
561.281	1873
561.342	2996
561.403	3416
561.465	3867
561.526	6478
561.587	9230
561.648	2330
561.709	2892
561.771	2410
561.832	3087
561.893	1872
561.954	2892
562.015	2659
562.076	1937
562.137	2518
562.198	2901
562.259	3514
562.320	1937
562.381	1576
562.442	3352
562.503	2432
562.564	3420
562.625	2440
562.686	2341
562.747	1718
562.808	3441
562.869	3378
562.930	3811
562.991	3285
563.051	2761
563.112	2542
563.173	3304
563.234	1930
563.294	3097
563.355	2826
563.416	3420
563.477	2660
563.537	2957
563.598	2969
563.659	2674
563.720	2275
563.780	3421
563.841	2843
563.901	3197
563.962	3102
564.023	2640
564.083	2388
564.144	3524
564.204	2745
564.265	3026
564.325	4036
564.386	7878
564.446	6301
564.507	2598
564.567	2799
564.628	3322
564.688	2876
564.749	2743
564.809	2961
564.869	4218
564.930	2755
564.990	3423
565.050	1958
565.111	2973
565.171	1903
565.231	2813
565.292	3229
565.352	2024
565.412	2935
565.472	3015
565.532	3149
565.593	2549
565.653	2140
565.713	3078
565.773	2727
565.833	2445
565.893	4403
565.953	2258
566.013	2666
566.074	3771
566.134	4987
566.194	6187
566.254	5900
566.314	3951
566.374	2792
566.434	3729
566.494	3476
566.554	3122
566.614	3236
566.673	3754
566.733	3298
566.793	3373
566.853	3713
566.913	3665
566.973	3139
567.033	4308
567.092	3558
567.152	3806
567.212	3105
567.272	3326
567.331	3717
567.391	3995
567.451	3735
567.511	5218
567.570	4579
567.630	3659
567.690	3443
567.749	4322
567.809	2833
567.868	4107
567.928	3509
567.988	3081
568.047	3292
568.107	3746
568.166	2979
568.226	3558
568.285	3756
568.345	4226
568.404	3391
568.464	3828
568.523	2969
568.582	3391
568.642	2599
568.701	4343
568.761	3875
568.820	5092
568.879	4580
568.939	6107
568.998	4419
569.057	4188
569.116	3660
569.176	3181
569.235	3107
569.294	2777
569.353	2793
569.413	3836
569.472	2704
569.531	4593
569.590	2854
569.649	3224
569.708	2151
569.767	3149
569.827	3097
569.886	3975
569.945	2041
570.004	4235
570.063	2626
570.122	3308
570.181	3457
570.240	4247
570.299	3533
570.358	4489
570.417	2941
570.475	3115
570.534	3577
570.593	3564
570.652	3022
570.711	3322
570.770	2405
570.829	4135
570.887	2996
570.946	4035
571.005	2648
571.064	3248
571.122	3699
571.181	3985
571.240	2750
571.299	3017
571.357	3663
571.416	4344
571.475	3240
571.533	4064
571.592	3033
571.650	3497
571.709	3740
571.768	3443
571.826	2872
571.885	3856
571.943	2461
572.002	3090
572.060	2969
572.119	2710
572.177	2132
572.236	3565
572.294	2641
572.352	3503
572.411	2930
572.469	4192
572.528	2672
572.586	2859
572.644	2726
572.703	4527
572.761	3369
572.819	3966
572.877	2683
572.936	2350
572.994	2702
573.052	4271
573.110	2533
573.169	2947
573.227	2934
573.285	3491
573.343	2533
573.401	2952
573.459	2646
573.517	2383
573.576	2173
573.634	3406
573.692	2619
573.750	3284
573.808	2509
573.866	3926
573.924	4164
573.982	4522
574.040	2668
574.098	3365
574.155	2156
574.213	2776
574.271	1900
574.329	3591
574.387	2979
574.445	2960
574.503	2501
574.560	2791
574.618	2368
574.676	3945
574.734	2167
574.792	4095
574.849	3017
574.907	3003
574.965	2650
575.022	2564
575.080	2381
575.138	3468
575.195	2744
575.253	2386
575.311	3456
575.368	2836
575.426	2470
575.483	3889
575.541	2789
575.598	3608
575.656	2455
575.713	2583
575.771	2476
575.828	3743
575.886	2542
575.943	4269
576.001	2306
576.058	3374
576.115	2578
576.173	4277
576.230	3691
576.287	4068
576.345	3912
576.402	3793
576.459	2562
576.517	2938
576.574	3536
576.631	4277
576.688	3262
576.746	3662
576.803	2941
576.860	3803
576.917	3150
576.974	3413
577.031	2590
577.089	3377
577.146	2961
577.203	3354
577.260	2999
577.317	3753
577.374	4041
577.431	3446
577.488	3565
577.545	2585
577.602	3089
577.659	3821
577.716	3200
577.773	4045
577.830	3063
577.886	4884
577.943	3222
578.000	4609
578.057	4910
578.114	5730
578.171	6866
578.227	9867
578.284	10101
578.341	8778
578.398	6168
578.454	5115
578.511	5020
578.568	4971
578.625	4363
578.681	4552
578.738	3540
578.794	3931
578.851	4043
578.908	4093
578.964	3015
579.021	3945
579.077	2804
579.134	4169
579.190	3111
579.247	4167
579.303	3220
579.360	3659
579.416	3769
579.473	3518
579.529	3271
579.586	3817
579.642	3771
579.698	4433
579.755	4660
579.811	4754
579.867	4596
579.924	5365
579.980	5787
580.036	7255
580.093	9591
580.149	15826
580.205	18232
580.261	13827
580.317	10473
580.374	8379
580.430	7242
580.486	6758
580.542	5657
580.598	5089
580.619	4983
580.654	4798
580.692	4833
580.710	4851
580.765	5226
580.767	5237
580.823	4573
580.838	4498
580.879	4265
580.911	4772
580.935	5172
580.984	4483
580.991	4387
581.047	6321
581.057	6198
581.103	5650
581.130	6142
581.159	6649
581.203	7686
581.215	7949
581.270	7824
581.276	7661
581.326	6033
581.349	6261
581.382	6636
581.422	5786
581.438	5403
581.494	6118
581.494	6098
581.550	3785
581.567	4279
581.606	5263
581.640	4607
581.661	4235
581.713	6628
581.717	6818
581.773	5058
581.786	5101
581.829	5256
581.859	5329
581.885	5296
581.932	5487
581.940	5560
581.996	4658
582.004	4854
582.052	5716
582.077	5493
582.107	5333
582.150	5839
582.163	5951
582.219	5698
582.223	5689
582.274	5682
582.296	5910
582.330	6187
582.368	6454
582.386	6635
582.441	5631
582.441	5626
582.497	6221
582.514	6314
582.552	6817
582.587	7425
582.608	7623
582.659	7049
582.663	7011
582.719	7666
582.732	7377
582.774	6506
582.805	6891
582.830	7302
582.877	7796
582.885	7833
582.941	8605
582.950	8638
582.996	9218
583.023	9911
583.052	10722
583.095	11949
583.107	12385
583.162	15402
583.168	15570
583.218	15972
583.240	15042
583.273	13290
583.313	12566
583.328	12390
583.384	10534
583.385	10488
583.439	9256
583.458	8962
583.494	8368
583.531	7693
583.549	7564
583.603	8044
583.605	8051
583.660	8746
583.676	8482
583.715	7998
583.748	8190
583.770	8254
583.820	8707
583.825	8754
583.881	8349
583.893	8272
583.936	7928
583.965	7720
583.991	7644
584.038	8699
584.046	8864
584.101	7273
584.110	7330
584.156	7829
584.183	8095
584.211	8225
584.255	8253
584.266	8282
584.321	7842
584.328	7866
584.376	8431
584.400	8580
584.431	8716
584.472	8818
584.486	8847
584.541	9543
584.545	9605
584.596	10589
584.617	9853
584.651	8889
584.689	9865
584.706	10187
584.761	9576
584.762	9569
584.816	10150
584.834	10203
584.871	10204
584.906	10488
584.926	10578
584.978	9844
584.980	9849
585.035	10818
585.051	10910
585.090	11102
585.123	11521
585.145	11751
585.195	11376
585.200	11377
585.254	12619
585.267	12636
585.309	13283
585.340	14610
585.364	15288
585.412	15015
585.419	14949
585.473	15698
585.484	15643
585.528	16835
585.556	18972
585.583	23317
585.628	31392
585.637	34982
585.692	62681
585.700	67453
585.747	85127
585.772	80249
585.801	56111
585.845	25187
585.856	22113
585.910	16107
585.917	15310
585.965	13671
585.989	13675
586.019	14093
586.061	13861
586.074	13750
586.128	13523
586.133	13452
586.183	13716
586.205	14208
586.237	14413
586.277	14077
586.292	14215
586.346	14191
586.349	14196
586.401	13958
586.421	13914
586.455	14571
586.493	15015
586.509	15951
586.564	19360
586.565	19443
586.618	27474
586.637	29131
586.672	24674
586.709	18725
586.727	17324
586.781	15722
586.781	15751
586.835	14269
586.853	14228
586.889	14847
586.925	14122
586.944	13786
586.996	14644
586.998	14697
587.052	14185
587.068	14238
587.106	14603
587.140	14716
587.161	14957
587.212	15824
587.215	15877
587.269	15610
587.284	15546
587.323	16029
587.356	15899
587.377	15546
587.427	16394
587.431	16509
587.485	15569
587.499	15640
587.539	16510
587.571	16904
587.593	17291
587.643	18133
587.648	18208
587.702	17979
587.715	18019
587.755	18342
587.786	18320
587.810	18453
587.858	18403
587.864	18497
587.917	19903
587.930	20017
587.971	20972
588.001	21845
588.025	22219
588.073	22638
588.079	22827
588.133	23315
588.145	23664
588.187	25628
588.217	26651
588.241	27811
588.288	30093
588.295	30548
588.348	33506
588.360	34199
588.402	37832
588.431	40058
588.456	41894
588.503	45743
588.510	46635
588.564	52724
588.575	54233
588.617	61870
588.646	67120
588.671	73925
588.718	88478
588.725	93340
588.778	133774
588.789	143144
588.832	240680
588.861	312232
588.886	438640
588.932	697401
588.939	718712
588.993	850416
589.004	854022
589.047	549636
589.075	355898
589.100	267754
589.147	128254
589.154	123890
589.207	93144
589.218	87159
589.261	83553
589.290	81688
589.314	86040
589.361	96269
589.368	102186
589.421	152416
589.433	164396
589.475	303349
589.504	406399
589.528	523682
589.576	759038
589.582	739127
589.635	462345
589.647	402477
589.689	217613
589.718	100182
589.742	84341
589.790	55441
589.795	54767
589.849	48116
589.861	46590
589.902	46212
589.932	45532
589.955	41218
590.004	31427
590.009	31256
590.062	28743
590.075	28069
590.115	27548
590.146	27017
590.168	26984
590.218	26786
590.222	26874
590.275	26463
590.289	26374
590.328	26787
590.360	26805
590.381	26327
590.431	25033
590.435	25137
590.488	25232
590.503	25219
590.541	25025
590.574	24705
590.594	24941
590.645	25120
590.647	25185
590.700	24552
590.716	24300
590.753	24503
590.787	24327
590.806	24289
590.859	24119
590.859	24216
590.912	24663
590.930	24746
590.965	25016
591.001	25036
591.018	24824
591.071	23988
591.072	23890
591.124	24196
591.143	24241
591.177	25227
591.214	25969
591.230	25961
591.283	25958
591.285	25850
591.336	26534
591.356	26756
591.389	26362
591.427	25590
591.442	25733
591.495	25890
591.498	25805
591.547	25232
591.569	24886
591.600	25038
591.640	24857
591.653	25146
591.706	26168
591.711	26165
591.759	27922
591.782	28723
591.811	29277
591.853	29737
591.864	29617
591.917	28503
591.924	28205
591.969	27556
591.995	27119
592.022	27664
592.066	28228
592.075	28517
592.127	29660
592.137	29752
592.180	32329
592.208	33828
592.233	32035
592.279	28219
592.285	28329
592.338	28389
592.350	28286
592.390	27722
592.421	27139
592.443	27529
592.491	28046
592.495	28149
592.548	28134
592.562	28028
592.600	28504
592.633	28729
592.653	28445
592.704	27278
592.705	27448
592.775	28057
592.846	28842
592.916	27862
592.987	30978
593.058	29046
593.128	28361
593.199	28958
593.270	27743
593.341	27774
593.411	27988
593.482	27561
593.553	28128
593.623	29336
593.694	28157
593.764	31313
593.835	28327
593.906	28269
593.976	28554
594.047	29751
594.117	32752
594.188	34200
594.258	28723
594.329	29548
594.399	29598
594.470	30408
594.540	29961
594.611	30408
594.681	29775
594.751	30392
594.822	31283
594.892	33413
594.963	33754
595.033	33676
595.103	32528
595.174	35340
595.244	42438
595.314	49641
595.384	34739
595.455	34444
595.525	34951
595.595	36548
595.665	34075
595.736	34908
595.806	34886
595.876	35312
595.946	33506
596.016	35579
596.087	35401
596.157	36524
596.227	36987
596.297	38243
596.367	39351
596.437	41778
596.507	46826
596.577	52527
596.647	42049
596.717	41334
596.787	42802
596.857	42105
596.927	41721
596.997	42990
597.067	43356
597.137	46511
597.207	45159
597.277	44215
597.347	43440
597.417	43453
597.487	44504
597.557	44777
597.626	44247
597.696	46550
597.766	49490
597.836	56472
597.906	44911
597.975	43869
598.045	42021
598.115	43636
598.185	44897
598.254	48512
598.324	50255
598.394	50936
598.464	50553
598.533	50068
598.603	47419
598.672	48218
598.742	47769
598.812	49797
598.881	49597
598.951	49948
599.020	49005
599.090	50731
599.159	52110
599.229	52012
599.299	49921
599.368	52679
599.437	51673
599.507	50991
599.576	50385
599.646	52751
599.715	53000
599.785	50813
599.854	52189
599.924	53945
599.993	53651
600.062	52903
600.132	53473
600.201	55391
600.270	59851
600.340	62188
600.409	61347
600.478	62113
600.547	63424
600.617	62034
600.686	57596
600.755	56599
600.824	56068
600.894	56935
600.963	56597
601.032	58046
601.101	58350
601.170	58614
601.239	58113
601.308	61612
601.378	60690
601.447	61641
601.516	63166
601.585	64210
601.654	65472
601.723	66396
601.792	69634
601.861	71057
601.930	78182
601.999	77218
602.068	74768
602.137	74659
602.206	76321
602.275	78099
602.343	78240
602.412	80209
602.481	77742
602.550	79042
602.619	80809
602.688	80475
602.756	82137
602.825	80136
602.894	82904
602.963	81632
603.032	83408
603.100	83610
603.169	79923
603.238	85760
603.307	81696
603.375	81669
603.444	85246
603.513	79218
603.581	79835
603.650	87101
603.719	72467
603.787	67929
603.856	69991
603.924	71226
603.993	73203
604.061	74042
604.130	76094
604.198	78411
604.267	77435
604.335	81647
604.404	79773
604.472	83025
604.541	83598
604.609	85498
604.678	87613
604.746	89614
604.815	93210
604.883	89682
604.951	86720
605.020	89416
605.088	83476
605.156	79309
605.225	77505
605.293	79020
605.361	79448
605.429	78607
605.498	79474
605.566	78553
605.634	81700
605.702	83332
605.771	83103
605.839	86321
605.907	80012
605.975	84024
606.043	79985
606.111	76903
606.180	86134
606.248	79580
606.316	79444
606.384	83923
606.452	70714
606.520	57254
606.588	54798
606.656	54763
606.724	54211
606.792	51230
606.860	47135
606.928	44902
606.996	43408
607.064	41923
607.132	43623
607.200	45010
607.267	46424
607.335	47389
607.403	47560
607.471	47015
607.539	46600
607.607	45557
607.674	40946
607.742	43181
607.810	42323
607.878	41759
607.946	40936
608.013	43520
608.081	43815
608.149	44965
608.216	44273
608.284	47158
608.352	44272
608.419	45163
608.487	50770
608.555	45544
608.622	43429
608.690	46402
608.757	47617
608.825	49250
608.893	49098
608.960	48045
609.028	49729
609.095	52171
609.163	45715
609.230	42777
609.298	40050
609.365	40769
609.432	42775
609.500	46099
609.567	51610
609.635	56273
609.702	58977
609.769	59847
609.837	49443
609.904	44808
609.971	45194
610.039	52552
610.106	67580
610.173	118602
610.241	266743
610.308	273931
610.375	154014
610.442	65430
610.509	48477
610.577	46785
610.644	44284
610.711	45538
610.778	44931
610.845	47948
610.912	50056
610.980	53057
611.047	60767
611.114	54298
611.181	48912
611.248	47535
611.315	51292
611.382	50293
611.449	51723
611.516	53435
611.583	52406
611.650	52328
611.717	52581
611.784	55177
611.851	55760
611.918	60381
611.984	68082
612.051	95357
612.118	187986
612.185	453023
612.252	320314
612.319	86112
612.386	67454
612.452	63734
612.519	62267
612.586	66178
612.653	62535
612.719	61680
612.786	57774
612.853	54855
612.919	53116
612.986	55501
613.053	52149
613.120	49377
613.186	46662
613.253	49457
613.319	47856
613.386	49194
613.453	48985
613.519	51087
613.586	50793
613.652	56491
613.719	53365
613.785	52384
613.852	50987
613.918	50244
613.985	52297
614.051	59466
614.118	77703
614.184	76839
614.250	51158
614.317	51054
614.383	49662
614.449	51211
614.516	48998
614.582	52301
614.648	49279
614.715	48630
614.781	49215
614.847	49708
614.914	49014
614.980	48637
615.046	48753
615.112	50112
615.179	48518
615.245	49553
615.311	47718
615.377	51015
615.443	50151
615.509	51493
615.575	52307
615.642	51052
615.708	52818
615.774	56043
615.840	60117
615.906	65715
615.972	76922
616.038	112221
616.104	233490
616.170	565814
616.236	536350
616.302	128797
616.368	85728
616.434	68208
616.500	63247
616.565	67110
616.631	76019
616.697	67374
616.763	68508
616.829	88235
616.895	139712
616.961	143711
617.026	77232
617.092	58015
617.158	56439
617.224	54694
617.289	51011
617.355	50483
617.421	49653
617.487	51264
617.552	47639
617.618	46684
617.684	46853
617.749	49055
617.815	45704
617.880	43986
617.946	45542
618.012	46896
618.077	48083
618.143	47021
618.208	47946
618.274	49068
618.339	49654
618.405	43963
618.470	43867
618.536	44977
618.601	46636
618.667	44018
618.732	42678
618.798	41926
618.863	40783
618.928	40219
618.994	42596
619.059	43947
619.124	47307
619.190	43690
619.255	41054
619.320	41617
619.386	42825
619.451	40550
619.516	39281
619.581	41805
619.647	42312
619.712	41937
619.777	41175
619.842	41125
619.907	42149
619.972	42849
620.038	41113
620.103	41483
620.168	39815
620.233	42196
620.298	41287
620.363	41755
620.428	42570
620.493	42784
620.558	42528
620.623	44130
620.688	42551
620.753	42712
620.818	42831
620.883	44396
620.948	44724
621.013	42966
621.078	43294
621.143	43426
621.207	46152
621.272	44731
621.337	45658
621.402	46914
621.467	51894
621.532	51904
621.596	48130
621.661	46235
621.726	44096
621.791	45378
621.855	46024
621.920	47221
621.985	46945
622.049	50582
622.114	48923
622.179	48180
622.243	48745
622.308	50641
622.373	52114
622.437	49637
622.502	47908
622.566	48698
622.631	46598
622.695	49369
622.760	48596
622.824	48110
622.889	47289
622.953	49522
623.018	55886
623.082	54657
623.147	49558
623.211	49154
623.276	48759
623.340	47075
623.404	45981
623.469	46818
623.533	45710
623.597	46241
623.662	44891
623.726	44052
623.790	42576
623.854	43242
623.919	43915
623.983	43380
624.047	43657
624.111	42923
624.176	44212
624.240	45284
624.304	47008
624.368	43008
624.432	43608
624.496	44264
624.560	45638
624.625	46648
624.689	44734
624.753	45401
624.817	43273
624.881	42789
624.945	41383
625.009	40678
625.073	41153
625.137	41330
625.201	44817
625.265	45153
625.329	40733
625.393	42220
625.456	41461
625.520	41976
625.584	43970
625.648	48671
625.712	58529
625.776	99812
625.839	108080
625.903	56220
625.967	40668
626.031	53852
626.095	72554
626.158	43619
626.222	33087
626.286	32757
626.349	31734
626.413	31039
626.477	32900
626.540	30497
626.604	30329
626.668	32184
626.731	30111
626.795	31517
626.858	30250
626.922	29417
626.986	29874
627.049	28394
627.113	29849
627.176	29920
627.240	28101
627.303	29081
627.366	28770
627.430	29022
627.493	28624
627.557	29073
627.620	29223
627.684	29737
627.747	27761
627.810	27064
627.874	26573
627.937	24879
628.000	27872
628.064	26804
628.127	22724
628.190	24238
628.253	24324
628.317	24024
628.380	23813
628.443	22890
628.506	22688
628.569	22228
628.632	21003
628.696	21320
628.759	20718
628.822	19997
628.885	20761
628.948	20483
629.011	20443
629.074	20081
629.137	19278
629.200	18957
629.263	21424
629.326	18848
629.389	19738
629.452	19783
629.515	20783
629.578	19208
629.641	20346
629.704	19908
629.767	19729
629.830	19630
629.892	18638
629.955	18543
630.018	20309
630.081	19248
630.144	20100
630.207	16944
630.269	20471
630.332	20187
630.395	18304
630.458	18208
630.520	16185
630.583	18610
630.646	16997
630.708	16686
630.771	15761
630.834	18117
630.896	16191
630.959	17086
631.021	15895
631.084	17643
631.146	17825
631.209	20318
631.272	16226
631.334	17180
631.397	16021
631.459	16176
631.522	16129
631.584	16491
631.646	18457
631.709	18475
631.771	19604
631.834	18163
631.896	16896
631.958	16446
632.021	17307
632.083	15407
632.145	16173
632.208	15188
632.270	16609
632.332	15067
632.395	14954
632.457	16534
632.519	15405
632.581	17203
632.643	15129
632.706	16325
632.768	14381
632.830	15072
632.892	15427
632.954	15608
633.016	16587
633.078	14744
633.141	14859
633.203	16238
633.265	15319
633.327	15162
633.389	13692
633.451	16427
633.513	16441
633.575	17865
633.637	15102
633.698	16076
633.760	15910
633.822	16047
633.884	15084
633.946	15645
634.008	15463
634.070	16122
634.132	18370
634.193	17289
634.255	16820
634.317	16137
634.379	15889
634.441	15083
634.502	14315
634.564	15969
634.626	14051
634.687	15199
634.749	14500
634.811	15390
634.873	13451
634.934	13767
634.996	14101
635.057	14281
635.119	13209
635.181	13517
635.242	14536
635.304	12127
635.365	15568
635.427	13946
635.488	12857
635.550	13286
635.611	15140
635.673	12303
635.734	14296
635.796	13937
635.857	15138
635.918	14414
635.980	15032
636.041	16146
636.102	16369
636.164	15419
636.225	16512
636.286	13413
636.348	14539
636.409	13660
636.470	12754
636.531	14408
636.593	14675
636.654	14996
636.715	13417
636.776	13082
636.838	12544
636.899	14172
636.960	12132
637.021	12312
637.082	12574
637.143	12721
637.204	11055
637.265	11738
637.326	11979
637.387	12664
637.448	10411
637.509	12547
637.570	12212
637.631	13128
637.692	11016
637.753	10848
637.814	11859
637.875	11587
637.936	12105
637.997	11016
638.058	11187
638.119	11981
638.179	11338
638.240	11451
638.301	12146
638.362	10556
638.423	10720
638.483	12553
638.544	10313
638.605	11440
638.666	9638
638.726	11597
638.787	11343
638.848	11438
638.908	10838
638.969	11705
639.030	10623
639.090	10128
639.151	9227
639.211	12215
639.272	12315
639.332	15249
639.393	12900
639.453	10670
639.514	10368
639.574	11204
639.635	9283
639.695	11830
639.756	9627
639.816	11369
639.877	10909
639.937	13044
639.997	13735
640.058	10260
640.118	9713
640.178	11164
640.239	9971
640.299	9994
640.359	9503
640.420	10334
640.480	10866
640.540	9810
640.600	9821
640.661	11498
640.721	9603
640.781	13269
640.841	11135
640.901	10834
640.961	9965
641.021	10760
641.082	10099
641.142	12332
641.202	11507
641.262	8569
641.322	10238
641.382	8929
641.442	10359
641.502	9853
641.562	9971
641.622	8941
641.682	9557
641.742	10237
641.802	9674
641.861	10341
641.921	9759
641.981	10726
642.041	10325
642.101	11736
642.161	7501
642.221	9321
642.280	8764
642.340	9759
642.400	8239
642.460	10447
642.519	8817
642.579	9938
642.639	10156
642.698	7408
642.758	10130
642.818	9563
642.877	8280
642.937	9358
642.997	10078
643.056	12604
643.116	8573
643.175	11120
643.235	9112
643.294	9932
643.354	10240
643.414	10261
643.473	11703
643.532	12038
643.592	14138
643.651	21570
643.711	36230
643.770	68233
643.830	159308
643.889	359221
643.948	90261
644.008	18043
644.067	12674
644.126	10527
644.186	10486
644.245	10366
644.304	7595
644.363	10230
644.423	7119
644.482	9310
644.541	9154
644.600	7647
644.659	10692
644.719	10715
644.778	14163
644.837	19562
644.896	34923
644.955	81215
645.014	32392
645.073	13553
645.132	9188
645.191	9945
645.250	8254
645.309	9949
645.368	9171
645.427	11588
645.486	12381
645.545	20570
645.604	9660
645.663	8494
645.722	8487
645.781	10543
645.840	8832
645.898	10882
645.957	14136
646.016	18081
646.075	32340
646.134	62466
646.192	159520
646.251	251994
646.310	39162
646.369	13576
646.427	11871
646.486	8635
646.545	9233
646.603	9253
646.662	8632
646.721	8416
646.779	6698
646.838	7281
646.896	8734
646.955	10277
647.014	12971
647.072	19179
647.131	50606
647.189	28463
647.248	7927
647.306	7417
647.365	8334
647.423	6282
647.481	7457
647.540	5756
647.598	7248
647.657	6580
647.715	7435
647.773	6157
647.832	7011
647.890	5358
647.948	7051
648.007	7985
648.065	6133
648.123	6299
648.181	7712
648.240	9431
648.298	7054
648.356	6147
648.414	6639
648.472	6528
648.531	7090
648.589	6321
648.647	6583
648.705	6137
648.763	6710
648.821	7348
648.879	5618
648.937	6795
648.995	7019
649.053	8271
649.111	10381
649.169	15219
649.227	25484
649.285	49708
649.343	139759
649.401	72676
649.459	18895
649.516	14100
649.574	11033
649.632	20185
649.690	23588
649.748	13188
649.806	14609
649.863	25754
649.921	36427
649.979	25421
650.037	7997
650.094	5153
650.152	6391
650.210	5587
650.268	5923
650.325	5259
650.383	6762
650.440	4934
650.498	5213
650.556	6311
650.613	4516
650.671	5632
650.728	5499
650.786	6249
650.843	5571
650.901	3996
650.958	5914
651.016	5267
651.073	4082
651.131	5246
651.188	4351
651.246	4808
651.303	4469
651.360	5426
651.418	4376
651.475	6414
651.532	3776
651.590	5162
651.647	3697
651.704	4853
651.762	4338
651.819	5549
651.876	4548
651.933	4807
651.990	4526
652.048	3147
652.105	3983
652.162	4727
652.219	3937
652.276	5230
652.333	5270
652.390	3658
652.448	5146
652.505	5086
652.562	4227
652.619	5363
652.676	7750
652.733	9837
652.790	4200
652.847	3056
652.904	3407
652.961	3425
653.017	4246
653.074	4414
653.131	5309
653.188	3535
653.245	3967
653.302	4277
653.359	4404
653.415	5223
653.472	4256
653.529	5399
653.586	3413
653.642	4499
653.699	3568
653.756	3738
653.813	3805
653.869	4495
653.926	2498
653.983	3138
654.039	4183
654.096	3384
654.152	4690
654.209	3729
654.266	3916
654.322	4109
654.379	4782
654.435	5859
654.492	4205
654.548	6278
654.605	7461
654.661	6196
654.717	3909
654.774	4819
654.830	4414
654.887	4047
654.943	4181
655.000	5353
655.056	4246
655.112	4931
655.168	3630
655.225	4407
655.281	4698
655.337	5068
655.394	8438
655.450	6782
655.506	6094
655.562	9451
655.618	8537
655.675	3931
655.731	4356
655.787	3504
655.843	4404
655.899	3377
655.955	4103
656.011	3874
656.067	3062
656.123	4304
656.179	4344
656.235	5029
656.291	2067
656.347	5636
656.403	3635
656.459	4009
656.515	4737
656.571	5080
656.627	4069
656.683	4910
656.739	4334
656.795	4793
656.850	3985
656.906	5233
656.962	4117
657.018	3649
657.074	3385
657.129	5015
657.185	4655
657.241	7926
657.297	5209
657.352	4847
657.408	3624
657.464	4521
657.519	4109
657.575	2588
657.630	3364
657.686	3266
657.742	2905
657.797	4067
657.853	3626
657.908	4447
657.964	3082
658.019	3954
658.075	3591
658.130	4257
658.186	2346
658.241	4638
658.297	3160
658.352	3868
658.407	3992
658.463	3695
658.518	2620
658.573	3904
658.629	2534
658.684	3494
658.739	4698
658.795	3438
658.850	2835
658.905	3507
658.960	3545
659.016	2861
659.071	2968
659.126	3658
659.181	3463
659.236	5724
659.291	5420
659.346	4609
659.401	4466
659.457	5635
659.512	6737
659.567	5662
659.622	3534
659.677	4313
659.732	2834
659.787	3688
659.842	4423
659.897	5080
659.952	3626
660.007	3156
660.061	3749
660.116	3613
660.171	2873
660.226	3802
660.281	4207
660.336	2811
660.391	3754
660.445	3408
660.500	3062
660.555	4354
660.610	3908
660.664	3911
660.719	2746
660.774	3776
660.828	3445
660.883	3832
660.938	4898
660.992	2956
661.047	3600
661.101	3248
661.156	2840
661.211	2695
661.265	2783
661.320	4299
661.374	3097
661.429	3525
661.483	4528
661.538	2806
661.592	3612
661.647	3541
661.701	2979
661.755	3970
661.810	2880
661.864	3517
661.919	3288
661.973	4126
662.027	2926
662.081	3232
662.136	3262
662.190	3317
662.244	4048
662.299	4172
662.353	3188
662.407	3277
662.461	3127
662.515	3645
662.569	3492
662.624	4310
662.678	2567
662.732	3233
662.786	2965
662.840	3435
662.894	3255
662.948	2970
663.002	2757
663.056	3054
663.110	2534
663.164	2998
663.218	2639
663.272	3198
663.326	3454
663.380	3279
663.434	3384
663.488	2916
663.542	3443
663.595	3863
663.649	3689
663.703	4219
663.757	3905
663.811	3631
663.864	2272
663.918	2967
663.972	3683
664.026	2686
664.079	2662
664.133	4429
664.187	2012
664.240	2815
664.294	2080
664.348	3773
664.401	3521
664.455	3268
664.508	2230
664.562	3884
664.615	2282
664.669	3428
664.722	3286
664.776	2799
664.829	2827
664.883	3704
664.936	3270
664.990	3560
665.043	3903
665.097	3562
665.150	4300
665.203	3004
665.257	2809
665.310	3572
665.363	3476
665.417	3931
665.470	2931
665.523	3739
665.576	3724
665.630	3476
665.683	3099
665.736	3457
665.789	3660
665.842	3244
665.895	2982
665.949	3575
666.002	3577
666.055	4450
666.108	4479
666.161	4529
666.214	3503
666.267	2876
666.320	3726
666.373	3513
666.426	3081
666.479	3580
666.532	4226
666.585	3788
666.638	4343
666.691	4485
666.744	4355
666.796	4181
666.849	3626
666.902	4523
666.955	2418
667.008	3289
667.060	3015
667.113	2433
667.166	3597
667.219	3732
667.271	3306
667.324	3506
667.377	3617
667.430	3297
667.482	4329
667.535	4304
667.587	3429
667.640	3646
667.693	4101
667.745	5505
667.798	5335
667.850	3525
667.903	3803
667.955	3950
668.008	2693
668.060	3860
668.113	3913
668.165	4791
668.218	4444
668.270	3541
668.322	3366
668.375	3953
668.427	3937
668.479	3267
668.532	3263
668.584	4651
668.636	3859
668.689	4041
668.741	3340
668.793	3921
668.845	3015
668.898	4768
668.950	3519
669.002	4162
669.054	3414
669.106	4217
669.158	4104
669.211	4153
669.263	3961
669.315	6244
669.367	5790
669.419	4344
669.471	5553
669.523	5491
669.575	7808
669.627	5447
669.679	4532
669.731	4902
669.783	5378
669.835	5634
669.886	4489
669.938	5748
669.990	4122
670.042	4140
670.094	5142
670.146	6183
670.197	6836
670.249	8626
670.301	9246
670.353	13533
670.404	17662
670.456	26120
670.508	40831
670.560	67941
670.611	114429
670.663	201651
670.715	420610
670.766	565728
670.818	245239
670.869	61156
670.921	28815
670.972	20058
671.024	14345
671.075	11978
671.127	9040
671.178	8309
671.230	6872
671.281	6327
671.333	6176
671.384	5430
671.436	5811
671.487	6865
671.538	6992
671.590	6962
671.641	9482
671.692	12773
671.744	19767
671.795	17062
671.846	8363
671.897	5803
671.949	5272
672.000	4742
672.051	4111
672.102	5109
672.153	3147
672.204	4073
672.256	3436
672.307	4282
672.358	3290
672.409	4661
672.460	3083
672.511	3196
672.562	3474
672.613	3141
672.664	2736
672.715	3133
672.766	2937
672.817	2979
672.868	2531
672.919	3130
672.970	2210
673.021	3770
673.071	1978
673.122	3417
673.173	3400
673.224	3565
673.275	3339
673.326	3166
673.376	3577
673.427	3087
673.478	2499
673.528	2951
673.579	2475
673.630	2966
673.680	3707
673.731	2736
673.782	1810
673.832	3055
673.883	3030
673.934	2729
673.984	3016
674.035	2671
674.085	3015
674.136	3935
674.186	3190
674.237	3561
674.287	5376
674.338	3421
674.388	3208
674.438	2494
674.489	2782
674.539	2944
674.589	2401
674.640	3576
674.690	3256
674.740	2977
674.791	3970
674.841	3481
674.891	3206
674.942	2750
674.992	2084
675.042	2601
675.092	1801
675.142	1853
675.193	1732
675.243	2501
675.293	2267
675.343	2868
675.393	2795
675.443	2821
675.493	2179
675.543	2502
675.593	2117
675.643	3226
675.693	2565
675.743	2678
675.793	2548
675.843	2310
675.893	2488
675.943	2909
675.993	2509
676.043	2334
676.093	1889
676.142	2367
676.192	2205
676.242	3061
676.292	1521
676.341	2300
676.391	1878
676.441	2666
676.491	1948
676.540	1868
676.590	2625
676.640	2365
676.689	2060
676.739	1977
676.789	1277
676.838	2305
676.888	2776
676.937	1901
676.987	1714
677.037	1377
677.086	1217
677.136	1932
677.185	1718
677.235	1716
677.284	1107
677.333	2278
677.383	1476
677.432	1081
677.482	1121
677.531	1913
677.580	1988
677.630	2352
677.679	1761
677.728	2139
677.778	2402
677.827	2912
677.876	1782
677.925	1185
677.975	1965
678.024	1454
678.073	1045
678.122	2593
678.171	1580
678.220	2874
678.269	1757
678.319	1897
678.368	1877
678.417	2554
678.466	1808
678.515	2686
678.564	1773
678.613	1479
678.662	1767
678.711	2191
678.760	882
678.809	2979
678.857	1536
678.906	2525
678.955	1041
679.004	1879
679.053	1527
679.102	1856
679.151	1280
679.199	1882
679.248	1974
679.297	1511
679.346	2078
679.394	1637
679.443	1205
679.492	1565
679.540	1837
679.589	2035
679.638	1729
679.686	1941
679.735	1807
679.784	914
679.832	1021
679.881	1322
679.929	1249
679.978	1339
680.026	938
680.075	1849
680.123	1178
680.172	1937
680.220	1099
680.268	2437
680.317	1190
680.365	1385
680.414	666
680.462	2065
680.510	1570
680.559	1557
680.607	622
680.655	1096
680.703	1218
680.752	1440
680.800	1050
680.848	1469
680.896	540
680.945	1157
680.993	1093
681.041	1010
681.089	1838
681.137	1432
681.185	1035
681.233	1585
681.258	1205
681.281	803
681.329	1562
681.377	1072
681.380	1162
681.425	1951
681.473	1499
681.502	2096
681.521	2426
681.569	2192
681.617	1917
681.624	1974
681.665	2019
681.713	2524
681.745	1879
681.761	1508
681.809	2740
681.857	2227
681.867	2239
681.904	2089
681.952	3317
681.989	3207
682.000	3125
682.048	2488
682.096	2987
682.111	3067
682.143	3102
682.191	2477
682.233	3002
682.239	3037
682.286	2666
682.334	3020
682.354	3142
682.382	3218
682.430	3494
682.476	3169
682.477	3122
682.525	3497
682.572	3629
682.598	3299
682.620	2969
682.667	3830
682.715	3468
682.720	3575
682.763	4157
682.810	3847
682.841	3676
682.857	3560
682.905	3934
682.952	4367
682.963	4349
683.000	4108
683.047	5055
683.085	5244
683.095	5251
683.142	4728
683.190	4459
683.206	4664
683.237	4934
683.284	4494
683.328	5249
683.332	5282
683.379	4705
683.426	4958
683.449	4932
683.473	4827
683.521	4817
683.568	6105
683.571	6123
683.615	5984
683.662	5672
683.693	5539
683.709	5404
683.757	4966
683.804	6523
683.814	6387
683.851	5812
683.898	6726
683.936	6121
683.945	5937
683.992	6634
684.039	5931
684.057	6195
684.086	6554
684.133	6212
684.179	6489
684.180	6468
684.227	6192
684.274	6803
684.300	6441
684.321	6162
684.368	6500
684.415	7312
684.422	7310
684.462	7103
684.509	6764
684.543	6900
684.556	6934
684.603	7066
684.649	6662
684.665	6848
684.696	7173
684.743	7315
684.786	7513
684.790	7513
684.837	8000
684.883	8093
684.908	8099
684.930	8087
684.977	8919
685.023	8950
685.029	8887
685.070	7994
685.117	8230
685.150	8625
685.164	8822
685.210	9728
685.257	9629
685.272	9777
685.303	9817
685.350	8845
685.393	9340
685.396	9377
685.443	8801
685.490	9792
685.514	9433
685.536	9065
685.583	9470
685.629	9481
685.636	9532
685.675	9767
685.722	9781
685.757	9835
685.768	9847
685.815	9530
685.861	10324
685.878	10064
685.908	9553
685.954	10290
686.000	10693
686.000	10693
686.047	10351
686.093	10864
686.121	11367
686.139	11548
686.185	11110
686.232	10730
686.242	10680
686.278	10450
686.324	10837
686.363	10526
686.370	10483
686.416	10317
686.463	10251
686.484	10516
686.509	10789
686.555	10586
686.601	11014
686.606	11073
686.647	11554
686.693	11178
686.727	11345
686.739	11409
686.785	11334
686.831	10899
686.848	10995
686.877	11100
686.923	10982
686.969	11195
686.969	11195
687.015	11393
687.061	11395
687.090	11388
687.107	11290
687.153	11802
687.199	12197
687.211	11889
687.245	11164
687.291	10955
687.332	11504
687.336	11590
687.382	11560
687.428	12094
687.453	12207
687.474	12048
687.520	12307
687.565	12110
687.574	12021
687.611	11913
687.657	12202
687.695	12855
687.702	13021
687.748	12681
687.794	13920
687.816	13906
687.839	13578
687.885	13418
687.931	12997
687.937	12953
687.976	12960
688.022	13049
688.058	13680
688.067	13872
688.113	13058
688.158	13493
688.179	13411
688.204	13273
688.249	13903
688.295	13576
688.300	13622
688.340	14080
688.386	14144
688.421	14105
688.431	14029
688.477	13489
688.522	13915
688.542	13770
688.567	13887
688.613	13640
688.658	13801
688.663	13898
688.703	14486
688.749	14343
688.784	14258
688.794	14259
688.839	14264
688.884	14209
688.905	14049
688.930	13746
688.975	13928
689.020	13551
689.026	13492
689.065	13815
689.110	14007
689.146	14984
689.155	15131
689.201	14813
689.246	14421
689.267	14576
689.291	14961
689.336	15356
689.381	15174
689.388	15248
689.426	15630
689.471	15747
689.509	15725
689.516	15707
689.561	15479
689.606	15306
689.630	15396
689.651	15546
689.696	15344
689.741	15719
689.750	15737
689.785	15920
689.830	15412
689.871	15463
689.875	15500
689.920	15652
689.965	16031
689.992	15732
690.010	15563
690.054	16026
690.099	16130
690.112	16303
690.144	16853
690.189	16213
690.233	16694
690.233	16722
690.278	17252
690.323	17437
690.354	17940
690.367	18221
690.412	18743
690.457	19027
690.474	19323
690.501	20019
690.546	20325
690.590	21350
690.595	21390
690.635	22597
690.680	23835
690.716	25060
690.724	25907
690.769	30353
690.813	34917
690.836	37087
690.857	42629
690.902	54516
690.946	67999
690.957	71030
690.991	98915
691.035	138693
691.077	174437
691.080	174693
691.124	167560
691.168	160311
691.198	157046
691.213	145100
691.257	109309
691.301	73751
691.318	59596
691.346	53365
691.390	44264
691.434	34369
691.439	33254
691.478	30944
691.522	27758
691.559	25515
691.567	25410
691.611	24316
691.655	22881
691.680	22300
691.699	22134
691.743	22231
691.787	20893
691.800	20759
691.831	21089
691.875	21031
691.919	21567
691.921	21520
691.964	20958
692.008	20967
692.041	20525
692.052	20462
692.096	20479
692.139	20595
692.162	20514
692.183	20475
692.227	20087
692.271	19864
692.282	19809
692.315	20141
692.359	20523
692.402	20561
692.403	20599
692.447	20598
692.490	20420
692.523	20634
692.534	20858
692.578	21094
692.622	21188
692.643	21238
692.666	21132
692.709	21629
692.753	21019
692.763	21040
692.797	21535
692.840	21570
692.884	21516
692.884	21565
692.928	22237
692.971	23210
693.004	23537
693.015	23596
693.059	23936
693.102	24273
693.124	24424
693.146	24966
693.189	25666
693.233	26613
693.245	26824
693.276	28625
693.320	31197
693.363	33031
693.365	33057
693.407	37121
693.450	40978
693.485	44361
693.493	46468
693.537	56830
693.580	67035
693.605	72939
693.624	84745
693.667	112759
693.710	140881
693.725	151015
693.753	203822
693.797	287497
693.840	371057
693.845	379753
693.883	368578
693.926	353832
693.966	342335
693.970	335305
694.013	256044
694.056	176312
694.086	121385
694.099	114434
694.142	91598
694.185	68931
694.206	57847
694.229	54454
694.272	47869
694.315	41429
694.326	39714
694.358	37958
694.401	35150
694.444	32369
694.446	32154
694.487	30593
694.530	29012
694.566	27755
694.573	27705
694.616	26810
694.659	25673
694.686	25130
694.702	25128
694.745	25047
694.787	24663
694.806	24403
694.830	24141
694.873	23858
694.916	23309
694.926	23202
694.959	23344
695.002	23008
695.044	23121
695.046	23060
695.087	23031
695.130	23119
695.166	23026
695.172	23060
695.215	22860
695.258	22753
695.286	22698
695.301	22707
695.343	22397
695.386	22215
695.406	21945
695.428	21858
695.471	21905
695.514	21619
695.526	21623
695.556	22192
695.599	22808
695.641	23108
695.646	23096
695.684	22751
695.726	22324
695.766	21928
695.769	21997
695.811	22258
695.854	22361
695.886	22376
695.896	22383
695.938	22206
695.981	22139
696.005	21946
696.023	22080
696.065	22518
696.108	22805
696.125	22793
696.150	22834
696.192	23045
696.235	23201
696.245	23171
696.277	23428
696.319	23710
696.361	23957
696.365	23921
696.404	25071
696.446	26322
696.485	27289
696.488	27297
696.530	26471
696.572	25801
696.604	25088
696.614	24989
696.656	24418
696.698	23698
696.724	23314
696.740	23269
696.783	22810
696.825	22485
696.844	22211
696.867	22228
696.909	22249
696.951	22172
696.964	22141
696.992	22338
697.034	22445
697.076	22582
697.083	22522
697.118	22412
697.160	22429
697.202	22277
697.203	22216
697.244	22613
697.286	22947
697.323	23106
697.327	23133
697.369	22862
697.411	22583
697.442	22331
697.453	22406
697.494	22542
697.536	22513
697.562	22490
697.578	22540
697.620	22464
697.661	22475
697.682	22365
697.703	22520
697.744	22832
697.786	23095
697.801	23130
697.828	23165
697.869	23010
697.911	22960
697.921	22879
697.952	22831
697.994	22744
698.035	22571
698.040	22499
698.077	22365
698.118	21999
698.160	21761
698.160	21700
698.201	21917
698.243	22035
698.279	22108
698.284	22218
698.325	22673
698.367	23121
698.399	23384
698.408	23380
698.449	23074
698.491	22801
698.518	22550
698.532	22742
698.573	23126
698.614	23518
698.638	23672
698.656	23600
698.697	23290
698.738	22982
698.757	22760
698.779	22965
698.820	23265
698.862	23540
698.877	23586
698.903	23673
698.944	23699
698.985	23720
698.996	23663
699.026	23530
699.067	23255
699.116	22866
699.235	23714
699.354	23530
699.474	22584
699.593	24761
699.713	23178
699.832	23852
699.951	23329
700.070	22578
700.190	23009
700.309	22456
700.428	22636
700.547	22619
700.667	22534
700.786	22277
700.905	21804
701.024	21064
701.143	21721
701.262	21370
701.381	21973
701.500	21428
701.619	21933
701.738	20970
701.857	21620
701.976	21281
702.095	20500
702.214	21332
702.333	20588
702.452	20769
702.571	20384
702.690	21037
702.809	20005
702.928	20684
703.047	20912
703.165	19893
703.284	20284
703.403	20268
703.522	20083
703.640	20901
703.759	20956
703.878	21719
703.997	19793
704.115	20368
704.234	19285
704.353	19976
704.471	19044
704.590	19561
704.708	19202
704.827	18271
704.946	18479
705.064	19780
705.183	20374
705.301	21646
705.420	29952
705.538	26015
705.656	24229
705.775	23549
705.893	30474
706.012	33853
706.130	24458
706.249	24780
706.367	23076
706.485	23785
706.604	23888
706.722	23205
706.840	23934
706.958	25568
707.077	24862
707.195	22885
707.313	22816
707.431	22000
707.549	22068
707.668	21741
707.786	21601
707.904	21292
708.022	21070
708.140	21180
708.258	21435
708.376	21234
708.494	21155
708.612	23065
708.730	29693
708.848	28555
708.966	25591
709.084	26004
709.202	24262
709.320	24456
709.438	25867
709.556	25349
709.674	25485
709.791	25798
709.909	24602
710.027	24941
710.145	24337
710.263	24362
710.380	23725
710.498	23717
710.616	22187
710.733	23166
710.851	22485
710.969	24237
711.086	23323
711.204	22889
711.322	22319
711.439	22287
711.557	22754
711.674	22784
711.792	21539
711.909	23648
712.027	22985
712.144	21230
712.262	22039
712.379	23412
712.497	31149
712.614	31781
712.732	27549
712.849	26137
712.966	26918
713.084	27435
713.201	26093
713.318	26502
713.436	26626
713.553	26151
713.670	26343
713.787	26791
713.905	26648
714.022	26243
714.139	24833
714.256	26824
714.373	26832
714.490	30923
714.608	44173
714.725	120000
714.842	132853
714.959	29414
715.076	25059
715.193	23499
715.310	22573
715.427	23535
715.544	22125
715.661	23081
715.778	23368
715.895	25205
716.011	23607
716.128	22735
716.245	21865
716.362	22714
716.479	23055
716.596	22349
716.713	22488
716.829	22439
716.946	21393
717.063	20493
717.180	21769
717.296	21339
717.413	20746
717.530	20542
717.646	21069
717.763	20269
717.880	19981
717.996	20097
718.113	20352
718.229	20327
718.346	18975
718.462	19043
718.579	20658
718.695	20286
718.812	20766
718.928	20056
719.045	19264
719.161	19341
719.277	19056
719.394	19057
719.510	20186
719.626	19440
719.743	21934
719.859	21197
719.975	25137
720.092	42812
720.208	78600
720.324	25624
720.440	20131
720.557	19793
720.673	21099
720.789	23975
720.905	33664
721.021	23040
721.137	19207
721.253	19368
721.369	18797
721.486	18137
721.602	20364
721.718	18840
721.834	17164
721.950	18278
722.066	17125
722.181	17709
722.297	17747
722.413	18126
722.529	16629
722.645	17221
722.761	15985
722.877	16874
722.993	15977
723.108	16672
723.224	16693
723.340	16821
723.456	16487
723.571	16936
723.687	16448
723.803	16705
723.918	15737
724.034	16671
724.150	15572
724.265	16802
724.381	20137
724.497	21933
724.612	16229
724.728	14686
724.843	14779
724.959	15720
725.074	18706
725.190	20723
725.305	15289
725.421	15976
725.536	14764
725.651	15084
725.767	14643
725.882	14509
725.997	14609
726.113	14214
726.228	14267
726.343	15061
726.459	14415
726.574	14306
726.689	14239
726.804	14010
726.920	14544
727.035	14304
727.150	14881
727.265	13624
727.380	14910
727.495	14032
727.610	12796
727.725	14003
727.841	14787
727.956	19161
728.071	17209
728.186	12754
728.301	12963
728.416	14242
728.531	12917
728.645	12378
728.760	13794
728.875	14141
728.990	12547
729.105	13720
729.220	12648
729.335	12472
729.449	13138
729.564	12126
729.679	12081
729.794	13073
729.908	13092
730.023	11908
730.138	12388
730.253	12226
730.367	11965
730.482	12294
730.596	12822
730.711	12248
730.826	13070
730.940	12754
731.055	12031
731.169	12008
731.284	12158
731.398	11609
731.513	12655
731.627	12957
731.742	13413
731.856	13364
731.970	12348
732.085	13261
732.199	13275
732.313	13970
732.428	20396
732.542	38798
732.656	27907
732.771	14405
732.885	12325
732.999	13031
733.113	12048
733.227	12962
733.342	12192
733.456	12681
733.570	12523
733.684	12375
733.798	11082
733.912	12305
734.026	11927
734.140	11626
734.254	13018
734.368	13962
734.482	14825
734.596	11789
734.710	12325
734.824	12549
734.938	11539
735.052	11026
735.166	12587
735.280	12760
735.393	11941
735.507	11529
735.621	12681
735.735	15288
735.849	11823
735.962	11322
736.076	11719
736.190	12090
736.303	12213
736.417	13309
736.531	10808
736.644	11973
736.758	11507
736.872	11698
736.985	11545
737.099	10404
737.212	9977
737.326	10597
737.439	11124
737.553	11158
737.666	11554
737.780	11282
737.893	10625
738.007	10547
738.120	10815
738.233	11444
738.347	11684
738.460	11062
738.573	10619
738.687	10576
738.800	11443
738.913	11311
739.026	11070
739.140	11487
739.253	11076
739.366	10591
739.479	11060
739.592	9788
739.705	10227
739.818	10449
739.932	11126
740.045	10798
740.158	10727
740.271	11423
740.384	11091
740.497	10746
740.610	11317
740.723	11246
740.836	11759
740.949	11322
741.062	11047
741.174	11031
741.287	11081
741.400	10755
741.513	10320
741.626	10765
741.739	11113
741.851	10926
741.964	10289
742.077	10429
742.189	11048
742.302	10932
742.415	10530
742.527	10560
742.640	10776
742.753	10722
742.865	10441
742.978	10350
743.090	11408
743.203	10846
743.316	10983
743.428	9930
743.541	10941
743.653	11435
743.766	11207
743.878	10425
743.990	10695
744.103	11741
744.215	10868
744.327	10545
744.440	11044
744.552	12247
744.664	10830
744.777	10664
744.889	10853
745.001	11469
745.113	10570
745.226	9689
745.338	10269
745.450	11491
745.562	10328
745.674	10944
745.786	11045
745.898	10985
746.010	10895
746.122	10353
746.234	10827
746.347	11221
746.459	11352
746.570	11469
746.682	10615
746.794	10849
746.906	10635
747.018	11224
747.130	10843
747.242	10819
747.354	11334
747.466	11212
747.577	11110
747.689	10719
747.801	10510
747.913	10910
748.024	10591
748.136	10576
748.248	10620
748.359	10642
748.471	11187
748.583	10499
748.694	10600
748.806	11471
748.918	10785
749.029	12055
749.141	12068
749.252	11942
749.364	11742
749.475	12174
749.587	11224
749.698	11075
749.809	11376
749.921	12214
750.032	11719
750.144	10906
750.255	10954
750.366	11653
750.478	11670
750.589	11273
750.700	11136
750.811	11974
750.923	12329
751.034	12210
751.145	13000
751.256	11323
751.367	10858
751.479	11462
751.590	12147
751.701	11508
751.812	11679
751.923	11941
752.034	11566
752.145	12174
752.256	11808
752.367	12035
752.478	11824
752.589	12635
752.700	12486
752.811	11565
752.922	12036
753.032	12878
753.143	12619
753.254	11493
753.365	13062
753.476	13187
753.586	12976
753.697	12931
753.808	13164
753.919	13523
754.029	13394
754.140	13101
754.251	13077
754.361	13731
754.472	13212
754.582	13404
754.693	13861
754.804	13190
754.914	13440
755.025	14660
755.135	13931
755.246	13516
755.356	13869
755.466	14179
755.577	14636
755.687	15110
755.798	14716
755.908	15071
756.018	15147
756.129	15980
756.239	15407
756.349	15486
756.460	15279
756.570	15916
756.680	15558
756.790	15448
756.900	16565
757.011	16602
757.121	17378
757.231	16101
757.341	16506
757.451	16756
757.561	16553
757.671	17797
757.781	18117
757.891	18393
758.001	18034
758.111	18540
758.221	19895
758.331	19970
758.441	19053
758.551	18929
758.661	19770
758.771	20516
758.880	20139
758.990	21558
759.100	21056
759.210	21352
759.320	22123
759.429	22741
759.539	23014
759.649	23131
759.758	23782
759.868	24753
759.978	24022
760.087	26208
760.197	25337
760.307	26895
760.416	25785
760.526	26930
760.635	27948
760.745	28587
760.854	29611
760.964	29757
761.073	30558
761.182	31702
761.292	32008
761.401	33603
761.511	33432
761.620	34916
761.729	36945
761.839	37762
761.948	38798
762.057	39649
762.166	41035
762.276	41764
762.385	44815
762.494	45055
762.603	46684
762.712	49214
762.822	51945
762.931	53246
763.040	53885
763.149	58113
763.258	61271
763.367	64750
763.476	67891
763.585	71594
763.694	74483
763.803	79500
763.912	84052
764.021	88883
764.130	94006
764.238	99659
764.347	107786
764.456	116899
764.565	127325
764.674	136647
764.783	148470
764.891	163425
765.000	184598
765.109	203384
765.217	228690
765.326	257103
765.435	293873
765.543	339053
765.652	394277
765.761	460856
765.869	537966
765.978	619444
766.086	690897
766.195	729770
766.303	704844
766.412	536431
766.520	505286
766.629	663894
766.737	711989
766.846	684680
766.954	613312
767.062	529460
767.171	446967
767.279	372959
767.387	316863
767.496	272509
767.604	237719
767.712	211684
767.820	189613
767.928	174798
768.037	160810
768.145	152436
768.253	147231
768.361	143684
768.469	143285
768.577	146311
768.685	153008
768.793	162633
768.901	175356
769.009	203219
769.117	235440
769.225	286269
769.333	354272
769.441	454106
769.549	577957
769.657	686040
769.765	678407
769.873	502023
769.981	596182
770.088	658184
770.196	589628
770.304	490504
770.412	399590
770.519	326006
770.627	271715
770.735	230211
770.842	197359
770.950	173971
771.058	152434
771.165	135715
771.273	122689
771.380	111546
771.488	101303
771.595	92606
771.703	86205
771.810	80515
771.918	75770
772.025	70215
772.133	66729
772.240	63635
772.348	60060
772.455	56986
772.562	53401
772.670	51205
772.777	49062
772.884	46869
772.991	45565
773.099	44084
773.206	41835
773.313	40777
773.420	38737
773.528	37397
773.635	35080
773.742	35185
773.849	34088
773.956	31966
774.063	32227
774.170	31395
774.277	30956
774.384	29057
774.491	28344
774.598	27938
774.705	26443
774.812	26198
774.919	26300
775.026	25740
775.133	25660
775.239	25005
775.346	23674
775.453	23255
775.560	23128
775.667	22543
775.773	22113
775.880	22593
775.987	21955
776.093	21529
776.200	19735
776.307	20109
776.413	19456
776.520	20082
776.627	19674
776.733	18981
776.840	16911
776.946	19837
777.053	17802
777.159	17493
777.266	16394
777.372	17898
777.478	16254
777.585	16706
777.691	16078
777.798	15838
777.904	15449
778.010	15252
778.117	15252
778.223	15192
778.329	14894
778.435	14019
778.542	14514
778.648	13913
778.754	12831
778.860	14194
778.966	13931
779.072	14160
779.178	13689
779.284	14508
779.391	13801
779.497	15751
779.603	19007
779.708	25697
779.815	49663
779.920	146225
780.026	276706
780.132	80265
780.238	24957
780.344	18301
780.450	15156
780.556	13738
780.661	12798
780.767	12240
780.873	12004
780.979	11580
781.085	10502
781.190	10519
781.296	10350
781.402	11050
781.507	10191
781.613	10758
781.719	10111
781.824	9537
781.930	9483
782.035	9939
782.141	9496
782.246	9099
782.352	9445
782.457	8711
782.563	8862
782.668	8810
782.773	8883
782.879	8744
782.984	9095
783.090	9055
783.195	7994
783.300	9235
783.405	8902
783.511	8386
783.616	8610
783.721	8645
783.826	7828
783.932	8223
784.037	8261
784.142	8355
784.247	7131
784.352	7305
784.457	7463
784.562	7505
784.667	8066
784.772	7826
784.877	7539
784.982	8398
785.087	6418
785.192	7839
785.297	7015
785.402	7803
785.507	6568
785.611	6957
785.716	7143
785.821	7549
785.926	6307
786.031	6754
786.135	6568
786.240	6992
786.345	6242
786.450	7516
786.554	6358
786.659	6819
786.763	5868
786.868	6625
786.973	6843
787.077	5690
787.182	6998
787.286	6331
787.391	6384
787.495	6057
787.600	5647
787.704	6658
787.809	5987
787.913	5715
788.017	6110
788.122	6092
788.226	6278
788.330	5424
788.435	6093
788.539	5306
788.643	5350
788.747	6113
788.852	5802
788.956	5318
789.060	6640
789.164	5928
789.268	4372
789.372	5819
789.476	4867
789.580	4965
789.684	5894
789.788	5984
789.892	5376
789.996	5751
790.100	5654
790.204	4911
790.308	5558
790.412	5758
790.516	5137
790.620	5467
790.724	6461
790.828	4669
790.931	4742
791.035	6961
791.139	5476
791.242	4691
791.346	5919
791.450	4183
791.554	4858
791.657	4008
791.761	5699
791.864	5420
791.968	4805
792.072	5412
792.175	5183
792.279	4600
792.382	4850
792.486	5066
792.589	4765
792.693	5079
792.796	3960
792.899	5656
793.003	5695
793.106	2941
793.209	4639
793.313	5621
793.416	4021
793.519	4858
793.623	4688
793.726	5230
793.829	4807
793.932	4826
794.035	4020
794.138	6007
794.242	7123
794.345	8532
794.448	12635
794.551	24920
794.654	78880
794.757	178158
794.860	48015
794.963	10856
795.066	7530
795.169	7424
795.272	4828
795.375	5398
795.477	4911
795.580	4701
795.683	3660
795.786	4408
795.889	3953
795.991	5106
796.094	4313
796.197	3085
796.300	4156
796.402	3369
796.505	2921
796.608	4173
796.710	4646
796.813	4174
796.915	3274
797.018	4348
797.120	4287
797.223	3213
797.326	4450
797.428	3926
797.530	3364
797.633	2921
797.735	4963
797.838	3530
797.940	4714
798.042	3664
798.145	3124
798.247	4437
798.349	2005
798.452	4041
798.554	3290
798.656	3137
798.758	4324
798.860	3420
798.962	2617
799.065	3048
799.167	3083
799.269	4233
799.371	3537
799.473	3848
799.575	2688
799.677	3154
799.779	4635
799.881	2500
799.983	4621
800.085	3735
800.187	3311
800.289	2102
800.390	3160
800.492	4006
800.594	3261
800.696	2752
800.798	3169
800.899	2567
801.001	3041
801.103	3081
801.205	3084
801.306	3503
801.408	2645
801.509	3825
801.611	3003
801.713	3194
801.814	2609
801.916	2810
802.017	3661
802.119	2535
802.220	4117
802.322	1797
802.423	4725
802.525	2134
802.626	3019
802.727	3074
802.829	2863
802.930	899
803.031	4261
803.133	2635
803.234	2081
803.335	2407
803.436	2449
803.538	3501
803.639	1656
803.740	3550
803.841	1676
803.942	2950
804.043	2944
804.144	1970
804.245	2141
804.346	2237
804.447	2979
804.548	2623
804.649	3034
804.750	2736
804.851	3036
804.952	1950
805.053	2933
805.154	1903
805.255	3169
805.355	2387
805.456	2622
805.557	2351
805.658	2760
805.758	3329
805.859	2243
805.960	2248
806.061	2337
806.161	1843
806.262	2350
806.362	2331
806.463	2535
806.564	2960
806.664	2741
806.765	2573
806.865	2655
806.966	2884
807.066	745
807.166	3349
807.267	2819
807.367	2176
807.468	2953
807.568	1819
807.668	3007
807.769	3209
807.869	2087
807.969	2610
808.069	2816
808.170	2381
808.270	1588
808.370	2897
808.470	2660
808.570	2047
808.670	2382
808.770	2055
808.870	1942
808.970	3179
809.070	2033
809.170	1336
809.271	2260
809.370	1915
809.470	2863
809.570	1814
809.670	1700
809.770	1823
809.870	2681
809.970	2607
810.070	1438
810.169	2116
810.269	839
810.369	2391
810.469	2418
810.568	1790
810.668	2643
810.768	1974
810.867	2379
810.967	1958
811.066	1339
811.166	1294
811.265	2670
811.365	2167
811.464	1877
811.564	2457
811.663	1849
811.763	1287
811.862	2803
811.962	2879
812.061	2247
812.160	1800
812.260	1753
812.359	3398
812.458	3584
812.557	7984
812.657	10378
812.756	4198
812.855	2248
812.954	2051
813.053	2191
813.153	2552
813.252	1405
813.351	1860
813.450	2338
813.549	1569
813.648	2449
813.747	1786
813.846	1932
813.945	1859
814.044	2134
814.143	2155
814.242	2490
814.341	1030
814.439	1906
814.538	2120
814.637	1422
814.736	1312
814.835	2204
814.933	1003
815.032	1526
815.131	2110
815.229	2363
815.328	2925
815.427	2158
815.525	2626
815.624	2538
815.722	2025
815.821	2295
815.919	2349
816.018	1037
816.116	1931
816.215	1088
816.313	2548
816.412	2307
816.510	2459
816.609	2807
816.707	2627
816.805	1738
816.904	1707
817.002	2126
817.100	2648
817.198	1782
817.296	1823
817.395	2612
817.493	2926
817.591	1582
817.689	2610
817.787	2231
817.885	3258
817.983	3081
818.081	5426
818.179	11212
818.277	26699
818.375	28469
818.473	8424
818.571	3958
818.669	3440
818.767	3675
818.865	2739
818.963	3255
819.061	3229
819.158	5029
819.256	10565
819.354	21641
819.452	54384
819.549	41380
819.647	12025
819.745	4255
819.842	4079
819.940	3067
820.038	2197
820.135	3411
820.233	4374
820.330	1762
820.428	1797
820.525	3261
820.623	2039
820.720	1713
820.818	2212
820.915	1807
821.012	2358
821.110	1115
821.207	3079
821.304	1046
821.402	2451
821.499	1874
821.596	2326
821.693	2851
821.791	1833
821.888	1685
821.985	3348
822.082	1400
822.179	2403
822.276	1772
822.373	1830
822.470	1571
822.567	1323
822.664	901
822.761	2472
822.858	1430
822.955	2820
823.052	2400
823.149	1732
823.246	2153
823.343	1415
823.440	1772
823.536	1207
823.633	1303
823.730	1115
823.827	1246
823.923	2106
824.020	3047
824.117	996
824.213	853
824.310	1853
824.407	1844
824.503	1197
824.600	1502
824.696	2156
824.793	2077
824.889	794
824.986	1557
825.082	1554
825.179	1156
825.275	1831
825.371	475
825.468	2100
825.564	1070
825.660	1439
825.757	1458
825.853	2484
825.949	787
826.045	1992
826.142	720
826.238	1127
826.334	2781
826.430	773
826.526	1888
826.622	631
826.718	1729
826.814	1349
826.910	2438
827.006	1071
827.102	507
827.198	1840
827.294	888
827.390	1497
827.486	2053
827.582	807
827.678	517
827.774	1337
827.869	1016
827.965	1557
828.061	1056
828.157	1267
828.252	1392
828.348	1117
828.444	2007
828.539	800
828.635	1039
828.731	2481
828.826	348
828.922	1968
829.017	1207
829.113	1335
829.208	922
829.304	163
829.399	2517
829.495	613
829.590	1367
829.685	332
829.781	1004
829.876	1119
829.971	1395
830.066	1357
830.162	1695
830.257	1248
830.352	1243
830.447	1906
830.543	886
830.638	-183
830.733	1470
830.828	559
830.923	914
831.018	1094
831.113	1022
831.208	440
831.303	1068
831.398	1237
831.493	842
831.588	940
831.683	-60
831.778	1714
831.873	749
831.967	1247
832.062	903
832.157	674
832.252	1700
832.346	856
832.441	1548
832.536	1550
832.631	2494
832.725	2561
832.820	934
832.914	1084
833.009	827
833.104	1149
833.198	1423
833.293	1193
833.387	1690
833.482	1222
833.576	432
833.670	1877
833.765	1205
833.859	331
833.954	837
834.048	662
834.142	1519
834.237	880
834.331	215
834.425	1168
834.519	578
834.613	883
834.708	982
834.802	2350
834.896	552
834.990	913
835.084	854
835.178	1104
835.272	25
835.366	1029
835.460	955
835.554	814
835.648	1255
835.742	144
835.836	843
835.930	-180
836.024	384
836.117	1718
836.211	1378
836.305	1728
836.399	2463
836.493	576
836.586	1966
836.680	177
836.774	742
836.867	1791
836.961	509
837.055	770
837.148	810
837.242	1669
837.335	678
837.429	616
837.522	215
837.616	1500
837.709	692
837.803	1186
837.896	1799
837.989	812
838.083	1850
838.176	2006
838.269	1446
838.363	891
838.456	655
838.549	2001
838.642	1026
838.735	1897
838.829	1352
838.922	534
839.015	242
839.108	179
839.201	949
839.294	617
839.387	1018
839.480	575
839.573	762
839.666	1085
839.759	566
839.852	74
839.945	1199
840.038	241
840.131	510
840.223	432
840.316	1746
840.409	974
840.502	67
840.594	1408
840.687	-713
840.780	1381
840.873	1237
840.965	1139
841.058	935
841.150	1376
841.243	1209
841.336	1706
841.428	611
841.521	499
841.613	441
841.706	1324
841.798	1155
841.890	1567
841.983	-652
842.075	1616
842.167	1018
842.260	1054
842.352	1707
842.444	1375
842.537	1447
842.629	2579
842.721	1699
842.813	13
842.905	39
842.997	1149
843.090	672
843.182	1300
843.274	552
843.366	4278
843.458	6809
843.550	5283
843.642	641
843.734	792
843.826	428
843.918	1457
844.009	998
844.101	-258
844.193	863
844.285	87
844.377	741
844.469	738
844.560	573
844.652	1861
844.744	1116
844.835	705
844.927	1006
845.019	933
845.110	895
845.202	482
845.293	785
845.385	227
845.476	789
845.568	1782
845.659	975
845.751	2034
845.842	1165
845.934	321
846.025	-42
846.116	1155
846.208	-302
846.299	388
846.390	559
846.482	1290
846.573	756
846.664	941
846.755	1220
846.846	1267
846.937	-331
847.029	932
847.120	514
847.211	97
847.302	1992
847.393	43
847.484	1071
847.575	610
847.666	478
847.757	592
847.847	1581
847.938	1869
848.029	138
848.120	1119
848.211	37
848.302	131
848.392	1008
848.483	941
848.574	856
848.664	459
848.755	672
848.846	1238
848.936	720
849.027	919
849.118	79
849.208	415
849.299	682
849.389	602
849.480	1438
849.570	1951
849.661	2179
849.751	3178
849.841	1363
849.932	736
850.022	1548
850.112	551
850.203	-34
850.293	818
850.383	355
850.474	527
850.564	935
850.654	1664
850.744	-5
850.834	1505
850.924	491
851.014	1062
851.104	619
851.194	1390
851.284	437
851.374	1762
851.464	585
851.554	170
851.644	925
851.734	1917
851.824	2114
851.914	3136
852.004	6552
852.094	7597
852.183	2878
852.273	911
852.363	550
852.452	476
852.542	347
852.632	304
852.721	384
852.811	85
852.901	135
852.990	132
853.080	520
853.169	216
853.259	997
853.348	116
853.438	629
853.527	1132
853.617	703
853.706	1503
853.795	2102
853.885	4918
853.974	7409
854.063	13794
854.152	22244
854.242	8772
854.331	1527
854.420	763
854.509	624
854.598	1239
854.687	510
854.777	813
854.866	-83
854.955	1187
855.044	-77
855.133	596
855.222	-161
855.311	-361
855.400	771
855.488	286
855.577	-297
855.666	-503
855.755	768
855.844	556
855.933	156
856.021	739
856.110	288
856.199	194
856.288	353
856.376	-322
856.465	88
856.554	1203
856.642	231
856.731	712
856.819	80
856.908	-320
856.996	44
857.085	258
857.173	100
857.262	393
857.350	805
857.438	352
857.527	776
857.615	1189
857.703	738
857.792	412
857.880	813
857.968	480
858.056	-318
858.145	215
858.233	556
858.321	-661
858.409	1150
858.497	-535
858.585	-695
858.673	341
858.761	-39
858.849	218
858.937	604
859.025	351
859.113	-236
859.201	144
859.289	449
859.377	-13
859.465	-119
859.552	79
859.640	92
859.728	423
859.816	-60
859.903	-171
859.991	-718
860.079	1207
860.166	562
860.254	-474
860.342	647
860.429	-242
860.517	246
860.604	194
860.692	204
860.779	246
860.867	365
860.954	593
861.042	70
861.129	395
861.216	518
861.304	266
861.391	-429
861.478	-65
861.565	257
861.653	1171
861.740	-409
861.827	-802
861.914	1217
862.001	476
862.089	379
862.176	229
862.263	-194
862.350	-455
862.437	-310
862.524	-310
862.611	424
862.698	659
862.785	-49
862.871	232
862.958	-1056
863.045	119
863.132	-115
863.219	-641
863.306	-284
863.392	802
863.479	-459
863.566	-75
863.652	80
863.739	-68
863.826	154
863.912	-266
863.999	-467
864.086	-957
864.172	-512
864.259	37
864.345	-217
864.432	-435
864.518	57
864.604	116
864.691	-275
864.777	297
864.863	957
864.950	285
865.036	-451
865.122	712
865.209	449
865.295	926
865.381	1262
865.467	-96
865.553	170
865.639	140
865.726	517
865.812	2593
865.898	4187
865.984	6048
866.070	9756
866.156	12027
866.242	2430
866.328	1032
866.414	536
866.499	1090
866.585	564
866.671	485
866.757	643
866.843	651
866.928	-6
867.014	726
867.100	402
867.186	1014
867.271	708
867.357	1756
867.442	632
867.528	635
867.614	-337
867.699	382
867.785	769
867.870	-276
867.956	-95
868.041	691
868.127	614
868.212	597
868.297	793
868.383	775
868.468	598
868.553	1062
868.639	469
868.724	1554
868.809	1433
868.894	478
868.979	251
869.065	475
869.150	436
869.235	481
869.320	-80
869.405	504
869.490	-53
869.575	-401
869.660	278
869.745	1304
869.830	-403
869.915	773
870.000	-112
870.085	307
870.169	88
870.254	992
870.339	-259
870.424	-44
870.509	146
870.593	1015
870.678	705
870.763	-196
870.847	609
870.932	-255
871.016	-106
871.101	-679
871.186	271
871.270	-243
871.355	174
871.439	-94
871.523	514
871.608	278
871.692	244
871.777	420
871.861	282
871.945	-533
872.030	-373
872.114	267
872.198	8
872.282	-103
872.367	322
872.451	123
872.535	447
872.619	317
872.703	214
872.787	161
872.871	134
872.955	417
873.039	-452
873.123	-390
873.207	441
873.291	6
873.375	229
873.459	-91
873.543	734
873.627	-443
873.711	-48
873.794	42
873.878	-243
873.962	-592
874.045	715
874.129	119
874.137	23
874.213	-936
874.245	-692
874.296	-292
874.352	-396
874.380	-451
874.460	-781
874.464	-795
874.547	632
874.568	450
874.631	-111
874.676	-824
874.714	-1399
874.784	272
874.798	593
874.881	1373
874.892	1162
874.965	-228
874.999	-67
875.048	81
875.107	-644
875.131	-898
875.215	454
875.215	454
875.298	274
875.323	220
875.381	93
875.430	192
875.465	293
875.538	-151
875.548	-214
875.631	-260
875.646	-269
875.714	-430
875.753	-375
875.798	-245
875.861	-238
875.881	-253
875.964	-122
875.968	-97
876.047	400
876.076	290
876.130	47
876.183	-283
876.213	-456
876.291	404
876.296	465
876.379	51
876.398	15
876.462	-93
876.506	277
876.545	551
876.613	142
876.628	76
876.711	-681
876.721	-523
876.794	638
876.828	339
876.877	-86
876.935	229
876.960	346
877.043	241
877.043	241
877.125	170
877.150	94
877.208	-74
877.258	-381
877.291	-491
877.365	9
877.374	42
877.456	142
877.472	161
877.539	272
877.579	76
877.622	-194
877.687	-128
877.704	-5
877.787	103
877.794	109
877.869	-273
877.901	-41
877.952	381
878.008	-15
878.034	-161
878.115	-32
878.117	-30
878.199	-839
878.222	-582
878.282	117
878.329	165
878.364	202
878.437	565
878.447	607
878.529	-825
878.544	-611
878.611	270
878.651	-6
878.694	-166
878.758	492
878.776	655
878.858	450
878.865	395
878.941	-655
878.972	-662
879.023	-169
879.078	183
879.105	218
879.185	-215
879.187	-220
879.269	526
879.292	456
879.351	37
879.399	-300
879.433	-428
879.506	-125
879.516	-110
879.598	-530
879.613	-466
879.680	52
879.720	331
879.762	609
879.827	-330
879.844	-557
879.926	87
879.933	145
880.007	448
880.040	72
880.089	-354
880.147	33
880.171	114
880.253	212
880.254	213
880.335	369
880.360	573
880.417	1508
880.467	2244
880.499	2408
880.574	2477
880.580	2468
880.662	686
880.680	550
880.744	391
880.787	278
880.825	-43
880.893	-489
880.907	-470
880.989	92
881.000	139
881.070	140
881.106	48
881.152	-142
881.213	-248
881.233	-248
881.315	-319
881.319	-295
881.396	680
881.426	788
881.478	438
881.532	194
881.559	106
881.639	-162
881.641	-156
881.722	199
881.745	248
881.803	123
881.852	249
881.885	278
881.958	-82
881.966	-106
882.047	216
882.064	116
882.129	-45
882.171	185
882.210	187
882.277	333
882.291	365
882.372	8
882.383	-39
882.454	1
882.489	-11
882.535	-314
882.596	-159
882.616	22
882.697	-216
882.702	-185
882.778	306
882.808	272
882.859	-241
882.914	-581
882.940	-508
883.020	118
883.021	123
883.102	51
883.127	40
883.183	45
883.233	174
883.264	47
883.339	-57
883.345	-23
883.426	-353
883.445	-169
883.507	359
883.551	176
883.587	-12
883.657	109
883.668	136
883.749	101
883.763	80
883.830	-171
883.869	13
883.910	390
883.975	443
883.991	358
884.072	-175
884.081	-209
884.152	-128
884.187	-116
884.233	-199
884.292	-199
884.314	-170
884.394	-364
884.398	-352
884.475	-3
884.504	-93
884.555	-52
884.610	430
884.636	457
884.716	143
884.716	146
884.797	345
884.821	419
884.877	211
884.927	-11
884.958	72
885.033	286
885.038	270
885.118	-101
885.139	-122
885.199	112
885.244	-30
885.279	-283
885.350	-187
885.359	-94
885.439	173
885.456	256
885.520	-102
885.561	-206
885.600	208
885.667	674
885.680	591
885.760	106
885.773	24
885.840	358
885.878	595
885.920	305
885.984	-222
886.000	-189
886.080	119
886.089	154
886.160	186
886.195	120
886.240	137
886.300	80
886.320	79
886.400	519
886.406	514
886.480	195
886.511	158
886.560	86
886.616	-87
886.640	89
886.720	842
886.722	853
886.800	247
886.827	84
886.879	393
886.932	562
886.959	507
887.038	577
887.039	580
887.119	461
887.143	481
887.198	564
887.248	609
887.278	621
887.354	454
887.358	418
887.437	-127
887.459	-337
887.517	329
887.564	949
887.596	892
887.669	752
887.676	743
887.755	521
887.774	500
887.835	822
887.880	937
887.914	657
887.985	212
887.994	185
888.073	-128
888.090	-200
888.153	199
888.195	527
888.232	550
888.300	543
888.311	567
888.391	741
888.405	773
888.470	362
888.510	67
888.549	161
888.615	408
888.628	373
888.708	30
888.720	-4
888.787	671
888.825	1035
888.866	793
888.930	404
888.945	309
889.024	-178
889.035	-240
889.103	137
889.140	323
889.182	328
889.245	380
889.261	231
889.340	-497
889.349	-575
889.419	483
889.454	1012
889.498	520
889.559	-149
889.577	-100
889.656	134
889.664	162
889.735	11
889.768	-59
889.814	16
889.873	123
889.978	-195
890.083	527
890.187	-890
890.292	499
890.397	-126
890.501	44
890.606	-125
890.710	861
890.815	239
890.919	720
891.024	-176
891.128	1351
891.233	789
891.337	-14
891.442	-383
891.546	754
891.650	211
891.755	858
891.859	1536
891.963	536
892.068	229
892.172	976
892.276	-191
892.380	48
892.484	-396
892.589	141
892.693	-382
892.797	173
892.901	-109
893.005	258
893.109	160
893.213	428
893.317	296
893.421	485
893.525	-166
893.629	881
893.733	113
893.837	464
893.941	-378
894.045	690
894.148	659
894.252	806
894.356	438
894.460	523
894.564	-228
894.667	-146
894.771	161
894.875	1039
894.978	287
895.082	412
895.186	493
895.289	831
895.393	12
895.496	152
895.600	-149
895.703	-144
895.807	-43
895.910	464
896.014	-303
896.117	567
896.221	-328
896.324	212
896.427	244
896.531	575
896.634	351
896.737	405
896.840	-607
896.944	323
897.047	-693
897.150	134
897.253	604
897.356	892
897.460	-3
897.563	551
897.666	-237
897.769	748
897.872	1011
897.975	811
898.078	326
898.181	192
898.284	576
898.387	497
898.490	-717
898.593	288
898.695	-232
898.798	140
898.901	-206
899.004	-236
899.107	-541
899.209	-43
899.312	523
899.415	726
899.518	1106
899.620	264
899.723	56
899.826	280
899.928	-212
900.031	-120
900.133	149
900.236	143
900.338	-739
900.441	316
900.543	-62
900.646	-334
900.748	26
900.851	659
900.953	644
901.055	166
901.158	997
901.260	531
901.362	604
901.465	214
901.567	-400
901.669	-10
901.771	-192
901.873	136
901.976	-39
902.078	129
902.180	-109
902.282	625
902.384	-606
902.486	-246
902.588	-688
902.690	-72
902.792	-800
902.894	-496
902.996	-555
903.098	632
903.200	-429
903.302	7
903.404	97
903.505	50
903.607	47
903.709	74
903.811	-486
903.913	-493
904.014	-595
904.116	-625
904.218	-274
904.319	592
904.421	252
904.523	539
904.624	86
904.726	384
904.827	-266
904.929	497
905.030	289
905.132	461
905.233	44
905.335	135
905.436	-180
905.537	-59
905.639	356
905.740	-510
905.841	-341
905.943	-14
906.044	-425
906.145	57
906.247	-186
906.348	686
906.449	-4
906.550	-54
906.651	288
906.752	-198
906.854	-1005
906.955	-43
907.056	268
907.157	-216
907.258	-288
907.359	56
907.460	76
907.561	1053
907.662	-184
907.762	-140
907.863	468
907.964	259
908.065	-711
908.166	399
908.267	-350
908.367	-1089
908.468	353
908.569	248
908.670	-270
908.770	-201
908.871	-721
908.971	549
909.072	-12
909.173	-270
909.273	235
909.374	-304
909.474	-968
909.575	-263
909.675	-57
909.776	86
909.876	19
909.977	-495
910.077	558
910.177	212
910.278	10
910.378	10
910.478	-698
910.579	-311
910.679	-699
910.779	-169
910.879	330
910.980	-335
911.080	-98
911.180	92
911.280	-418
911.380	-492
911.480	-67
911.580	-19
911.680	359
911.780	-605
911.880	-78
911.980	-183
912.080	-343
912.180	537
912.280	-81
912.380	-564
912.480	16
912.580	-181
912.679	-459
912.779	374
912.879	436
912.979	-270
913.078	-124
913.178	101
913.278	-716
913.377	11
913.477	-846
913.577	-23
913.676	-954
913.776	-142
913.875	194
913.975	-147
914.074	-232
914.174	-35
914.273	-977
914.373	398
914.472	-543
914.572	-740
914.671	-286
914.770	-609
914.870	-580
914.969	-621
915.068	732
915.167	190
915.267	-363
915.366	-286
915.465	-291
915.564	-332
915.663	82
915.763	82
915.862	-670
915.961	143
916.060	-594
916.159	-672
916.258	-467
916.357	-716
916.456	-89
916.555	575
916.654	-631
916.752	-80
916.851	-949
916.950	-101
917.049	-19
917.148	194
917.247	-454
917.345	-641
917.444	-523
917.543	427
917.642	122
917.740	-386
917.839	-933
917.937	-356
918.036	-629
918.135	-260
918.233	-477
918.332	-173
918.430	-587
918.529	-67
918.627	-1044
918.726	687
918.824	-200
918.923	-416
919.021	-799
919.119	-547
919.218	-806
919.316	38
919.414	228
919.512	-287
919.611	-362
919.709	234
919.807	-908
919.905	-216
920.003	-585
920.102	-129
920.200	-6
920.298	42
920.396	-346
920.494	79
920.592	-414
920.690	173
920.788	-966
920.886	-761
920.984	-432
921.082	-941
921.180	-45
921.277	-386
921.375	-299
921.473	-492
921.571	-886
921.669	-40
921.766	-1253
921.864	-265
921.962	-398
922.060	99
922.157	-236
922.255	-490
922.352	-403
922.450	814
922.548	-598
922.645	-770
922.743	-639
922.840	-168
922.938	-816
923.035	-340
923.133	312
923.230	-48
923.327	-385
923.425	-89
923.522	671
923.619	-262
923.717	-1297
923.814	478
923.911	-1072
924.008	636
924.106	-1373
924.203	-227
924.300	-20
924.397	-893
924.494	-119
924.591	-41
924.688	-143
924.786	38
924.883	-454
924.979	541
925.077	33
925.173	-814
925.270	-425
925.367	205
925.464	-868
925.561	-162
925.658	258
925.755	-314
925.852	-535
925.948	142
926.045	107
926.142	-224
926.239	-1080
926.335	-596
926.432	343
926.529	-533
926.625	229
926.722	-290
926.818	-897
926.915	-326
927.011	-466
927.108	-99
927.204	-836
927.301	243
927.397	-801
927.494	167
927.590	9
927.687	-522
927.783	-486
927.879	-281
927.976	-4
928.072	-45
928.168	-348
928.264	-550
928.361	-15
928.457	-146
928.553	-452
928.649	-360
928.745	-692
928.841	-216
928.937	-515
929.033	38
929.129	141
929.225	-711
929.321	-189
929.417	-650
929.513	-761
929.609	-48
929.705	-1203
929.801	-102
929.897	-1012
929.993	-163
930.089	-655
930.184	-458
930.280	-52
930.376	-287
930.471	-893
930.567	-153
930.663	-711
930.758	-318
930.854	-527
930.950	-387
931.045	-652
931.141	-389
931.236	-1078
931.332	-115
931.427	64
931.523	-458
931.618	-539
931.714	-140
931.809	-450
931.905	-566
932.000	-287
932.095	-417
932.191	-774
932.286	307
932.381	-1134
932.476	-233
932.572	292
932.667	-838
932.762	-821
932.857	20
932.952	-157
933.047	-153
933.142	-533
933.237	-547
933.332	-1428
933.427	118
933.522	76
933.617	311
933.712	-837
933.807	-301
933.902	-851
933.997	-714
934.092	-1566
934.187	-224
934.282	-673
934.376	-119
934.471	-658
934.566	66
934.661	-660
934.755	15
934.850	-615
934.945	-549
935.039	-288
935.134	537
935.228	-82
935.323	-187
935.417	-154
935.512	250
935.606	-918
935.701	-606
935.795	-672
935.890	-314
935.984	503
936.079	94
936.173	-246
936.267	-692
936.362	-728
936.456	-158
936.550	-903
936.644	-476
936.738	-246
936.833	-644
936.927	-530
937.021	-956
937.115	50
937.209	-369
937.303	452
937.397	-1144
937.491	-566
937.585	-1213
937.679	10
937.773	-609
937.867	-909
937.961	-77
938.055	-444
938.149	563
938.243	-1165
938.337	-350
938.430	-979
938.524	21
938.618	-1294
938.712	-315
938.805	-479
938.899	-30
938.993	-953
939.086	-21
939.180	-109
939.274	-1074
939.367	-323
939.461	-1433
939.554	-452
939.648	-854
939.741	-215
939.835	-210
939.928	-375
940.022	-364
940.115	-1252
940.208	-141
940.302	-367
940.395	-163
940.488	-461
940.582	-45
940.675	-1097
940.768	-27
940.861	-891
940.954	79
941.048	-1049
941.141	-395
941.234	-1008
941.327	-140
941.420	191
941.513	-249
941.606	-833
941.699	-122
941.792	-903
941.885	-969
941.978	-592
942.071	-450
942.164	-429
942.257	-317
942.349	-724
942.442	-1092
942.535	-1299
942.628	257
942.721	-429
942.813	-779
942.906	-39
942.999	-465
943.091	-1195
943.184	-309
943.277	-418
943.369	-308
943.462	-855
943.554	-116
943.647	-658
943.739	54
943.832	-179
943.924	-717
944.017	-173
944.109	-654
944.201	-491
944.294	184
944.386	107
944.478	-432
944.571	-489
944.663	-244
944.755	-672
944.847	81
944.940	-959
945.032	-815
945.124	-979
945.216	-5
945.308	-344
945.400	152
945.492	-421
945.584	441
945.676	-1019
945.768	-258
945.860	-248
945.952	-1032
946.044	-390
946.136	-340
946.228	-1061
946.320	-922
946.412	-750
946.503	-304
946.595	-206
946.687	-454
946.779	-809
946.870	15
946.962	-1392
947.054	2
947.145	-695
947.237	-787
947.329	-94
947.420	-362
947.512	-651
947.603	316
947.695	-514
947.786	-84
947.878	-602
947.969	12
948.061	-353
948.152	-723
948.243	-628
948.335	-275
948.426	-373
948.517	-58
948.609	-571
948.700	-597
948.791	-928
948.882	446
948.973	-217
949.065	-60
949.156	-817
949.247	-586
949.338	-733
949.429	-344
949.520	-1069
949.611	-1145
949.702	-135
949.793	-212
949.884	-293
949.975	-615
950.066	-1004
950.157	-1440
950.247	-501
950.338	-333
950.429	-541
950.520	187
950.611	-325
950.701	99
950.792	85
950.883	40
950.973	-385
951.064	-321
951.155	-686
951.245	-288
951.336	138
951.427	-1250
951.517	368
951.608	-415
951.698	-674
951.788	-68
951.879	-1359
951.969	-331
952.060	-495
952.150	-944
952.240	185
952.331	-1458
952.421	282
952.511	173
952.602	-667
952.692	-765
952.782	-939
952.872	214
952.962	-49
953.052	265
953.143	-683
953.233	-70
953.323	-276
953.413	-469
953.503	21
953.593	-562
953.683	-499
953.773	-617
953.863	-609
953.953	-372
954.042	-266
954.132	104
954.222	-569
954.312	-370
954.402	-413
954.492	553
954.581	-476
954.671	270
954.761	-1301
954.850	672
954.940	-631
955.030	-739
955.119	-388
955.209	130
955.298	-26
955.388	-229
955.477	-312
955.567	-5
955.656	-799
955.746	313
955.835	-1102
955.925	-550
956.014	-512
956.103	-624
956.193	-410
956.282	-237
956.371	-80
956.461	-1155
956.550	-1211
956.639	-282
956.728	-1023
956.817	-489
956.906	-1074
956.995	69
957.085	-609
957.174	-290
957.263	-334
957.352	-670
957.441	-609
957.530	-232
957.619	-735
957.708	-12
957.796	-1300
957.885	-312
957.974	-1672
958.063	-115
958.152	-1173
958.241	-846
958.329	-883
958.418	-422
958.507	-1259
958.596	1225
958.684	-261
958.773	539
958.861	-445
958.950	-747
959.039	661
959.127	433
959.216	-314
959.304	178
959.393	-600
959.481	51
959.570	-42
959.658	-436
959.746	-723
959.835	40
959.923	-561
960.011	-1074
960.100	-92
960.188	149
960.276	77
960.365	-10
960.453	-834
960.541	-1033
960.629	-362
960.717	-1331
960.805	-637
960.893	623
960.981	-1501
961.069	363
961.158	-1450
961.245	-154
961.333	68
961.421	-402
961.509	-615
961.597	379
961.685	-949
961.773	-263
961.861	-984
961.949	164
962.036	-1213
962.124	-63
962.212	-944
962.299	-321
962.387	-858
962.475	-551
962.562	-909
962.650	988
962.738	-637
962.825	-122
962.913	-561
963.000	-731
963.088	-32
963.175	-140
963.263	-1044
963.350	-783
963.438	-250
963.525	-362
963.612	130
963.700	-99
963.787	878
963.874	162
963.962	-561
964.049	-230
964.136	289
964.223	-309
964.310	-858
964.398	-718
964.485	-1319
964.572	493
964.659	-339
964.746	-92
964.833	-882
964.920	45
965.007	-813
965.094	260
965.181	-690
965.268	-528
965.355	-429
965.441	-841
965.528	-1270
965.615	748
965.702	-1147
965.789	-725
965.875	-213
965.962	-279
966.049	-418
966.136	-631
966.222	-1187
966.309	-578
966.395	-1459
966.482	-62
966.569	-288
966.655	-194
966.742	-1088
966.828	437
966.915	-466
967.001	37
967.087	-210
967.174	-106
967.260	-478
967.347	22
967.433	-739
967.519	596
967.605	-475
967.692	-382
967.778	-592
967.864	-443
967.950	-376
968.036	-955
968.123	345
968.209	-1019
968.295	-627
968.381	270
968.467	-313
968.553	-930
968.639	269
968.725	-860
968.811	-481
968.897	-310
968.983	-918
969.069	-743
969.154	166
969.240	-147
969.326	-1142
969.412	-585
969.497	-1428
969.583	-1042
969.669	573
969.755	-829
969.840	-683
969.926	658
970.012	-1041
970.097	-336
970.183	-1321
970.268	-518
970.354	-363
970.439	-1082
970.525	168
970.610	-1276
970.696	-230
970.781	544
970.866	-953
970.952	69
971.037	-759
971.122	-240
971.208	-798
971.293	-226
971.378	-1266
971.463	-151
971.549	-839
971.634	-240
971.719	-580
971.804	-722
971.889	-411
971.974	-1176
972.059	-1260
972.144	-1070
972.229	-960
972.314	-1122
972.399	-463
972.484	-426
972.569	-509
972.654	-725
972.739	146
972.824	-720
972.908	-692
972.993	-584
973.078	-388
973.163	-354
973.247	-451
973.332	-1230
973.417	150
973.501	-1043
973.586	-364
973.671	-150
973.755	-600
973.840	-49
973.924	251
974.009	394
974.093	-1353
974.178	-159
974.262	-682
974.346	-1633
974.431	-400
974.515	-859
974.600	359
974.684	-842
974.768	-1582
974.852	-767
974.937	-1463
975.021	-497
975.105	-832
975.189	-933
975.273	83
975.358	-467
975.442	-1233
975.526	-311
975.610	-1158
975.694	-826
975.778	4
975.862	-1469
975.946	-2379
976.030	361
976.114	-1373
976.198	-251
976.281	-640
976.365	384
976.449	-1305
976.533	-683
976.617	-1468
976.700	-943
976.784	-1236
976.868	-1160
976.951	-1098
977.035	-639
977.119	-759
977.202	-558
977.286	-235
977.369	-851
977.453	-612
977.536	-1800
977.620	-1856
977.703	-702
977.787	-2410
977.870	326
977.953	-595
978.037	-1451
978.120	-936
978.203	-986
978.287	-131
978.370	46
978.453	-369
978.536	-969
978.620	-682
978.703	345
978.786	-868
978.869	-1022
978.952	-1402
979.035	-337
979.118	-877
979.201	-1635
979.284	-347
979.367	-2242
979.450	-700
979.533	-1605
979.616	-647
979.699	-1361
979.782	-762
979.865	-970
979.948	-1379
980.030	-1316
980.113	-1053
980.196	-1793
980.279	-1148
980.361	-453
980.444	-529
980.526	-699
980.609	-1186
980.692	-1915
980.774	-1472
980.857	-1276
980.939	-886
981.022	-1048
981.104	-519
981.187	-1376
981.269	-1016
981.352	-947
981.434	-2150
981.516	-2174
981.599	-264
981.681	46
981.763	-1243
981.846	-735
981.928	-1096
982.010	-1029
982.092	-1157
982.174	-1047
982.256	-911
982.339	-1322
982.421	-926
982.503	-825
982.585	-1570
982.667	-1191
982.749	-2666
982.831	-689
982.913	-1318
982.995	-493
983.077	-1911
983.158	-33
983.240	-2339
983.322	-797
983.404	-538
983.486	-1215
983.568	-914
983.649	-1518
983.731	-633
983.813	-975
983.894	-1355
983.976	-1412
984.058	-1659
984.139	-792
984.221	-2026
984.302	-77
984.384	-1123
984.465	-1460
984.547	-1054
984.628	-922
984.710	-558
984.791	-808
984.872	-1477
984.954	-1734
985.035	-807
985.116	-1457
985.198	-1034
985.279	-857
985.360	-1544
985.441	-889
985.522	-743
985.604	-894
985.685	-2830
985.766	-120
985.847	-681
985.928	-2100
986.009	-1129
986.090	-1109
986.171	-868
986.252	-1207
986.333	-960
986.414	-1108
986.495	-831
986.576	-1793
986.656	-1378
986.737	-677
986.818	-1104
986.899	-1061
986.980	-1513
987.060	-589
987.141	-1874
987.222	-1108
987.302	-959
987.383	-715
987.464	-1780
987.544	-1200
987.625	-1262
987.705	-1099
987.786	-1338
987.866	-1859
987.947	-1545
988.027	-813
988.108	-1428
988.188	-1367
988.268	-1559
988.349	-1654
988.429	-1593
988.509	-695
988.589	-928
988.670	-2696
988.750	-803
988.830	-1998
988.910	-1256
988.990	-1456
989.070	-1883
989.151	-1390
989.231	-2061
989.311	-784
989.391	-1638
989.471	-608
989.551	-1497
989.631	-2102
989.711	-1203
989.791	-2012
989.870	-1884
989.950	-753
990.030	-1741
990.110	-1697
990.190	-1513
990.269	-1413
990.349	-1133
990.429	-956
990.509	-1609
990.588	-1401
990.668	-1113
990.747	-514
990.827	-1962
990.907	-981
990.986	-1242
991.066	-1236
991.145	-2245
991.225	-1396
991.304	-1614
991.383	-951
991.463	-2134
991.542	-1252
991.622	-1589
991.701	-1517
991.780	-1450
991.859	-1510
991.939	-1877
992.018	-205
992.097	-1547
992.176	-946
992.256	-1081
992.335	-1597
992.414	-494
992.493	-1590
992.572	-2046
992.651	-123
992.730	-1531
992.809	-1059
992.888	-2063
992.967	-1611
993.046	-1137
993.125	-2601
993.203	-1907
993.282	-829
993.361	-1647
993.440	-1446
993.519	-1381
993.597	-978
993.676	-2891
993.755	-1582
993.834	-1038
993.912	-1182
993.991	-1271
994.069	-1937
994.148	-1461
994.226	-1248
994.305	-776
994.384	-2460
994.462	-1488
994.540	-1882
994.619	-1909
994.697	-1057
994.776	-1617
994.854	-543
994.932	-1697
995.011	-967
995.089	-1639
995.167	-2164
995.245	-605
995.324	-1808
995.402	-990
995.480	-1310
995.558	-1305
995.636	-1506
995.714	-2346
995.792	-456
995.870	-1588
995.948	-790
996.026	-752
996.104	-2198
996.182	-1195
996.260	-2151
996.338	-910
996.416	-1890
996.494	-2406
996.572	-623
996.649	-2035
996.727	-1953
996.805	-1381
996.883	-1772
996.960	-2161
997.038	-806
997.116	-1583
997.193	-2128
997.271	-1338
997.348	-1753
997.426	-643
997.504	-2424
997.581	-1169
997.658	-909
997.736	-1805
997.813	-1923
997.891	-836
997.968	-1550
998.046	-2069
998.123	-2122
998.200	-1386
998.277	-2548
998.355	-708
998.432	-2012
998.509	-1703
998.586	-688
998.663	-2101
998.741	-1670
998.818	-604
998.895	-2536
998.972	-1493
999.049	-1431
999.126	-1462
999.203	-273
999.280	-1803
999.357	-1191
999.434	-1646
999.511	-1161
999.587	-1006
999.664	-2174
999.741	-809
999.818	-27
999.895	-2591
999.971	-1722
1000.048	-1401
1000.125	-695
1000.202	-2006
1000.278	-1873
1000.355	-1004
1000.431	-1846
1000.508	-1457
1000.584	-1878
1000.661	-1418
1000.738	-2608
1000.814	-1821
1000.890	-869
1000.967	-1933
1001.043	-1346
1001.120	-2248
1001.196	-157
1001.272	-2106
1001.349	-1527
1001.425	-1331
1001.501	-1134
1001.577	-2406
1001.654	-902
1001.730	-2255
1001.806	-1699
1001.882	-2735
1001.958	-685
1002.034	-1862
1002.110	-787
1002.186	-2199
1002.262	-1329
1002.338	-2885
1002.414	-1006
1002.490	-1846
1002.566	-2040
1002.642	-2596
1002.718	-4
1002.794	-1590
1002.870	-1807
1002.945	-2175
1003.021	-734
1003.097	-1439
1003.173	-315
1003.248	-2440
1003.324	-2074
1003.400	-1822
1003.475	-1438
1003.551	-1970
1003.626	-1201
1003.702	-1216
1003.777	-1425
1003.853	-1517
1003.928	-2180
1004.004	-1789
1004.079	-768
1004.155	-1708
1004.230	-2202
1004.305	-1057
1004.381	-1969
1004.456	-2147
1004.531	-772
1004.607	-2106
1004.682	-1811
1004.757	-1291
1004.832	-1783
1004.907	-1671
1004.982	-1160
1005.057	-1292
1005.133	-1313
1005.208	-453
1005.283	-1196
1005.358	-1237
1005.433	-1550
1005.508	-1639
1005.583	-2133
1005.657	-1987
1005.732	-728
1005.807	-2301
1005.882	-1860
1005.957	-1238
1006.032	-1666
1006.106	-1530
1006.181	-992
1006.256	-1706
1006.331	-1571
1006.405	-1442
1006.480	-1652
1006.554	-1269
1006.629	-1054
1006.704	-1832
1006.778	-1021
1006.853	-1390
1006.927	-1709
1007.002	-2221
1007.076	-714
1007.150	-1616
1007.225	-1961
1007.299	-852
1007.373	-1608
1007.448	-1901
1007.522	-416
1007.596	-1481
1007.671	-1634
1007.745	-1459
1007.819	-2103
1007.893	-2099
1007.967	-1958
1008.041	-2209
1008.115	-523
1008.190	-2587
1008.264	-619
1008.338	-1957
1008.412	-1765
1008.486	-1673
1008.560	-1460
1008.633	-1311
1008.707	-1405
1008.781	-1716
1008.855	-1985
1008.929	-1549
1009.003	-2009
1009.076	-2229
1009.150	-1633
1009.224	-2638
1009.298	-1692
1009.371	-1804
1009.445	-893
1009.519	-1520
1009.592	-1988
1009.666	-1061
1009.739	-1101
1009.813	-2176
1009.886	-999
1009.960	-2215
1010.033	-777
1010.107	-1541
1010.180	-2786
1010.253	-1751
1010.327	-1427
1010.400	-1147
1010.473	-1723
1010.547	-1825
1010.620	-1780
1010.693	-1837
1010.766	-2085
1010.840	-410
1010.913	-1632
1010.986	-2490
1011.059	-1566
1011.132	-1763
1011.205	-497
1011.278	-2053
1011.351	-1644
1011.424	-1605
1011.497	-1585
1011.570	-1673
1011.643	-1150
1011.716	-2043
1011.789	-1758
1011.862	-855
1011.934	-1235
1012.007	-2874
1012.080	-1225
1012.153	-1351
1012.225	-694
1012.298	-1927
1012.371	-817
1012.443	-1265
1012.516	-1508
1012.588	-2130
1012.661	-1159
1012.733	-1396
1012.806	-1084
1012.879	-1742
1012.951	-526
1013.023	-2153
1013.096	-1319
1013.168	-2278
1013.241	-870
1013.313	-1389
1013.385	-1632
1013.458	-2088
1013.530	-737
1013.602	-2379
1013.674	-645
1013.746	-1497
1013.819	-1677
1013.891	-1301
1013.963	-1985
1014.035	-1062
1014.107	-892
1014.179	-1260
1014.251	-1847
1014.323	-1815
1014.395	-1623
1014.467	-1100
1014.539	-1069
1014.611	-2794
1014.683	-1634
1014.754	-609
1014.826	-1492
1014.898	-1519
1014.970	-2775
1015.042	-1579
1015.113	-1663
1015.185	-1776
1015.257	-2534
1015.328	-1537
1015.400	-2865
1015.471	-809
1015.543	-2167
1015.615	-1718
1015.686	-2064
1015.757	-1278
1015.829	-1610
1015.901	-1354
1015.972	-1752
1016.043	-1970
1016.115	-1237
1016.186	-1964
1016.257	-1793
1016.328	-1281
1016.400	-281
1016.471	-2152
1016.542	-2103
1016.613	-1994
1016.685	-1603
1016.756	-1128
1016.827	-1740
1016.898	-3169
1016.969	-690
1017.040	-1368
1017.111	-2145
1017.182	-1642
1017.253	-1240
1017.324	-2244
1017.395	-1297
1017.466	-969
1017.537	-1335
1017.608	-1477
1017.678	-2276
1017.749	-1805
1017.820	-1126
1017.891	-2087
1017.961	-1680
1018.032	-2100
1018.103	-1277
1018.173	-1238
1018.244	-1076
1018.315	-1852
1018.385	-1123
1018.456	-1891
1018.526	-1285
1018.597	-1387
1018.667	-1267
1018.738	-2573
1018.808	-1439
1018.878	-1734
1018.949	-738
1019.019	-1864
1019.089	-1514
1019.160	-2055
1019.230	-2038
1019.300	-1853
1019.371	-1564
1019.441	-1744
1019.511	-1834
1019.581	-1959
1019.651	-2263
1019.721	-1587
1019.791	-1181
1019.861	-1464
1019.931	-2010
1020.001	-2022
1020.071	-1520
1020.141	-1965
1020.211	-1413
1020.281	-1907
1020.351	-1791
1020.421	-1082
1020.491	-762
1020.560	-1526
1020.630	-1379
1020.700	-1438
1020.770	-2093
1020.839	-1784
1020.909	-1564
1020.979	-1559
1021.048	-2044
1021.118	-2142
1021.187	-1280
1021.257	-2308
1021.326	-1543
1021.396	-2034
1021.465	-1190
1021.535	-1040
1021.604	-2123
1021.674	-2280
1021.743	-1574
1021.812	-510
1021.882	-1735
1021.951	-974
1022.020	-2010
1022.089	-2224
1022.159	-2190
1022.228	-753
1022.297	-1404
1022.366	-2098
1022.435	-1483
1022.504	-2273
1022.573	-1967
1022.642	-1125
1022.711	-2478
1022.781	-1433
1022.849	-866
1022.918	-2387
1022.987	-2455
1023.056	-1448
1023.125	-1314
1023.194	-1977
1023.263	-1801
1023.331	-1208
1023.400	-1446
1023.469	-2365
1023.538	-635
1023.606	-2276
1023.675	-587
1023.744	-2264
1023.812	-2029
1023.881	-1961
1023.949	-1695
1024.018	-1904
1024.086	-1518
1024.155	-1757
1024.223	-1946
1024.292	-1585
1024.360	-1518
1024.429	-1374
1024.497	-2153
1024.565	-1901
1024.634	-1462
1024.702	-2037
1024.770	-2076
1024.838	-1835
1024.907	-2158
1024.975	-1973
1025.043	-1470
1025.111	-2089
1025.179	-1827
1025.247	-1262
1025.315	-1040
1025.383	-2375
1025.451	-1880
1025.519	-1310
1025.587	-1460
1025.655	-2907
1025.723	-1181
1025.791	-1830
1025.859	-2370
1025.927	-1129
1025.995	-1501
1026.062	-2582
1026.130	-1181
1026.198	-2165
1026.266	-1626
1026.333	-1578
1026.401	-926
1026.469	-1476
1026.536	-1458
1026.604	-1576
1026.671	-1239
1026.739	-2165
1026.806	-2532
1026.874	-2137
1026.941	-1691
1027.009	-1383
1027.076	-1614
1027.144	-1138
1027.211	-2082
1027.278	-1717
1027.345	-2118
1027.413	-2085
1027.480	-2198
1027.547	-1513
1027.614	-1375
1027.682	-2157
1027.749	-1931
1027.816	-2212
1027.883	-1606
1027.950	-1447
1028.017	-2139
1028.084	-1803
1028.151	-1764
1028.218	-2106
1028.285	-1741
1028.352	-1887
1028.419	-2179
1028.486	-1604
1028.553	-1468
1028.619	-2128
1028.686	-1208
1028.753	-2414
1028.820	-1355
1028.886	-1294
1028.953	-1378
1029.020	-2402
1029.086	-2277
1029.153	-1642
1029.220	-2043
1029.286	-1860
1029.353	-1582
1029.419	-2257
1029.486	-2420
1029.552	-1730
1029.619	-1894
1029.685	-2316
1029.751	-1375
1029.818	-1790
1029.884	-1768
1029.951	-948
1030.017	-1860
1030.083	-1780
1030.149	-1043
1030.216	-2233
1030.282	-1212
1030.348	-1769
1030.414	-1783
1030.480	-2068
1030.546	-1086
1030.612	-1405
1030.678	-1812
1030.744	-1184
1030.810	-1333
1030.876	-1947
1030.942	-2081
1031.008	-1329
1031.074	-1786
1031.140	-2283
1031.206	-1414
1031.272	-2509
1031.337	-1481
1031.403	-2132
1031.469	-1809
1031.534	-1775
1031.600	-1284
1031.666	-2010
1031.731	-2409
1031.797	-1735
1031.863	-1935
1031.928	-2019
1031.994	-2752
1032.059	-2029
1032.125	-1697
1032.190	-1823
1032.256	-2063
1032.321	-2076
1032.386	-1564
1032.452	-1933
1032.517	-2172
1032.582	-2475
1032.647	-2324
1032.713	-2662
1032.778	-1435
1032.843	-2329
1032.908	-2209
1032.974	-2553
1033.039	-1339
1033.104	-1798
1033.169	-2001
1033.234	-3444
1033.299	-1888
1033.364	-2213
1033.429	-2514
1033.494	-2065
1033.559	-2713
1033.624	-1606
1033.688	-1585
1033.753	-1914
1033.818	-2534
1033.883	-2193
1033.948	-1231
1034.013	-1902
1034.077	-1050
1034.142	-1853
1034.207	-2117
1034.271	-1426
1034.336	-1502
1034.400	-2823
1034.465	-1869
1034.530	-2284
1034.594	-2169
1034.658	-2254
1034.723	-2579
1034.787	-2221
1034.852	-2563
1034.916	-2748
1034.981	-2355
1035.045	-2165
1035.109	-2621
1035.173	-1538
1035.238	-2003
1035.302	-1963
1035.366	-2082
1035.430	-2009
1035.495	-1662
1035.559	-2537
1035.623	-2596
1035.687	-2441
1035.751	-1640
1035.815	-1477
1035.879	-1352
1035.943	-1817
1036.007	-1697
1036.071	-1644
1036.135	-2422
1036.198	-2819
1036.262	-2892
1036.326	-1678
1036.390	-2165
1036.454	-1387
1036.517	-2308
1036.581	-1810
1036.645	-1667
1036.709	-1475
1036.772	-2213
1036.836	-2401
1036.900	-2032
1036.963	-2192
1037.026	-1716
1037.090	-2314
1037.154	-1442
1037.217	-2288
1037.280	-2320
1037.344	-3106
1037.407	-2533
1037.471	-2367
1037.534	-1876
1037.597	-2541
1037.661	-2505
1037.724	-2699
1037.787	-1933
1037.850	-2570
1037.913	-1879
1037.977	-1356
1038.040	-1405
1038.103	-2460
1038.166	-1932
1038.229	-2099
1038.292	-2204
1038.355	-2712
1038.418	-1762
1038.481	-1989
1038.544	-1909
1038.607	-2383
1038.670	-1811
1038.732	-2025
1038.795	-2102
1038.858	-2120
1038.921	-2439
1038.984	-1607
1039.046	-2013
1039.109	-2418
1039.172	-2067
1039.234	-2748
1039.297	-2407
1039.360	-2988
1039.422	-1878
1039.485	-2430
1039.547	-2941
1039.610	-1959
1039.672	-1761
1039.734	-1983
1039.797	-2068
1039.859	-2284
1039.922	-1098
1039.984	-1870
1040.046	-2299
1040.109	-1793
1040.171	-2846
1040.233	-2218
1040.295	-2077
1040.358	-2946
1040.420	-2408
1040.482	-2624
1040.544	-2531
1040.606	-2548
1040.668	-1946
1040.730	-1694
1040.792	-1473
1040.854	-2536
1040.916	-2018
1040.978	-2636
1041.040	-1312
1041.102	-2819
1041.164	-2530
1041.225	-2516
1041.287	-2252
1041.349	-2659
1041.411	-1780
1041.472	-2732
1041.534	-1527
1041.596	-2242
1041.657	-1413
1041.719	-1673
1041.781	-2011
1041.842	-3324
1041.904	-2064
1041.965	-2703
1042.027	-1873
1042.088	-2946
1042.150	-1746
1042.211	-1765
1042.272	-1717
1042.334	-2430
1042.395	-2041
1042.456	-2986
1042.518	-1675
1042.579	-2733
1042.640	-2504
1042.701	-1874
1042.763	-2361
1042.824	-1983
1042.885	-1963
1042.946	-1767
1043.007	-2214
1043.068	-2513
1043.129	-1330
1043.190	-2888
1043.251	-1934
1043.312	-2061
1043.373	-1966
1043.434	-2163
1043.495	-2148
1043.556	-1385
1043.616	-1662
1043.677	-2343
1043.738	-1797
1043.799	-2484
1043.859	-1476
1043.920	-2093
1043.981	-2879
1044.041	-2354
1044.102	-2155
1044.162	-2286
1044.223	-1940
1044.284	-2475
1044.344	-2088
1044.405	-1955
1044.465	-1262
1044.525	-2589
1044.586	-2086
1044.646	-2616
1044.707	-1531
1044.767	-1860
1044.827	-2388
1044.887	-2594
1044.948	-1898
1045.008	-1896
1045.068	-2435
1045.128	-2181
1045.188	-1910
1045.249	-2027
1045.309	-1672
1045.369	-2587
1045.429	-1889
1045.489	-2178
1045.549	-935
1045.609	-2309
1045.669	-2191
1045.729	-2506
1045.789	-1630
1045.848	-1646
1045.908	-1738
1045.968	-1163
1046.028	-1817
1046.088	-2367
1046.147	-1471
1046.207	-2186
1046.267	-1537
1046.326	-1685
1046.386	-1356
1046.446	-1064
1046.505	-1431
1046.565	-2263
1046.624	-678
1046.684	-1096
1046.743	-1365
1046.803	-875
1046.862	-1155
1046.922	0
