'Start Wavelength	183.907
'End Wavelength	1046.922
'Gate Delay	5.000
'Gate Width (ms)	1.050
'Laser Output Level	0.000
'X Position	0.000
'Y Position	0.000
'Z Position	0.000
'Grid Point Number	1.000
'Shot Number	100.000
183.907	58.000
183.977	-393.000
184.047	12
184.116	104
184.186	-331
184.256	-206
184.325	639
184.395	-1263
184.465	278
184.534	-122
184.604	-742
184.674	56
184.743	-448
184.813	-183
184.883	338
184.952	-29
185.022	-328
185.092	-509
185.161	-601
185.231	-209
185.301	-380
185.370	-744
185.440	-129
185.509	20
185.579	-38
185.649	218
185.718	270
185.788	164
185.857	-125
185.927	-1298
185.996	-646
186.066	-1227
186.136	425
186.205	-768
186.275	166
186.344	-139
186.414	184
186.483	-1059
186.553	397
186.622	-159
186.692	-390
186.761	-1073
186.831	429
186.900	-293
186.970	-96
187.039	530
187.109	218
187.178	-625
187.248	92
187.317	-786
187.387	-73
187.456	-614
187.526	78
187.595	176
187.664	-1025
187.734	-542
187.803	19
187.873	-726
187.942	514
188.012	263
188.081	152
188.150	97
188.220	-19
188.289	208
188.358	-216
188.428	-745
188.497	71
188.567	-253
188.636	-549
188.705	-95
188.775	-546
188.844	-1220
188.913	386
188.983	-816
189.052	244
189.121	205
189.191	-449
189.260	-438
189.329	127
189.399	-283
189.468	16
189.537	-1196
189.606	20
189.676	-583
189.745	28
189.814	276
189.883	-269
189.953	-8
190.022	119
190.091	-3
190.161	686
190.230	-602
190.299	27
190.368	-245
190.437	-411
190.507	-510
190.576	-358
190.645	-399
190.714	-67
190.783	-478
190.853	886
190.922	-678
190.991	426
191.060	-367
191.129	-693
191.198	69
191.268	214
191.337	-336
191.406	10
191.475	202
191.544	-283
191.613	0
191.682	-22
191.752	-973
191.821	-502
191.890	-525
191.959	-43
192.028	-1131
192.097	-63
192.166	-440
192.235	-153
192.304	262
192.373	305
192.442	-407
192.511	408
192.580	-239
192.650	-175
192.719	-409
192.788	107
192.857	71
192.926	-11
192.995	-542
193.064	-83
193.133	-374
193.202	232
193.271	-344
193.340	920
193.409	59
193.478	588
193.547	9
193.615	430
193.684	803
193.753	-470
193.822	-469
193.891	-481
193.960	-260
194.029	-534
194.098	-530
194.167	-136
194.236	47
194.305	-174
194.374	-738
194.443	302
194.512	-727
194.580	532
194.649	77
194.718	-248
194.787	-879
194.856	-222
194.925	123
194.994	-276
195.062	-491
195.131	-859
195.200	-107
195.269	393
195.338	-615
195.407	294
195.475	-182
195.544	-39
195.613	-1161
195.682	824
195.751	-91
195.819	-924
195.888	-118
195.957	-153
196.026	-343
196.094	670
196.163	-463
196.232	-353
196.301	-351
196.369	319
196.438	-305
196.507	-397
196.576	-205
196.644	-488
196.713	-263
196.782	-706
196.850	752
196.919	-117
196.988	-615
197.056	-264
197.125	155
197.194	632
197.262	194
197.331	151
197.400	-272
197.468	-406
197.537	-843
197.606	-76
197.674	-168
197.743	796
197.812	-179
197.880	-230
197.949	-884
198.017	170
198.086	-538
198.155	-57
198.223	-126
198.292	-461
198.360	-450
198.429	-756
198.497	-591
198.566	1010
198.635	-356
198.703	613
198.772	-798
198.840	-498
198.909	-760
198.977	1094
199.046	54
199.114	752
199.183	-230
199.251	-47
199.320	-3
199.388	-498
199.457	-1026
199.525	231
199.594	-482
199.662	-99
199.731	232
199.799	-229
199.867	-89
199.936	394
200.004	-190
200.073	690
200.141	-334
200.210	-260
200.278	-292
200.346	158
200.415	35
200.483	-650
200.552	-274
200.620	-258
200.688	88
200.757	-57
200.825	-619
200.893	-456
200.962	-163
201.030	60
201.098	-902
201.167	-157
201.235	-599
201.303	755
201.372	-358
201.440	266
201.508	-319
201.577	-579
201.645	-506
201.713	-248
201.781	-1466
201.850	-178
201.918	197
201.986	-62
202.055	-294
202.123	-611
202.191	146
202.259	285
202.327	69
202.396	778
202.464	80
202.532	509
202.600	524
202.669	-326
202.737	97
202.805	-311
202.873	-319
202.941	181
203.009	-314
203.078	-75
203.146	424
203.214	475
203.282	-867
203.350	-294
203.418	-365
203.487	260
203.555	322
203.623	80
203.691	-178
203.759	341
203.827	206
203.895	-146
203.963	-715
204.031	36
204.099	-466
204.168	182
204.236	-540
204.304	331
204.372	-47
204.440	326
204.508	-75
204.576	-234
204.644	603
204.712	431
204.780	-214
204.848	172
204.916	-496
204.984	227
205.052	276
205.120	373
205.188	166
205.256	-771
205.324	-190
205.392	610
205.460	700
205.528	284
205.596	-428
205.664	389
205.732	-594
205.799	559
205.867	549
205.935	88
206.003	810
206.071	-207
206.139	-905
206.207	808
206.275	-794
206.343	-103
206.411	11
206.478	387
206.546	-944
206.614	111
206.682	-623
206.750	-111
206.818	353
206.885	322
206.953	-1193
207.021	1166
207.089	-270
207.157	587
207.225	-62
207.292	-385
207.360	-488
207.428	-150
207.496	-439
207.563	386
207.631	-427
207.699	-346
207.767	237
207.834	290
207.902	-571
207.970	-197
208.038	-225
208.105	410
208.173	-764
208.241	-27
208.309	-48
208.376	649
208.444	-472
208.512	-131
208.579	-636
208.647	356
208.715	-134
208.782	-567
208.850	-287
208.918	20
208.985	56
209.053	590
209.120	-317
209.188	125
209.256	-711
209.323	-53
209.391	-273
209.459	1224
209.526	-215
209.594	395
209.661	-175
209.729	474
209.796	412
209.864	385
209.932	-657
209.999	1133
210.067	427
210.134	-110
210.202	-265
210.269	135
210.337	3
210.404	-72
210.472	-63
210.539	977
210.607	-541
210.674	75
210.742	431
210.809	400
210.877	484
210.944	1181
211.012	-700
211.079	870
211.146	-171
211.214	-723
211.281	155
211.349	1072
211.416	-271
211.484	623
211.551	26
211.618	241
211.686	-50
211.753	-526
211.821	579
211.888	-485
211.955	-38
212.023	638
212.090	117
212.157	820
212.225	-292
212.292	1
212.359	999
212.427	2302
212.494	866
212.561	516
212.629	62
212.696	437
212.763	405
212.831	-429
212.898	-146
212.965	932
213.032	136
213.100	-190
213.167	537
213.234	332
213.301	256
213.369	125
213.436	430
213.503	111
213.570	-44
213.638	24
213.705	-1104
213.772	-190
213.839	-67
213.906	694
213.973	303
214.041	319
214.108	-320
214.175	1279
214.242	1
214.309	489
214.376	665
214.444	593
214.511	295
214.578	-72
214.645	199
214.712	1078
214.779	-80
214.846	-322
214.913	380
214.980	893
215.048	-87
215.115	1182
215.182	19
215.249	794
215.316	199
215.383	796
215.450	289
215.517	168
215.584	782
215.651	-70
215.718	-568
215.785	563
215.852	-88
215.919	-426
215.986	372
216.053	237
216.120	-1002
216.187	347
216.254	124
216.321	-293
216.388	-940
216.455	507
216.522	71
216.589	438
216.656	260
216.722	431
216.789	765
216.856	1195
216.923	333
216.990	573
217.057	810
217.124	497
217.191	500
217.258	1473
217.324	1350
217.391	2806
217.458	1157
217.525	1201
217.592	358
217.659	-541
217.725	401
217.792	-57
217.859	557
217.926	719
217.993	-258
218.059	994
218.126	293
218.193	118
218.260	-473
218.327	7
218.393	-64
218.460	10
218.527	-951
218.594	-260
218.660	239
218.727	603
218.794	-923
218.860	922
218.927	-130
218.994	453
219.061	-196
219.127	-480
219.194	-218
219.261	11
219.327	-378
219.394	-156
219.461	837
219.527	1079
219.594	-144
219.661	212
219.727	-529
219.794	642
219.860	-636
219.927	515
219.994	32
220.060	624
220.127	475
220.193	738
220.260	1055
220.326	1337
220.393	1433
220.460	3418
220.526	1618
220.593	846
220.659	1983
220.726	1105
220.792	1592
220.859	2670
220.925	3294
220.992	5013
221.058	3626
221.125	2267
221.191	1514
221.258	184
221.324	-92
221.391	284
221.457	14
221.524	338
221.590	608
221.657	1736
221.723	975
221.789	800
221.856	899
221.922	-41
221.989	461
222.055	233
222.121	-991
222.188	1565
222.254	324
222.321	-123
222.387	-35
222.453	217
222.520	-66
222.586	-309
222.652	457
222.719	-630
222.785	-55
222.851	184
222.918	-254
222.984	-104
223.050	-640
223.116	-1132
223.183	591
223.249	-1014
223.315	129
223.382	4
223.448	-11
223.514	-144
223.580	308
223.647	-332
223.713	-1471
223.779	478
223.845	600
223.911	289
223.978	-929
224.044	170
224.110	-622
224.176	520
224.242	-178
224.309	-495
224.375	484
224.441	77
224.507	-972
224.573	-642
224.639	-349
224.705	-438
224.772	365
224.838	-399
224.904	-227
224.970	125
225.036	-176
225.102	-955
225.168	413
225.234	76
225.300	358
225.366	112
225.432	-391
225.499	122
225.565	-325
225.631	351
225.697	-718
225.763	891
225.829	-52
225.895	899
225.961	-161
226.027	-362
226.093	-106
226.159	1968
226.225	1847
226.291	3824
226.357	6197
226.423	3198
226.489	1249
226.554	1174
226.620	826
226.686	1030
226.752	1317
226.818	3409
226.884	5679
226.950	6390
227.016	2915
227.082	1686
227.148	806
227.214	170
227.279	-165
227.345	-51
227.411	-124
227.477	-112
227.543	865
227.609	679
227.674	437
227.740	-244
227.806	-69
227.872	885
227.938	65
228.003	521
228.069	-934
228.135	-381
228.201	491
228.267	-169
228.332	237
228.398	-913
228.464	22
228.530	-703
228.595	120
228.661	-101
228.727	-363
228.792	1703
228.858	-124
228.924	-1091
228.990	1404
229.055	-1407
229.121	11
229.187	141
229.252	-372
229.318	-294
229.384	-287
229.449	128
229.515	-1577
229.581	-1062
229.646	978
229.712	-451
229.777	-354
229.843	-112
229.909	-293
229.974	528
230.040	237
230.105	263
230.171	-430
230.236	507
230.302	571
230.368	302
230.433	-63
230.499	-105
230.564	482
230.630	-347
230.695	-317
230.761	345
230.826	-1332
230.892	538
230.957	-339
231.023	-163
231.088	-274
231.154	128
231.219	806
231.284	30
231.350	366
231.415	-398
231.481	71
231.546	-194
231.612	-1000
231.677	-852
231.742	-958
231.808	1030
231.873	-80
231.939	-1344
232.004	1738
232.069	782
232.135	-334
232.200	-439
232.265	47
232.331	-65
232.396	-930
232.461	-649
232.527	-612
232.592	-323
232.657	-161
232.723	276
232.788	-958
232.853	-10
232.918	-25
232.984	228
233.049	-1022
233.114	-707
233.179	0
233.245	64
233.310	398
233.375	-608
233.440	98
233.506	-352
233.571	-1338
233.636	-87
233.701	-389
233.766	-317
233.832	-307
233.897	394
233.962	-1455
234.027	507
234.092	-776
234.157	-378
234.222	-417
234.288	-221
234.353	107
234.418	1104
234.483	920
234.548	630
234.613	-192
234.678	144
234.743	-327
234.808	1296
234.873	-214
234.938	1036
235.004	-224
235.069	679
235.134	-635
235.199	511
235.264	98
235.329	-869
235.394	718
235.459	336
235.524	-1272
235.589	-55
235.654	-1016
235.719	-643
235.784	461
235.849	-323
235.913	-113
235.978	963
236.043	-194
236.108	248
236.173	-697
236.238	622
236.303	-540
236.368	131
236.433	1068
236.498	-271
236.563	947
236.627	2075
236.692	8155
236.757	7970
236.822	3589
236.887	844
236.952	1415
237.017	-163
237.081	1948
237.146	1813
237.211	5626
237.276	8549
237.341	10846
237.405	6300
237.470	2003
237.535	1679
237.600	688
237.664	1382
237.729	188
237.794	658
237.859	3594
237.923	1971
237.988	532
238.053	1803
238.118	88
238.182	1147
238.247	2168
238.312	-1
238.376	919
238.441	-870
238.506	1280
238.570	-1092
238.635	1235
238.700	-323
238.764	-419
238.829	574
238.893	-122
238.958	879
239.023	126
239.087	-313
239.152	213
239.216	-448
239.281	482
239.346	793
239.410	200
239.475	-15
239.539	989
239.604	-547
239.668	527
239.733	209
239.797	846
239.862	2662
239.926	475
239.991	323
240.055	143
240.120	245
240.184	-1
240.249	305
240.313	-853
240.378	112
240.442	334
240.507	1233
240.571	-522
240.635	-230
240.700	733
240.764	30
240.829	-148
240.893	-1635
240.957	6
241.022	851
241.086	976
241.151	-390
241.215	-1787
241.279	219
241.344	78
241.408	243
241.472	-681
241.537	974
241.601	480
241.665	-172
241.730	-396
241.794	983
241.858	127
241.922	330
241.987	198
242.051	-326
242.115	-868
242.179	152
242.244	-10
242.308	218
242.372	60
242.436	-303
242.501	383
242.565	-232
242.629	-1134
242.693	1207
242.757	-538
242.822	-960
242.886	244
242.950	334
243.014	-799
243.078	-447
243.142	176
243.206	-255
243.271	131
243.335	44
243.399	927
243.463	2319
243.527	8530
243.591	2178
243.655	370
243.719	-938
243.783	1014
243.847	1261
243.911	919
243.975	1188
244.040	-617
244.104	1702
244.168	-394
244.232	-406
244.296	355
244.360	860
244.424	-439
244.488	-111
244.552	-302
244.615	-494
244.679	500
244.743	408
244.807	-430
244.871	832
244.935	110
244.999	-1331
245.063	137
245.127	860
245.191	212
245.255	893
245.319	-19
245.383	-1050
245.446	890
245.510	-503
245.574	124
245.638	-33
245.702	-1873
245.766	878
245.829	1137
245.893	-1056
245.957	-620
246.021	155
246.085	-1157
246.149	330
246.212	1300
246.276	1180
246.340	-54
246.404	345
246.467	675
246.531	-840
246.595	903
246.659	534
246.722	-821
246.786	88
246.850	-427
246.913	332
246.977	-1178
247.041	675
247.104	-544
247.168	-52
247.232	678
247.295	2511
247.359	924
247.423	-322
247.486	91
247.550	986
247.614	257
247.677	293
247.741	-216
247.804	-467
247.868	145
247.932	-332
247.995	2832
248.059	-125
248.122	-1313
248.186	983
248.249	803
248.313	4217
248.376	3752
248.440	1978
248.503	-330
248.567	1888
248.630	-147
248.694	2331
248.757	2180
248.821	4160
248.884	3144
248.948	1522
249.011	3857
249.075	4288
249.138	4008
249.202	2704
249.265	544
249.328	1804
249.392	307
249.455	1078
249.519	103
249.582	443
249.645	690
249.709	960
249.772	407
249.835	1545
249.899	393
249.962	932
250.025	-237
250.089	1045
250.152	2540
250.215	933
250.279	387
250.342	526
250.405	1313
250.468	230
250.532	712
250.595	2807
250.658	6598
250.721	14598
250.785	3929
250.848	3110
250.911	379
250.974	1152
251.038	1054
251.101	3801
251.164	888
251.227	2043
251.290	1213
251.354	2455
251.417	10922
251.480	12658
251.543	7450
251.606	22100
251.669	16502
251.732	6172
251.795	4738
251.859	5777
251.922	13960
251.985	7972
252.048	3206
252.111	1694
252.174	922
252.237	2478
252.300	5555
252.363	7119
252.426	18206
252.489	6614
252.552	2956
252.615	959
252.678	1604
252.741	4227
252.804	6165
252.867	18401
252.930	9427
252.993	4920
253.056	2596
253.119	844
253.182	482
253.245	2343
253.308	872
253.371	428
253.434	841
253.497	364
253.559	2074
253.622	1210
253.685	1463
253.748	1387
253.811	1002
253.874	1027
253.937	-309
254.000	843
254.062	552
254.125	1985
254.188	2810
254.251	1405
254.314	208
254.376	921
254.439	1385
254.502	1205
254.565	-386
254.628	2873
254.690	298
254.753	106
254.816	-582
254.878	694
254.941	200
255.004	1361
255.067	-403
255.129	-341
255.192	406
255.255	-792
255.317	-370
255.380	863
255.443	-267
255.505	-508
255.568	-1089
255.631	-461
255.693	-823
255.756	-1449
255.819	228
255.881	-941
255.944	-135
256.006	-644
256.069	-575
256.132	-8
256.194	-447
256.257	718
256.319	280
256.382	-289
256.444	1057
256.507	281
256.569	-61
256.632	59
256.694	795
256.757	4811
256.819	15001
256.882	5632
256.944	2262
257.007	1404
257.069	201
257.132	1288
257.194	1221
257.257	636
257.319	-710
257.381	966
257.444	4038
257.506	16759
257.569	19537
257.631	5871
257.693	2460
257.756	1458
257.818	215
257.880	521
257.943	560
258.005	284
258.067	-304
258.130	794
258.192	-406
258.254	765
258.317	63
258.379	-257
258.441	1015
258.503	2074
258.566	497
258.628	1919
258.690	-1298
258.753	461
258.815	246
258.877	-399
258.939	401
259.001	517
259.064	39
259.126	-639
259.188	-42
259.250	209
259.312	130
259.375	369
259.437	-93
259.499	40
259.561	-152
259.623	-371
259.685	-9
259.747	269
259.809	1132
259.872	2147
259.934	3306
259.996	5240
260.058	1116
260.120	-200
260.182	371
260.244	455
260.306	-126
260.368	463
260.430	-564
260.492	1656
260.554	3069
260.616	-508
260.678	1951
260.740	2009
260.802	-854
260.864	132
260.926	-1171
260.988	660
261.050	-947
261.112	929
261.174	5591
261.236	2362
261.298	-625
261.359	-292
261.421	1539
261.483	-394
261.545	-131
261.607	-1423
261.669	88
261.731	-154
261.793	819
261.854	8
261.916	774
261.978	-608
262.040	497
262.102	520
262.164	-1210
262.225	159
262.287	-910
262.349	42
262.411	-257
262.472	830
262.534	-1153
262.596	1121
262.658	-894
262.719	-823
262.781	811
262.843	445
262.904	-143
262.966	300
263.028	-820
263.090	2675
263.151	10732
263.213	3886
263.275	1898
263.336	-289
263.398	977
263.459	-618
263.521	-396
263.583	1562
263.644	-114
263.706	-412
263.767	-1104
263.829	136
263.891	-1619
263.952	-460
264.014	-936
264.075	-220
264.137	2892
264.198	567
264.260	-810
264.321	83
264.383	395
264.444	4806
264.506	520
264.567	638
264.629	1431
264.690	3809
264.752	927
264.813	794
264.875	-801
264.936	795
264.998	-846
265.059	-426
265.120	-460
265.182	612
265.243	9307
265.305	10480
265.366	1456
265.427	-25
265.489	316
265.550	-297
265.611	566
265.673	-1135
265.734	38
265.795	-32
265.857	-849
265.918	-91
265.979	2369
266.040	15169
266.102	13425
266.163	2541
266.224	1668
266.286	150
266.347	-1468
266.408	-217
266.469	-23
266.530	-586
266.592	-445
266.653	-342
266.714	462
266.775	-372
266.836	-400
266.898	-273
266.959	241
267.020	-359
267.081	359
267.142	-256
267.203	-1238
267.264	-1995
267.326	45
267.387	-382
267.448	-234
267.509	-728
267.570	-433
267.631	-753
267.692	-1333
267.753	29
267.814	-625
267.875	-378
267.936	820
267.997	695
268.058	-192
268.119	-231
268.180	-1226
268.241	-915
268.302	-235
268.363	-935
268.424	-1214
268.485	745
268.546	-1575
268.607	-560
268.668	-1799
268.729	-890
268.790	-1005
268.851	-359
268.912	481
268.972	-75
269.033	-811
269.094	-460
269.155	-370
269.216	-405
269.277	-343
269.338	-592
269.398	-634
269.459	-1335
269.520	175
269.581	-623
269.642	-398
269.702	-339
269.763	-435
269.824	-1062
269.885	-510
269.945	474
270.006	-1216
270.067	-733
270.128	-281
270.188	-96
270.249	-1279
270.310	-816
270.370	-620
270.431	-511
270.492	-741
270.553	-4
270.613	-513
270.674	1076
270.734	-457
270.795	-576
270.856	-335
270.916	-1259
270.977	-983
271.038	420
271.098	-822
271.159	-342
271.219	-139
271.280	-723
271.340	-380
271.401	-1317
271.462	369
271.522	-246
271.583	-646
271.643	-489
271.704	-656
271.764	-424
271.825	-249
271.885	3808
271.946	5836
272.006	1263
272.066	2053
272.127	4875
272.187	881
272.248	-1168
272.308	-635
272.369	2831
272.429	1313
272.489	-51
272.550	355
272.610	1681
272.671	248
272.731	354
272.791	292
272.852	-28
272.912	-39
272.972	-20
273.033	76
273.093	-486
273.153	222
273.214	122
273.274	-144
273.334	2202
273.394	4543
273.455	1617
273.515	1128
273.575	3485
273.635	1396
273.696	1096
273.756	3269
273.816	1062
273.876	560
273.936	74
273.997	1851
274.057	25
274.117	-227
274.177	756
274.237	4661
274.297	4530
274.358	1406
274.418	2693
274.478	1578
274.538	-454
274.598	-836
274.658	1148
274.718	1545
274.778	489
274.838	-272
274.898	-200
274.958	1615
275.018	3452
275.078	1822
275.138	496
275.198	-680
275.258	-181
275.318	-533
275.378	417
275.438	719
275.498	569
275.558	914
275.618	2555
275.678	1826
275.738	1780
275.798	816
275.858	96
275.918	-1213
275.978	436
276.038	-521
276.098	-343
276.157	-242
276.217	2769
276.277	610
276.337	-134
276.397	-224
276.457	-327
276.517	-702
276.576	-129
276.636	-497
276.696	277
276.756	146
276.815	666
276.875	-699
276.935	-38
276.995	-327
277.055	-448
277.114	-391
277.174	-600
277.234	2043
277.293	146
277.353	-837
277.413	232
277.472	-730
277.532	-22
277.592	-101
277.651	3066
277.711	6091
277.771	849
277.830	6644
277.890	5693
277.950	2652
278.009	13455
278.069	3711
278.128	3459
278.188	6322
278.248	2246
278.307	6129
278.367	4849
278.426	331
278.486	347
278.545	-393
278.605	-319
278.664	-411
278.724	-395
278.783	748
278.843	5281
278.902	997
278.962	-172
279.021	561
279.081	1042
279.140	334
279.199	-408
279.259	501
279.318	763
279.378	888
279.437	1795
279.496	6889
279.556	29457
279.615	26616
279.675	5861
279.734	1913
279.793	3438
279.853	4612
279.912	1016
279.971	920
280.031	1106
280.090	1335
280.149	4730
280.208	2630
280.268	20692
280.327	24198
280.386	3623
280.445	2656
280.505	1741
280.564	587
280.623	809
280.682	258
280.742	2766
280.801	-118
280.860	-539
280.919	-303
280.978	-242
281.037	-642
281.097	-1204
281.156	133
281.215	-1165
281.274	-276
281.333	2856
281.392	1493
281.451	-422
281.510	-236
281.569	-69
281.628	-1222
281.688	-501
281.747	-128
281.806	-349
281.865	-688
281.924	-931
281.983	-651
282.042	-733
282.101	-705
282.160	-737
282.219	-1101
282.278	-32
282.337	1571
282.396	283
282.454	-899
282.513	-127
282.572	1446
282.631	741
282.690	-950
282.749	-798
282.808	-230
282.867	-936
282.926	-748
282.985	-101
283.043	-1073
283.102	-1305
283.161	-1087
283.220	-109
283.279	2608
283.338	189
283.396	-702
283.455	-634
283.514	-292
283.573	287
283.631	118
283.690	-168
283.749	-275
283.808	360
283.866	331
283.925	-82
283.984	-483
284.043	-318
284.101	-245
284.160	94
284.219	-292
284.277	669
284.336	429
284.395	3749
284.453	2824
284.512	326
284.570	367
284.629	794
284.688	405
284.746	1176
284.805	2531
284.863	2303
284.922	3564
284.981	4702
285.039	5598
285.098	10968
285.156	23933
285.215	40325
285.273	42589
285.332	29611
285.390	15027
285.449	8079
285.507	5532
285.566	3468
285.624	2663
285.683	2487
285.741	1117
285.799	525
285.858	1068
285.916	690
285.975	-13
286.033	193
286.091	353
286.150	-600
286.208	-814
286.267	-487
286.325	157
286.383	184
286.442	379
286.500	-699
286.558	-351
286.616	-596
286.675	-478
286.733	672
286.791	-133
286.850	-41
286.908	-708
286.966	755
287.024	-613
287.083	-320
287.141	-785
287.199	-47
287.257	-578
287.315	-333
287.374	65
287.432	513
287.490	577
287.548	98
287.606	-653
287.664	-424
287.723	-802
287.781	1000
287.839	-227
287.897	-455
287.955	-143
288.013	1317
288.071	4051
288.129	17877
288.187	61912
288.245	28496
288.303	7048
288.361	3494
288.419	1126
288.477	380
288.535	268
288.593	-208
288.651	-66
288.709	-253
288.767	-496
288.825	-365
288.883	-602
288.941	-509
288.999	-436
289.057	-603
289.115	-973
289.173	-655
289.231	-511
289.289	-724
289.346	-596
289.404	14
289.462	-395
289.520	-339
289.578	-269
289.636	-684
289.694	-1064
289.751	-774
289.809	-882
289.867	-268
289.925	-570
289.983	585
290.040	-580
290.098	-581
290.156	-803
290.214	-671
290.271	-1577
290.329	-201
290.387	-1084
290.444	-607
290.502	-1082
290.560	-437
290.617	-553
290.675	-189
290.733	-1141
290.790	-1103
290.848	-391
290.906	-685
290.963	-601
291.021	-729
291.078	-854
291.136	28
291.194	274
291.251	4711
291.309	276
291.366	-287
291.424	-1102
291.481	-1239
291.539	-1126
291.596	-600
291.654	-1339
291.711	-958
291.769	-735
291.826	-445
291.884	-350
291.941	-881
291.999	-908
292.056	-982
292.114	-1664
292.171	-1502
292.228	-790
292.286	-304
292.343	-475
292.401	271
292.458	-581
292.515	-633
292.573	-424
292.630	-917
292.687	-767
292.745	-237
292.802	-577
292.859	2362
292.917	3824
292.974	1648
293.031	-673
293.089	-1012
293.146	-772
293.203	296
293.260	-973
293.318	-760
293.375	507
293.432	-160
293.489	-1310
293.546	-890
293.604	-571
293.661	-249
293.718	6193
293.775	2804
293.832	511
293.889	542
293.947	-234
294.004	-155
294.061	-522
294.118	341
294.175	3509
294.232	8247
294.289	1865
294.346	642
294.403	96
294.460	-353
294.517	-741
294.574	-240
294.631	-705
294.688	-593
294.745	812
294.802	7415
294.859	10911
294.916	2829
294.973	597
295.030	-317
295.087	-280
295.144	-397
295.201	-264
295.258	-764
295.315	-556
295.372	2207
295.429	4444
295.486	1681
295.542	684
295.599	4837
295.656	10299
295.713	4326
295.770	4511
295.827	2282
295.883	-28
295.940	242
295.997	372
296.054	558
296.111	-32
296.167	135
296.224	-640
296.281	-716
296.338	-705
296.394	-340
296.451	311
296.508	1810
296.564	3641
296.621	2841
296.678	4414
296.734	9235
296.791	2819
296.848	979
296.904	1128
296.961	1658
297.018	5294
297.074	4637
297.131	652
297.187	407
297.244	398
297.301	5136
297.357	10794
297.414	3787
297.470	1084
297.527	70
297.583	374
297.640	-100
297.696	-269
297.753	57
297.809	-937
297.866	-296
297.922	-544
297.979	-246
298.035	-178
298.092	267
298.148	2215
298.204	2377
298.261	665
298.317	2615
298.374	6342
298.430	3809
298.486	43
298.543	360
298.599	-409
298.656	663
298.712	1740
298.768	5754
298.824	5177
298.881	710
298.937	109
298.993	-337
299.050	-683
299.106	-589
299.162	-245
299.218	675
299.275	-656
299.331	-279
299.387	229
299.443	5571
299.500	6498
299.556	2594
299.612	695
299.668	272
299.724	616
299.780	960
299.837	-194
299.893	674
299.949	4624
300.005	6469
300.061	3858
300.117	9784
300.173	4643
300.229	918
300.285	863
300.341	692
300.397	-126
300.453	-1108
300.510	-1151
300.566	-728
300.622	426
300.678	3153
300.734	5591
300.790	4823
300.845	5754
300.901	3466
300.957	4460
301.013	3413
301.069	-30
301.125	252
301.181	-936
301.237	-205
301.293	-1258
301.349	36
301.405	-952
301.461	-180
301.516	-261
301.572	-807
301.628	228
301.684	471
301.740	317
301.796	3446
301.851	1806
301.907	3100
301.963	2887
302.019	5117
302.074	18321
302.130	19417
302.186	9145
302.242	2547
302.297	1404
302.353	1752
302.409	2773
302.464	2779
302.520	1240
302.576	4984
302.631	7749
302.687	2988
302.743	1427
302.798	179
302.854	-122
302.910	1140
302.965	574
303.021	1514
303.076	1825
303.132	1001
303.187	1663
303.243	1205
303.299	215
303.354	106
303.410	-536
303.465	-412
303.521	157
303.576	289
303.632	150
303.687	1281
303.743	5016
303.798	5661
303.853	1608
303.909	556
303.964	295
304.020	904
304.075	1234
304.130	1433
304.186	2467
304.241	3584
304.297	1827
304.352	1079
304.358	944
304.407	-155
304.449	250
304.463	390
304.518	142
304.539	87
304.573	-28
304.629	317
304.630	332
304.684	1054
304.720	2756
304.739	3614
304.794	7369
304.811	6466
304.850	4201
304.902	1574
304.905	1409
304.960	1034
304.992	823
305.015	649
305.071	823
305.083	813
305.126	722
305.173	-62
305.181	-172
305.236	352
305.264	96
305.292	-203
305.347	1150
305.354	993
305.402	103
305.445	550
305.457	638
305.512	1004
305.535	1081
305.567	1238
305.622	630
305.626	691
305.678	2632
305.716	6762
305.733	8089
305.788	9371
305.807	7763
305.843	5038
305.897	6332
305.898	6344
305.953	7140
305.988	4607
306.008	3233
306.063	2399
306.078	2074
306.118	1333
306.168	514
306.173	448
306.228	597
306.259	275
306.283	54
306.338	107
306.349	198
306.393	718
306.440	1337
306.448	1396
306.503	1595
306.530	1456
306.558	2019
306.613	4285
306.620	4723
306.668	6852
306.711	7260
306.723	6980
306.778	5800
306.801	4248
306.833	2698
306.888	1237
306.892	1188
306.943	1207
306.982	1033
306.997	911
307.052	853
307.072	896
307.107	1270
307.162	2073
307.163	2081
307.217	3359
307.253	3890
307.272	3874
307.327	3862
307.343	3480
307.381	2777
307.434	2323
307.436	2424
307.491	5765
307.524	8544
307.546	8977
307.600	8372
307.614	7438
307.655	4542
307.704	2780
307.710	2814
307.765	3149
307.795	3965
307.819	4993
307.874	9198
307.885	9409
307.929	8380
307.975	7184
307.984	7589
308.038	11425
308.065	14322
308.093	24019
308.148	47673
308.156	52801
308.202	77452
308.246	92800
308.257	90277
308.312	55754
308.336	40522
308.366	29881
308.421	16560
308.426	15443
308.475	10537
308.517	7662
308.530	7165
308.585	6052
308.607	5669
308.639	5574
308.694	5947
308.697	5965
308.748	9478
308.787	13094
308.803	12984
308.857	10361
308.877	9157
308.912	8892
308.967	9936
308.967	9925
309.021	13375
309.058	16884
309.076	21232
309.130	35500
309.148	41050
309.185	64784
309.238	105477
309.239	105907
309.293	117407
309.328	113152
309.348	100768
309.402	57887
309.418	46787
309.457	33482
309.508	19571
309.511	19273
309.566	15776
309.598	14621
309.620	15896
309.674	19739
309.688	20829
309.729	19801
309.778	16463
309.783	16073
309.837	11377
309.868	8835
309.892	9544
309.946	11717
309.959	12529
310.001	15603
310.049	18502
310.055	17928
310.109	11292
310.139	7397
310.163	6144
310.218	4203
310.229	3811
310.272	3635
310.319	3554
310.326	3419
310.381	2491
310.409	2051
310.435	2380
310.489	3114
310.499	3146
310.543	2617
310.589	2544
310.598	2606
310.652	2620
310.679	2753
310.706	2592
310.760	1866
310.769	1796
310.814	1945
310.859	1850
310.868	1876
310.923	2019
310.948	2137
310.977	2287
311.031	2567
311.038	2569
311.085	2202
311.128	1884
311.139	2010
311.193	2665
311.218	2901
311.247	2648
311.301	2217
311.308	2148
311.356	2579
311.398	2943
311.410	2910
311.464	2651
311.488	2559
311.518	2714
311.572	2913
311.578	2921
311.626	3060
311.668	3208
311.680	3338
311.734	3765
311.758	3973
311.788	3996
311.842	3939
311.847	3925
311.896	5014
311.937	5863
311.950	5884
312.004	5925
312.027	5896
312.058	4815
312.112	2869
312.117	2667
312.165	3328
312.207	3879
312.297	4967
312.386	4230
312.476	3329
312.566	5282
312.656	2416
312.745	2428
312.835	3633
312.925	3910
313.015	3217
313.104	4251
313.194	3603
313.284	2984
313.374	3499
313.463	3534
313.553	3434
313.643	2382
313.732	3118
313.822	1702
313.912	3535
314.001	3777
314.091	4447
314.180	6155
314.270	4352
314.360	4022
314.449	3766
314.539	3422
314.628	3128
314.718	3120
314.808	3493
314.897	3903
314.987	3373
315.076	3239
315.166	4231
315.255	4320
315.345	3678
315.434	3514
315.524	3292
315.613	3434
315.703	4038
315.792	4433
315.881	8397
315.971	4246
316.060	5893
316.150	8425
316.239	9181
316.328	3858
316.418	2807
316.507	3697
316.597	3450
316.686	3563
316.775	4177
316.865	8656
316.954	2911
317.043	2865
317.133	2590
317.222	2990
317.311	3153
317.400	2110
317.490	4272
317.579	2891
317.668	2704
317.757	2606
317.847	5235
317.936	11845
318.025	7458
318.114	4549
318.203	4111
318.293	6158
318.382	12482
318.471	9411
318.560	13846
318.649	31413
318.738	6250
318.828	3239
318.917	3518
319.006	4855
319.095	10858
319.184	35498
319.273	16382
319.362	6557
319.451	2790
319.540	2541
319.629	4172
319.718	7189
319.807	4854
319.896	10226
319.985	40970
320.074	12847
320.163	4132
320.252	5625
320.341	5897
320.430	5501
320.519	5192
320.608	3462
320.697	3327
320.786	2254
320.875	3967
320.964	3958
321.053	5757
321.142	6469
321.230	7961
321.319	6952
321.408	14904
321.497	7906
321.586	6627
321.675	8790
321.764	8921
321.852	6105
321.941	8091
322.030	5166
322.119	6722
322.207	14096
322.296	14150
322.385	7848
322.474	5981
322.562	15548
322.651	9246
322.740	5929
322.829	9109
322.917	10040
323.006	5779
323.095	5321
323.183	4729
323.272	6430
323.361	10363
323.449	31212
323.538	10225
323.626	20687
323.715	12941
323.804	5371
323.892	19395
323.981	9854
324.069	4913
324.158	11610
324.246	10652
324.335	4573
324.424	5215
324.512	3927
324.601	4400
324.689	6239
324.778	10279
324.866	7189
324.954	2890
325.043	2677
325.131	4901
325.220	8890
325.308	9560
325.397	7506
325.485	5363
325.574	3375
325.662	2329
325.750	3243
325.839	3200
325.927	2094
326.015	2240
326.104	3318
326.192	5394
326.280	2081
326.369	2293
326.457	2778
326.545	5367
326.634	2659
326.722	1976
326.810	1930
326.898	2667
326.987	3379
327.075	3900
327.163	5137
327.251	3447
327.340	3986
327.428	6967
327.516	2874
327.604	2783
327.692	1947
327.781	2545
327.869	4074
327.957	2387
328.045	2781
328.133	2480
328.221	2130
328.309	2437
328.397	2741
328.485	2486
328.574	3343
328.662	7840
328.750	4694
328.838	2774
328.926	1874
329.014	2870
329.102	2701
329.190	9234
329.278	4517
329.366	2040
329.454	1918
329.542	1885
329.630	1707
329.718	1907
329.806	2044
329.893	3052
329.981	2169
330.069	2158
330.157	4050
330.245	12354
330.333	6332
330.421	2160
330.509	3291
330.597	7507
330.684	7049
330.772	3643
330.860	6357
330.948	9346
331.036	3496
331.123	1690
331.211	2200
331.299	2705
331.387	6829
331.475	12080
331.562	4158
331.650	1369
331.738	2244
331.825	3305
331.913	1801
332.001	2078
332.089	3049
332.176	4753
332.264	9877
332.352	8406
332.439	3184
332.527	2865
332.614	756
332.702	2674
332.790	2165
332.877	5339
332.965	11636
333.052	3509
333.140	2897
333.228	8259
333.315	2856
333.403	2404
333.490	6196
333.578	5610
333.665	10757
333.753	5103
333.840	2083
333.928	3020
334.015	7275
334.103	12114
334.190	40944
334.278	11307
334.365	4380
334.452	4020
334.540	2853
334.627	2852
334.715	3949
334.802	7745
334.889	36719
334.977	37068
335.064	6075
335.151	3833
335.239	3372
335.326	4889
335.413	22032
335.501	30316
335.588	4814
335.675	3441
335.762	4660
335.850	9593
335.937	5731
336.024	12369
336.111	45453
336.199	20932
336.286	5263
336.373	3052
336.460	1833
336.547	2716
336.635	2630
336.722	2788
336.809	2468
336.896	3441
336.983	12043
337.070	33240
337.157	46111
337.245	25494
337.332	17282
337.419	2990
337.506	2916
337.593	2743
337.680	10405
337.767	37513
337.854	9835
337.941	10499
338.028	9063
338.115	3717
338.202	4799
338.289	7223
338.376	24320
338.463	8323
338.550	21379
338.637	22631
338.724	5413
338.811	7841
338.898	1676
338.984	2218
339.071	3383
339.158	3223
339.245	5331
339.332	4195
339.419	5659
339.506	5903
339.593	1270
339.679	2431
339.766	1699
339.853	2316
339.940	3505
340.027	2850
340.113	2071
340.200	2448
340.287	2160
340.374	2428
340.460	3955
340.547	1241
340.634	2837
340.720	9248
340.807	5032
340.894	1069
340.980	1935
341.067	1679
341.154	2100
341.240	2316
341.327	3849
341.414	1960
341.500	2096
341.587	2262
341.674	1993
341.760	3836
341.847	3265
341.933	869
342.020	392
342.106	1783
342.193	1375
342.279	2501
342.366	2170
342.452	3863
342.539	1840
342.625	3507
342.712	8578
342.798	4114
342.885	2702
342.971	923
343.058	976
343.144	939
343.230	1461
343.317	1278
343.403	1093
343.490	1449
343.576	1224
343.662	1496
343.749	1364
343.835	2182
343.921	3703
344.008	19134
344.094	43507
344.180	10309
344.267	3302
344.353	13180
344.439	14550
344.525	5857
344.612	9460
344.698	13002
344.784	6298
344.870	2297
344.957	1575
345.043	2385
345.129	491
345.215	3330
345.301	1831
345.387	1994
345.474	999
345.560	1857
345.646	948
345.732	1280
345.818	2072
345.904	2154
345.990	1806
346.076	1740
346.162	3755
346.249	2179
346.335	722
346.421	1433
346.507	5039
346.593	19004
346.679	4446
346.765	2671
346.851	1674
346.937	693
347.023	1881
347.108	1477
347.194	1179
347.280	2119
347.366	2192
347.452	5210
347.538	20843
347.624	16923
347.710	14626
347.796	2774
347.882	1655
347.967	1684
348.053	3264
348.139	2153
348.225	1079
348.311	1474
348.397	1135
348.482	1866
348.568	1882
348.654	802
348.740	2861
348.825	1605
348.911	2817
348.997	9173
349.083	18993
349.168	3498
349.254	1940
349.340	1955
349.425	1375
349.511	1617
349.597	2225
349.682	3305
349.768	12575
349.854	6592
349.939	1975
350.025	1144
350.110	2160
350.196	1098
350.282	695
350.367	1625
350.453	2239
350.538	2013
350.624	1752
350.709	3115
350.795	648
350.880	862
350.966	2515
351.051	2237
351.137	2532
351.222	1258
351.308	3534
351.393	10935
351.479	2865
351.564	1432
351.649	1303
351.735	1447
351.820	1057
351.906	1519
351.991	1659
352.076	6779
352.162	11138
352.247	2387
352.332	1044
352.418	2626
352.503	4114
352.588	15938
352.673	11372
352.759	1388
352.844	1019
352.929	1787
353.014	1871
353.100	1943
353.185	1518
353.270	2587
353.355	3410
353.441	1568
353.526	1841
353.611	2956
353.696	2828
353.781	2716
353.866	667
353.952	2164
354.037	2730
354.122	6666
354.207	6114
354.292	3130
354.377	1548
354.462	2280
354.547	1321
354.632	2332
354.717	3054
354.802	1879
354.887	1058
354.972	1758
355.057	1026
355.142	412
355.227	1838
355.312	1528
355.397	3843
355.482	9820
355.567	4659
355.652	4823
355.737	4394
355.822	13026
355.907	11781
355.991	2627
356.076	787
356.161	1486
356.246	1253
356.331	1858
356.416	2782
356.501	22604
356.585	23363
356.670	2986
356.755	3247
356.840	2612
356.924	12824
357.009	49268
357.094	19703
357.179	4300
357.263	3416
357.348	3588
357.433	3184
357.517	3356
357.602	2379
357.687	2223
357.771	3893
357.856	15997
357.941	9206
358.025	11455
358.110	50755
358.195	24631
358.279	3869
358.364	2821
358.448	8322
358.533	26158
358.617	18674
358.702	19727
358.787	6689
358.871	3803
358.956	3322
359.040	1234
359.125	1307
359.209	2127
359.294	7129
359.378	13054
359.462	4328
359.547	2427
359.631	1234
359.716	682
359.800	2088
359.885	3744
359.969	1551
360.053	2483
360.138	1135
360.222	2458
360.306	3072
360.391	2621
360.475	6710
360.559	14825
360.644	9174
360.728	6749
360.812	12314
360.896	33453
360.981	15719
361.065	8327
361.149	2516
361.233	2579
361.318	1652
361.402	2106
361.486	2461
361.570	1254
361.654	1642
361.739	3310
361.823	19374
361.907	33977
361.991	7212
362.075	3231
362.159	5824
362.243	5836
362.327	7039
362.411	11101
362.495	4846
362.580	2741
362.664	2338
362.748	1639
362.832	3741
362.916	4231
363.000	16472
363.084	38100
363.168	43428
363.252	9786
363.336	4585
363.420	6566
363.503	29431
363.587	37525
363.671	4959
363.755	3049
363.839	5231
363.923	1967
364.007	4872
364.091	6182
364.175	10045
364.258	51881
364.342	35811
364.426	38922
364.510	19414
364.594	10529
364.677	8235
364.761	29589
364.845	21916
364.929	6647
365.013	4752
365.096	4082
365.180	4676
365.264	11526
365.347	50516
365.431	23350
365.515	5462
365.598	1518
365.682	3383
365.766	5518
365.849	7988
365.933	2983
366.017	4679
366.100	3821
366.184	1152
366.267	2295
366.351	1318
366.435	1528
366.518	1208
366.602	1337
366.685	1256
366.769	794
366.852	4272
366.936	7382
367.019	2908
367.103	3080
367.186	9509
367.270	2272
367.353	347
367.436	2054
367.520	906
367.603	1908
367.687	1885
367.770	3758
367.853	3862
367.937	9717
368.020	16904
368.104	3510
368.187	2670
368.270	5088
368.353	4912
368.437	5613
368.520	15473
368.603	8962
368.687	9932
368.770	21566
368.853	5337
368.936	5222
369.020	7936
369.103	2298
369.186	930
369.269	1561
369.352	2311
369.436	4285
369.519	3556
369.602	710
369.685	3157
369.768	1908
369.851	2167
369.934	938
370.018	1566
370.101	2472
370.184	5563
370.267	3477
370.350	4466
370.433	6718
370.516	16324
370.599	21145
370.682	4158
370.765	12230
370.848	13639
370.931	25659
371.014	12803
371.097	2141
371.180	2228
371.263	2121
371.346	100
371.429	2295
371.511	1765
371.594	3358
371.677	5962
371.760	10229
371.843	5785
371.926	19963
372.009	45790
372.091	17235
372.174	9821
372.257	25675
372.340	10938
372.423	10365
372.505	15441
372.588	5922
372.671	7495
372.754	24641
372.836	12820
372.919	14310
373.002	32890
373.085	7944
373.167	4970
373.250	10467
373.332	24279
373.415	29226
373.498	58132
373.580	22456
373.663	26022
373.746	37991
373.828	8910
373.911	4904
373.993	5077
374.076	28119
374.159	28584
374.241	7608
374.324	20983
374.406	14666
374.489	15641
374.571	51770
374.654	20523
374.736	9697
374.819	30756
374.901	42016
374.983	43739
375.066	8671
375.148	3908
375.231	20798
375.313	46244
375.395	16451
375.478	2673
375.560	2833
375.643	2161
375.725	7798
375.807	35479
375.890	32805
375.972	12933
376.054	7299
376.136	13145
376.219	5294
376.301	11140
376.383	33433
376.465	12824
376.548	5874
376.630	7651
376.712	28111
376.794	14213
376.877	2707
376.959	1009
377.041	1897
377.123	7140
377.205	8761
377.287	266
377.369	1365
377.452	1339
377.534	1391
377.616	1179
377.698	1164
377.780	524
377.862	1316
377.944	2225
378.026	433
378.108	1274
378.190	1046
378.272	1667
378.354	1210
378.436	1109
378.518	2725
378.600	11408
378.682	8936
378.764	13559
378.846	12200
378.928	4274
379.010	3608
379.091	2928
379.173	1481
379.255	467
379.337	1165
379.419	6187
379.501	21509
379.583	9434
379.664	2703
379.746	2530
379.828	15019
379.910	19037
379.991	17973
380.073	2691
380.155	1646
380.237	2056
380.318	1180
380.400	1781
380.482	3197
380.564	4573
380.645	3424
380.727	3847
380.809	3531
380.890	2135
380.972	1595
381.053	1500
381.135	2817
381.217	3909
381.298	14678
381.380	7520
381.461	5532
381.543	25796
381.624	34345
381.706	6551
381.787	4691
381.869	4351
381.951	10431
382.032	42562
382.113	30833
382.195	5106
382.276	5745
382.358	7738
382.439	24709
382.521	28033
382.602	44904
382.684	20350
382.765	36014
382.846	46174
382.928	75832
383.009	42195
383.090	28066
383.172	102076
383.253	158545
383.334	53337
383.416	42693
383.497	24628
383.578	12727
383.659	23943
383.741	84854
383.822	220618
383.903	115826
383.984	34412
384.066	51595
384.147	31832
384.228	7837
384.309	5057
384.390	3772
384.471	3484
384.553	3609
384.634	4345
384.715	6072
384.796	2812
384.877	3590
384.958	12747
385.039	16894
385.120	6252
385.201	4187
385.282	3964
385.363	6060
385.444	4055
385.525	7092
385.606	21308
385.687	18707
385.768	5189
385.849	5711
385.930	21895
386.011	39503
386.092	10065
386.173	3528
386.254	3070
386.335	4160
386.416	2392
386.496	9398
386.577	16532
386.658	6631
386.739	3432
386.820	5006
386.901	3487
386.981	3566
387.062	1813
387.143	3488
387.224	13741
387.304	15448
387.385	6049
387.466	3844
387.547	6252
387.627	3069
387.708	5875
387.789	24400
387.869	31233
387.950	9977
388.031	1972
388.111	1485
388.192	8599
388.273	12820
388.353	6529
388.434	3285
388.514	3715
388.595	21718
388.676	30177
388.756	15630
388.837	12420
388.917	7579
388.998	1304
389.078	2499
389.159	1954
389.239	1021
389.320	3681
389.400	1624
389.480	7018
389.561	17620
389.641	9379
389.722	3274
389.802	3709
389.883	7540
389.963	20571
390.043	13790
390.124	4759
390.204	5946
390.284	15826
390.365	11127
390.445	19265
390.525	44163
390.605	35377
390.686	9700
390.766	4447
390.846	3829
390.927	1294
391.007	1003
391.087	3915
391.167	3010
391.247	1522
391.328	4429
391.408	6824
391.488	5906
391.568	554
391.648	2249
391.728	3230
391.808	3379
391.888	3146
391.969	9243
392.049	15203
392.129	9014
392.209	8182
392.289	19855
392.369	12267
392.449	15061
392.529	8495
392.609	5422
392.689	6511
392.769	17800
392.849	16699
392.929	14512
393.009	31396
393.089	22364
393.169	16697
393.248	49616
393.328	206930
393.408	236381
393.488	63227
393.568	17845
393.648	9048
393.728	6949
393.807	5277
393.887	6262
393.967	5186
394.047	7188
394.127	9518
394.206	18283
394.286	61113
394.366	208029
394.446	232307
394.525	78843
394.605	23612
394.685	15297
394.764	22613
394.844	36859
394.924	27140
395.003	6778
395.083	5055
395.163	5584
395.242	4884
395.322	4967
395.402	3470
395.481	6658
395.561	13871
395.640	38812
395.720	30672
395.799	44297
395.879	39583
395.958	32695
396.038	95880
396.117	262771
396.197	292107
396.276	129366
396.356	46828
396.435	28718
396.515	16013
396.594	13563
396.673	17774
396.753	58537
396.832	201251
396.912	151952
396.991	33697
397.070	10816
397.150	5635
397.229	5838
397.308	6315
397.388	12746
397.467	7919
397.546	3434
397.625	756
397.705	2909
397.784	3016
397.863	1504
397.942	1645
398.022	2522
398.101	10052
398.180	36591
398.259	19458
398.338	5149
398.417	2039
398.497	1454
398.576	2699
398.655	306
398.734	1947
398.813	1837
398.892	8916
398.971	37105
399.050	18596
399.129	1881
399.208	2006
399.287	2497
399.366	505
399.445	994
399.524	1793
399.603	162
399.682	1705
399.761	7850
399.840	36885
399.919	32374
399.998	3715
400.077	103
400.156	499
400.235	4048
400.313	1035
400.392	1415
400.471	6884
400.550	11706
400.629	2299
400.708	2104
400.786	2534
400.865	8501
400.944	9150
401.023	4691
401.102	829
401.180	648
401.259	563
401.338	1833
401.416	2370
401.495	995
401.574	1694
401.652	577
401.731	1652
401.810	1056
401.888	258
401.967	219
402.046	485
402.124	1602
402.203	1233
402.281	1441
402.360	2715
402.438	11402
402.517	7579
402.596	2316
402.674	1441
402.753	1433
402.831	935
402.910	1824
402.988	3251
403.066	13064
403.145	8135
403.223	5186
403.302	10034
403.380	8479
403.459	7012
403.537	3562
403.615	2288
403.694	-283
403.772	1990
403.850	1410
403.929	663
404.007	470
404.085	2294
404.164	2173
404.242	3051
404.320	14801
404.398	48272
404.477	47086
404.555	45474
404.633	41553
404.711	37135
404.789	27721
404.868	6234
404.946	1927
405.024	845
405.102	644
405.180	617
405.258	-830
405.336	1326
405.415	415
405.493	2875
405.571	3134
405.649	597
405.727	-208
405.805	2173
405.883	1424
405.961	1824
406.039	3339
406.117	176
406.195	1631
406.273	6338
406.351	30485
406.429	20464
406.507	3461
406.585	1200
406.663	1106
406.740	727
406.818	-112
406.896	657
406.974	1193
407.052	1377
407.130	15412
407.208	25858
407.285	5746
407.363	-145
407.441	385
407.519	-342
407.596	1403
407.674	7077
407.752	32022
407.830	30463
407.907	7647
407.985	1266
408.063	1099
408.141	520
408.218	2805
408.296	1392
408.373	760
408.451	1411
408.529	1170
408.606	66
408.684	404
408.762	346
408.839	-73
408.917	204
408.994	1303
409.072	-38
409.149	869
409.227	1523
409.304	1618
409.382	1455
409.459	1504
409.537	2775
409.614	2168
409.692	1553
409.769	846
409.846	2686
409.924	4935
410.001	1600
410.079	1702
410.156	2067
410.233	1124
410.311	733
410.388	753
410.465	1219
410.543	1317
410.620	613
410.697	1529
410.775	728
410.852	-691
410.929	1769
411.006	2250
411.083	677
411.161	2791
411.238	5106
411.315	2061
411.392	-24
411.469	2117
411.547	2167
411.624	-528
411.701	1207
411.778	370
411.855	1517
411.932	942
412.009	692
412.086	472
412.163	138
412.240	1310
412.317	1709
412.394	1396
412.471	748
412.548	-160
412.625	811
412.702	358
412.779	2219
412.856	2330
412.933	223
413.010	1134
413.087	978
413.164	6033
413.241	9405
413.318	1066
413.395	2459
413.471	2109
413.548	866
413.625	1099
413.702	211
413.779	1035
413.855	-7
413.932	-172
414.009	-954
414.086	596
414.162	813
414.239	1701
414.316	6076
414.393	14244
414.469	3822
414.546	53
414.623	-226
414.699	303
414.776	-1
414.853	32
414.929	-66
415.006	522
415.082	1497
415.159	570
415.236	1013
415.312	136
415.389	1237
415.465	1035
415.542	1111
415.618	-193
415.695	1782
415.771	135
415.848	-222
415.924	1223
416.000	363
416.077	989
416.153	-808
416.230	-305
416.306	-403
416.383	387
416.459	297
416.535	-290
416.612	-196
416.688	81
416.764	52
416.841	-666
416.917	134
416.993	7
417.069	802
417.146	1396
417.222	3210
417.298	1282
417.374	438
417.451	700
417.527	550
417.603	715
417.679	-143
417.755	899
417.831	-536
417.908	298
417.984	-129
418.060	-483
418.136	1013
418.212	1063
418.288	576
418.364	148
418.440	-635
418.516	826
418.592	2064
418.668	3115
418.744	3093
418.820	2696
418.896	520
418.972	-258
419.048	-797
419.124	1794
419.200	-17
419.276	-91
419.352	-446
419.428	63
419.504	-618
419.579	369
419.655	-145
419.731	187
419.807	1540
419.883	4022
419.959	2242
420.034	615
420.110	1465
420.186	8358
420.262	7781
420.337	1772
420.413	792
420.489	978
420.565	914
420.640	407
420.716	444
420.792	-540
420.867	920
420.943	270
421.019	763
421.094	708
421.170	474
421.245	197
421.321	1587
421.397	639
421.472	5984
421.548	18903
421.623	12118
421.699	2373
421.774	1536
421.850	1190
421.925	2865
422.001	2723
422.076	3005
422.152	3297
422.227	5205
422.302	7379
422.378	10393
422.453	19902
422.529	50202
422.604	139608
422.679	218478
422.755	161636
422.830	61229
422.905	24924
422.981	13558
423.056	8473
423.131	5074
423.207	4380
423.282	3074
423.357	4607
423.432	2154
423.508	2620
423.583	3907
423.658	3855
423.733	1980
423.808	2060
423.883	2805
423.959	1446
424.034	1831
424.109	1859
424.184	718
424.259	1001
424.334	825
424.409	480
424.484	668
424.559	736
424.634	539
424.709	234
424.784	1715
424.859	212
424.934	920
425.009	5177
425.084	9697
425.159	3282
425.234	937
425.309	-165
425.384	3505
425.459	7159
425.534	1507
425.609	212
425.683	102
425.758	-198
425.833	331
425.908	1430
425.983	2009
426.058	9600
426.132	4734
426.207	483
426.282	2966
426.357	2554
426.431	870
426.506	159
426.581	891
426.655	638
426.730	-88
426.805	-538
426.879	425
426.954	64
427.029	1248
427.103	8660
427.178	25643
427.253	12481
427.327	1422
427.402	2549
427.476	9026
427.551	5086
427.625	1038
427.700	1371
427.774	309
427.849	1390
427.923	405
427.998	-732
428.072	550
428.147	2407
428.221	10906
428.296	41466
428.370	23042
428.444	2435
428.519	2868
428.593	7982
428.667	6593
428.742	8683
428.816	8336
428.890	27563
428.965	46503
429.039	14734
429.113	9630
429.188	2800
429.262	546
429.336	1365
429.410	4822
429.485	4132
429.559	6203
429.633	5525
429.707	1985
429.781	4752
429.855	30113
429.930	44658
430.004	23152
430.078	37961
430.152	33503
430.226	52720
430.300	57027
430.374	8443
430.448	2693
430.522	10726
430.596	34947
430.670	20820
430.744	37596
430.818	54275
430.892	10607
430.966	1377
431.040	511
431.114	122
431.188	181
431.262	213
431.336	298
431.410	3219
431.484	8685
431.557	6307
431.631	389
431.705	1088
431.779	5800
431.853	36508
431.927	26561
432.000	3028
432.074	766
432.148	879
432.222	667
432.295	83
432.369	-163
432.443	546
432.516	9708
432.590	27039
432.664	11291
432.737	459
432.811	-365
432.885	244
432.958	125
433.032	74
433.106	-799
433.179	-157
433.253	-727
433.326	27
433.400	-196
433.473	-227
433.547	-1510
433.620	516
433.694	69
433.767	992
433.841	-1184
433.914	-915
433.988	-213
434.061	-21
434.134	-248
434.208	112
434.281	-1332
434.355	-119
434.428	-391
434.501	-717
434.575	-223
434.648	863
434.721	-1038
434.795	-30
434.868	-956
434.941	-852
435.014	-198
435.088	-542
435.161	-306
435.234	574
435.307	861
435.381	328
435.454	263
435.527	884
435.600	820
435.673	775
435.746	346
435.819	149
435.892	-110
435.966	57
436.039	-338
436.112	175
436.185	207
436.258	-702
436.331	-816
436.404	-675
436.477	-654
436.550	-560
436.623	-131
436.696	-844
436.769	-641
436.842	-402
436.915	-624
436.987	-684
437.060	-388
437.133	503
437.206	-433
437.279	324
437.352	-609
437.425	-29
437.498	-234
437.570	1099
437.643	1198
437.716	529
437.789	-999
437.861	1190
437.934	4556
438.007	1858
438.080	-439
438.152	612
438.225	1821
438.298	11810
438.370	37962
438.443	16963
438.516	4409
438.588	63
438.661	-941
438.734	25
438.806	240
438.879	586
438.951	105
439.024	1860
439.096	137
439.169	602
439.241	-808
439.314	241
439.386	987
439.459	1732
439.531	2016
439.604	1485
439.676	-60
439.749	-914
439.821	-612
439.893	25
439.966	-119
440.038	-92
440.110	194
440.183	-113
440.255	-691
440.327	266
440.400	4720
440.472	24019
440.544	16329
440.617	1514
440.689	1718
440.761	2599
440.833	3269
440.905	2426
440.978	-462
441.050	-294
441.122	250
441.194	-578
441.266	-209
441.338	4
441.411	258
441.483	6099
441.555	9592
441.627	1876
441.699	1656
441.771	2116
441.843	788
441.915	-128
441.987	870
442.059	-210
442.131	502
442.203	1416
442.275	1510
442.347	2142
442.419	2918
442.491	15354
442.563	42802
442.635	18775
442.706	9255
442.778	7072
442.850	906
442.922	302
442.994	699
443.066	1658
443.137	1091
443.209	1170
443.281	1656
443.353	4030
443.425	20383
443.496	76400
443.568	74653
443.640	24728
443.711	5053
443.783	2416
443.855	999
443.926	666
443.998	607
444.070	1200
444.141	707
444.213	1473
444.285	1436
444.356	364
444.428	656
444.499	327
444.571	214
444.642	316
444.714	-600
444.785	1045
444.857	2003
444.928	6789
445.000	3000
445.071	4056
445.143	4524
445.214	2345
445.285	4528
445.357	16619
445.428	49672
445.500	120511
445.571	74824
445.642	36423
445.714	13926
445.785	12884
445.856	1923
445.928	1913
445.999	1092
446.070	1213
446.141	1255
446.213	1590
446.284	438
446.355	1751
446.426	-276
446.497	-257
446.569	1454
446.640	1917
446.711	380
446.782	-61
446.853	625
446.924	749
446.995	-542
447.066	909
447.138	2282
447.209	1189
447.280	-604
447.351	-230
447.422	-487
447.493	425
447.564	193
447.635	590
447.706	-499
447.777	-116
447.847	-418
447.918	246
447.989	1159
448.060	1013
448.131	4696
448.202	3089
448.273	1408
448.344	329
448.414	525
448.485	259
448.556	-212
448.627	-388
448.698	368
448.768	-9
448.839	780
448.910	1482
448.981	1765
449.051	215
449.122	-48
449.193	335
449.263	-279
449.334	-377
449.405	1059
449.475	2055
449.546	1786
449.616	2439
449.687	1781
449.758	794
449.828	-10
449.899	185
449.969	411
450.040	-311
450.110	190
450.181	977
450.251	22
450.322	115
450.392	189
450.463	794
450.533	-141
450.604	901
450.674	-67
450.744	1170
450.815	129
450.885	533
450.955	-581
451.026	-18
451.096	368
451.166	-28
451.237	2409
451.307	8380
451.377	2822
451.447	-4
451.518	-560
451.588	411
451.658	966
451.728	1526
451.799	8516
451.869	9045
451.939	1519
452.009	592
452.079	445
452.149	316
452.219	2086
452.289	10105
452.360	6923
452.430	1728
452.500	1138
452.570	1535
452.640	2634
452.710	6491
452.780	10052
452.850	4664
452.920	2983
452.990	1139
453.060	545
453.129	639
453.199	1615
453.269	8922
453.339	20428
453.409	31981
453.479	31514
453.549	47658
453.619	51675
453.688	18767
453.758	3067
453.828	1866
453.898	958
453.968	1310
454.037	908
454.087	477
454.107	295
454.168	56
454.177	14
454.247	-322
454.249	-288
454.316	266
454.330	388
454.386	862
454.411	1829
454.456	3375
454.492	5023
454.525	6522
454.574	3416
454.595	2060
454.655	1183
454.665	1046
454.734	923
454.736	956
454.804	1860
454.817	3016
454.873	7739
454.898	7993
454.943	8409
454.979	4901
455.013	1781
455.060	1262
455.082	1030
455.141	1207
455.152	1261
455.221	5636
455.222	5734
455.291	12392
455.303	12507
455.360	12346
455.384	18171
455.430	27642
455.465	20627
455.499	14396
455.546	10474
455.569	8652
455.627	5173
455.638	4565
455.707	548
455.708	556
455.777	315
455.789	376
455.846	718
455.869	745
455.916	788
455.950	1098
455.985	1345
456.031	596
456.054	228
456.112	301
456.124	320
456.193	345
456.193	339
456.262	553
456.274	662
456.332	844
456.355	1073
456.401	1397
456.436	1036
456.470	840
456.516	600
456.540	442
456.597	204
456.609	182
456.678	766
456.678	759
456.747	-70
456.759	19
456.817	689
456.840	516
456.886	-58
456.920	-48
456.955	180
457.001	441
457.024	422
457.082	715
457.093	822
457.162	698
457.163	706
457.232	668
457.243	466
457.301	-245
457.324	49
457.370	411
457.405	664
457.439	1039
457.485	755
457.508	586
457.566	872
457.577	935
457.646	866
457.647	878
457.715	1646
457.727	1805
457.784	2394
457.808	3083
457.853	4233
457.889	5016
457.922	5409
457.969	3845
457.991	3555
458.050	3719
458.060	3726
458.129	6747
458.130	6821
458.198	7842
458.211	7021
458.267	3963
458.292	2898
458.336	1556
458.372	1561
458.405	2104
458.453	2691
458.474	3029
458.533	5021
458.543	5242
458.611	11363
458.614	11418
458.680	8865
458.694	7321
458.749	3370
458.775	2571
458.818	1644
458.855	1586
458.887	1232
458.936	597
458.955	520
459.016	919
459.024	986
459.093	1548
459.097	1565
459.162	1163
459.177	1049
459.230	1146
459.257	1247
459.299	1100
459.338	1153
459.368	1325
459.418	1670
459.437	1652
459.499	991
459.505	1009
459.574	1137
459.579	1195
459.643	986
459.659	902
459.711	1005
459.740	987
459.780	923
459.820	1055
459.849	1237
459.900	1495
459.917	1470
459.981	1471
459.986	1459
460.054	1243
460.061	1217
460.123	1614
460.141	1848
460.191	2180
460.222	1942
460.260	1704
460.302	2096
460.328	2251
460.382	2175
460.397	2196
460.462	2133
460.465	2226
460.534	4786
460.543	5177
460.602	15127
460.623	19070
460.671	29994
460.703	43205
460.739	43409
460.783	37701
460.808	34706
460.864	10138
460.876	7018
460.944	1917
460.945	1865
461.013	1694
461.024	1767
461.081	1796
461.104	1626
461.150	1706
461.184	1783
461.218	1648
461.264	1567
461.286	1541
461.345	1423
461.355	1426
461.423	1621
461.425	1624
461.491	1320
461.505	1306
461.559	2197
461.585	2580
461.628	3999
461.665	5714
461.696	6345
461.745	8428
461.764	8073
461.825	3023
461.832	2813
461.901	1294
461.905	1304
461.969	1694
461.985	1717
462.037	2116
462.065	2585
462.105	2416
462.145	1986
462.173	2547
462.225	3299
462.241	3363
462.305	4840
462.310	4782
462.378	3827
462.385	3486
462.446	2110
462.465	1896
462.514	1465
462.545	1543
462.582	1709
462.625	1758
462.650	1943
462.705	2141
462.718	2013
462.785	1642
462.786	1653
462.854	2392
462.865	2423
462.922	2745
462.945	3202
462.990	2983
463.025	2202
463.058	2053
463.104	2086
463.126	1982
463.184	2094
463.194	2099
463.262	1458
463.264	1451
463.330	1492
463.344	1476
463.398	1883
463.424	2052
463.466	1684
463.504	1607
463.533	2187
463.583	2663
463.601	2373
463.663	1406
463.669	1435
463.737	2078
463.743	2117
463.805	3402
463.823	3833
463.873	5552
463.903	6791
463.940	7009
463.982	7620
464.008	6911
464.062	3643
464.076	3231
464.142	1490
464.144	1485
464.211	1996
464.221	2061
464.279	1937
464.301	1913
464.347	1931
464.381	1931
464.414	1955
464.461	2093
464.482	2326
464.540	2798
464.550	2724
464.617	2162
464.620	2141
464.685	3179
464.699	3411
464.753	4275
464.779	4772
464.820	6168
464.859	7601
464.888	6916
464.938	5349
464.956	5528
465.018	5878
465.023	5758
465.091	4468
465.098	4317
465.158	4501
465.177	4590
465.226	4691
465.257	4764
465.293	4936
465.336	5004
465.361	4985
465.416	4913
465.428	5098
465.495	6374
465.496	6396
465.563	8240
465.575	8631
465.631	10648
465.654	11648
465.698	8473
465.734	5151
465.765	4801
465.813	4446
465.833	4173
465.893	3467
465.900	3413
465.968	3106
465.972	3077
466.035	3587
466.052	3697
466.102	3221
466.131	2964
466.170	3338
466.210	3808
466.237	4166
466.290	4797
466.304	4699
466.369	4166
466.372	4181
466.439	4468
466.449	4515
466.506	4057
466.528	3867
466.573	5304
466.607	6333
466.641	8093
466.687	10646
466.708	11754
466.766	14831
466.775	13841
466.842	6202
466.845	5826
466.909	4878
466.925	4711
466.977	4303
467.004	4119
467.044	4874
467.083	5597
467.111	6641
467.163	8593
467.178	8660
467.242	8877
467.245	8819
467.312	7390
467.321	7191
467.379	6659
467.400	6456
467.446	6805
467.480	7043
467.559	6864
467.638	6057
467.717	5984
467.796	7029
467.875	6150
467.955	6072
468.034	8548
468.113	14372
468.192	20198
468.271	7026
468.350	5717
468.429	5983
468.508	6146
468.588	5556
468.667	6107
468.746	5847
468.825	5354
468.904	5426
468.983	5494
469.062	7256
469.141	8429
469.220	5188
469.299	5098
469.378	6310
469.456	9644
469.535	8181
469.614	7112
469.693	6606
469.772	8636
469.851	8820
469.930	7305
470.009	6468
470.088	6844
470.166	6625
470.245	7841
470.324	8051
470.403	6231
470.482	5785
470.560	6131
470.639	5687
470.718	5854
470.797	4708
470.875	5988
470.954	6928
471.033	7295
471.111	5099
471.190	5579
471.269	4385
471.347	4943
471.426	4754
471.505	5992
471.583	7374
471.662	7038
471.740	6238
471.819	6039
471.898	6450
471.976	6638
472.055	5249
472.133	5911
472.212	8268
472.290	6595
472.369	5206
472.447	5100
472.526	4711
472.604	4972
472.683	4506
472.761	4990
472.839	4699
472.918	5556
472.996	4810
473.075	5695
473.153	4531
473.231	4640
473.310	4823
473.388	5119
473.466	4494
473.545	5846
473.623	6956
473.701	5549
473.780	5554
473.858	3972
473.936	6284
474.014	4581
474.093	6405
474.171	6391
474.249	7994
474.327	5285
474.405	3432
474.484	4216
474.562	4323
474.640	4885
474.718	4064
474.796	4913
474.874	3859
474.952	4313
475.030	4670
475.108	4377
475.187	3928
475.265	4156
475.343	5503
475.421	4980
475.499	4164
475.577	4697
475.655	5351
475.733	8176
475.811	11387
475.889	11054
475.966	7989
476.044	5071
476.122	3973
476.200	3685
476.278	4154
476.356	3486
476.434	4444
476.512	4243
476.590	3440
476.667	4608
476.745	2921
476.823	3959
476.901	3195
476.979	4139
477.056	3970
477.134	3865
477.212	4406
477.290	3665
477.367	3509
477.445	3595
477.523	3264
477.601	3490
477.678	3219
477.756	3965
477.834	4133
477.911	3897
477.989	3841
478.066	3582
478.144	3977
478.222	3942
478.299	3502
478.377	4103
478.454	4006
478.532	2916
478.609	3279
478.687	4153
478.764	2739
478.842	3543
478.919	3197
478.997	3608
479.074	2556
479.152	2886
479.229	4033
479.307	2552
479.384	2864
479.461	3654
479.539	3709
479.616	3457
479.694	2660
479.771	4214
479.848	3620
479.926	3068
480.003	5308
480.080	3485
480.157	2762
480.235	2769
480.312	2188
480.389	3610
480.467	4311
480.544	5163
480.621	3032
480.698	3652
480.775	3047
480.853	3260
480.930	2443
481.007	3209
481.084	3936
481.161	5986
481.238	4565
481.315	3428
481.392	2074
481.470	2164
481.547	3045
481.624	2949
481.701	2630
481.778	2980
481.855	2996
481.932	5194
482.009	6119
482.086	4651
482.163	2796
482.240	3098
482.317	3264
482.393	3474
482.470	2586
482.547	2835
482.624	2547
482.701	2987
482.778	2902
482.855	1904
482.932	2364
483.009	2131
483.085	2384
483.162	3588
483.239	4765
483.316	2392
483.393	2214
483.469	3318
483.546	2427
483.623	2927
483.699	1941
483.776	2976
483.853	3208
483.930	3924
484.006	9421
484.083	18229
484.160	17522
484.236	30826
484.313	23945
484.389	15852
484.466	14755
484.543	13224
484.619	12595
484.696	14728
484.772	14264
484.849	14835
484.925	12392
485.002	12995
485.078	13512
485.155	13438
485.231	12165
485.308	10810
485.384	12077
485.461	13658
485.537	16091
485.614	18284
485.690	11839
485.766	11884
485.843	11166
485.919	12014
485.995	11464
486.072	10717
486.148	10015
486.224	10564
486.301	10491
486.377	11742
486.453	10476
486.530	12555
486.606	17504
486.682	18346
486.758	17913
486.835	17819
486.911	15028
486.987	18981
487.063	16947
487.139	17572
487.215	16133
487.292	14062
487.368	11457
487.444	11388
487.520	12650
487.596	13154
487.672	17024
487.748	25912
487.824	32137
487.900	16995
487.976	12176
488.052	10382
488.128	12778
488.204	10425
488.280	10942
488.356	11177
488.432	16174
488.508	20568
488.584	10872
488.660	8281
488.736	8824
488.812	9227
488.888	12096
488.964	12686
489.039	15299
489.115	17844
489.191	13884
489.267	9270
489.343	8456
489.418	8079
489.494	8601
489.570	7410
489.646	9142
489.722	6896
489.797	7833
489.873	10070
489.949	16484
490.024	14568
490.100	7311
490.176	8185
490.251	8005
490.327	8192
490.403	7222
490.478	7524
490.554	6811
490.629	6227
490.705	6250
490.781	7527
490.856	6962
490.932	7522
491.007	6006
491.083	7000
491.158	6155
491.234	8549
491.309	11771
491.385	11650
491.460	5775
491.536	6683
491.611	6198
491.686	6936
491.762	6775
491.837	7998
491.913	13005
491.988	15376
492.063	17411
492.139	9314
492.214	6751
492.289	5574
492.365	5086
492.440	5797
492.515	4565
492.590	6021
492.666	4045
492.741	6503
492.816	8143
492.891	5162
492.967	5733
493.042	5438
493.117	4710
493.192	6951
493.267	12262
493.342	39564
493.418	52684
493.493	9449
493.568	4759
493.643	4044
493.718	5333
493.793	5772
493.868	6331
493.943	4536
494.018	3712
494.093	4553
494.168	4799
494.243	3928
494.318	5058
494.393	3863
494.468	2874
494.543	4102
494.618	4204
494.693	3406
494.768	3712
494.842	3947
494.917	3616
494.992	4197
495.067	3281
495.142	3254
495.217	3579
495.292	3251
495.366	3620
495.441	4098
495.516	5589
495.591	6188
495.665	14024
495.740	26959
495.815	11831
495.890	3621
495.964	3459
496.039	5969
496.114	4552
496.188	6019
496.263	5881
496.338	3131
496.412	3326
496.487	5054
496.561	4512
496.636	5208
496.710	4932
496.785	4467
496.860	5174
496.934	3797
497.009	3494
497.083	3602
497.158	4546
497.232	4369
497.307	5124
497.381	4173
497.455	4625
497.530	6646
497.604	4384
497.679	4283
497.753	6437
497.827	7269
497.902	5796
497.976	8738
498.050	24141
498.125	92278
498.199	94605
498.273	9427
498.348	5550
498.422	5390
498.496	5088
498.570	5802
498.645	3721
498.719	4011
498.793	5235
498.867	8160
498.941	11506
499.016	37286
499.090	99454
499.164	36673
499.238	5091
499.312	5037
499.386	4197
499.460	4698
499.534	3921
499.609	4916
499.683	6868
499.757	6815
499.831	15683
499.905	63867
499.979	62824
500.053	9160
500.127	8135
500.201	4775
500.275	2943
500.349	4442
500.422	4521
500.496	5782
500.570	11071
500.644	32296
500.718	64710
500.792	15032
500.866	4367
500.940	5376
501.013	4606
501.087	3670
501.161	5940
501.235	7596
501.309	20742
501.382	55553
501.456	50377
501.530	9704
501.603	16589
501.677	7586
501.751	2580
501.825	4912
501.898	7201
501.972	21612
502.046	14800
502.119	3322
502.193	9411
502.266	22198
502.340	12150
502.413	10428
502.487	20117
502.561	10555
502.634	3372
502.708	2438
502.781	2432
502.855	2679
502.928	2916
503.002	2888
503.075	1999
503.149	2697
503.222	2880
503.295	3406
503.369	2672
503.442	4264
503.516	15131
503.589	38595
503.662	24918
503.736	8414
503.809	18187
503.882	14927
503.956	22606
504.029	21628
504.102	11481
504.175	15660
504.249	5666
504.322	3744
504.395	3641
504.468	2742
504.542	2664
504.615	1559
504.688	1320
504.761	946
504.834	3382
504.907	2968
504.980	4393
505.053	2677
505.127	1157
505.200	5396
505.273	3768
505.346	3032
505.419	1386
505.492	3578
505.565	1176
505.638	2210
505.711	2070
505.784	1773
505.857	2020
505.930	3766
506.003	515
506.076	3119
506.149	1782
506.221	2175
506.294	3958
506.367	7981
506.440	29131
506.513	17295
506.586	3609
506.659	2254
506.731	1701
506.804	1688
506.877	2477
506.950	2570
507.022	2600
507.095	1475
507.168	2400
507.241	1981
507.313	692
507.386	1122
507.459	2764
507.531	1585
507.604	638
507.677	2582
507.749	746
507.822	3537
507.894	6401
507.967	11968
508.040	6006
508.112	6338
508.185	4668
508.257	3918
508.330	5968
508.402	4474
508.475	4185
508.547	4270
508.620	4360
508.692	6833
508.765	3982
508.837	3616
508.909	3299
508.982	3959
509.054	4397
509.127	2698
509.199	3196
509.271	2535
509.344	3151
509.416	3488
509.488	3479
509.560	4107
509.633	3331
509.705	4242
509.777	4078
509.849	5317
509.922	2842
509.994	3893
510.066	5585
510.138	4259
510.210	12560
510.283	9715
510.355	7732
510.427	6891
510.499	5804
510.571	5380
510.643	4091
510.715	6462
510.787	3693
510.859	7451
510.931	5815
511.003	6741
511.076	6642
511.148	6189
511.219	4841
511.291	7340
511.363	7887
511.435	5053
511.507	2900
511.579	5240
511.651	5136
511.723	5046
511.795	4341
511.867	3979
511.939	4451
512.010	6928
512.082	6649
512.154	4049
512.226	5286
512.298	7933
512.369	10865
512.441	9301
512.513	7003
512.585	5255
512.656	6527
512.728	5189
512.800	4530
512.871	5889
512.943	5146
513.015	3741
513.086	4894
513.158	5404
513.230	4415
513.301	5625
513.373	6575
513.444	4848
513.516	4305
513.588	4374
513.659	4934
513.731	4529
513.802	2982
513.874	7773
513.945	7076
514.016	4608
514.088	5116
514.159	4131
514.231	5988
514.302	9973
514.374	7335
514.445	5989
514.516	10915
514.588	7186
514.659	6049
514.730	8069
514.802	7506
514.873	3374
514.944	6541
515.016	5436
515.087	4568
515.158	6046
515.229	8288
515.301	3323
515.372	5696
515.443	3292
515.514	4215
515.585	3753
515.656	4505
515.728	5206
515.799	4438
515.870	4536
515.941	4958
516.012	4416
516.083	6690
516.154	7444
516.225	7412
516.296	6663
516.367	5784
516.438	6056
516.509	6682
516.580	9523
516.651	24610
516.722	72876
516.793	32524
516.864	9494
516.935	8700
517.006	9941
517.077	12264
517.148	26032
517.219	97809
517.289	141846
517.360	42299
517.431	17556
517.502	5916
517.573	7341
517.643	6706
517.714	8027
517.785	8040
517.856	7326
517.926	8964
517.997	8757
518.068	8211
518.138	13658
518.209	18180
518.280	67129
518.350	234595
518.421	78137
518.492	10270
518.562	7056
518.633	6518
518.703	5435
518.774	10834
518.845	19673
518.915	19419
518.986	8366
519.056	6086
519.127	9537
519.197	13300
519.268	32908
519.338	24853
519.408	7391
519.479	6829
519.549	4662
519.620	6041
519.690	3367
519.760	4109
519.831	4455
519.901	3591
519.971	4378
520.042	3215
520.112	3642
520.182	4321
520.253	4702
520.323	4412
520.393	4646
520.463	7582
520.534	2719
520.604	10123
520.674	5677
520.744	4808
520.814	8671
520.885	9352
520.955	12228
521.025	40219
521.095	17442
521.165	4624
521.235	3433
521.305	3353
521.375	3901
521.445	3954
521.515	3312
521.585	5310
521.655	2960
521.725	3953
521.795	4028
521.865	1278
521.935	6814
522.005	3398
522.075	1950
522.145	4307
522.215	2942
522.285	4411
522.355	5477
522.424	9717
522.494	7721
522.564	4692
522.634	6395
522.704	15110
522.774	5515
522.843	3165
522.913	2592
522.983	3515
523.053	2088
523.122	2935
523.192	2951
523.262	7195
523.331	6925
523.401	3828
523.471	1850
523.540	2980
523.610	2021
523.680	2207
523.749	2823
523.819	3953
523.888	3033
523.958	2903
524.027	3093
524.097	2335
524.166	2075
524.236	1391
524.305	3912
524.375	1558
524.444	1689
524.514	3682
524.583	2748
524.653	2101
524.722	3459
524.791	1175
524.861	4079
524.930	907
524.999	1368
525.069	3047
525.138	3614
525.207	2141
525.277	2852
525.346	2076
525.415	3041
525.484	2138
525.554	1855
525.623	2584
525.692	2765
525.761	2644
525.830	3592
525.900	2189
525.969	4933
526.038	7262
526.107	11145
526.176	37254
526.245	28726
526.314	10835
526.383	20369
526.452	24660
526.522	44592
526.591	45204
526.660	9350
526.729	4827
526.797	7176
526.867	12744
526.935	53785
527.004	98918
527.073	57048
527.142	6115
527.211	3426
527.280	3139
527.349	3437
527.418	828
527.487	3882
527.555	278
527.624	1227
527.693	-403
527.762	2967
527.831	222
527.899	1876
527.968	1454
528.037	656
528.106	2573
528.174	3113
528.243	3055
528.312	2859
528.380	3926
528.449	1281
528.518	2930
528.586	-235
528.655	2602
528.723	2071
528.792	351
528.861	753
528.929	486
528.998	2504
529.066	963
529.135	1412
529.203	1437
529.272	1184
529.340	2599
529.409	3374
529.477	1457
529.545	2475
529.614	4133
529.682	1264
529.751	3851
529.819	5847
529.887	2833
529.956	1883
530.024	2835
530.092	1960
530.161	3363
530.229	3664
530.297	2202
530.365	3158
530.434	3011
530.502	1410
530.570	2980
530.638	875
530.707	2201
530.775	3776
530.843	2185
530.911	2422
530.979	3375
531.047	1763
531.115	2645
531.183	2296
531.252	2966
531.320	2629
531.388	583
531.456	2809
531.524	1074
531.592	3672
531.660	4552
531.728	2380
531.796	1894
531.864	3182
531.932	2143
532.000	2631
532.067	2940
532.135	3685
532.203	4565
532.271	3443
532.339	6352
532.407	8700
532.475	5791
532.542	3985
532.610	3437
532.678	3590
532.746	14045
532.814	29437
532.881	8283
532.949	3736
533.017	3061
533.084	3418
533.152	3781
533.220	3079
533.287	2406
533.355	3399
533.423	3501
533.490	2156
533.558	2822
533.625	3515
533.693	3044
533.761	4070
533.828	4629
533.896	3154
533.963	7148
534.031	6698
534.098	7029
534.166	4608
534.233	2784
534.300	5203
534.368	4573
534.435	2988
534.503	3638
534.570	3332
534.637	2327
534.705	3377
534.772	3508
534.840	4173
534.907	18076
534.974	22101
535.041	4147
535.109	3103
535.176	2016
535.243	3389
535.310	2626
535.378	1991
535.445	2720
535.512	2346
535.579	3113
535.646	1531
535.714	3072
535.781	4477
535.848	4705
535.915	5759
535.982	5255
536.049	4558
536.116	4285
536.183	3386
536.250	3262
536.317	2573
536.384	3039
536.451	3320
536.518	2682
536.585	1918
536.652	4425
536.719	4125
536.786	2463
536.853	2908
536.920	3427
536.987	4789
537.053	3504
537.120	15170
537.187	12348
537.254	2003
537.321	2090
537.388	3316
537.454	2320
537.521	2262
537.588	1912
537.654	3876
537.721	3572
537.788	3953
537.855	2645
537.921	2395
537.988	2853
538.055	3526
538.121	1865
538.188	2242
538.254	2517
538.321	4438
538.388	3276
538.454	2177
538.521	1984
538.587	2122
538.654	1747
538.720	1444
538.787	2600
538.853	1937
538.920	2801
538.986	2981
539.053	2226
539.119	1999
539.185	1964
539.252	3908
539.318	2795
539.385	3992
539.451	3114
539.517	4012
539.583	3966
539.650	5592
539.716	10829
539.782	4368
539.849	2242
539.915	3383
539.981	2066
540.047	2431
540.114	2124
540.180	3439
540.246	2562
540.312	2121
540.378	3901
540.444	6018
540.510	5469
540.576	11805
540.643	4275
540.709	1277
540.775	2758
540.841	1831
540.907	2652
540.973	6386
541.039	3978
541.105	4625
541.171	2831
541.237	1861
541.303	2792
541.369	4511
541.435	2510
541.500	4284
541.566	2061
541.632	1828
541.698	1955
541.764	2674
541.830	1740
541.896	1777
541.961	2798
542.027	1927
542.093	2089
542.159	2587
542.224	1571
542.290	4247
542.356	3871
542.421	5043
542.487	3879
542.553	2064
542.618	3127
542.684	1674
542.750	2069
542.815	3507
542.881	3477
542.947	10491
543.012	8026
543.078	1763
543.143	1913
543.209	3336
543.274	2254
543.340	3155
543.405	5048
543.471	6372
543.536	2986
543.602	2922
543.667	1614
543.732	2903
543.798	1418
543.863	3493
543.928	2122
543.994	1770
544.059	2400
544.124	2202
544.190	2175
544.255	3135
544.320	1881
544.386	1031
544.451	3127
544.516	3723
544.581	2952
544.646	7773
544.712	11861
544.777	4729
544.842	3170
544.907	3467
544.972	2645
545.037	3055
545.102	3912
545.168	3564
545.233	3922
545.298	2968
545.363	3649
545.428	4153
545.493	6233
545.558	9471
545.623	5695
545.688	3350
545.753	4005
545.818	3579
545.883	3988
545.947	3309
546.012	3269
546.077	2901
546.142	4810
546.207	3338
546.272	4195
546.337	4093
546.401	3446
546.466	4380
546.531	3181
546.596	5114
546.661	3827
546.725	4625
546.790	3311
546.855	5306
546.919	2937
546.984	5869
547.049	4824
547.113	5764
547.178	4334
547.243	6495
547.307	7008
547.372	7595
547.436	6536
547.501	7382
547.565	7635
547.630	8292
547.695	7652
547.759	7640
547.823	7428
547.888	6872
547.952	7076
548.017	8341
548.081	8515
548.146	8929
548.210	8541
548.274	7514
548.339	7506
548.403	7161
548.468	6820
548.532	7034
548.596	8173
548.660	6622
548.725	7628
548.789	8078
548.853	9421
548.917	8657
548.982	8624
549.046	8995
549.110	6494
549.174	7146
549.238	6596
549.303	6599
549.367	8968
549.431	7948
549.495	7387
549.559	7428
549.623	8298
549.687	8962
549.751	9557
549.815	9993
549.879	9990
549.943	9107
550.007	10774
550.071	10051
550.135	9616
550.199	9280
550.263	9255
550.327	10284
550.391	11224
550.455	9819
550.519	10021
550.582	11249
550.646	11657
550.710	12082
550.774	10742
550.838	10341
550.901	12364
550.965	12357
551.029	12218
551.093	14614
551.156	15355
551.220	20634
551.284	24050
551.347	16133
551.411	19387
551.475	21902
551.538	13505
551.602	11933
551.666	11350
551.729	9091
551.793	10860
551.856	11093
551.920	10681
551.983	9828
552.047	10022
552.110	9842
552.174	10211
552.237	11053
552.301	9994
552.364	9280
552.428	9083
552.491	8301
552.554	9650
552.618	10147
552.681	9518
552.745	9233
552.808	12261
552.871	14911
552.934	10876
552.998	9529
553.061	9738
553.124	11077
553.187	10499
553.251	10772
553.314	10984
553.377	11199
553.440	17193
553.503	38750
553.567	62953
553.630	17762
553.693	10726
553.756	10252
553.819	10014
553.882	9772
553.945	9486
554.008	9991
554.071	9041
554.134	10642
554.197	8252
554.260	8734
554.323	10289
554.386	8869
554.449	9327
554.512	9608
554.575	8958
554.638	9773
554.701	8589
554.764	9681
554.827	8849
554.889	8223
554.952	7274
555.015	6954
555.078	7660
555.141	8650
555.203	7510
555.266	7581
555.329	8564
555.391	7470
555.454	7037
555.517	7683
555.580	6305
555.642	7412
555.705	6771
555.768	6886
555.830	6623
555.893	5654
555.955	6029
556.018	6613
556.080	5365
556.143	6564
556.206	5008
556.268	6767
556.330	6097
556.393	5906
556.455	5707
556.518	7037
556.580	6290
556.643	5722
556.705	5576
556.767	3867
556.830	5354
556.892	4914
556.955	5515
557.017	5044
557.079	3972
557.142	4942
557.204	5787
557.266	6306
557.328	6381
557.391	4057
557.453	4055
557.515	4006
557.577	4947
557.639	4361
557.701	4119
557.764	4135
557.826	4520
557.888	5863
557.950	4548
558.012	5280
558.074	6307
558.136	13088
558.198	29696
558.260	13285
558.322	5916
558.384	5447
558.446	7152
558.508	6704
558.570	8983
558.632	10341
558.694	13975
558.756	21411
558.818	62647
558.880	154558
558.942	49558
559.003	31639
559.065	16887
559.127	7165
559.189	6023
559.251	8163
559.312	12073
559.374	28305
559.436	91754
559.498	48459
559.559	7724
559.621	6967
559.683	8554
559.744	14244
559.806	41771
559.868	64135
559.929	13638
559.991	7850
560.052	11691
560.114	27809
560.176	20534
560.237	16668
560.299	26631
560.360	6899
560.422	3217
560.483	4530
560.545	3658
560.606	3623
560.667	3908
560.729	3153
560.790	2687
560.852	3489
560.913	3009
560.974	3282
561.036	1803
561.097	3375
561.158	4202
561.220	4082
561.281	2194
561.342	3260
561.403	3774
561.465	3934
561.526	6698
561.587	7404
561.648	2932
561.709	2198
561.771	2903
561.832	2494
561.893	3013
561.954	2935
562.015	2316
562.076	3526
562.137	2716
562.198	2894
562.259	3082
562.320	2254
562.381	2500
562.442	3581
562.503	4340
562.564	3666
562.625	2829
562.686	2585
562.747	2794
562.808	3027
562.869	2844
562.930	4265
562.991	4546
563.051	3529
563.112	3495
563.173	3353
563.234	2205
563.294	2495
563.355	3062
563.416	2068
563.477	2439
563.537	3045
563.598	3926
563.659	3521
563.720	2804
563.780	3170
563.841	2572
563.901	3489
563.962	2764
564.023	3700
564.083	3432
564.144	4365
564.204	2415
564.265	3606
564.325	3429
564.386	6734
564.446	5428
564.507	3580
564.567	3004
564.628	2383
564.688	2627
564.749	3054
564.809	4108
564.869	4324
564.930	2058
564.990	3343
565.050	1737
565.111	3105
565.171	3323
565.231	2406
565.292	4480
565.352	2119
565.412	2671
565.472	3086
565.532	2837
565.593	2023
565.653	2674
565.713	2318
565.773	2598
565.833	2624
565.893	4266
565.953	3010
566.013	2637
566.074	3159
566.134	4293
566.194	5286
566.254	5908
566.314	4006
566.374	2661
566.434	3300
566.494	2568
566.554	3122
566.614	3161
566.673	2835
566.733	3465
566.793	2975
566.853	4136
566.913	2699
566.973	2732
567.033	4646
567.092	3685
567.152	3173
567.212	3114
567.272	2799
567.331	2543
567.391	3256
567.451	4329
567.511	5176
567.570	3969
567.630	3776
567.690	2453
567.749	3215
567.809	2644
567.868	3616
567.928	2957
567.988	3788
568.047	3493
568.107	2455
568.166	3459
568.226	3767
568.285	4137
568.345	3779
568.404	3020
568.464	4506
568.523	2358
568.582	2951
568.642	3634
568.701	3675
568.761	3690
568.820	6314
568.879	5233
568.939	5320
568.998	4493
569.057	4281
569.116	2906
569.176	3504
569.235	2674
569.294	2781
569.353	2131
569.413	2589
569.472	2615
569.531	2267
569.590	2576
569.649	2365
569.708	2293
569.767	3152
569.827	3193
569.886	3176
569.945	2678
570.004	2444
570.063	2857
570.122	3065
570.181	3030
570.240	3469
570.299	3039
570.358	3319
570.417	2222
570.475	3382
570.534	3963
570.593	3606
570.652	2919
570.711	2834
570.770	2788
570.829	3271
570.887	3057
570.946	2973
571.005	2750
571.064	2419
571.122	3470
571.181	2918
571.240	2568
571.299	2796
571.357	3477
571.416	2642
571.475	2886
571.533	4213
571.592	2348
571.650	2840
571.709	2259
571.768	2052
571.826	3514
571.885	2921
571.943	3201
572.002	2354
572.060	2592
572.119	2729
572.177	2195
572.236	1776
572.294	1909
572.352	2661
572.411	2535
572.469	2875
572.528	2319
572.586	2809
572.644	2573
572.703	3371
572.761	2710
572.819	1723
572.877	2972
572.936	2483
572.994	1542
573.052	2287
573.110	2210
573.169	2393
573.227	2605
573.285	2409
573.343	2177
573.401	2235
573.459	2295
573.517	1905
573.576	1798
573.634	2517
573.692	1865
573.750	2575
573.808	1584
573.866	1947
573.924	3012
573.982	2933
574.040	2301
574.098	2765
574.155	1949
574.213	2484
574.271	2381
574.329	1702
574.387	1695
574.445	2224
574.503	2386
574.560	1992
574.618	1760
574.676	2037
574.734	1850
574.792	2249
574.849	1979
574.907	2631
574.965	1606
575.022	1508
575.080	1865
575.138	2609
575.195	1921
575.253	1676
575.311	1408
575.368	2620
575.426	982
575.483	2886
575.541	1846
575.598	2162
575.656	827
575.713	2320
575.771	2218
575.828	2338
575.886	2232
575.943	2568
576.001	1448
576.058	2166
576.115	2270
576.173	2638
576.230	2169
576.287	2272
576.345	2618
576.402	2008
576.459	2587
576.517	2150
576.574	2901
576.631	3222
576.688	2232
576.746	2223
576.803	2120
576.860	2017
576.917	2689
576.974	2333
577.031	2052
577.089	2550
577.146	2246
577.203	2341
577.260	2898
577.317	2631
577.374	3058
577.431	2263
577.488	2409
577.545	2417
577.602	2402
577.659	3004
577.716	3619
577.773	4443
577.830	2673
577.886	2962
577.943	2678
578.000	2841
578.057	3256
578.114	4404
578.171	5582
578.227	7842
578.284	8321
578.341	6106
578.398	3395
578.454	2950
578.511	3190
578.568	3326
578.625	2617
578.681	3420
578.738	1934
578.794	2694
578.851	1943
578.908	2848
578.964	3504
579.021	3110
579.077	2719
579.134	2676
579.190	2173
579.247	1747
579.303	1968
579.360	2653
579.416	2577
579.473	2427
579.529	2551
579.586	2103
579.642	2511
579.698	3214
579.755	3126
579.811	3746
579.867	3401
579.924	2815
579.980	3488
580.036	5868
580.093	6907
580.149	11465
580.205	13728
580.261	9378
580.317	7041
580.374	5773
580.430	4827
580.486	4759
580.542	3906
580.598	3189
580.619	3156
580.654	3090
580.692	3181
580.710	3212
580.765	2581
580.767	2551
580.823	3540
580.838	3392
580.879	2986
580.911	3522
580.935	3905
580.984	2962
580.991	2824
581.047	4336
581.057	4367
581.103	4532
581.130	4325
581.159	4057
581.203	5489
581.215	5833
581.270	5965
581.276	5910
581.326	5218
581.349	5003
581.382	4696
581.422	4269
581.438	4065
581.494	4060
581.494	4066
581.550	3679
581.567	3863
581.606	4193
581.640	4176
581.661	4191
581.713	4522
581.717	4531
581.773	4599
581.786	4625
581.829	4698
581.859	4652
581.885	4638
581.932	4435
581.940	4377
581.996	4306
582.004	4470
582.052	5265
582.077	4869
582.107	4468
582.150	4707
582.163	4742
582.219	5214
582.223	5226
582.274	5346
582.296	5163
582.330	4767
582.368	5663
582.386	6112
582.441	5491
582.441	5482
582.497	5171
582.514	5503
582.552	6512
582.587	6576
582.608	6373
582.659	5902
582.663	5880
582.719	5642
582.732	5839
582.774	6370
582.805	6373
582.830	6557
582.877	7318
582.885	7394
582.941	7317
582.950	7432
582.996	8297
583.023	8701
583.052	9435
583.095	10978
583.107	11481
583.162	14906
583.168	15107
583.218	15665
583.240	15171
583.273	13702
583.313	11840
583.328	11249
583.384	10081
583.385	10051
583.439	9220
583.458	9096
583.494	9183
583.531	8967
583.549	8888
583.603	8523
583.605	8514
583.660	8572
583.676	8545
583.715	8697
583.748	8373
583.770	8071
583.820	8278
583.825	8319
583.881	8503
583.893	8545
583.936	8635
583.965	8384
583.991	8170
584.038	8588
584.046	8703
584.101	8486
584.110	8561
584.156	8886
584.183	9035
584.211	9120
584.255	8944
584.266	8956
584.321	9294
584.328	9266
584.376	9206
584.400	9379
584.431	9753
584.472	10291
584.486	10375
584.541	9762
584.545	9788
584.596	10855
584.617	10917
584.651	11027
584.689	11577
584.706	11817
584.761	11892
584.762	11870
584.816	11540
584.834	11705
584.871	12147
584.906	11654
584.926	11436
584.978	12552
584.980	12632
585.035	13817
585.051	13949
585.090	13999
585.123	14027
585.145	14060
585.195	13881
585.200	14013
585.254	15414
585.267	15933
585.309	17976
585.340	19204
585.364	19270
585.412	18419
585.419	18394
585.473	19502
585.484	19494
585.528	21861
585.556	24255
585.583	30258
585.628	41805
585.637	47638
585.692	87945
585.700	94728
585.747	120599
585.772	120281
585.801	84633
585.845	36275
585.856	32452
585.910	21123
585.917	19845
585.965	18918
585.989	18358
586.019	18431
586.061	18252
586.074	18193
586.128	18591
586.133	18482
586.183	18195
586.205	18197
586.237	18349
586.277	18214
586.292	18131
586.346	18364
586.349	18314
586.401	18639
586.421	18510
586.455	18996
586.493	19832
586.509	21204
586.564	25350
586.565	25396
586.618	34350
586.637	36651
586.672	30929
586.709	24413
586.727	23271
586.781	20847
586.781	20909
586.835	19708
586.853	19396
586.889	19341
586.925	18738
586.944	18595
586.996	19612
586.998	19723
587.052	19624
587.068	19859
587.106	20147
587.140	20241
587.161	20402
587.212	20423
587.215	20547
587.269	21348
587.284	21542
587.323	21781
587.356	22003
587.377	22226
587.427	22344
587.431	22440
587.485	22890
587.499	22826
587.539	23296
587.571	23638
587.593	24142
587.643	25008
587.648	25114
587.702	25174
587.715	25179
587.755	26256
587.786	26754
587.810	26889
587.858	26778
587.864	27000
587.917	28473
587.930	28722
587.971	30124
588.001	30833
588.025	31398
588.073	32533
588.079	32879
588.133	34629
588.145	34963
588.187	37472
588.217	38875
588.241	40645
588.288	44062
588.295	44798
588.348	49277
588.360	50224
588.402	55037
588.431	57855
588.456	61447
588.503	68211
588.510	69633
588.564	79057
588.575	80941
588.617	92814
588.646	100600
588.671	111955
588.718	134566
588.725	142799
588.778	205847
588.789	219191
588.832	361570
588.861	461543
588.886	623940
588.932	944257
588.939	965772
588.993	1091599
589.004	1096092
589.047	777038
589.075	567919
589.100	442091
589.147	222198
589.154	215056
589.207	157194
589.218	144963
589.261	137173
589.290	131903
589.314	138616
589.361	151554
589.368	161005
589.421	237406
589.433	253917
589.475	446050
589.504	584089
589.528	728359
589.576	1011921
589.582	988326
589.635	679630
589.647	610970
589.689	354980
589.718	181806
589.742	152593
589.790	94713
589.795	93428
589.849	78169
589.861	74590
589.902	73298
589.932	71082
589.955	65032
590.004	51883
590.009	51654
590.062	47102
590.075	45744
590.115	43741
590.146	41757
590.168	41746
590.218	41471
590.222	41634
590.275	41194
590.289	40889
590.328	40541
590.360	39955
590.381	39780
590.431	38771
590.435	38901
590.488	38001
590.503	37649
590.541	38045
590.574	38038
590.594	38310
590.645	38324
590.647	38486
590.700	38092
590.716	37759
590.753	38164
590.787	38444
590.806	38504
590.859	37795
590.859	37960
590.912	37333
590.930	36992
590.965	37266
591.001	37234
591.018	37545
591.071	37993
591.072	37821
591.124	38151
591.143	38142
591.177	38818
591.214	39046
591.230	39551
591.283	40785
591.285	40635
591.336	40481
591.356	40224
591.389	40362
591.427	39912
591.442	39756
591.495	38641
591.498	38370
591.547	38552
591.569	38405
591.600	38794
591.640	38803
591.653	39120
591.706	39754
591.711	39625
591.759	40713
591.782	41008
591.811	42994
591.853	45397
591.864	45188
591.917	42959
591.924	42438
591.969	42442
591.995	42114
592.022	42611
592.066	42866
592.075	43426
592.127	45656
592.137	45842
592.180	49553
592.208	51609
592.233	49683
592.279	45301
592.285	45346
592.338	43928
592.350	43385
592.390	42951
592.421	42290
592.443	42908
592.491	43602
592.495	43880
592.548	44799
592.562	44840
592.600	44984
592.633	44701
592.653	44562
592.704	43397
592.705	43663
592.775	44337
592.846	43660
592.916	45140
592.987	45081
593.058	47006
593.128	44496
593.199	45080
593.270	43368
593.341	44689
593.411	43453
593.482	44185
593.553	46265
593.623	44916
593.694	46277
593.764	48032
593.835	46779
593.906	46116
593.976	46632
594.047	48903
594.117	52851
594.188	54812
594.258	47071
594.329	48584
594.399	49026
594.470	49079
594.540	48885
594.611	47919
594.681	47839
594.751	50072
594.822	51023
594.892	53056
594.963	53096
595.033	54256
595.103	54685
595.174	56848
595.244	67423
595.314	77282
595.384	58436
595.455	57502
595.525	58079
595.595	59929
595.665	61094
595.736	58531
595.806	59497
595.876	60342
595.946	59255
596.016	59567
596.087	60138
596.157	63122
596.227	62483
596.297	65656
596.367	66537
596.437	70916
596.507	78327
596.577	86076
596.647	73570
596.717	71875
596.787	72162
596.857	72102
596.927	72957
596.997	73704
597.067	76570
597.137	81730
597.207	80605
597.277	78779
597.347	74995
597.417	75043
597.487	74863
597.557	77165
597.626	77603
597.696	80978
597.766	85477
597.836	91931
597.906	77960
597.975	72876
598.045	73602
598.115	76048
598.185	79379
598.254	84677
598.324	89231
598.394	90029
598.464	88799
598.533	87703
598.603	83497
598.672	84586
598.742	84618
598.812	85930
598.881	87440
598.951	87145
599.020	89033
599.090	89013
599.159	93511
599.229	89092
599.299	89775
599.368	92491
599.437	92119
599.507	90078
599.576	91110
599.646	93159
599.715	96578
599.785	90808
599.854	90118
599.924	95153
599.993	92285
600.062	92907
600.132	94285
600.201	97376
600.270	106608
600.340	109294
600.409	108527
600.478	110844
600.547	111914
600.617	109864
600.686	100625
600.755	99556
600.824	96041
600.894	99267
600.963	98946
601.032	100708
601.101	101562
601.170	102327
601.239	102067
601.308	104031
601.378	106400
601.447	106684
601.516	108946
601.585	111424
601.654	114037
601.723	116130
601.792	119876
601.861	126264
601.930	134152
601.999	135799
602.068	130719
602.137	130950
602.206	132552
602.275	133695
602.343	136354
602.412	137269
602.481	135851
602.550	137652
602.619	140060
602.688	137676
602.756	142612
602.825	139686
602.894	144098
602.963	142624
603.032	145162
603.100	144719
603.169	141136
603.238	149655
603.307	140653
603.375	141898
603.444	148787
603.513	137756
603.581	142662
603.650	152841
603.719	127350
603.787	120125
603.856	122133
603.924	125106
603.993	129691
604.061	130465
604.130	134260
604.198	138176
604.267	138549
604.335	141527
604.404	141563
604.472	146087
604.541	147375
604.609	150668
604.678	156083
604.746	157504
604.815	164767
604.883	160667
604.951	154945
605.020	159644
605.088	149593
605.156	141141
605.225	138345
605.293	140722
605.361	141019
605.429	137603
605.498	142391
605.566	140699
605.634	147839
605.702	146712
605.771	147461
605.839	153650
605.907	142194
605.975	148057
606.043	142965
606.111	135236
606.180	152887
606.248	146250
606.316	144768
606.384	150245
606.452	126604
606.520	102920
606.588	100637
606.656	101321
606.724	98352
606.792	95454
606.860	86945
606.928	81839
606.996	77644
607.064	77189
607.132	79201
607.200	81238
607.267	85873
607.335	84844
607.403	87271
607.471	85967
607.539	83534
607.607	84553
607.674	75579
607.742	76650
607.810	77455
607.878	75181
607.946	76035
608.013	78833
608.081	79943
608.149	79868
608.216	80453
608.284	84620
608.352	83951
608.419	83788
608.487	89779
608.555	83483
608.622	80843
608.690	83141
608.757	87861
608.825	92492
608.893	89366
608.960	87737
609.028	87759
609.095	92357
609.163	84745
609.230	75683
609.298	72427
609.365	72401
609.432	76780
609.500	84041
609.567	92625
609.635	105660
609.702	109851
609.769	106876
609.837	89556
609.904	77544
609.971	78170
610.039	88047
610.106	111208
610.173	195023
610.241	430051
610.308	389356
610.375	202070
610.442	103335
610.509	83508
610.577	81278
610.644	81441
610.711	82329
610.778	82099
610.845	85893
610.912	91088
610.980	99601
611.047	113985
611.114	102313
611.181	90413
611.248	87922
611.315	92209
611.382	93264
611.449	96107
611.516	99906
611.583	96265
611.650	97548
611.717	96623
611.784	99327
611.851	103946
611.918	110895
611.984	125771
612.051	169261
612.118	324115
612.185	766400
612.252	569220
612.319	160141
612.386	126138
612.452	116303
612.519	111917
612.586	117922
612.653	113745
612.719	113260
612.786	107081
612.853	100596
612.919	98962
612.986	101028
613.053	95594
613.120	91380
613.186	88370
613.253	90067
613.319	87785
613.386	90229
613.453	91301
613.519	92848
613.586	92925
613.652	98896
613.719	94968
613.785	93985
613.852	92943
613.918	92174
613.985	95865
614.051	110547
614.118	145987
614.184	147048
614.250	95388
614.317	92738
614.383	90695
614.449	92476
614.516	92609
614.582	94289
614.648	91221
614.715	89754
614.781	88806
614.847	90450
614.914	91581
614.980	88090
615.046	87823
615.112	91010
615.179	90955
615.245	91279
615.311	89894
615.377	91507
615.443	94495
615.509	93107
615.575	96102
615.642	94810
615.708	98574
615.774	102064
615.840	110174
615.906	117595
615.972	136310
616.038	198113
616.104	396042
616.170	926990
616.236	908774
616.302	234476
616.368	157256
616.434	125635
616.500	115328
616.565	119560
616.631	139448
616.697	123665
616.763	122861
616.829	158699
616.895	251101
616.961	263052
617.026	142748
617.092	106276
617.158	99808
617.224	97317
617.289	92459
617.355	91362
617.421	90083
617.487	91712
617.552	85808
617.618	85703
617.684	84990
617.749	87727
617.815	82883
617.880	81348
617.946	81323
618.012	83547
618.077	85290
618.143	82972
618.208	84090
618.274	87610
618.339	91797
618.405	79004
618.470	78558
618.536	79792
618.601	81917
618.667	77984
618.732	73752
618.798	72667
618.863	71579
618.928	72572
618.994	73773
619.059	74013
619.124	79977
619.190	75952
619.255	71547
619.320	72717
619.386	72673
619.451	71651
619.516	70315
619.581	71940
619.647	72816
619.712	72997
619.777	71438
619.842	71393
619.907	72213
619.972	74784
620.038	74112
620.103	72081
620.168	70505
620.233	73079
620.298	71132
620.363	72891
620.428	73509
620.493	76047
620.558	76242
620.623	77604
620.688	76471
620.753	75281
620.818	75362
620.883	77751
620.948	76215
621.013	76036
621.078	77340
621.143	77241
621.207	78815
621.272	79470
621.337	77593
621.402	81579
621.467	86234
621.532	88133
621.596	82398
621.661	78908
621.726	76770
621.791	77751
621.855	79543
621.920	80590
621.985	81314
622.049	84130
622.114	83997
622.179	82076
622.243	85415
622.308	85633
622.373	88919
622.437	87879
622.502	82850
622.566	82495
622.631	83106
622.695	83691
622.760	83983
622.824	83287
622.889	83653
622.953	83411
623.018	92032
623.082	92191
623.147	85628
623.211	84222
623.276	85712
623.340	81059
623.404	79782
623.469	80500
623.533	79982
623.597	79469
623.662	79784
623.726	76827
623.790	73560
623.854	72603
623.919	72966
623.983	72201
624.047	72742
624.111	72108
624.176	75371
624.240	76242
624.304	79439
624.368	74331
624.432	72884
624.496	74603
624.560	77116
624.625	78179
624.689	76290
624.753	78430
624.817	75497
624.881	74047
624.945	70104
625.009	69078
625.073	70373
625.137	70794
625.201	75610
625.265	75392
625.329	71006
625.393	72082
625.456	70212
625.520	71069
625.584	75379
625.648	80423
625.712	94590
625.776	147055
625.839	163237
625.903	91509
625.967	66446
626.031	83376
626.095	113370
626.158	73873
626.222	58115
626.286	55998
626.349	53853
626.413	51790
626.477	53731
626.540	51981
626.604	52155
626.668	52048
626.731	51549
626.795	52487
626.858	51611
626.922	50072
626.986	48920
627.049	48488
627.113	51422
627.176	50671
627.240	49033
627.303	47694
627.366	48054
627.430	48848
627.493	47740
627.557	49468
627.620	49940
627.684	48299
627.747	47969
627.810	46696
627.874	43584
627.937	41701
628.000	45974
628.064	44246
628.127	38909
628.190	40379
628.253	39468
628.317	39332
628.380	38444
628.443	37050
628.506	39585
628.569	36982
628.632	35630
628.696	35937
628.759	34996
628.822	34324
628.885	34217
628.948	33931
629.011	33845
629.074	33900
629.137	32662
629.200	32155
629.263	35198
629.326	32231
629.389	32223
629.452	31979
629.515	32661
629.578	32358
629.641	33021
629.704	31954
629.767	32630
629.830	31965
629.892	30800
629.955	30425
630.018	33045
630.081	30931
630.144	32679
630.207	30053
630.269	33153
630.332	32208
630.395	31944
630.458	28806
630.520	28304
630.583	29393
630.646	28407
630.708	28790
630.771	27189
630.834	29556
630.896	28423
630.959	28352
631.021	28993
631.084	28840
631.146	30313
631.209	31807
631.272	27459
631.334	29908
631.397	28417
631.459	26624
631.522	28247
631.584	28557
631.646	29217
631.709	30064
631.771	32470
631.834	29882
631.896	27285
631.958	25228
632.021	27780
632.083	25817
632.145	27637
632.208	26958
632.270	27608
632.332	27040
632.395	25966
632.457	27212
632.519	25974
632.581	27451
632.643	25542
632.706	25956
632.768	24873
632.830	26926
632.892	25416
632.954	26555
633.016	26428
633.078	25394
633.141	25308
633.203	25342
633.265	26088
633.327	25787
633.389	24525
633.451	26023
633.513	27800
633.575	28639
633.637	25838
633.698	26596
633.760	27285
633.822	26781
633.884	26843
633.946	26320
634.008	26955
634.070	28943
634.132	33559
634.193	30687
634.255	27805
634.317	27945
634.379	28191
634.441	27197
634.502	25998
634.564	25895
634.626	23947
634.687	24760
634.749	24096
634.811	24504
634.873	22056
634.934	23507
634.996	24552
635.057	23717
635.119	24295
635.181	24578
635.242	24378
635.304	22134
635.365	26221
635.427	23679
635.488	23536
635.550	23837
635.611	23005
635.673	22283
635.734	26423
635.796	24353
635.857	26316
635.918	24897
635.980	26925
636.041	25939
636.102	28292
636.164	27648
636.225	27081
636.286	24964
636.348	25805
636.409	22620
636.470	21875
636.531	24427
636.593	23860
636.654	25518
636.715	21920
636.776	22122
636.838	20761
636.899	23385
636.960	20625
637.021	21672
637.082	20815
637.143	21607
637.204	19790
637.265	21003
637.326	20973
637.387	20670
637.448	20704
637.509	21624
637.570	20519
637.631	21227
637.692	20450
637.753	18960
637.814	20844
637.875	20501
637.936	21103
637.997	19780
638.058	20496
638.119	21347
638.179	19850
638.240	20260
638.301	19640
638.362	19418
638.423	19627
638.483	21035
638.544	18887
638.605	20801
638.666	18369
638.726	20891
638.787	19322
638.848	19364
638.908	18920
638.969	19792
639.030	18545
639.090	18192
639.151	17436
639.211	20340
639.272	20224
639.332	24517
639.393	20478
639.453	18671
639.514	19139
639.574	19057
639.635	18046
639.695	18793
639.756	17678
639.816	18908
639.877	19524
639.937	22037
639.997	23785
640.058	17691
640.118	17602
640.178	18932
640.239	16748
640.299	17461
640.359	17214
640.420	17425
640.480	18595
640.540	18796
640.600	18589
640.661	19566
640.721	20033
640.781	24798
640.841	25799
640.901	19944
640.961	17962
641.021	18423
641.082	18370
641.142	19885
641.202	18396
641.262	16058
641.322	17494
641.382	16356
641.442	17262
641.502	17046
641.562	17280
641.622	17144
641.682	16877
641.742	16938
641.802	18175
641.861	18049
641.921	16975
641.981	17972
642.041	17458
642.101	18962
642.161	15508
642.221	15988
642.280	15393
642.340	15557
642.400	16175
642.460	16496
642.519	17282
642.579	16229
642.639	17176
642.698	13615
642.758	17565
642.818	17233
642.877	16331
642.937	17401
642.997	17542
643.056	20315
643.116	16704
643.175	17379
643.235	15884
643.294	17734
643.354	17248
643.414	18726
643.473	19927
643.532	21291
643.592	26178
643.651	37532
643.711	59080
643.770	108262
643.830	249282
643.889	563867
643.948	153787
644.008	33310
644.067	22531
644.126	19710
644.186	18117
644.245	17037
644.304	15026
644.363	18611
644.423	15706
644.482	16978
644.541	16324
644.600	15677
644.659	19186
644.719	19791
644.778	25478
644.837	35110
644.896	61641
644.955	142366
645.014	60140
645.073	25209
645.132	18751
645.191	17848
645.250	16010
645.309	17665
645.368	16833
645.427	19870
645.486	23876
645.545	36825
645.604	18349
645.663	16839
645.722	15558
645.781	17265
645.840	18180
645.898	19340
645.957	24917
646.016	31700
646.075	54580
646.134	101277
646.192	255467
646.251	413951
646.310	71639
646.369	25183
646.427	21264
646.486	17679
646.545	16674
646.603	16465
646.662	15822
646.721	15131
646.779	14884
646.838	14081
646.896	15778
646.955	19142
647.014	24434
647.072	36847
647.131	89830
647.189	51845
647.248	15411
647.306	14873
647.365	15205
647.423	12461
647.481	14620
647.540	12332
647.598	13661
647.657	13467
647.715	14204
647.773	12163
647.832	13038
647.890	11726
647.948	12842
648.007	13526
648.065	12072
648.123	12932
648.181	14690
648.240	17597
648.298	16090
648.356	13542
648.414	12931
648.472	13154
648.531	13361
648.589	12930
648.647	12191
648.705	12251
648.763	11842
648.821	12904
648.879	12051
648.937	13988
648.995	14369
649.053	14535
649.111	19146
649.169	26989
649.227	43092
649.285	83277
649.343	238007
649.401	129671
649.459	30467
649.516	24998
649.574	21573
649.632	37693
649.690	47687
649.748	25393
649.806	31052
649.863	51420
649.921	67626
649.979	49755
650.037	13695
650.094	10936
650.152	12763
650.210	11227
650.268	12886
650.325	14011
650.383	16361
650.440	11437
650.498	11186
650.556	10104
650.613	9539
650.671	10538
650.728	10963
650.786	10798
650.843	11993
650.901	10157
650.958	10648
651.016	10497
651.073	9948
651.131	9448
651.188	9108
651.246	10404
651.303	8988
651.360	9727
651.418	9411
651.475	10023
651.532	8615
651.590	9495
651.647	8815
651.704	9096
651.762	9190
651.819	9506
651.876	9037
651.933	9407
651.990	9732
652.048	8162
652.105	8110
652.162	9189
652.219	7603
652.276	9497
652.333	9256
652.390	7887
652.448	9590
652.505	9219
652.562	8851
652.619	10904
652.676	18148
652.733	18088
652.790	9891
652.847	8765
652.904	8839
652.961	7632
653.017	7268
653.074	8846
653.131	8228
653.188	8158
653.245	8331
653.302	7790
653.359	7840
653.415	9048
653.472	7804
653.529	8384
653.586	7604
653.642	7647
653.699	7764
653.756	7574
653.813	7755
653.869	8037
653.926	7664
653.983	8112
654.039	8092
654.096	7446
654.152	9202
654.209	6942
654.266	8648
654.322	7494
654.379	9443
654.435	9531
654.492	9196
654.548	10869
654.605	13023
654.661	10746
654.717	8091
654.774	9787
654.830	9331
654.887	8926
654.943	9555
655.000	10843
655.056	10231
655.112	8926
655.168	7603
655.225	8738
655.281	9612
655.337	10547
655.394	14421
655.450	11813
655.506	10485
655.562	14233
655.618	12656
655.675	7776
655.731	8171
655.787	7355
655.843	8553
655.899	7821
655.955	7971
656.011	8337
656.067	7118
656.123	7896
656.179	8527
656.235	9433
656.291	6992
656.347	9032
656.403	7327
656.459	8162
656.515	7837
656.571	9181
656.627	9044
656.683	8282
656.739	7931
656.795	8151
656.850	7772
656.906	8740
656.962	8331
657.018	6810
657.074	7628
657.129	8859
657.185	10393
657.241	14895
657.297	11750
657.352	8842
657.408	7315
657.464	8532
657.519	7675
657.575	7908
657.630	7505
657.686	7331
657.742	7452
657.797	7903
657.853	7641
657.908	9394
657.964	6629
658.019	8066
658.075	7717
658.130	8266
658.186	6871
658.241	7167
658.297	7531
658.352	7411
658.407	8666
658.463	7898
658.518	7876
658.573	7544
658.629	6413
658.684	6983
658.739	7102
658.795	6742
658.850	7890
658.905	6993
658.960	7291
659.016	7381
659.071	6923
659.126	8049
659.181	7033
659.236	10058
659.291	10596
659.346	9076
659.401	9980
659.457	12279
659.512	14646
659.567	10585
659.622	8842
659.677	7704
659.732	6984
659.787	7743
659.842	8332
659.897	9398
659.952	7301
660.007	7942
660.061	8064
660.116	7086
660.171	6730
660.226	8134
660.281	7169
660.336	7329
660.391	7391
660.445	7160
660.500	8242
660.555	7730
660.610	7113
660.664	8140
660.719	7923
660.774	7672
660.828	8042
660.883	7805
660.938	7722
660.992	6424
661.047	7493
661.101	7083
661.156	7305
661.211	6801
661.265	7225
661.320	7468
661.374	7935
661.429	7447
661.483	7694
661.538	8226
661.592	7608
661.647	8752
661.701	10222
661.755	8576
661.810	7846
661.864	7361
661.919	7238
661.973	7764
662.027	6869
662.081	7189
662.136	7183
662.190	7793
662.244	7629
662.299	8086
662.353	7386
662.407	7045
662.461	7705
662.515	7892
662.569	7587
662.624	8515
662.678	7547
662.732	7730
662.786	7630
662.840	7571
662.894	7479
662.948	6703
663.002	6573
663.056	7310
663.110	6563
663.164	7533
663.218	7187
663.272	6230
663.326	7824
663.380	7433
663.434	7459
663.488	7182
663.542	6790
663.595	6481
663.649	6906
663.703	7397
663.757	7111
663.811	7161
663.864	6778
663.918	8258
663.972	6788
664.026	7383
664.079	6780
664.133	7520
664.187	6187
664.240	7342
664.294	7267
664.348	8257
664.401	7996
664.455	6466
664.508	6948
664.562	6837
664.615	7096
664.669	6109
664.722	6518
664.776	7299
664.829	7511
664.883	7322
664.936	6905
664.990	6966
665.043	7798
665.097	8044
665.150	9154
665.203	7996
665.257	7705
665.310	7439
665.363	7999
665.417	8419
665.470	7376
665.523	7459
665.576	8001
665.630	7348
665.683	7822
665.736	7766
665.789	8383
665.842	7202
665.895	7666
665.949	7804
666.002	6465
666.055	7521
666.108	8801
666.161	7756
666.214	8269
666.267	7240
666.320	7501
666.373	7675
666.426	7340
666.479	6926
666.532	7396
666.585	8379
666.638	9080
666.691	8593
666.744	8119
666.796	8355
666.849	7516
666.902	7916
666.955	7692
667.008	6559
667.060	6087
667.113	6358
667.166	6698
667.219	7768
667.271	7660
667.324	7796
667.377	7277
667.430	7738
667.482	9290
667.535	8687
667.587	8327
667.640	7812
667.693	8850
667.745	9080
667.798	10169
667.850	7628
667.903	8297
667.955	7360
668.008	8058
668.060	8218
668.113	8252
668.165	8286
668.218	8128
668.270	8521
668.322	7794
668.375	7936
668.427	8069
668.479	7199
668.532	8550
668.584	8145
668.636	7091
668.689	7703
668.741	7638
668.793	8269
668.845	7930
668.898	8340
668.950	7472
669.002	8199
669.054	7190
669.106	7396
669.158	9025
669.211	8868
669.263	8337
669.315	10473
669.367	11101
669.419	9154
669.471	10095
669.523	9877
669.575	11911
669.627	10716
669.679	9527
669.731	8585
669.783	8353
669.835	10316
669.886	9938
669.938	8933
669.990	8396
670.042	8003
670.094	9242
670.146	10004
670.197	10067
670.249	12869
670.301	13707
670.353	17155
670.404	21688
670.456	31947
670.508	47240
670.560	77258
670.611	133203
670.663	230863
670.715	492676
670.766	683000
670.818	289735
670.869	70781
670.921	36918
670.972	25380
671.024	18660
671.075	15801
671.127	13365
671.178	11674
671.230	10914
671.281	11079
671.333	9885
671.384	9860
671.436	10362
671.487	10693
671.538	11316
671.590	13793
671.641	16970
671.692	23703
671.744	38707
671.795	31956
671.846	15089
671.897	11390
671.949	9839
672.000	9300
672.051	8183
672.102	8382
672.153	7380
672.204	8148
672.256	7758
672.307	7307
672.358	7750
672.409	8141
672.460	6948
672.511	7139
672.562	6824
672.613	7361
672.664	6333
672.715	7070
672.766	7174
672.817	7282
672.868	7155
672.919	6561
672.970	6103
673.021	6064
673.071	6208
673.122	6266
673.173	5870
673.224	7166
673.275	6747
673.326	6422
673.376	6145
673.427	5980
673.478	5801
673.528	6964
673.579	5912
673.630	6148
673.680	6852
673.731	5834
673.782	5311
673.832	6769
673.883	6792
673.934	5790
673.984	6382
674.035	6784
674.085	5740
674.136	6520
674.186	6284
674.237	7368
674.287	9297
674.338	6627
674.388	6080
674.438	5139
674.489	5850
674.539	5994
674.589	6214
674.640	5880
674.690	6041
674.740	6416
674.791	6837
674.841	6227
674.891	6686
674.942	6262
674.992	5773
675.042	5954
675.092	5268
675.142	5333
675.193	5517
675.243	5889
675.293	6243
675.343	6377
675.393	5908
675.443	5482
675.493	5817
675.543	5271
675.593	6018
675.643	6577
675.693	5912
675.743	5691
675.793	5982
675.843	4995
675.893	6154
675.943	5639
675.993	6127
676.043	5174
676.093	5297
676.142	5329
676.192	6189
676.242	5255
676.292	5124
676.341	5554
676.391	5581
676.441	6059
676.491	5416
676.540	5604
676.590	6249
676.640	5648
676.689	4819
676.739	4963
676.789	4632
676.838	5714
676.888	5346
676.937	4506
676.987	4944
677.037	5164
677.086	4823
677.136	5111
677.185	4409
677.235	4559
677.284	4028
677.333	4887
677.383	4958
677.432	4664
677.482	4539
677.531	4468
677.580	4083
677.630	4866
677.679	3845
677.728	4881
677.778	4364
677.827	5301
677.876	4517
677.925	4152
677.975	5084
678.024	5351
678.073	4741
678.122	5001
678.171	4640
678.220	5314
678.269	5544
678.319	5691
678.368	5358
678.417	6279
678.466	5058
678.515	6575
678.564	5889
678.613	5417
678.662	4922
678.711	5228
678.760	5302
678.809	4401
678.857	4629
678.906	5269
678.955	4581
679.004	5195
679.053	5698
679.102	6015
679.151	4452
679.199	4704
679.248	5348
679.297	4896
679.346	4988
679.394	5808
679.443	4635
679.492	5392
679.540	4776
679.589	4806
679.638	4755
679.686	4778
679.735	4566
679.784	5100
679.832	4994
679.881	4164
679.929	4092
679.978	4056
680.026	4809
680.075	4765
680.123	3950
680.172	4487
680.220	4472
680.268	5071
680.317	3676
680.365	4387
680.414	4137
680.462	4473
680.510	5112
680.559	4713
680.607	3621
680.655	4642
680.703	4458
680.752	4519
680.800	4925
680.848	4150
680.896	4305
680.945	3795
680.993	4503
681.041	4219
681.089	3862
681.137	4110
681.185	4501
681.233	3937
681.258	4246
681.281	4511
681.329	4234
681.377	3617
681.380	3717
681.425	5009
681.473	4826
681.502	4966
681.521	5006
681.569	5192
681.617	4375
681.624	4473
681.665	4880
681.713	4388
681.745	4628
681.761	4708
681.809	4927
681.857	5502
681.867	5287
681.904	4408
681.952	5360
681.989	5191
682.000	5100
682.048	5018
682.096	5080
682.111	5013
682.143	4780
682.191	4751
682.233	5642
682.239	5750
682.286	4948
682.334	5108
682.354	5239
682.382	5336
682.430	5858
682.476	5374
682.477	5339
682.525	5607
682.572	5720
682.598	5499
682.620	5284
682.667	6039
682.715	5535
682.720	5600
682.763	5902
682.810	5840
682.841	5794
682.857	5719
682.905	5435
682.952	6207
682.963	6169
683.000	6046
683.047	5886
683.085	6359
683.095	6427
683.142	5976
683.190	5795
683.206	5722
683.237	5568
683.284	6302
683.328	6678
683.332	6680
683.379	4772
683.426	6432
683.449	6204
683.473	5998
683.521	6229
683.568	6449
683.571	6458
683.615	6133
683.662	6135
683.693	6584
683.709	6840
683.757	5728
683.804	6505
683.814	6581
683.851	6718
683.898	6703
683.936	6765
683.945	6757
683.992	6517
684.039	6384
684.057	6698
684.086	7181
684.133	6714
684.179	6696
684.180	6674
684.227	6697
684.274	7165
684.300	7391
684.321	7573
684.368	7028
684.415	7540
684.422	7429
684.462	6653
684.509	7397
684.543	7701
684.556	7773
684.603	7623
684.649	6829
684.665	6900
684.696	7109
684.743	7642
684.786	7784
684.790	7778
684.837	8154
684.883	8784
684.908	8872
684.930	8938
684.977	9420
685.023	9249
685.029	9181
685.070	8319
685.117	8348
685.150	8265
685.164	8293
685.210	8697
685.257	9122
685.272	9177
685.303	9162
685.350	8707
685.393	8847
685.396	8853
685.443	8942
685.490	9194
685.514	9237
685.536	9217
685.583	9183
685.629	9167
685.636	9160
685.675	8981
685.722	8781
685.757	8964
685.768	9055
685.815	9065
685.861	9982
685.878	9600
685.908	8927
685.954	9562
686.000	9991
686.000	9988
686.047	10329
686.093	10449
686.121	10511
686.139	10570
686.185	9740
686.232	9811
686.242	9845
686.278	9891
686.324	10265
686.363	9762
686.370	9676
686.416	10428
686.463	9814
686.484	9824
686.509	9816
686.555	10178
686.601	9900
686.606	9870
686.647	9474
686.693	10224
686.727	9851
686.739	9750
686.785	10195
686.831	10452
686.848	10338
686.877	10035
686.923	9675
686.969	10104
686.969	10106
687.015	9892
687.061	10993
687.090	10825
687.107	10633
687.153	10564
687.199	10316
687.211	10334
687.245	10423
687.291	10169
687.332	10434
687.336	10488
687.382	10661
687.428	10710
687.453	11110
687.474	11227
687.520	11437
687.565	11054
687.574	10941
687.611	10932
687.657	11200
687.695	12626
687.702	12994
687.748	14335
687.794	15961
687.816	15740
687.839	14398
687.885	12899
687.931	11400
687.937	11258
687.976	11241
688.022	10379
688.058	10962
688.067	11174
688.113	10805
688.158	10447
688.179	10653
688.204	10905
688.249	11318
688.295	11468
688.300	11506
688.340	11840
688.386	12103
688.421	11832
688.431	11742
688.477	11901
688.522	11802
688.542	11746
688.567	11743
688.613	11697
688.658	11761
688.663	11796
688.703	12035
688.749	11616
688.784	11753
688.794	11848
688.839	11693
688.884	12482
688.905	12354
688.930	12125
688.975	12498
689.020	12035
689.026	12094
689.065	12651
689.110	12166
689.146	12263
689.155	12306
689.201	12658
689.246	13177
689.267	12917
689.291	12591
689.336	12909
689.381	12733
689.388	12747
689.426	12868
689.471	12868
689.509	12740
689.516	12757
689.561	12565
689.606	12623
689.630	12855
689.651	13013
689.696	12884
689.741	12730
689.750	12749
689.785	13016
689.830	13186
689.871	13495
689.875	13524
689.920	13209
689.965	13072
689.992	13032
690.010	13089
690.054	13308
690.099	13430
690.112	13549
690.144	13996
690.189	14069
690.233	14374
690.233	14391
690.278	14145
690.323	14046
690.354	13942
690.367	14086
690.412	14963
690.457	15502
690.474	15738
690.501	16233
690.546	16567
690.590	17765
690.595	17751
690.635	18275
690.680	19843
690.716	21034
690.724	21736
690.769	24945
690.813	29024
690.836	30827
690.857	35398
690.902	45580
690.946	57365
690.957	60300
690.991	84549
691.035	119292
691.077	151963
691.080	152357
691.124	144165
691.168	134712
691.198	130936
691.213	120483
691.257	90532
691.301	60845
691.318	49276
691.346	44014
691.390	35772
691.434	27162
691.439	26228
691.478	24605
691.522	22347
691.559	20559
691.567	20424
691.611	19584
691.655	18562
691.680	17729
691.699	17538
691.743	17816
691.787	17602
691.800	17485
691.831	17190
691.875	17264
691.919	17127
691.921	17089
691.964	17128
692.008	17187
692.041	17300
692.052	17256
692.096	16688
692.139	16364
692.162	16208
692.183	16322
692.227	16200
692.271	16423
692.282	16380
692.315	16300
692.359	16350
692.402	16318
692.403	16346
692.447	16289
692.490	16016
692.523	16002
692.534	16199
692.578	16690
692.622	17128
692.643	17256
692.666	17172
692.709	16879
692.753	16936
692.763	16906
692.797	17021
692.840	17080
692.884	16969
692.884	17006
692.928	17877
692.971	18768
693.004	18898
693.015	18849
693.059	18945
693.102	19120
693.124	19017
693.146	19249
693.189	19883
693.233	20600
693.245	20715
693.276	22263
693.320	24640
693.363	26634
693.365	26668
693.407	29917
693.450	32944
693.485	35783
693.493	37483
693.537	45903
693.580	54494
693.605	59421
693.624	69203
693.667	92650
693.710	116976
693.725	125808
693.753	170468
693.797	242331
693.840	315527
693.845	322468
693.883	310966
693.926	295410
693.966	283805
693.970	277690
694.013	210452
694.056	143774
694.086	97659
694.099	91964
694.142	73934
694.185	55590
694.206	46766
694.229	43827
694.272	38140
694.315	32814
694.326	31252
694.358	29743
694.401	27849
694.444	25958
694.446	25807
694.487	25025
694.530	24170
694.566	23405
694.573	23268
694.616	22059
694.659	20853
694.686	20164
694.702	20047
694.745	19344
694.787	18797
694.806	18497
694.830	18745
694.873	19445
694.916	19702
694.926	19722
694.959	19035
695.002	18248
695.044	17131
695.046	17060
695.087	17339
695.130	17651
695.166	17660
695.172	17676
695.215	17765
695.258	17514
695.286	17499
695.301	17570
695.343	17621
695.386	17641
695.406	17548
695.428	17437
695.471	17249
695.514	17206
695.526	17058
695.556	17265
695.599	17968
695.641	18260
695.646	18266
695.684	17955
695.726	17554
695.766	17113
695.769	17152
695.811	17315
695.854	17368
695.886	17351
695.896	17343
695.938	17074
695.981	16909
696.005	16665
696.023	16789
696.065	17120
696.108	17587
696.125	17752
696.150	17915
696.192	17758
696.235	17982
696.245	17946
696.277	18256
696.319	18608
696.361	19037
696.365	19030
696.404	19914
696.446	20777
696.485	21526
696.488	21543
696.530	20990
696.572	20661
696.604	20210
696.614	20049
696.656	19232
696.698	18456
696.724	17870
696.740	17863
696.783	17745
696.825	17724
696.844	17601
696.867	17549
696.909	17493
696.951	17413
696.964	17333
696.992	17278
697.034	17087
697.076	17133
697.083	17067
697.118	17158
697.160	17204
697.202	17337
697.203	17298
697.244	17310
697.286	17264
697.323	17113
697.327	17193
697.369	17552
697.411	18011
697.442	18211
697.453	18127
697.494	17733
697.536	17266
697.562	16943
697.578	17006
697.620	16989
697.661	17065
697.682	17047
697.703	17244
697.744	17473
697.786	17859
697.801	17902
697.828	17972
697.869	18114
697.911	18200
697.921	18150
697.952	17986
697.994	17916
698.035	17670
698.040	17606
698.077	17615
698.118	17494
698.160	17446
698.160	17400
698.201	17729
698.243	17929
698.279	18135
698.284	18176
698.325	18086
698.367	17984
698.399	17876
698.408	17888
698.449	17707
698.491	17542
698.518	17385
698.532	17399
698.573	17282
698.614	17214
698.638	17105
698.656	17292
698.697	17649
698.738	17986
698.757	18104
698.779	18205
698.820	18311
698.862	18415
698.877	18411
698.903	18421
698.944	18352
698.985	18285
698.996	18223
699.026	18225
699.067	18165
699.116	18050
699.235	18953
699.354	17213
699.474	17586
699.593	18184
699.713	18690
699.832	18477
699.951	18183
700.070	17446
700.190	16856
700.309	17149
700.428	17064
700.547	17493
700.667	17921
700.786	17497
700.905	17359
701.024	16304
701.143	17778
701.262	16552
701.381	17429
701.500	17700
701.619	16841
701.738	16010
701.857	16462
701.976	16046
702.095	16463
702.214	17120
702.333	16442
702.452	16170
702.571	15902
702.690	16657
702.809	16568
702.928	15875
703.047	16407
703.165	15174
703.284	15431
703.403	15444
703.522	16769
703.640	15468
703.759	16874
703.878	17878
703.997	16060
704.115	15137
704.234	15966
704.353	14784
704.471	15855
704.590	15396
704.708	14824
704.827	15117
704.946	15531
705.064	14546
705.183	15395
705.301	16720
705.420	23461
705.538	20914
705.656	19333
705.775	19441
705.893	32467
706.012	41752
706.130	20800
706.249	19558
706.367	18691
706.485	18864
706.604	19165
706.722	18768
706.840	20711
706.958	28699
707.077	22537
707.195	17195
707.313	17685
707.431	16403
707.549	16622
707.668	15965
707.786	17317
707.904	17622
708.022	17008
708.140	16292
708.258	16414
708.376	17555
708.494	15548
708.612	17704
708.730	21916
708.848	21112
708.966	20234
709.084	19117
709.202	19690
709.320	19052
709.438	20226
709.556	19461
709.674	19736
709.791	19361
709.909	19199
710.027	18827
710.145	18772
710.263	18551
710.380	18105
710.498	18315
710.616	17156
710.733	17986
710.851	19243
710.969	19036
711.086	18453
711.204	17023
711.322	18354
711.439	17465
711.557	17721
711.674	17370
711.792	17675
711.909	18223
712.027	19970
712.144	17152
712.262	18255
712.379	17332
712.497	24679
712.614	24636
712.732	22176
712.849	19961
712.966	20429
713.084	21410
713.201	19930
713.318	20480
713.436	20383
713.553	21237
713.670	21036
713.787	21087
713.905	20905
714.022	20169
714.139	19827
714.256	21089
714.373	22789
714.490	26143
714.608	41891
714.725	134098
714.842	156841
714.959	25657
715.076	19998
715.193	18834
715.310	18221
715.427	18321
715.544	18016
715.661	17297
715.778	18030
715.895	18834
716.011	19148
716.128	17864
716.245	17733
716.362	17273
716.479	18663
716.596	18298
716.713	18267
716.829	17687
716.946	17467
717.063	16657
717.180	17447
717.296	15918
717.413	17221
717.530	16319
717.646	17255
717.763	15244
717.880	15685
717.996	15182
718.113	15279
718.229	15063
718.346	15406
718.462	14679
718.579	15496
718.695	17343
718.812	16444
718.928	16556
719.045	16454
719.161	14556
719.277	15571
719.394	14849
719.510	16026
719.626	14889
719.743	17883
719.859	16692
719.975	20977
720.092	43685
720.208	92786
720.324	23012
720.440	15651
720.557	15944
720.673	16316
720.789	19945
720.905	29129
721.021	18761
721.137	14698
721.253	13634
721.369	15440
721.486	14519
721.602	17116
721.718	13581
721.834	13972
721.950	14110
722.066	13149
722.181	13705
722.297	14153
722.413	13801
722.529	13219
722.645	12985
722.761	13731
722.877	13072
722.993	12427
723.108	12693
723.224	13185
723.340	13669
723.456	12652
723.571	13400
723.687	13174
723.803	13002
723.918	12852
724.034	12076
724.150	13349
724.265	13180
724.381	15892
724.497	17977
724.612	12681
724.728	11326
724.843	12760
724.959	12015
725.074	15027
725.190	16985
725.305	12141
725.421	12046
725.536	11717
725.651	12229
725.767	11962
725.882	10927
725.997	11392
726.113	11580
726.228	11370
726.343	11159
726.459	10743
726.574	10895
726.689	10652
726.804	10921
726.920	11115
727.035	10525
727.150	11032
727.265	10561
727.380	10758
727.495	10887
727.610	10084
727.725	10500
727.841	13109
727.956	20918
728.071	18575
728.186	11091
728.301	10557
728.416	11125
728.531	10828
728.645	9861
728.760	10728
728.875	10002
728.990	9926
729.105	10548
729.220	10560
729.335	10213
729.449	11135
729.564	9788
729.679	9738
729.794	9923
729.908	10220
730.023	10750
730.138	10366
730.253	9721
730.367	9271
730.482	10443
730.596	9324
730.711	10123
730.826	11430
730.940	13027
731.055	10544
731.169	10097
731.284	10034
731.398	9515
731.513	11104
731.627	9967
731.742	10415
731.856	10376
731.970	10566
732.085	10737
732.199	11808
732.313	12687
732.428	20785
732.542	44553
732.656	31590
732.771	12114
732.885	10524
732.999	9756
733.113	11082
733.227	10497
733.342	11098
733.456	9362
733.570	9748
733.684	9876
733.798	10606
733.912	10054
734.026	9686
734.140	8820
734.254	9543
734.368	11405
734.482	13334
734.596	9399
734.710	9755
734.824	9310
734.938	9677
735.052	9500
735.166	10592
735.280	10080
735.393	9546
735.507	8805
735.621	10021
735.735	11660
735.849	10477
735.962	8925
736.076	9808
736.190	9565
736.303	11145
736.417	11253
736.531	8887
736.644	9113
736.758	8896
736.872	8518
736.985	9117
737.099	8355
737.212	8085
737.326	9071
737.439	9663
737.553	8834
737.666	8581
737.780	8626
737.893	8915
738.007	8464
738.120	9346
738.233	8323
738.347	9299
738.460	9419
738.573	9081
738.687	8429
738.800	9069
738.913	8660
739.026	9423
739.140	9007
739.253	9884
739.366	9630
739.479	8635
739.592	7222
739.705	8622
739.818	9199
739.932	8635
740.045	8296
740.158	8649
740.271	8860
740.384	8676
740.497	9198
740.610	9511
740.723	8915
740.836	9780
740.949	8690
741.062	9623
741.174	9513
741.287	8923
741.400	8306
741.513	8669
741.626	8397
741.739	8801
741.851	8536
741.964	9051
742.077	8187
742.189	8819
742.302	8213
742.415	8984
742.527	8171
742.640	8689
742.753	8112
742.865	9321
742.978	8262
743.090	9068
743.203	8358
743.316	8993
743.428	8702
743.541	8621
743.653	9200
743.766	7926
743.878	9912
743.990	9545
744.103	8101
744.215	8582
744.327	8502
744.440	8977
744.552	8627
744.664	9048
744.777	8635
744.889	8296
745.001	9187
745.113	8827
745.226	8339
745.338	9551
745.450	8710
745.562	8697
745.674	8268
745.786	8890
745.898	8573
746.010	9196
746.122	8544
746.234	9033
746.347	8272
746.459	9864
746.570	8398
746.682	9481
746.794	8224
746.906	9299
747.018	8134
747.130	8547
747.242	8283
747.354	9046
747.466	8698
747.577	9655
747.689	9092
747.801	9447
747.913	8374
748.024	8427
748.136	8258
748.248	8057
748.359	8633
748.471	8961
748.583	8307
748.694	9601
748.806	10655
748.918	8781
749.029	9214
749.141	9762
749.252	8245
749.364	9220
749.475	9404
749.587	9470
749.698	8227
749.809	9983
749.921	8888
750.032	8673
750.144	9211
750.255	9166
750.366	9354
750.478	9298
750.589	8964
750.700	9932
750.811	9719
750.923	9172
751.034	9003
751.145	11193
751.256	8753
751.367	9487
751.479	9198
751.590	9242
751.701	8821
751.812	9613
751.923	9377
752.034	10152
752.145	8684
752.256	9144
752.367	9419
752.478	9429
752.589	10559
752.700	9697
752.811	9564
752.922	10434
753.032	10109
753.143	10263
753.254	9910
753.365	11259
753.476	9480
753.586	10423
753.697	9886
753.808	10555
753.919	10728
754.029	10740
754.140	9623
754.251	11054
754.361	10608
754.472	11142
754.582	10752
754.693	11518
754.804	10744
754.914	11232
755.025	10380
755.135	11095
755.246	11216
755.356	11316
755.466	11249
755.577	11794
755.687	12017
755.798	11221
755.908	11448
756.018	12420
756.129	11404
756.239	11890
756.349	12362
756.460	12405
756.570	12719
756.680	12785
756.790	12743
756.900	12922
757.011	13167
757.121	13481
757.231	13369
757.341	13551
757.451	12997
757.561	13750
757.671	13475
757.781	13173
757.891	15061
758.001	14809
758.111	15226
758.221	15189
758.331	15327
758.441	15804
758.551	15932
758.661	16529
758.771	16863
758.880	17158
758.990	16464
759.100	17472
759.210	17327
759.320	17836
759.429	17597
759.539	17839
759.649	18266
759.758	20087
759.868	19887
759.978	20370
760.087	20249
760.197	21121
760.307	21514
760.416	21689
760.526	21378
760.635	22871
760.745	23651
760.854	23423
760.964	24714
761.073	24733
761.182	25242
761.292	26719
761.401	26360
761.511	26854
761.620	27492
761.729	29733
761.839	29214
761.948	32017
762.057	31757
762.166	34407
762.276	33169
762.385	34629
762.494	36127
762.603	37505
762.712	38083
762.822	40189
762.931	42602
763.040	43476
763.149	45597
763.258	47600
763.367	50784
763.476	53903
763.585	56924
763.694	59410
763.803	60970
763.912	66359
764.021	70610
764.130	75270
764.238	78905
764.347	86128
764.456	92045
764.565	99494
764.674	108841
764.783	119043
764.891	129559
765.000	145335
765.109	162837
765.217	184385
765.326	207656
765.435	243308
765.543	284877
765.652	335843
765.761	399833
765.869	483041
765.978	588077
766.086	708909
766.195	819508
766.303	847016
766.412	623835
766.520	639659
766.629	781811
766.737	775135
766.846	690258
766.954	578828
767.062	478112
767.171	395129
767.279	323470
767.387	270775
767.496	228663
767.604	200001
767.712	174060
767.820	158524
767.928	144137
768.037	133190
768.145	127048
768.253	123475
768.361	117803
768.469	117163
768.577	119192
768.685	125228
768.793	132447
768.901	145272
769.009	166920
769.117	196463
769.225	241234
769.333	309546
769.441	407992
769.549	556264
769.657	731235
769.765	792562
769.873	603395
769.981	699266
770.088	687188
770.196	563390
770.304	439567
770.412	344835
770.519	278469
770.627	230211
770.735	191724
770.842	164378
770.950	142358
771.058	125662
771.165	112597
771.273	101801
771.380	92033
771.488	83661
771.595	77237
771.703	70087
771.810	65264
771.918	62347
772.025	57208
772.133	53873
772.240	51608
772.348	48938
772.455	46035
772.562	42954
772.670	41962
772.777	39424
772.884	38184
772.991	36859
773.099	34830
773.206	33334
773.313	31244
773.420	32673
773.528	29284
773.635	29324
773.742	28588
773.849	28283
773.956	27033
774.063	27295
774.170	23976
774.277	24981
774.384	23058
774.491	22820
774.598	23484
774.705	22181
774.812	21817
774.919	21255
775.026	20629
775.133	20790
775.239	19761
775.346	18856
775.453	18851
775.560	18379
775.667	18232
775.773	18850
775.880	18247
775.987	17457
776.093	17184
776.200	16972
776.307	16566
776.413	16854
776.520	15398
776.627	15281
776.733	15190
776.840	13763
776.946	16136
777.053	14836
777.159	13248
777.266	13048
777.372	13675
777.478	13468
777.585	12807
777.691	13010
777.798	13186
777.904	13087
778.010	12987
778.117	12712
778.223	12069
778.329	11764
778.435	11577
778.542	12244
778.648	11066
778.754	10569
778.860	10797
778.966	11836
779.072	10747
779.178	11636
779.284	10638
779.391	11419
779.497	13102
779.603	17245
779.708	22914
779.815	47483
779.920	146218
780.026	260226
780.132	67115
780.238	19889
780.344	14872
780.450	13349
780.556	10257
780.661	9848
780.767	8890
780.873	9014
780.979	9003
781.085	8643
781.190	8576
781.296	9101
781.402	8503
781.507	8594
781.613	8193
781.719	7561
781.824	8039
781.930	9110
782.035	7872
782.141	7906
782.246	6782
782.352	8027
782.457	7851
782.563	7186
782.668	7177
782.773	6817
782.879	6741
782.984	8457
783.090	8278
783.195	8038
783.300	7536
783.405	7112
783.511	6401
783.616	7043
783.721	6279
783.826	6859
783.932	7111
784.037	6811
784.142	5972
784.247	6806
784.352	7012
784.457	6388
784.562	5855
784.667	7232
784.772	5872
784.877	6489
784.982	5671
785.087	6245
785.192	6688
785.297	5591
785.402	5632
785.507	5512
785.611	5404
785.716	6307
785.821	5382
785.926	5212
786.031	5354
786.135	5629
786.240	5671
786.345	5027
786.450	5492
786.554	5092
786.659	4730
786.763	4769
786.868	5046
786.973	5981
787.077	4329
787.182	5411
787.286	4992
787.391	5192
787.495	4444
787.600	5241
787.704	4278
787.809	4955
787.913	4822
788.017	5258
788.122	5271
788.226	5155
788.330	4434
788.435	4054
788.539	4970
788.643	4738
788.747	4514
788.852	4998
788.956	4020
789.060	5582
789.164	4125
789.268	3894
789.372	5093
789.476	4164
789.580	4494
789.684	4266
789.788	5078
789.892	3656
789.996	5049
790.100	4466
790.204	3684
790.308	5343
790.412	3833
790.516	4504
790.620	4433
790.724	4478
790.828	4754
790.931	4991
791.035	5447
791.139	4901
791.242	3603
791.346	4635
791.450	3584
791.554	3777
791.657	3012
791.761	4506
791.864	3815
791.968	3832
792.072	4199
792.175	4255
792.279	4424
792.382	4045
792.486	4605
792.589	3661
792.693	4290
792.796	3231
792.899	3803
793.003	4826
793.106	3111
793.209	3579
793.313	3586
793.416	2872
793.519	4231
793.623	4295
793.726	4796
793.829	4263
793.932	3284
794.035	2975
794.138	5035
794.242	5155
794.345	6146
794.448	11055
794.551	23217
794.654	81177
794.757	167049
794.860	39480
794.963	8490
795.066	6129
795.169	5251
795.272	3785
795.375	4267
795.477	4447
795.580	3669
795.683	3620
795.786	3545
795.889	3120
795.991	4487
796.094	4211
796.197	1924
796.300	4372
796.402	2987
796.505	3114
796.608	2756
796.710	3843
796.813	3213
796.915	4072
797.018	2969
797.120	3026
797.223	2102
797.326	3561
797.428	2822
797.530	2690
797.633	2141
797.735	4153
797.838	2399
797.940	4118
798.042	2477
798.145	3358
798.247	3414
798.349	2363
798.452	3355
798.554	3184
798.656	1335
798.758	3169
798.860	2719
798.962	1827
799.065	2434
799.167	2427
799.269	3307
799.371	4064
799.473	2519
799.575	1811
799.677	1813
799.779	3815
799.881	1659
799.983	3044
800.085	2076
800.187	2782
800.289	2777
800.390	3100
800.492	2729
800.594	3229
800.696	1556
800.798	3125
800.899	1741
801.001	2965
801.103	2052
801.205	2447
801.306	2312
801.408	2077
801.509	2125
801.611	2977
801.713	2959
801.814	2061
801.916	2158
802.017	2699
802.119	2021
802.220	2714
802.322	1106
802.423	4120
802.525	1756
802.626	2379
802.727	1760
802.829	2903
802.930	337
803.031	3483
803.133	3045
803.234	2706
803.335	2220
803.436	1511
803.538	1640
803.639	1794
803.740	2833
803.841	1634
803.942	2165
804.043	2989
804.144	1086
804.245	1891
804.346	955
804.447	2167
804.548	2332
804.649	2952
804.750	1203
804.851	1558
804.952	1067
805.053	2254
805.154	967
805.255	2614
805.355	1931
805.456	1822
805.557	1314
805.658	1803
805.758	2025
805.859	2371
805.960	1935
806.061	2133
806.161	1354
806.262	2617
806.362	1441
806.463	1571
806.564	2593
806.664	1566
806.765	1720
806.865	1638
806.966	1953
807.066	1969
807.166	2078
807.267	2920
807.367	862
807.468	2610
807.568	946
807.668	2132
807.769	1621
807.869	2101
807.969	1382
808.069	2652
808.170	1809
808.270	2087
808.370	1460
808.470	1781
808.570	1209
808.670	2198
808.770	1131
808.870	2292
808.970	2118
809.070	1372
809.170	570
809.271	2280
809.370	631
809.470	1774
809.570	908
809.670	1163
809.770	1791
809.870	2213
809.970	1120
810.070	1516
810.169	1795
810.269	286
810.369	2697
810.469	2020
810.568	671
810.668	1993
810.768	1585
810.867	1857
810.967	961
811.066	1510
811.166	1563
811.265	2120
811.365	673
811.464	1459
811.564	1832
811.663	1441
811.763	655
811.862	1971
811.962	1530
812.061	1552
812.160	1090
812.260	1650
812.359	1853
812.458	1953
812.557	4822
812.657	5942
812.756	2948
812.855	1987
812.954	1440
813.053	2073
813.153	1483
813.252	1464
813.351	1445
813.450	958
813.549	1068
813.648	2197
813.747	1299
813.846	2013
813.945	1051
814.044	1932
814.143	1174
814.242	2106
814.341	-86
814.439	1309
814.538	1862
814.637	1052
814.736	907
814.835	1662
814.933	502
815.032	1848
815.131	1309
815.229	1642
815.328	2221
815.427	963
815.525	2547
815.624	1960
815.722	609
815.821	1601
815.919	1234
816.018	1778
816.116	1599
816.215	1032
816.313	1374
816.412	1530
816.510	1919
816.609	3022
816.707	2343
816.805	2213
816.904	1631
817.002	1657
817.100	2261
817.198	2116
817.296	1236
817.395	2383
817.493	2504
817.591	1489
817.689	1570
817.787	1312
817.885	1517
817.983	2993
818.081	4371
818.179	11780
818.277	30781
818.375	31763
818.473	8603
818.571	4202
818.669	2412
818.767	3155
818.865	2054
818.963	3651
819.061	2606
819.158	5127
819.256	10985
819.354	23992
819.452	60380
819.549	46411
819.647	12233
819.745	4070
819.842	3766
819.940	2831
820.038	1015
820.135	2638
820.233	2584
820.330	1640
820.428	1301
820.525	3043
820.623	1440
820.720	596
820.818	1864
820.915	2907
821.012	1429
821.110	1320
821.207	2236
821.304	1364
821.402	1357
821.499	1445
821.596	1336
821.693	1311
821.791	2328
821.888	989
821.985	1406
822.082	1707
822.179	1562
822.276	913
822.373	1548
822.470	2018
822.567	1662
822.664	452
822.761	1837
822.858	824
822.955	1658
823.052	1050
823.149	542
823.246	1243
823.343	554
823.440	2118
823.536	228
823.633	870
823.730	555
823.827	1409
823.923	1376
824.020	2298
824.117	1662
824.213	692
824.310	1714
824.407	1020
824.503	1440
824.600	1723
824.696	852
824.793	1449
824.889	1532
824.986	1435
825.082	725
825.179	1846
825.275	1331
825.371	450
825.468	1477
825.564	775
825.660	1144
825.757	901
825.853	480
825.949	352
826.045	1327
826.142	1286
826.238	560
826.334	1591
826.430	95
826.526	1703
826.622	757
826.718	926
826.814	-9
826.910	1506
827.006	74
827.102	572
827.198	1101
827.294	1331
827.390	781
827.486	2216
827.582	16
827.678	-151
827.774	1063
827.869	-1085
827.965	1300
828.061	395
828.157	537
828.252	765
828.348	-127
828.444	1047
828.539	196
828.635	636
828.731	721
828.826	-52
828.922	1687
829.017	102
829.113	1237
829.208	402
829.304	150
829.399	2152
829.495	-202
829.590	1652
829.685	-64
829.781	1975
829.876	922
829.971	630
830.066	6
830.162	-21
830.257	537
830.352	642
830.447	2229
830.543	643
830.638	-602
830.733	1476
830.828	69
830.923	2215
831.018	916
831.113	1062
831.208	-340
831.303	742
831.398	993
831.493	172
831.588	305
831.683	-17
831.778	833
831.873	1282
831.967	1467
832.062	559
832.157	-352
832.252	1734
832.346	694
832.441	1549
832.536	537
832.631	1953
832.725	2325
832.820	738
832.914	-417
833.009	-56
833.104	837
833.198	1370
833.293	602
833.387	465
833.482	500
833.576	441
833.670	928
833.765	595
833.859	-208
833.954	830
834.048	861
834.142	769
834.237	-191
834.331	572
834.425	724
834.519	208
834.613	1760
834.708	128
834.802	235
834.896	1148
834.990	171
835.084	538
835.178	422
835.272	556
835.366	-153
835.460	1391
835.554	245
835.648	306
835.742	380
835.836	632
835.930	-314
836.024	177
836.117	869
836.211	414
836.305	1180
836.399	1514
836.493	-96
836.586	634
836.680	183
836.774	77
836.867	1430
836.961	333
837.055	164
837.148	-132
837.242	-337
837.335	-74
837.429	1110
837.522	-224
837.616	502
837.709	1718
837.803	1324
837.896	978
837.989	331
838.083	724
838.176	992
838.269	1345
838.363	602
838.456	232
838.549	629
838.642	1417
838.735	2256
838.829	2174
838.922	-87
839.015	329
839.108	14
839.201	549
839.294	871
839.387	1167
839.480	-511
839.573	350
839.666	451
839.759	765
839.852	269
839.945	313
840.038	-204
840.131	831
840.223	93
840.316	1313
840.409	563
840.502	-551
840.594	1093
840.687	346
840.780	475
840.873	-336
840.965	447
841.058	716
841.150	729
841.243	661
841.336	1269
841.428	1078
841.521	-407
841.613	-64
841.706	513
841.798	577
841.890	644
841.983	257
842.075	276
842.167	211
842.260	613
842.352	1430
842.444	467
842.537	1123
842.629	2845
842.721	326
842.813	313
842.905	-212
842.997	678
843.090	1142
843.182	1054
843.274	1853
843.366	4018
843.458	5992
843.550	4121
843.642	510
843.734	456
843.826	1445
843.918	179
844.009	933
844.101	-310
844.193	962
844.285	137
844.377	863
844.469	1099
844.560	957
844.652	0
844.744	716
844.835	669
844.927	1440
845.019	447
845.110	944
845.202	397
845.293	1124
845.385	-491
845.476	945
845.568	1449
845.659	895
845.751	607
845.842	451
845.934	274
846.025	616
846.116	766
846.208	572
846.299	-459
846.390	1090
846.482	238
846.573	623
846.664	988
846.755	392
846.846	905
846.937	-415
847.029	488
847.120	682
847.211	314
847.302	868
847.393	54
847.484	455
847.575	642
847.666	605
847.757	271
847.847	489
847.938	1102
848.029	-164
848.120	-516
848.211	605
848.302	330
848.392	301
848.483	549
848.574	-543
848.664	91
848.755	899
848.846	203
848.936	578
849.027	181
849.118	166
849.208	-260
849.299	97
849.389	217
849.480	1430
849.570	1181
849.661	2398
849.751	4117
849.841	1342
849.932	210
850.022	34
850.112	664
850.203	310
850.293	-261
850.383	244
850.474	-999
850.564	698
850.654	823
850.744	533
850.834	-345
850.924	114
851.014	17
851.104	316
851.194	-175
851.284	1001
851.374	514
851.464	363
851.554	549
851.644	1266
851.734	724
851.824	2224
851.914	2021
852.004	6590
852.094	6445
852.183	1443
852.273	-178
852.363	567
852.452	84
852.542	1124
852.632	494
852.721	493
852.811	-620
852.901	1132
852.990	-403
853.080	1028
853.169	-1102
853.259	-181
853.348	225
853.438	861
853.527	-295
853.617	545
853.706	988
853.795	2328
853.885	4676
853.974	8903
854.063	14964
854.152	26399
854.242	10965
854.331	1549
854.420	734
854.509	413
854.598	234
854.687	402
854.777	183
854.866	-19
854.955	-643
855.044	-161
855.133	-575
855.222	-739
855.311	-606
855.400	86
855.488	189
855.577	479
855.666	330
855.755	1404
855.844	812
855.933	738
856.021	747
856.110	554
856.199	573
856.288	-556
856.376	-282
856.465	-61
856.554	0
856.642	-317
856.731	-529
856.819	310
856.908	62
856.996	-333
857.085	-381
857.173	537
857.262	0
857.350	372
857.438	705
857.527	728
857.615	-127
857.703	456
857.792	-516
857.880	-815
857.968	-94
858.056	221
858.145	254
858.233	156
858.321	-147
858.409	867
858.497	-371
858.585	-266
858.673	-365
858.761	405
858.849	-58
858.937	-639
859.025	72
859.113	726
859.201	-760
859.289	536
859.377	173
859.465	-281
859.552	-346
859.640	-246
859.728	-103
859.816	-269
859.903	-451
859.991	-64
860.079	-536
860.166	571
860.254	61
860.342	-106
860.429	-348
860.517	-58
860.604	231
860.692	-235
860.779	111
860.867	-229
860.954	-486
861.042	-117
861.129	-140
861.216	-233
861.304	-784
861.391	-1286
861.478	-97
861.565	-190
861.653	275
861.740	-210
861.827	240
861.914	518
862.001	-312
862.089	247
862.176	-566
862.263	545
862.350	-300
862.437	-634
862.524	-358
862.611	22
862.698	-96
862.785	631
862.871	-498
862.958	-453
863.045	-52
863.132	518
863.219	-114
863.306	-549
863.392	411
863.479	-493
863.566	-706
863.652	-336
863.739	-199
863.826	760
863.912	-201
863.999	40
864.086	77
864.172	-6
864.259	-604
864.345	-67
864.432	-16
864.518	-341
864.604	-415
864.691	-134
864.777	-223
864.863	100
864.950	518
865.036	-247
865.122	74
865.209	924
865.295	582
865.381	1214
865.467	858
865.553	758
865.639	497
865.726	1375
865.812	1276
865.898	4472
865.984	5124
866.070	10748
866.156	14015
866.242	3949
866.328	1903
866.414	1006
866.499	-799
866.585	91
866.671	-335
866.757	230
866.843	193
866.928	-249
867.014	297
867.100	717
867.186	232
867.271	465
867.357	657
867.442	777
867.528	460
867.614	484
867.699	253
867.785	194
867.870	558
867.956	1
868.041	750
868.127	554
868.212	10
868.297	-2
868.383	95
868.468	657
868.553	738
868.639	420
868.724	951
868.809	1909
868.894	1040
868.979	-69
869.065	128
869.150	-385
869.235	-177
869.320	330
869.405	-464
869.490	-492
869.575	-791
869.660	521
869.745	147
869.830	-1015
869.915	-869
870.000	-49
870.085	376
870.169	-293
870.254	-136
870.339	-416
870.424	-431
870.509	-128
870.593	227
870.678	108
870.763	-703
870.847	-425
870.932	-674
871.016	494
871.101	-713
871.186	47
871.270	-112
871.355	84
871.439	-386
871.523	96
871.608	-908
871.692	-213
871.777	563
871.861	409
871.945	-222
872.030	-485
872.114	-842
872.198	117
872.282	47
872.367	-529
872.451	-358
872.535	388
872.619	194
872.703	-127
872.787	-549
872.871	486
872.955	-631
873.039	-450
873.123	-221
873.207	946
873.291	-306
873.375	-247
873.459	-423
873.543	-234
873.627	-166
873.711	-14
873.794	-392
873.878	-25
873.962	-1060
874.045	-198
874.129	-211
874.137	-170
874.213	242
874.245	65
874.296	-224
874.352	-86
874.380	-16
874.460	-151
874.464	-157
874.547	134
874.568	40
874.631	-239
874.676	-219
874.714	-208
874.784	-109
874.798	-82
874.881	1296
874.892	1065
874.965	-578
874.999	-153
875.048	469
875.107	-169
875.131	-444
875.215	-505
875.215	-504
875.298	-298
875.323	-387
875.381	-602
875.430	-494
875.465	-385
875.538	-144
875.548	-118
875.631	-1299
875.646	-1122
875.714	-323
875.753	-529
875.798	-759
875.861	-575
875.881	-491
875.964	-487
875.968	-438
876.047	382
876.076	125
876.130	-356
876.183	-245
876.213	-194
876.291	24
876.296	33
876.379	167
876.398	79
876.462	-77
876.506	45
876.545	95
876.613	-712
876.628	-881
876.711	-196
876.721	-213
876.794	-303
876.828	-299
876.877	-306
876.935	-203
876.960	-131
877.043	-136
877.043	-136
877.125	-103
877.150	-94
877.208	-94
877.258	-3
877.291	104
877.365	-159
877.374	-190
877.456	-58
877.472	-49
877.539	-101
877.579	-45
877.622	20
877.687	-172
877.704	-231
877.787	-391
877.794	-389
877.869	-255
877.901	-93
877.952	92
878.008	-94
878.034	-132
878.115	-801
878.117	-814
878.199	-425
878.222	-288
878.282	15
878.329	-34
878.364	-111
878.437	158
878.447	190
878.529	-1091
878.544	-1154
878.611	-1207
878.651	-659
878.694	-137
878.758	-485
878.776	-591
878.858	-286
878.865	-306
878.941	-459
878.972	-344
879.023	-303
879.078	-529
879.105	-530
879.185	-86
879.187	-78
879.269	-107
879.292	-10
879.351	101
879.399	-404
879.433	-721
879.506	-275
879.516	-190
879.598	-398
879.613	-288
879.680	7
879.720	154
879.762	257
879.827	-299
879.844	-486
879.926	-1121
879.933	-1073
880.007	-188
880.040	-296
880.089	-549
880.147	-506
880.171	-456
880.253	-377
880.254	-375
880.335	-171
880.360	-195
880.417	228
880.467	1017
880.499	1344
880.574	979
880.580	930
880.662	663
880.680	470
880.744	-346
880.787	-654
880.825	-748
880.893	-739
880.907	-763
880.989	-230
881.000	-279
881.070	-515
881.106	-541
881.152	-247
881.213	-162
881.233	-377
881.315	-705
881.319	-724
881.396	-580
881.426	-486
881.478	-395
881.532	-464
881.559	-440
881.639	-108
881.641	-105
881.722	-287
881.745	-387
881.803	-408
881.852	-386
881.885	-467
881.958	-262
881.966	-264
882.047	-478
882.064	-605
882.129	-510
882.171	-188
882.210	-220
882.277	-234
882.291	-125
882.372	-57
882.383	13
882.454	-169
882.489	-359
882.535	-327
882.596	-349
882.616	-436
882.697	-348
882.702	-360
882.778	-377
882.808	-502
882.859	-621
882.914	-423
882.940	-302
883.020	-301
883.021	-303
883.102	-127
883.127	-249
883.183	-494
883.233	-407
883.264	-313
883.339	-552
883.345	-572
883.426	-775
883.445	-710
883.507	-486
883.551	-337
883.587	-88
883.657	-81
883.668	-106
883.749	-17
883.763	-9
883.830	18
883.869	197
883.910	124
883.975	-585
883.991	-656
884.072	-259
884.081	-271
884.152	-221
884.187	-162
884.233	-445
884.292	-701
884.314	-499
884.394	150
884.398	180
884.475	-127
884.504	-248
884.555	-419
884.610	-112
884.636	72
884.716	-648
884.716	-650
884.797	-293
884.821	-229
884.877	-231
884.927	-353
884.958	-396
885.033	-203
885.038	-202
885.118	-683
885.139	-673
885.199	-442
885.244	-302
885.279	-204
885.350	-196
885.359	-146
885.439	362
885.456	420
885.520	15
885.561	-47
885.600	-9
885.667	83
885.680	103
885.760	-317
885.773	-260
885.840	119
885.878	-83
885.920	-241
885.984	31
886.000	7
886.080	-392
886.089	-424
886.160	-632
886.195	-834
886.240	-803
886.300	-554
886.320	-556
886.400	-772
886.406	-760
886.480	-465
886.511	-492
886.560	-277
886.616	9
886.640	-77
886.720	-338
886.722	-345
886.800	-547
886.827	-594
886.879	-481
886.932	-469
886.959	-403
887.038	-218
887.039	-223
887.119	-749
887.143	-904
887.198	-441
887.248	-46
887.278	-92
887.354	-199
887.358	-173
887.437	271
887.459	393
887.517	125
887.564	22
887.596	202
887.669	367
887.676	267
887.755	-793
887.774	-1093
887.835	-626
887.880	-178
887.914	-340
887.985	-852
887.994	-797
888.073	-93
888.090	22
888.153	-428
888.195	-693
888.232	-701
888.300	-762
888.311	-750
888.391	-571
888.405	-543
888.470	-284
888.510	-139
888.549	-195
888.615	-248
888.628	-270
888.708	-431
888.720	-453
888.787	-487
888.825	-496
888.866	-195
888.930	244
888.945	98
889.024	-613
889.035	-709
889.103	-507
889.140	-401
889.182	-392
889.245	-378
889.261	-361
889.340	-249
889.349	-236
889.419	-190
889.454	-160
889.498	-248
889.559	-375
889.577	-463
889.656	-817
889.664	-846
889.735	189
889.768	683
889.814	230
889.873	-367
889.978	-290
890.083	-144
890.187	15
890.292	-782
890.397	-528
890.501	-687
890.606	-444
890.710	-191
890.815	-687
890.919	-766
891.024	117
891.128	-52
891.233	-647
891.337	85
891.442	-786
891.546	270
891.650	-450
891.755	-166
891.859	705
891.963	-352
892.068	-280
892.172	-825
892.276	-154
892.380	265
892.484	369
892.589	-36
892.693	383
892.797	-248
892.901	-579
893.005	-563
893.109	-81
893.213	-314
893.317	-275
893.421	-323
893.525	-1102
893.629	484
893.733	553
893.837	-33
893.941	-4
894.045	616
894.148	-1060
894.252	840
894.356	861
894.460	276
894.564	-443
894.667	-455
894.771	-319
894.875	-240
894.978	-95
895.082	-611
895.186	-722
895.289	490
895.393	-860
895.496	-123
895.600	-761
895.703	-504
895.807	-227
895.910	-633
896.014	-791
896.117	-355
896.221	39
896.324	257
896.427	452
896.531	-538
896.634	-686
896.737	-356
896.840	-152
896.944	62
897.047	-448
897.150	787
897.253	-983
897.356	102
897.460	273
897.563	-647
897.666	270
897.769	-949
897.872	238
897.975	-470
898.078	-157
898.181	-600
898.284	-512
898.387	-518
898.490	-149
898.593	-198
898.695	-86
898.798	-483
898.901	-408
899.004	58
899.107	-941
899.209	-160
899.312	-415
899.415	-629
899.518	-124
899.620	-518
899.723	-77
899.826	-26
899.928	109
900.031	-1116
900.133	134
900.236	-812
900.338	663
900.441	-386
900.543	-575
900.646	-283
900.748	-168
900.851	-292
900.953	-353
901.055	-818
901.158	-171
901.260	-1130
901.362	369
901.465	-720
901.567	-656
901.669	-510
901.771	307
901.873	-289
901.976	-65
902.078	-228
902.180	-542
902.282	-899
902.384	-255
902.486	-763
902.588	-340
902.690	-212
902.792	-140
902.894	-56
902.996	-827
903.098	171
903.200	-49
903.302	-192
903.404	-446
903.505	-629
903.607	-306
903.709	357
903.811	-145
903.913	121
904.014	112
904.116	-565
904.218	-230
904.319	17
904.421	2
904.523	-802
904.624	-152
904.726	-225
904.827	-482
904.929	-867
905.030	-1010
905.132	-316
905.233	254
905.335	-1023
905.436	124
905.537	-391
905.639	-358
905.740	-996
905.841	211
905.943	373
906.044	-475
906.145	-347
906.247	-168
906.348	-222
906.449	494
906.550	-323
906.651	110
906.752	-410
906.854	-214
906.955	-343
907.056	-1001
907.157	-263
907.258	-604
907.359	-374
907.460	-326
907.561	-313
907.662	-687
907.762	-1001
907.863	222
907.964	-636
908.065	269
908.166	-681
908.267	124
908.367	-56
908.468	-1078
908.569	-325
908.670	-1034
908.770	-163
908.871	-91
908.971	-188
909.072	-734
909.173	-501
909.273	-480
909.374	-305
909.474	542
909.575	-157
909.675	-630
909.776	-467
909.876	-286
909.977	-657
910.077	60
910.177	-763
910.278	477
910.378	-109
910.478	-993
910.579	-85
910.679	-726
910.779	-365
910.879	-699
910.980	-197
911.080	-587
911.180	-1254
911.280	-304
911.380	-640
911.480	-409
911.580	-995
911.680	-168
911.780	-287
911.880	-540
911.980	-1243
912.080	-1496
912.180	447
912.280	-588
912.380	-243
912.480	-575
912.580	-265
912.679	-1105
912.779	0
912.879	-728
912.979	-116
913.078	-1069
913.178	-813
913.278	117
913.377	-349
913.477	-1264
913.577	-43
913.676	-322
913.776	-277
913.875	-401
913.975	-162
914.074	-154
914.174	-871
914.273	-1148
914.373	499
914.472	-334
914.572	-691
914.671	-169
914.770	-609
914.870	-487
914.969	-607
915.068	-1148
915.167	-713
915.267	198
915.366	-1021
915.465	-474
915.564	-532
915.663	-384
915.763	-1398
915.862	-384
915.961	-1601
916.060	-475
916.159	-386
916.258	-594
916.357	234
916.456	229
916.555	-447
916.654	-758
916.752	-993
916.851	-893
916.950	-635
917.049	-787
917.148	-664
917.247	-698
917.345	-1238
917.444	-356
917.543	-957
917.642	-298
917.740	-582
917.839	-602
917.937	-906
918.036	-565
918.135	-1027
918.233	-746
918.332	-1752
918.430	-1258
918.529	-553
918.627	-196
918.726	-1065
918.824	-297
918.923	-854
919.021	-565
919.119	-1125
919.218	-333
919.316	-503
919.414	-876
919.512	-885
919.611	-1091
919.709	-709
919.807	-1033
919.905	-490
920.003	-1182
920.102	-1074
920.200	38
920.298	-871
920.396	-245
920.494	-831
920.592	-968
920.690	-225
920.788	-709
920.886	-1071
920.984	27
921.082	-1830
921.180	89
921.277	-678
921.375	-1080
921.473	-338
921.571	-996
921.669	-1068
921.766	-1153
921.864	85
921.962	-369
922.060	-957
922.157	-596
922.255	-681
922.352	-429
922.450	-207
922.548	-780
922.645	-1121
922.743	-734
922.840	-310
922.938	-399
923.035	-869
923.133	-911
923.230	-779
923.327	-259
923.425	355
923.522	-513
923.619	-75
923.717	-839
923.814	-426
923.911	-358
924.008	157
924.106	-720
924.203	-1186
924.300	-452
924.397	-928
924.494	115
924.591	-1205
924.688	-958
924.786	-1302
924.883	-740
924.979	152
925.077	-483
925.173	-731
925.270	-898
925.367	-584
925.464	-1029
925.561	-650
925.658	-829
925.755	-466
925.852	-561
925.948	-647
926.045	-734
926.142	-976
926.239	-969
926.335	-1262
926.432	-436
926.529	-1158
926.625	-132
926.722	-1163
926.818	-319
926.915	-463
927.011	-728
927.108	-522
927.204	-560
927.301	-375
927.397	-451
927.494	-693
927.590	-743
927.687	-522
927.783	-478
927.879	-1421
927.976	190
928.072	40
928.168	-1441
928.264	-203
928.361	-1443
928.457	-888
928.553	-77
928.649	-1033
928.745	-721
928.841	-37
928.937	-348
929.033	-823
929.129	-702
929.225	-1503
929.321	-1106
929.417	-667
929.513	-972
929.609	-1511
929.705	-635
929.801	-813
929.897	-1492
929.993	-1098
930.089	5
930.184	-788
930.280	-1209
930.376	-91
930.471	-1566
930.567	-1585
930.663	-541
930.758	-1186
930.854	-454
930.950	-344
931.045	-784
931.141	-434
931.236	-702
931.332	-559
931.427	-370
931.523	-1063
931.618	-172
931.714	-1107
931.809	-753
931.905	-767
932.000	-1268
932.095	-1139
932.191	-1005
932.286	-1126
932.381	-1046
932.476	-1100
932.572	-1743
932.667	-636
932.762	-997
932.857	-104
932.952	-1186
933.047	-449
933.142	-1625
933.237	-1356
933.332	-1633
933.427	-847
933.522	-753
933.617	-345
933.712	-698
933.807	-1651
933.902	-993
933.997	-887
934.092	-444
934.187	-1532
934.282	-721
934.376	-1106
934.471	-84
934.566	-279
934.661	-838
934.755	-1270
934.850	-1866
934.945	-459
935.039	-1249
935.134	-988
935.228	-542
935.323	-1414
935.417	-1123
935.512	-1284
935.606	-1174
935.701	-1186
935.795	-1098
935.890	-102
935.984	-607
936.079	-1303
936.173	-756
936.267	-1679
936.362	-1273
936.456	-682
936.550	119
936.644	-504
936.738	-1293
936.833	-1160
936.927	-488
937.021	-1275
937.115	-518
937.209	-2056
937.303	-556
937.397	-1075
937.491	-1516
937.585	-296
937.679	-1075
937.773	-1559
937.867	-921
937.961	-796
938.055	-1376
938.149	-847
938.243	-1289
938.337	-940
938.430	-955
938.524	-1422
938.618	-1097
938.712	-1101
938.805	-810
938.899	-1351
938.993	-623
939.086	-1216
939.180	-1675
939.274	-238
939.367	-1170
939.461	-1705
939.554	-1175
939.648	-916
939.741	-1219
939.835	-671
939.928	-1324
940.022	-929
940.115	-1002
940.208	-1278
940.302	-986
940.395	-1232
940.488	-1749
940.582	133
940.675	-834
940.768	-650
940.861	-1421
940.954	-500
941.048	-1357
941.141	-934
941.234	-1733
941.327	-1113
941.420	-809
941.513	-1062
941.606	-2360
941.699	-706
941.792	-2087
941.885	-1644
941.978	-1105
942.071	-1468
942.164	-1180
942.257	-634
942.349	-444
942.442	-1856
942.535	-1656
942.628	-765
942.721	-579
942.813	-2371
942.906	-91
942.999	-1292
943.091	-1478
943.184	-489
943.277	-642
943.369	-1098
943.462	-1848
943.554	-661
943.647	-2146
943.739	-389
943.832	-1422
943.924	-1538
944.017	-928
944.109	-2483
944.201	-891
944.294	-1461
944.386	-2143
944.478	-1204
944.571	-1019
944.663	-1755
944.755	-750
944.847	-2045
944.940	-1105
945.032	-1499
945.124	-1132
945.216	-980
945.308	-1549
945.400	-1348
945.492	-956
945.584	-1733
945.676	-1207
945.768	-1571
945.860	-300
945.952	-1256
946.044	-802
946.136	-1253
946.228	-1216
946.320	-1567
946.412	-1591
946.503	-1963
946.595	-393
946.687	-1158
946.779	-853
946.870	-1628
946.962	-1401
947.054	-519
947.145	-664
947.237	-921
947.329	-531
947.420	-1872
947.512	-885
947.603	-1436
947.695	-1336
947.786	-1875
947.878	-1578
947.969	-1631
948.061	-2208
948.152	-1141
948.243	-1575
948.335	-1317
948.426	-1167
948.517	-1687
948.609	-539
948.700	-1489
948.791	-2099
948.882	-1273
948.973	-1542
949.065	-1536
949.156	-485
949.247	-1716
949.338	-1315
949.429	-1418
949.520	-1941
949.611	-1649
949.702	-565
949.793	-1064
949.884	-877
949.975	-1159
950.066	-1462
950.157	-1389
950.247	-711
950.338	-763
950.429	-2297
950.520	-1156
950.611	-1719
950.701	-580
950.792	-469
950.883	-1142
950.973	-1194
951.064	-879
951.155	-1541
951.245	-1236
951.336	-1994
951.427	-2041
951.517	-620
951.608	-1220
951.698	-1256
951.788	-2271
951.879	-1467
951.969	-1970
952.060	-1199
952.150	-1508
952.240	-295
952.331	-2211
952.421	-919
952.511	-1719
952.602	-1487
952.692	-1271
952.782	-1304
952.872	-1917
952.962	-1381
953.052	-1970
953.143	-2362
953.233	-1054
953.323	-1142
953.413	-1982
953.503	-967
953.593	-808
953.683	-1406
953.773	-1387
953.863	-924
953.953	-552
954.042	-1567
954.132	-1705
954.222	-1280
954.312	-1730
954.402	-1182
954.492	-778
954.581	-1265
954.671	-1680
954.761	-1354
954.850	-174
954.940	-1509
955.030	-1898
955.119	-1716
955.209	-1187
955.298	-1587
955.388	-1378
955.477	-690
955.567	-1538
955.656	-487
955.746	-1098
955.835	-1115
955.925	-1392
956.014	-1239
956.103	-1681
956.193	-603
956.282	-625
956.371	-412
956.461	-1426
956.550	-1032
956.639	-1186
956.728	-1887
956.817	-777
956.906	-1402
956.995	-1616
957.085	-1449
957.174	-764
957.263	-1140
957.352	-1650
957.441	-1868
957.530	-1569
957.619	-2212
957.708	-2380
957.796	-2204
957.885	-1069
957.974	-1188
958.063	-474
958.152	-1694
958.241	-1176
958.329	-700
958.418	-1521
958.507	-990
958.596	-404
958.684	-2002
958.773	-705
958.861	-1609
958.950	-1321
959.039	-1411
959.127	-790
959.216	-755
959.304	-1377
959.393	-1253
959.481	-1475
959.570	-481
959.658	-1538
959.746	-1354
959.835	-1247
959.923	-1379
960.011	-1802
960.100	-362
960.188	-430
960.276	-1259
960.365	-1103
960.453	-1177
960.541	-1404
960.629	-974
960.717	-1627
960.805	-1148
960.893	-1039
960.981	-2677
961.069	-1653
961.158	-1581
961.245	-1896
961.333	-1534
961.421	-2208
961.509	-1103
961.597	-1691
961.685	-1282
961.773	-1486
961.861	-1760
961.949	-1454
962.036	-1812
962.124	-319
962.212	-1262
962.299	-2157
962.387	-1398
962.475	-1119
962.562	-2828
962.650	-1240
962.738	-653
962.825	-1561
962.913	-1539
963.000	-1947
963.088	-1269
963.175	-2157
963.263	-1396
963.350	-1523
963.438	-1696
963.525	-1369
963.612	-821
963.700	-1221
963.787	116
963.874	-662
963.962	-1605
964.049	-887
964.136	-2019
964.223	-1415
964.310	-1936
964.398	-641
964.485	-1612
964.572	-1242
964.659	-1027
964.746	-665
964.833	-1920
964.920	-1028
965.007	-1335
965.094	-1268
965.181	-2028
965.268	-1306
965.355	-1130
965.441	-1329
965.528	-1455
965.615	-493
965.702	-1134
965.789	-2265
965.875	-1031
965.962	-1631
966.049	-1710
966.136	-820
966.222	-1756
966.309	-1400
966.395	-1830
966.482	-922
966.569	-1733
966.655	-1971
966.742	-761
966.828	-1267
966.915	-1005
967.001	-1302
967.087	-1865
967.174	-1707
967.260	-1551
967.347	-1647
967.433	-1322
967.519	-1109
967.605	-1862
967.692	-1622
967.778	-1593
967.864	-815
967.950	-1656
968.036	-1339
968.123	-1136
968.209	-1992
968.295	-1989
968.381	-196
968.467	-1230
968.553	-2183
968.639	-792
968.725	-1902
968.811	-1091
968.897	-1469
968.983	-1117
969.069	-2314
969.154	-894
969.240	-622
969.326	-1680
969.412	-1382
969.497	-2154
969.583	-2152
969.669	-739
969.755	-1897
969.840	-2191
969.926	-1714
970.012	-1326
970.097	-908
970.183	-2069
970.268	-1598
970.354	-1561
970.439	-1540
970.525	253
970.610	-1980
970.696	-1079
970.781	-1081
970.866	-1666
970.952	-1045
971.037	-2290
971.122	-1263
971.208	-1309
971.293	-808
971.378	-1669
971.463	-1446
971.549	-836
971.634	-1005
971.719	-1194
971.804	-1751
971.889	-834
971.974	-1629
972.059	-1830
972.144	-1422
972.229	-1834
972.314	-2077
972.399	-1658
972.484	-1213
972.569	-1254
972.654	-2538
972.739	-53
972.824	-2056
972.908	-748
972.993	-1335
973.078	-1057
973.163	-2000
973.247	-1869
973.332	-2307
973.417	-193
973.501	-2000
973.586	-619
973.671	-1423
973.755	-2154
973.840	-1093
973.924	-326
974.009	-1696
974.093	-1442
974.178	-65
974.262	-1103
974.346	-1661
974.431	-1258
974.515	-2290
974.600	-1379
974.684	-1842
974.768	-697
974.852	-1128
974.937	-1234
975.021	-946
975.105	-1639
975.189	-1814
975.273	-448
975.358	-2159
975.442	-1791
975.526	-1280
975.610	-2117
975.694	-1920
975.778	-656
975.862	-788
975.946	-2680
976.030	-25
976.114	-2074
976.198	-1037
976.281	-1586
976.365	-805
976.449	-2285
976.533	-756
976.617	-1732
976.700	-1253
976.784	-785
976.868	-1461
976.951	-1490
977.035	-1232
977.119	-1879
977.202	-1408
977.286	-1360
977.369	-1022
977.453	-815
977.536	-1803
977.620	-1711
977.703	-653
977.787	-1509
977.870	-1105
977.953	-65
978.037	-2561
978.120	-930
978.203	-1077
978.287	-1327
978.370	-2030
978.453	-1392
978.536	-624
978.620	-906
978.703	-675
978.786	-1412
978.869	-1357
978.952	-1577
979.035	-652
979.118	-815
979.201	-1105
979.284	-1098
979.367	-2687
979.450	-706
979.533	-2260
979.616	-1359
979.699	-1082
979.782	-645
979.865	-714
979.948	-736
980.030	-2138
980.113	-1045
980.196	-2274
980.279	-2104
980.361	-1291
980.444	-1397
980.526	-1391
980.609	-2255
980.692	-1797
980.774	-407
980.857	-1838
980.939	-323
981.022	-1570
981.104	-1281
981.187	-1926
981.269	-1556
981.352	-1136
981.434	-1883
981.516	-1768
981.599	-484
981.681	-1105
981.763	-875
981.846	-1181
981.928	-1194
982.010	-1730
982.092	-1793
982.174	-20
982.256	-1528
982.339	-929
982.421	-1531
982.503	-816
982.585	-2067
982.667	-1625
982.749	-1587
982.831	-1555
982.913	-1456
982.995	-427
983.077	-1933
983.158	-1467
983.240	-2406
983.322	-792
983.404	-1017
983.486	-1906
983.568	-1058
983.649	-1753
983.731	-1000
983.813	-1305
983.894	-851
983.976	-1770
984.058	-1113
984.139	-666
984.221	-2186
984.302	-644
984.384	-1593
984.465	-2416
984.547	-1424
984.628	-1838
984.710	-1560
984.791	-984
984.872	-613
984.954	-1041
985.035	-740
985.116	-1617
985.198	-2153
985.279	-98
985.360	-611
985.441	-1430
985.522	-1641
985.604	-1463
985.685	-2985
985.766	142
985.847	-559
985.928	-1801
986.009	-1545
986.090	-2049
986.171	-1444
986.252	-2166
986.333	-1271
986.414	-2273
986.495	-687
986.576	-1390
986.656	-1608
986.737	-1077
986.818	-1707
986.899	-2072
986.980	-1753
987.060	-684
987.141	-2475
987.222	-1475
987.302	-1222
987.383	-1728
987.464	-1856
987.544	-1199
987.625	-1585
987.705	-986
987.786	-2256
987.866	-1090
987.947	-1360
988.027	-1651
988.108	-1445
988.188	-1595
988.268	-1396
988.349	-899
988.429	-2000
988.509	-1446
988.589	-1892
988.670	-3354
988.750	-435
988.830	-1239
988.910	-1120
988.990	-1544
989.070	-1723
989.151	-1289
989.231	-1250
989.311	-1799
989.391	-1954
989.471	-1558
989.551	-942
989.631	-2083
989.711	-455
989.791	-2155
989.870	-2500
989.950	-1011
990.030	-1676
990.110	-1086
990.190	-2298
990.269	-1516
990.349	-1906
990.429	-1212
990.509	-120
990.588	-1893
990.668	-1633
990.747	-1991
990.827	-2187
990.907	-2403
990.986	-1839
991.066	-1566
991.145	-1284
991.225	-1828
991.304	-2184
991.383	-1831
991.463	-1986
991.542	-1493
991.622	-2418
991.701	-1652
991.780	-2062
991.859	-1234
991.939	-1260
992.018	-1250
992.097	-1391
992.176	-2042
992.256	-2027
992.335	-2763
992.414	-2218
992.493	-2193
992.572	-1423
992.651	-1186
992.730	-1013
992.809	-1407
992.888	-2636
992.967	-1767
993.046	-1601
993.125	-2439
993.203	-1439
993.282	-1927
993.361	-1798
993.440	-1648
993.519	-2300
993.597	-1390
993.676	-1937
993.755	-1548
993.834	-1388
993.912	-2338
993.991	-952
994.069	-2888
994.148	-1851
994.226	-1896
994.305	-1677
994.384	-2458
994.462	-1095
994.540	-2896
994.619	-2059
994.697	-1480
994.776	-2349
994.854	-1583
994.932	-1921
995.011	-1666
995.089	-1522
995.167	-1671
995.245	-2290
995.324	-1918
995.402	-1626
995.480	-1994
995.558	-1937
995.636	-1941
995.714	-2331
995.792	-930
995.870	-1952
995.948	-2566
996.026	-454
996.104	-2275
996.182	-1088
996.260	-2147
996.338	-1360
996.416	-2981
996.494	-1662
996.572	-1184
996.649	-2504
996.727	-2733
996.805	-2124
996.883	-2488
996.960	-1373
997.038	-1454
997.116	-1882
997.193	-2644
997.271	-1762
997.348	-3283
997.426	-1678
997.504	-2431
997.581	-1188
997.658	-1829
997.736	-3017
997.813	-2387
997.891	-1231
997.968	-2017
998.046	-2492
998.123	-1641
998.200	-1820
998.277	-2584
998.355	-1538
998.432	-1915
998.509	-2151
998.586	-1438
998.663	-1245
998.741	-1960
998.818	-2163
998.895	-2673
998.972	-1825
999.049	-1805
999.126	-2645
999.203	-1487
999.280	-2372
999.357	-2357
999.434	-2661
999.511	-1307
999.587	-1367
999.664	-2720
999.741	-958
999.818	-1220
999.895	-3238
999.971	-2358
1000.048	-2188
1000.125	-921
1000.202	-2582
1000.278	-2144
1000.355	-2693
1000.431	-1287
1000.508	-2564
1000.584	-1792
1000.661	-1610
1000.738	-3194
1000.814	-2315
1000.890	-2566
1000.967	-2516
1001.043	-2400
1001.120	-2069
1001.196	-2539
1001.272	-2505
1001.349	-1807
1001.425	-2278
1001.501	-1733
1001.577	-2309
1001.654	-1038
1001.730	-1883
1001.806	-1895
1001.882	-2691
1001.958	-1338
1002.034	-1079
1002.110	-2379
1002.186	-3179
1002.262	-2107
1002.338	-2568
1002.414	-1682
1002.490	-1702
1002.566	-1660
1002.642	-2293
1002.718	-1795
1002.794	-2460
1002.870	-2129
1002.945	-2060
1003.021	-1932
1003.097	-2900
1003.173	-1436
1003.248	-3311
1003.324	-2192
1003.400	-2089
1003.475	-3054
1003.551	-2118
1003.626	-1657
1003.702	-2109
1003.777	-2556
1003.853	-1852
1003.928	-2478
1004.004	-1876
1004.079	-1359
1004.155	-1780
1004.230	-2880
1004.305	-952
1004.381	-2487
1004.456	-1895
1004.531	-2218
1004.607	-1696
1004.682	-2448
1004.757	-1608
1004.832	-2752
1004.907	-2418
1004.982	-1964
1005.057	-1258
1005.133	-2059
1005.208	-2077
1005.283	-1890
1005.358	-1870
1005.433	-2632
1005.508	-2256
1005.583	-2747
1005.657	-2055
1005.732	-1507
1005.807	-2647
1005.882	-2112
1005.957	-2592
1006.032	-1429
1006.106	-1828
1006.181	-1616
1006.256	-1956
1006.331	-2471
1006.405	-2711
1006.480	-2370
1006.554	-2089
1006.629	-2328
1006.704	-1491
1006.778	-2185
1006.853	-1892
1006.927	-2122
1007.002	-2154
1007.076	-2453
1007.150	-1775
1007.225	-1521
1007.299	-1852
1007.373	-3143
1007.448	-1603
1007.522	-1291
1007.596	-1180
1007.671	-2646
1007.745	-1389
1007.819	-2636
1007.893	-1844
1007.967	-1751
1008.041	-2806
1008.115	-1672
1008.190	-2549
1008.264	-1647
1008.338	-3062
1008.412	-2308
1008.486	-2355
1008.560	-1833
1008.633	-3366
1008.707	-3347
1008.781	-1540
1008.855	-1953
1008.929	-1218
1009.003	-2742
1009.076	-1997
1009.150	-2193
1009.224	-2008
1009.298	-1707
1009.371	-2785
1009.445	-772
1009.519	-1995
1009.592	-2734
1009.666	-2385
1009.739	-2584
1009.813	-2801
1009.886	-1271
1009.960	-2591
1010.033	-1721
1010.107	-2027
1010.180	-2691
1010.253	-2325
1010.327	-2312
1010.400	-1746
1010.473	-2517
1010.547	-1070
1010.620	-2476
1010.693	-1517
1010.766	-2403
1010.840	-1669
1010.913	-2490
1010.986	-2911
1011.059	-2246
1011.132	-1861
1011.205	-1799
1011.278	-2274
1011.351	-2507
1011.424	-1384
1011.497	-2872
1011.570	-2350
1011.643	-2482
1011.716	-2547
1011.789	-2276
1011.862	-1645
1011.934	-2101
1012.007	-3706
1012.080	-2052
1012.153	-2087
1012.225	-690
1012.298	-3145
1012.371	-2931
1012.443	-1214
1012.516	-2275
1012.588	-2489
1012.661	-2541
1012.733	-2652
1012.806	-1588
1012.879	-2955
1012.951	-2270
1013.023	-2014
1013.096	-1350
1013.168	-2466
1013.241	-1526
1013.313	-1852
1013.385	-2330
1013.458	-2452
1013.530	-1660
1013.602	-3099
1013.674	-1937
1013.746	-1453
1013.819	-2456
1013.891	-2338
1013.963	-2488
1014.035	-1571
1014.107	-1572
1014.179	-1749
1014.251	-3027
1014.323	-1094
1014.395	-1691
1014.467	-1657
1014.539	-2352
1014.611	-2361
1014.683	-2467
1014.754	-1655
1014.826	-2550
1014.898	-2249
1014.970	-3076
1015.042	-885
1015.113	-2402
1015.185	-1840
1015.257	-2097
1015.328	-1940
1015.400	-2715
1015.471	-1398
1015.543	-3411
1015.615	-2042
1015.686	-2670
1015.757	-2346
1015.829	-2354
1015.901	-1537
1015.972	-2172
1016.043	-3133
1016.115	-2236
1016.186	-2091
1016.257	-2772
1016.328	-2326
1016.400	-1471
1016.471	-2713
1016.542	-2657
1016.613	-1518
1016.685	-1533
1016.756	-1595
1016.827	-2206
1016.898	-2367
1016.969	-1859
1017.040	-2732
1017.111	-2449
1017.182	-2768
1017.253	-1562
1017.324	-2510
1017.395	-1772
1017.466	-1598
1017.537	-2020
1017.608	-1496
1017.678	-1553
1017.749	-2434
1017.820	-2683
1017.891	-1691
1017.961	-2864
1018.032	-1834
1018.103	-2017
1018.173	-1806
1018.244	-1754
1018.315	-1527
1018.385	-1568
1018.456	-2503
1018.526	-2654
1018.597	-1835
1018.667	-2568
1018.738	-2688
1018.808	-2408
1018.878	-2632
1018.949	-1540
1019.019	-2763
1019.089	-2794
1019.160	-1965
1019.230	-2707
1019.300	-1735
1019.371	-2347
1019.441	-2329
1019.511	-1450
1019.581	-1838
1019.651	-2498
1019.721	-2169
1019.791	-2046
1019.861	-1555
1019.931	-2120
1020.001	-2378
1020.071	-2185
1020.141	-2812
1020.211	-2183
1020.281	-2667
1020.351	-2941
1020.421	-1935
1020.491	-1954
1020.560	-1560
1020.630	-1772
1020.700	-1626
1020.770	-2870
1020.839	-2278
1020.909	-2430
1020.979	-2069
1021.048	-2519
1021.118	-2480
1021.187	-2279
1021.257	-2402
1021.326	-1996
1021.396	-2144
1021.465	-1135
1021.535	-2579
1021.604	-2916
1021.674	-2355
1021.743	-2051
1021.812	-1693
1021.882	-2049
1021.951	-2607
1022.020	-3175
1022.089	-1814
1022.159	-2467
1022.228	-1961
1022.297	-2420
1022.366	-2545
1022.435	-1888
1022.504	-2202
1022.573	-2765
1022.642	-2291
1022.711	-1884
1022.781	-1720
1022.849	-1890
1022.918	-2760
1022.987	-1819
1023.056	-3146
1023.125	-2372
1023.194	-2543
1023.263	-2280
1023.331	-2158
1023.400	-2618
1023.469	-2631
1023.538	-1940
1023.606	-2820
1023.675	-2160
1023.744	-2359
1023.812	-1892
1023.881	-2139
1023.949	-2257
1024.018	-2379
1024.086	-2224
1024.155	-2222
1024.223	-3364
1024.292	-2866
1024.360	-2267
1024.429	-2185
1024.497	-1817
1024.565	-2573
1024.634	-2440
1024.702	-2157
1024.770	-1824
1024.838	-2315
1024.907	-1415
1024.975	-2402
1025.043	-1484
1025.111	-3425
1025.179	-2125
1025.247	-1844
1025.315	-2330
1025.383	-2128
1025.451	-2084
1025.519	-2106
1025.587	-2305
1025.655	-2230
1025.723	-3027
1025.791	-3059
1025.859	-2135
1025.927	-1700
1025.995	-2579
1026.062	-1867
1026.130	-2797
1026.198	-2053
1026.266	-2523
1026.333	-1986
1026.401	-1548
1026.469	-2555
1026.536	-1143
1026.604	-2097
1026.671	-2355
1026.739	-2795
1026.806	-1635
1026.874	-2398
1026.941	-2694
1027.009	-2489
1027.076	-3059
1027.144	-2077
1027.211	-2395
1027.278	-2319
1027.345	-2655
1027.413	-2470
1027.480	-2634
1027.547	-2369
1027.614	-3105
1027.682	-1757
1027.749	-1878
1027.816	-3014
1027.883	-1969
1027.950	-2255
1028.017	-2309
1028.084	-1474
1028.151	-2748
1028.218	-1583
1028.285	-3082
1028.352	-2228
1028.419	-2339
1028.486	-2523
1028.553	-1747
1028.619	-1864
1028.686	-1994
1028.753	-2503
1028.820	-2112
1028.886	-2312
1028.953	-2099
1029.020	-2317
1029.086	-2443
1029.153	-2126
1029.220	-1971
1029.286	-2430
1029.353	-1872
1029.419	-2726
1029.486	-2303
1029.552	-2290
1029.619	-2209
1029.685	-2771
1029.751	-2610
1029.818	-1715
1029.884	-2306
1029.951	-1210
1030.017	-2045
1030.083	-2610
1030.149	-2807
1030.216	-1915
1030.282	-1926
1030.348	-3003
1030.414	-2310
1030.480	-2176
1030.546	-2139
1030.612	-2442
1030.678	-2846
1030.744	-1310
1030.810	-2442
1030.876	-1760
1030.942	-1899
1031.008	-1663
1031.074	-2683
1031.140	-2417
1031.206	-2060
1031.272	-1959
1031.337	-2521
1031.403	-1907
1031.469	-3094
1031.534	-3079
1031.600	-2199
1031.666	-2323
1031.731	-2238
1031.797	-2761
1031.863	-2249
1031.928	-2393
1031.994	-2662
1032.059	-1779
1032.125	-2700
1032.190	-2268
1032.256	-1936
1032.321	-1941
1032.386	-2333
1032.452	-2340
1032.517	-1797
1032.582	-1195
1032.647	-2365
1032.713	-1665
1032.778	-2398
1032.843	-3170
1032.908	-2635
1032.974	-2627
1033.039	-2480
1033.104	-3002
1033.169	-2449
1033.234	-2429
1033.299	-1844
1033.364	-2448
1033.429	-3095
1033.494	-1897
1033.559	-2641
1033.624	-1747
1033.688	-1647
1033.753	-2342
1033.818	-1635
1033.883	-2521
1033.948	-2658
1034.013	-2609
1034.077	-1921
1034.142	-1647
1034.207	-2235
1034.271	-2436
1034.336	-1740
1034.400	-2284
1034.465	-2258
1034.530	-2418
1034.594	-2312
1034.658	-1958
1034.723	-2506
1034.787	-1662
1034.852	-2510
1034.916	-2312
1034.981	-2047
1035.045	-1817
1035.109	-2648
1035.173	-1806
1035.238	-3176
1035.302	-2343
1035.366	-1928
1035.430	-2943
1035.495	-2058
1035.559	-2006
1035.623	-2604
1035.687	-2304
1035.751	-1861
1035.815	-2022
1035.879	-2308
1035.943	-1897
1036.007	-2194
1036.071	-2055
1036.135	-1576
1036.198	-1789
1036.262	-2164
1036.326	-2125
1036.390	-2209
1036.454	-2094
1036.517	-2174
1036.581	-1882
1036.645	-2501
1036.709	-1632
1036.772	-2290
1036.836	-2048
1036.900	-2085
1036.963	-2799
1037.026	-2361
1037.090	-2417
1037.154	-2539
1037.217	-2549
1037.280	-2322
1037.344	-2699
1037.407	-3248
1037.471	-2200
1037.534	-1971
1037.597	-3200
1037.661	-2317
1037.724	-1932
1037.787	-2510
1037.850	-2265
1037.913	-2333
1037.977	-2188
1038.040	-2345
1038.103	-2349
1038.166	-2766
1038.229	-2228
1038.292	-2417
1038.355	-1974
1038.418	-1961
1038.481	-2095
1038.544	-2458
1038.607	-2135
1038.670	-2789
1038.732	-2541
1038.795	-2873
1038.858	-1939
1038.921	-1962
1038.984	-1693
1039.046	-1603
1039.109	-1674
1039.172	-2728
1039.234	-2327
1039.297	-2891
1039.360	-2173
1039.422	-2254
1039.485	-1971
1039.547	-2280
1039.610	-1896
1039.672	-2460
1039.734	-2739
1039.797	-2167
1039.859	-2001
1039.922	-2400
1039.984	-2193
1040.046	-1602
1040.109	-1860
1040.171	-3050
1040.233	-2363
1040.295	-2195
1040.358	-2621
1040.420	-2148
1040.482	-2347
1040.544	-2469
1040.606	-1917
1040.668	-1795
1040.730	-2274
1040.792	-2407
1040.854	-1977
1040.916	-3143
1040.978	-2347
1041.040	-1485
1041.102	-2300
1041.164	-2553
1041.225	-2382
1041.287	-1943
1041.349	-2377
1041.411	-2735
1041.472	-2353
1041.534	-2021
1041.596	-2594
1041.657	-2453
1041.719	-2022
1041.781	-2539
1041.842	-2545
1041.904	-2342
1041.965	-2680
1042.027	-2586
1042.088	-2294
1042.150	-2598
1042.211	-2379
1042.272	-2345
1042.334	-2845
1042.395	-2370
1042.456	-2508
1042.518	-1700
1042.579	-1888
1042.640	-2241
1042.701	-2113
1042.763	-2715
1042.824	-2549
1042.885	-2118
1042.946	-2898
1043.007	-2026
1043.068	-2224
1043.129	-1827
1043.190	-3009
1043.251	-1778
1043.312	-2322
1043.373	-1805
1043.434	-2615
1043.495	-1896
1043.556	-2130
1043.616	-2533
1043.677	-2994
1043.738	-1985
1043.799	-2062
1043.859	-2193
1043.920	-2289
1043.981	-1791
1044.041	-2370
1044.102	-2099
1044.162	-2121
1044.223	-2759
1044.284	-1794
1044.344	-2983
1044.405	-879
1044.465	-2367
1044.525	-3176
1044.586	-2500
1044.646	-3050
1044.707	-2192
1044.767	-2726
1044.827	-2528
1044.887	-2122
1044.948	-2306
1045.008	-2347
1045.068	-2189
1045.128	-2272
1045.188	-1699
1045.249	-1855
1045.309	-2375
1045.369	-2268
1045.429	-2564
1045.489	-2013
1045.549	-1791
1045.609	-1658
1045.669	-2750
1045.729	-3059
1045.789	-2055
1045.848	-2630
1045.908	-1473
1045.968	-1084
1046.028	-1578
1046.088	-1371
1046.147	-2412
1046.207	-2027
1046.267	-1598
1046.326	-1954
1046.386	-2051
1046.446	-1807
1046.505	-1416
1046.565	-575
1046.624	-2313
1046.684	-652
1046.743	-1689
1046.803	-1115
1046.862	-1111
1046.922	0
