'Start Wavelength	183.907
'End Wavelength	1046.922
'Gate Delay	5.000
'Gate Width (ms)	1.050
'Laser Output Level	0.000
'X Position	0.000
'Y Position	0.000
'Z Position	0.000
'Grid Point Number	1.000
'Shot Number	100.000
183.907	244.000
183.977	-380.000
184.047	94
184.116	1028
184.186	629
184.256	-336
184.325	168
184.395	-142
184.465	916
184.534	686
184.604	-109
184.674	583
184.743	200
184.813	523
184.883	217
184.952	215
185.022	666
185.092	151
185.161	251
185.231	-27
185.301	92
185.370	812
185.440	184
185.509	17
185.579	580
185.649	-343
185.718	297
185.788	1155
185.857	-156
185.927	124
185.996	542
186.066	425
186.136	-561
186.205	192
186.275	252
186.344	499
186.414	1094
186.483	334
186.553	1059
186.622	565
186.692	98
186.761	898
186.831	357
186.900	168
186.970	489
187.039	1228
187.109	1114
187.178	-138
187.248	272
187.317	722
187.387	115
187.456	460
187.526	73
187.595	264
187.664	303
187.734	583
187.803	-11
187.873	17
187.942	14
188.012	509
188.081	138
188.150	-166
188.220	538
188.289	0
188.358	1192
188.428	1665
188.497	-235
188.567	934
188.636	-98
188.705	116
188.775	72
188.844	157
188.913	777
188.983	727
189.052	409
189.121	-34
189.191	-467
189.260	1079
189.329	325
189.399	-337
189.468	529
189.537	563
189.606	615
189.676	75
189.745	-111
189.814	109
189.883	-198
189.953	-122
190.022	621
190.091	-275
190.161	493
190.230	494
190.299	46
190.368	880
190.437	253
190.507	-254
190.576	-596
190.645	810
190.714	-502
190.783	-483
190.853	565
190.922	253
190.991	248
191.060	-17
191.129	-878
191.198	631
191.268	-184
191.337	485
191.406	959
191.475	446
191.544	-578
191.613	414
191.682	401
191.752	626
191.821	267
191.890	-322
191.959	293
192.028	623
192.097	-48
192.166	-6
192.235	902
192.304	548
192.373	159
192.442	-482
192.511	-51
192.580	277
192.650	-609
192.719	-68
192.788	299
192.857	846
192.926	114
192.995	-301
193.064	505
193.133	126
193.202	139
193.271	509
193.340	271
193.409	642
193.478	681
193.547	-301
193.615	120
193.684	460
193.753	-141
193.822	101
193.891	-289
193.960	429
194.029	333
194.098	-53
194.167	-427
194.236	948
194.305	-146
194.374	-126
194.443	918
194.512	169
194.580	799
194.649	115
194.718	-58
194.787	673
194.856	179
194.925	368
194.994	-226
195.062	501
195.131	596
195.200	104
195.269	780
195.338	524
195.407	233
195.475	-539
195.544	854
195.613	749
195.682	714
195.751	388
195.819	165
195.888	326
195.957	674
196.026	360
196.094	609
196.163	536
196.232	185
196.301	347
196.369	588
196.438	147
196.507	-211
196.576	95
196.644	352
196.713	-261
196.782	187
196.850	459
196.919	-285
196.988	202
197.056	134
197.125	219
197.194	817
197.262	53
197.331	192
197.400	285
197.468	354
197.537	-280
197.606	541
197.674	661
197.743	-109
197.812	-307
197.880	120
197.949	223
198.017	-140
198.086	94
198.155	399
198.223	153
198.292	872
198.360	298
198.429	402
198.497	490
198.566	427
198.635	209
198.703	859
198.772	888
198.840	391
198.909	495
198.977	589
199.046	1197
199.114	52
199.183	794
199.251	-161
199.320	221
199.388	99
199.457	893
199.525	329
199.594	-17
199.662	486
199.731	902
199.799	426
199.867	740
199.936	289
200.004	437
200.073	335
200.141	-124
200.210	335
200.278	-120
200.346	882
200.415	857
200.483	-15
200.552	399
200.620	821
200.688	196
200.757	-2
200.825	732
200.893	-109
200.962	45
201.030	242
201.098	-141
201.167	-379
201.235	-220
201.303	721
201.372	453
201.440	579
201.508	636
201.577	337
201.645	348
201.713	-470
201.781	90
201.850	372
201.918	-439
201.986	501
202.055	866
202.123	-20
202.191	440
202.259	657
202.327	152
202.396	281
202.464	290
202.532	376
202.600	237
202.669	216
202.737	119
202.805	-254
202.873	181
202.941	293
203.009	226
203.078	-688
203.146	192
203.214	138
203.282	-856
203.350	888
203.418	272
203.487	73
203.555	-189
203.623	283
203.691	720
203.759	421
203.827	257
203.895	895
203.963	84
204.031	-108
204.099	181
204.168	-250
204.236	890
204.304	-287
204.372	556
204.440	768
204.508	263
204.576	-113
204.644	602
204.712	-450
204.780	845
204.848	68
204.916	-297
204.984	683
205.052	56
205.120	-461
205.188	-506
205.256	360
205.324	45
205.392	-215
205.460	790
205.528	-451
205.596	359
205.664	-240
205.732	-411
205.799	970
205.867	247
205.935	328
206.003	7
206.071	-267
206.139	-111
206.207	225
206.275	-283
206.343	-864
206.411	-36
206.478	54
206.546	-271
206.614	110
206.682	-38
206.750	2
206.818	465
206.885	1179
206.953	-407
207.021	568
207.089	611
207.157	308
207.225	409
207.292	-589
207.360	22
207.428	-55
207.496	-14
207.563	6
207.631	90
207.699	492
207.767	-321
207.834	-123
207.902	90
207.970	-555
208.038	-46
208.105	866
208.173	473
208.241	-3
208.309	-88
208.376	601
208.444	322
208.512	-209
208.579	165
208.647	-23
208.715	528
208.782	-272
208.850	801
208.918	-832
208.985	-252
209.053	-454
209.120	898
209.188	-912
209.256	-290
209.323	-533
209.391	-155
209.459	522
209.526	810
209.594	-142
209.661	167
209.729	485
209.796	607
209.864	38
209.932	-138
209.999	1315
210.067	293
210.134	-75
210.202	300
210.269	437
210.337	1273
210.404	-500
210.472	133
210.539	183
210.607	-347
210.674	-866
210.742	221
210.809	215
210.877	-6
210.944	826
211.012	-134
211.079	827
211.146	192
211.214	-59
211.281	142
211.349	763
211.416	1092
211.484	136
211.551	-252
211.618	559
211.686	280
211.753	-770
211.821	-89
211.888	232
211.955	327
212.023	174
212.090	372
212.157	-261
212.225	-359
212.292	-382
212.359	21
212.427	1395
212.494	860
212.561	195
212.629	165
212.696	-333
212.763	410
212.831	-25
212.898	488
212.965	-430
213.032	716
213.100	923
213.167	-91
213.234	-230
213.301	875
213.369	-108
213.436	-142
213.503	61
213.570	-25
213.638	638
213.705	422
213.772	-486
213.839	-669
213.906	434
213.973	279
214.041	-494
214.108	483
214.175	-275
214.242	-74
214.309	-142
214.376	-282
214.444	-20
214.511	238
214.578	169
214.645	426
214.712	-268
214.779	753
214.846	415
214.913	791
214.980	692
215.048	860
215.115	1010
215.182	860
215.249	539
215.316	36
215.383	548
215.450	174
215.517	-537
215.584	326
215.651	642
215.718	-21
215.785	929
215.852	612
215.919	764
215.986	1125
216.053	-213
216.120	-461
216.187	80
216.254	751
216.321	-21
216.388	192
216.455	239
216.522	-252
216.589	287
216.656	533
216.722	-293
216.789	211
216.856	462
216.923	488
216.990	373
217.057	27
217.124	484
217.191	-459
217.258	-51
217.324	51
217.391	-223
217.458	-295
217.525	-199
217.592	-22
217.659	-341
217.725	959
217.792	50
217.859	1347
217.926	-236
217.993	348
218.059	485
218.126	-151
218.193	57
218.260	-213
218.327	-151
218.393	-124
218.460	-208
218.527	-174
218.594	226
218.660	-407
218.727	972
218.794	-1018
218.860	942
218.927	-677
218.994	-200
219.061	364
219.127	80
219.194	-315
219.261	530
219.327	171
219.394	5
219.461	-501
219.527	-396
219.594	678
219.661	749
219.727	-285
219.794	744
219.860	-150
219.927	353
219.994	2624
220.060	1432
220.127	1518
220.193	1190
220.260	303
220.326	907
220.393	500
220.460	552
220.526	53
220.593	-659
220.659	886
220.726	-596
220.792	802
220.859	-166
220.925	666
220.992	693
221.058	958
221.125	842
221.191	422
221.258	118
221.324	446
221.391	172
221.457	-569
221.524	202
221.590	-34
221.657	172
221.723	234
221.789	241
221.856	1117
221.922	-843
221.989	387
222.055	241
222.121	-399
222.188	1905
222.254	916
222.321	720
222.387	-267
222.453	55
222.520	-513
222.586	-624
222.652	778
222.719	-592
222.785	-63
222.851	-234
222.918	-246
222.984	500
223.050	771
223.116	-1481
223.183	775
223.249	-291
223.315	-386
223.382	181
223.448	-179
223.514	60
223.580	-483
223.647	-486
223.713	-1010
223.779	-95
223.845	109
223.911	-297
223.978	78
224.044	-397
224.110	-188
224.176	763
224.242	-138
224.309	-152
224.375	661
224.441	-729
224.507	-364
224.573	-593
224.639	798
224.705	-352
224.772	18
224.838	-40
224.904	685
224.970	316
225.036	-125
225.102	-571
225.168	759
225.234	448
225.300	82
225.366	-363
225.432	92
225.499	376
225.565	-418
225.631	-237
225.697	122
225.763	-140
225.829	269
225.895	-401
225.961	459
226.027	130
226.093	332
226.159	1188
226.225	944
226.291	1184
226.357	1900
226.423	1122
226.489	1350
226.554	404
226.620	286
226.686	151
226.752	810
226.818	1290
226.884	2487
226.950	1960
227.016	672
227.082	1123
227.148	179
227.214	298
227.279	723
227.345	-451
227.411	1776
227.477	2551
227.543	3000
227.609	3735
227.674	3209
227.740	1132
227.806	1207
227.872	992
227.938	321
228.003	438
228.069	133
228.135	-329
228.201	291
228.267	22
228.332	89
228.398	-996
228.464	-21
228.530	-262
228.595	866
228.661	-86
228.727	41
228.792	1626
228.858	453
228.924	-918
228.990	1774
229.055	-471
229.121	679
229.187	-304
229.252	21
229.318	-633
229.384	694
229.449	-389
229.515	-1402
229.581	-936
229.646	1670
229.712	469
229.777	351
229.843	-473
229.909	-126
229.974	537
230.040	195
230.105	439
230.171	-658
230.236	754
230.302	132
230.368	-443
230.433	-475
230.499	428
230.564	1058
230.630	-630
230.695	-331
230.761	232
230.826	-1011
230.892	612
230.957	-666
231.023	-584
231.088	-278
231.154	-639
231.219	638
231.284	-601
231.350	-116
231.415	-906
231.481	523
231.546	93
231.612	96
231.677	-725
231.742	-998
231.808	131
231.873	-106
231.939	-1026
232.004	888
232.069	187
232.135	-908
232.200	-208
232.265	2
232.331	-701
232.396	-287
232.461	-543
232.527	-313
232.592	-947
232.657	91
232.723	-779
232.788	-766
232.853	-518
232.918	-29
232.984	-531
233.049	-375
233.114	-628
233.179	578
233.245	859
233.310	120
233.375	-846
233.440	338
233.506	-1003
233.571	-1225
233.636	-502
233.701	-430
233.766	-341
233.832	-318
233.897	161
233.962	-1587
234.027	946
234.092	-15
234.157	214
234.222	-110
234.288	47
234.353	-29
234.418	847
234.483	542
234.548	-85
234.613	-32
234.678	530
234.743	-1089
234.808	264
234.873	-912
234.938	503
235.004	-1370
235.069	-924
235.134	-742
235.199	350
235.264	-243
235.329	-1523
235.394	-41
235.459	756
235.524	-387
235.589	563
235.654	335
235.719	-980
235.784	36
235.849	45
235.913	382
235.978	-728
236.043	862
236.108	-378
236.173	-333
236.238	216
236.303	-781
236.368	-1452
236.433	261
236.498	-884
236.563	6
236.627	388
236.692	3658
236.757	2763
236.822	1282
236.887	-147
236.952	469
237.017	-838
237.081	774
237.146	49
237.211	876
237.276	2586
237.341	6597
237.405	2022
237.470	584
237.535	542
237.600	880
237.664	568
237.729	-174
237.794	-357
237.859	1018
237.923	-271
237.988	639
238.053	137
238.118	141
238.182	-381
238.247	147
238.312	-341
238.376	35
238.441	-1404
238.506	608
238.570	-1190
238.635	1493
238.700	-454
238.764	-989
238.829	14
238.893	-757
238.958	-143
239.023	223
239.087	-246
239.152	333
239.216	-419
239.281	245
239.346	219
239.410	69
239.475	315
239.539	681
239.604	-136
239.668	807
239.733	1698
239.797	4657
239.862	7497
239.926	6410
239.991	3845
240.055	1756
240.120	934
240.184	616
240.249	341
240.313	-168
240.378	18
240.442	370
240.507	507
240.571	357
240.635	242
240.700	74
240.764	-182
240.829	183
240.893	-1158
240.957	281
241.022	69
241.086	-473
241.151	-1505
241.215	-492
241.279	914
241.344	-493
241.408	-156
241.472	-792
241.537	896
241.601	60
241.665	-1041
241.730	147
241.794	764
241.858	-350
241.922	161
241.987	-182
242.051	-266
242.115	-780
242.179	109
242.244	-410
242.308	422
242.372	-594
242.436	-520
242.501	-260
242.565	-1236
242.629	-476
242.693	443
242.757	-625
242.822	-686
242.886	745
242.950	901
243.014	-1287
243.078	-251
243.142	-292
243.206	-604
243.271	-98
243.335	-1176
243.399	-49
243.463	356
243.527	2066
243.591	423
243.655	533
243.719	-1056
243.783	358
243.847	52
243.911	229
243.975	-32
244.040	-1367
244.104	1547
244.168	-20
244.232	-366
244.296	179
244.360	656
244.424	-1074
244.488	-1086
244.552	538
244.615	-1205
244.679	372
244.743	-626
244.807	-376
244.871	-58
244.935	237
244.999	-964
245.063	190
245.127	224
245.191	-870
245.255	-473
245.319	-124
245.383	-1166
245.446	1148
245.510	-1240
245.574	-477
245.638	619
245.702	-847
245.766	576
245.829	375
245.893	-661
245.957	-101
246.021	-37
246.085	-227
246.149	-528
246.212	1492
246.276	426
246.340	360
246.404	-114
246.467	913
246.531	-1463
246.595	909
246.659	851
246.722	-485
246.786	104
246.850	-106
246.913	-12
246.977	-1170
247.041	-125
247.104	-322
247.168	217
247.232	247
247.295	1906
247.359	708
247.423	-738
247.486	279
247.550	751
247.614	-634
247.677	-1
247.741	-935
247.804	-22
247.868	474
247.932	-637
247.995	2476
248.059	-372
248.122	-265
248.186	1069
248.249	310
248.313	2839
248.376	2735
248.440	1203
248.503	-893
248.567	873
248.630	-37
248.694	606
248.757	1482
248.821	2647
248.884	3046
248.948	371
249.011	1887
249.075	3282
249.138	2951
249.202	228
249.265	-196
249.328	1186
249.392	-607
249.455	124
249.519	603
249.582	-99
249.645	911
249.709	660
249.772	-181
249.835	701
249.899	37
249.962	342
250.025	-339
250.089	999
250.152	1424
250.215	-96
250.279	-279
250.342	727
250.405	93
250.468	198
250.532	879
250.595	673
250.658	1115
250.721	6185
250.785	424
250.848	1052
250.911	264
250.974	574
251.038	112
251.101	1591
251.164	467
251.227	258
251.290	874
251.354	1057
251.417	4871
251.480	5582
251.543	2187
251.606	8887
251.669	6511
251.732	1729
251.795	1454
251.859	2339
251.922	5579
251.985	2694
252.048	1332
252.111	476
252.174	-622
252.237	1051
252.300	3088
252.363	2918
252.426	8181
252.489	1779
252.552	1092
252.615	-32
252.678	1184
252.741	3018
252.804	2218
252.867	8324
252.930	4743
252.993	1334
253.056	1470
253.119	-374
253.182	-668
253.245	132
253.308	143
253.371	154
253.434	10
253.497	1481
253.559	1167
253.622	451
253.685	-307
253.748	398
253.811	181
253.874	423
253.937	-431
254.000	489
254.062	-42
254.125	1048
254.188	1251
254.251	-134
254.314	480
254.376	-242
254.439	193
254.502	723
254.565	57
254.628	2180
254.690	168
254.753	-592
254.816	-701
254.878	704
254.941	510
255.004	1357
255.067	101
255.129	-815
255.192	253
255.255	-1208
255.317	260
255.380	128
255.443	-454
255.505	-161
255.568	-525
255.631	-764
255.693	67
255.756	31
255.819	832
255.881	383
255.944	568
256.006	-283
256.069	-286
256.132	-339
256.194	-192
256.257	-94
256.319	263
256.382	-76
256.444	2334
256.507	1433
256.569	-155
256.632	-123
256.694	-182
256.757	2233
256.819	7053
256.882	1195
256.944	918
257.007	944
257.069	33
257.132	136
257.194	1595
257.257	432
257.319	-494
257.381	-167
257.444	960
257.506	5811
257.569	8660
257.631	2248
257.693	631
257.756	-710
257.818	-739
257.880	-374
257.943	878
258.005	-813
258.067	62
258.130	66
258.192	417
258.254	-563
258.317	-436
258.379	75
258.441	481
258.503	798
258.566	-90
258.628	457
258.690	-331
258.753	610
258.815	-253
258.877	-789
258.939	200
259.001	270
259.064	455
259.126	-440
259.188	-422
259.250	309
259.312	-329
259.375	230
259.437	-649
259.499	-736
259.561	531
259.623	639
259.685	-261
259.747	406
259.809	-229
259.872	208
259.934	1074
259.996	1110
260.058	374
260.120	-312
260.182	607
260.244	-454
260.306	-545
260.368	335
260.430	-749
260.492	-44
260.554	1515
260.616	-146
260.678	828
260.740	578
260.802	443
260.864	1247
260.926	-682
260.988	184
261.050	140
261.112	9
261.174	1671
261.236	577
261.298	-689
261.359	213
261.421	555
261.483	-100
261.545	870
261.607	-360
261.669	634
261.731	46
261.793	-48
261.854	-207
261.916	543
261.978	25
262.040	-111
262.102	839
262.164	-60
262.225	-75
262.287	719
262.349	267
262.411	56
262.472	973
262.534	86
262.596	-203
262.658	229
262.719	-710
262.781	555
262.843	-927
262.904	168
262.966	247
263.028	607
263.090	784
263.151	2629
263.213	1503
263.275	-356
263.336	-379
263.398	1011
263.459	-634
263.521	-160
263.583	314
263.644	457
263.706	-47
263.767	420
263.829	508
263.891	-444
263.952	-953
264.014	-105
264.075	144
264.137	533
264.198	552
264.260	-701
264.321	58
264.383	137
264.444	1674
264.506	725
264.567	196
264.629	1357
264.690	-328
264.752	765
264.813	120
264.875	-260
264.936	479
264.998	-356
265.059	609
265.120	1023
265.182	401
265.243	2156
265.305	2875
265.366	1194
265.427	1056
265.489	1219
265.550	-243
265.611	820
265.673	-337
265.734	374
265.795	815
265.857	186
265.918	-889
265.979	1102
266.040	4623
266.102	5122
266.163	1823
266.224	949
266.286	578
266.347	-659
266.408	801
266.469	691
266.530	-253
266.592	252
266.653	642
266.714	214
266.775	208
266.836	341
266.898	-629
266.959	5
267.020	8
267.081	1656
267.142	-801
267.203	26
267.264	-453
267.326	1146
267.387	431
267.448	-546
267.509	627
267.570	137
267.631	-24
267.692	-1199
267.753	794
267.814	-284
267.875	962
267.936	1260
267.997	-11
268.058	-744
268.119	10
268.180	-538
268.241	-495
268.302	6
268.363	-413
268.424	-326
268.485	332
268.546	97
268.607	-211
268.668	-734
268.729	-19
268.790	-40
268.851	-107
268.912	465
268.972	632
269.033	3
269.094	-761
269.155	-619
269.216	11
269.277	587
269.338	79
269.398	513
269.459	-304
269.520	214
269.581	-119
269.642	935
269.702	-655
269.763	82
269.824	-574
269.885	-447
269.945	769
270.006	143
270.067	-462
270.128	-636
270.188	-115
270.249	-211
270.310	-552
270.370	927
270.431	-84
270.492	-174
270.553	66
270.613	25
270.674	1286
270.734	-451
270.795	-29
270.856	618
270.916	-1002
270.977	86
271.038	291
271.098	146
271.159	-187
271.219	275
271.280	677
271.340	-224
271.401	-343
271.462	-464
271.522	360
271.583	310
271.643	-144
271.704	59
271.764	-497
271.825	557
271.885	2509
271.946	3228
272.006	210
272.066	1678
272.127	4344
272.187	5719
272.248	2537
272.308	148
272.369	2799
272.429	1429
272.489	655
272.550	367
272.610	205
272.671	30
272.731	488
272.791	638
272.852	64
272.912	654
272.972	98
273.033	500
273.093	87
273.153	506
273.214	-2
273.274	260
273.334	555
273.394	2238
273.455	-128
273.515	242
273.575	1643
273.635	487
273.696	1242
273.756	2221
273.816	933
273.876	709
273.936	500
273.997	1166
274.057	-507
274.117	-162
274.177	-102
274.237	2887
274.297	3024
274.358	13
274.418	1383
274.478	1539
274.538	202
274.598	228
274.658	595
274.718	567
274.778	356
274.838	-182
274.898	-541
274.958	802
275.018	1868
275.078	1589
275.138	410
275.198	136
275.258	-381
275.318	474
275.378	254
275.438	955
275.498	408
275.558	571
275.618	1262
275.678	1500
275.738	652
275.798	716
275.858	861
275.918	-322
275.978	192
276.038	-220
276.098	692
276.157	822
276.217	1414
276.277	1301
276.337	400
276.397	497
276.457	466
276.517	949
276.576	422
276.636	33
276.696	-38
276.756	843
276.815	1642
276.875	1066
276.935	743
276.995	607
277.055	455
277.114	775
277.174	1011
277.234	1203
277.293	266
277.353	788
277.413	316
277.472	-305
277.532	-32
277.592	176
277.651	-98
277.711	2052
277.771	1219
277.830	2822
277.890	2379
277.950	1492
278.009	4715
278.069	2108
278.128	1719
278.188	3037
278.248	1544
278.307	1910
278.367	1767
278.426	737
278.486	786
278.545	285
278.605	831
278.664	-620
278.724	39
278.783	800
278.843	3118
278.902	1057
278.962	481
279.021	709
279.081	1025
279.140	767
279.199	801
279.259	964
279.318	899
279.378	860
279.437	1721
279.496	6335
279.556	12834
279.615	8460
279.675	2204
279.734	1568
279.793	2224
279.853	6299
279.912	2850
279.971	1935
280.031	1132
280.090	3202
280.149	5120
280.208	2261
280.268	6191
280.327	7770
280.386	1080
280.445	2169
280.505	870
280.564	594
280.623	166
280.682	1176
280.742	1869
280.801	203
280.860	1138
280.919	228
280.978	733
281.037	49
281.097	660
281.156	80
281.215	56
281.274	452
281.333	2745
281.392	1995
281.451	957
281.510	310
281.569	65
281.628	961
281.688	769
281.747	447
281.806	734
281.865	745
281.924	443
281.983	865
282.042	283
282.101	-38
282.160	312
282.219	500
282.278	170
282.337	1600
282.396	1022
282.454	172
282.513	481
282.572	677
282.631	285
282.690	432
282.749	-317
282.808	744
282.867	378
282.926	1085
282.985	665
283.043	663
283.102	315
283.161	-17
283.220	1312
283.279	2090
283.338	784
283.396	1270
283.455	775
283.514	772
283.573	126
283.631	1139
283.690	950
283.749	17
283.808	1001
283.866	1428
283.925	275
283.984	1018
284.043	1006
284.101	1152
284.160	494
284.219	1265
284.277	473
284.336	1504
284.395	2682
284.453	2089
284.512	475
284.570	1164
284.629	775
284.688	805
284.746	663
284.805	1173
284.863	1312
284.922	1981
284.981	3010
285.039	3210
285.098	3884
285.156	11511
285.215	27270
285.273	26282
285.332	13670
285.390	6686
285.449	4498
285.507	3344
285.566	1771
285.624	1411
285.683	2027
285.741	1309
285.799	793
285.858	1199
285.916	1172
285.975	791
286.033	685
286.091	563
286.150	469
286.208	1295
286.267	1057
286.325	713
286.383	1371
286.442	1796
286.500	726
286.558	1571
286.616	1283
286.675	929
286.733	612
286.791	747
286.850	1799
286.908	1876
286.966	1209
287.024	701
287.083	572
287.141	561
287.199	1765
287.257	1263
287.315	1346
287.374	546
287.432	2104
287.490	1533
287.548	462
287.606	955
287.664	1188
287.723	1236
287.781	1329
287.839	1753
287.897	779
287.955	1590
288.013	1131
288.071	1887
288.129	6510
288.187	24139
288.245	10454
288.303	3937
288.361	2266
288.419	1255
288.477	1244
288.535	1690
288.593	1119
288.651	1226
288.709	257
288.767	1254
288.825	1348
288.883	1064
288.941	891
288.999	981
289.057	1244
289.115	872
289.173	2203
289.231	926
289.289	1146
289.346	1235
289.404	1010
289.462	1561
289.520	2283
289.578	1430
289.636	1055
289.694	662
289.751	1495
289.809	559
289.867	1000
289.925	2293
289.983	1117
290.040	1232
290.098	1110
290.156	954
290.214	987
290.271	936
290.329	2498
290.387	1096
290.444	996
290.502	1299
290.560	1148
290.617	1161
290.675	1432
290.733	356
290.790	1238
290.848	1085
290.906	1336
290.963	782
291.021	1591
291.078	1307
291.136	1082
291.194	1879
291.251	1988
291.309	825
291.366	911
291.424	1208
291.481	1283
291.539	1373
291.596	1204
291.654	670
291.711	1106
291.769	946
291.826	882
291.884	1414
291.941	1431
291.999	853
292.056	1047
292.114	1054
292.171	328
292.228	1939
292.286	1360
292.343	1592
292.401	1872
292.458	1445
292.515	945
292.573	2416
292.630	1704
292.687	1447
292.745	1616
292.802	1483
292.859	1968
292.917	2754
292.974	1457
293.031	1451
293.089	1838
293.146	1357
293.203	727
293.260	516
293.318	1107
293.375	1202
293.432	1409
293.489	639
293.546	1554
293.604	1133
293.661	1767
293.718	4772
293.775	2497
293.832	1589
293.889	1737
293.947	2181
294.004	1004
294.061	1236
294.118	1635
294.175	2433
294.232	3116
294.289	1716
294.346	1068
294.403	2347
294.460	1426
294.517	1839
294.574	1338
294.631	1618
294.688	1461
294.745	1653
294.802	5006
294.859	6079
294.916	1856
294.973	1541
295.030	1592
295.087	1143
295.144	1041
295.201	1097
295.258	801
295.315	1400
295.372	1516
295.429	4164
295.486	2566
295.542	2364
295.599	2447
295.656	4032
295.713	2510
295.770	3488
295.827	1873
295.883	1483
295.940	1590
295.997	666
296.054	724
296.111	1905
296.167	1839
296.224	860
296.281	1303
296.338	544
296.394	692
296.451	840
296.508	1960
296.564	3526
296.621	2259
296.678	4104
296.734	6072
296.791	2681
296.848	2097
296.904	1781
296.961	2150
297.018	4260
297.074	3553
297.131	1830
297.187	1256
297.244	1590
297.301	4427
297.357	8042
297.414	2935
297.470	2349
297.527	900
297.583	1682
297.640	1378
297.696	1024
297.753	1656
297.809	1667
297.866	1557
297.922	1699
297.979	1458
298.035	899
298.092	961
298.148	2354
298.204	3341
298.261	1460
298.317	2690
298.374	5651
298.430	3138
298.486	1346
298.543	1341
298.599	1193
298.656	1501
298.712	1461
298.768	2742
298.824	1940
298.881	1425
298.937	2181
298.993	1326
299.050	1384
299.106	1163
299.162	952
299.218	2087
299.275	827
299.331	1896
299.387	2897
299.443	6508
299.500	15554
299.556	12392
299.612	4629
299.668	4108
299.724	11399
299.780	15056
299.837	5590
299.893	4873
299.949	10035
300.005	15895
300.061	11720
300.117	18016
300.173	8938
300.229	3856
300.285	2728
300.341	2870
300.397	2703
300.453	2131
300.510	2413
300.566	3102
300.622	4571
300.678	19045
300.734	23641
300.790	13097
300.845	9338
300.901	11422
300.957	17310
301.013	9281
301.069	3413
301.125	2982
301.181	2236
301.237	2491
301.293	1664
301.349	1745
301.405	1080
301.461	1470
301.516	1441
301.572	1768
301.628	2072
301.684	1181
301.740	1914
301.796	2819
301.851	2527
301.907	2828
301.963	3152
302.019	4562
302.074	12408
302.130	12423
302.186	5656
302.242	2981
302.297	2268
302.353	1634
302.409	2368
302.464	3200
302.520	1763
302.576	4209
302.631	5724
302.687	2886
302.743	1813
302.798	1234
302.854	1513
302.910	864
302.965	1751
303.021	2771
303.076	1801
303.132	1676
303.187	2570
303.243	1753
303.299	1615
303.354	1059
303.410	2045
303.465	585
303.521	1310
303.576	260
303.632	1044
303.687	2216
303.743	4852
303.798	3753
303.853	2685
303.909	2033
303.964	1017
304.020	1572
304.075	982
304.130	1623
304.186	2774
304.241	3052
304.297	3624
304.352	1675
304.358	1725
304.407	2135
304.449	1650
304.463	1489
304.518	1294
304.539	1440
304.573	1650
304.629	1470
304.630	1470
304.684	1541
304.720	2483
304.739	2950
304.794	5357
304.811	4958
304.850	3984
304.902	2077
304.905	1950
304.960	1588
304.992	1341
305.015	1191
305.071	1938
305.083	1838
305.126	1465
305.173	1587
305.181	1615
305.236	649
305.264	1102
305.292	1540
305.347	1689
305.354	1673
305.402	1550
305.445	1306
305.457	1229
305.512	2175
305.535	1769
305.567	1260
305.622	1018
305.626	1068
305.678	1984
305.716	3479
305.733	4049
305.788	4256
305.807	4028
305.843	3728
305.897	4741
305.898	4750
305.953	4525
305.988	3420
306.008	2784
306.063	1683
306.078	1744
306.118	2110
306.168	1558
306.173	1502
306.228	1052
306.259	975
306.283	878
306.338	1060
306.349	1060
306.393	1196
306.440	1940
306.448	2046
306.503	2106
306.530	1406
306.558	837
306.613	2222
306.620	2242
306.668	2471
306.711	3402
306.723	3520
306.778	3278
306.801	2813
306.833	2296
306.888	2198
306.892	2122
306.943	1415
306.982	1466
306.997	1437
307.052	1624
307.072	1562
307.107	1536
307.162	1396
307.163	1400
307.217	1805
307.253	1689
307.272	1653
307.327	1257
307.343	1152
307.381	949
307.434	1152
307.436	1177
307.491	1799
307.524	2262
307.546	2391
307.600	2421
307.614	2266
307.655	1780
307.704	1427
307.710	1439
307.765	1930
307.795	2107
307.819	2104
307.874	2224
307.885	2269
307.929	2399
307.975	2888
307.984	3086
308.038	3711
308.065	4414
308.093	7261
308.148	15491
308.156	17470
308.202	29146
308.246	37530
308.257	36580
308.312	19124
308.336	12075
308.366	8464
308.421	5311
308.426	5085
308.475	3298
308.517	2370
308.530	2224
308.585	1817
308.607	1789
308.639	1795
308.694	1919
308.697	1923
308.748	2083
308.787	2108
308.803	2092
308.857	2155
308.877	2166
308.912	2154
308.967	2615
308.967	2619
309.021	3431
309.058	4007
309.076	4729
309.130	8003
309.148	9184
309.185	20605
309.238	41803
309.239	41953
309.293	47507
309.328	43567
309.348	37173
309.402	16753
309.418	11628
309.457	7946
309.508	5133
309.511	5026
309.566	4439
309.598	4210
309.620	4045
309.674	3702
309.688	3732
309.729	3442
309.778	2659
309.783	2666
309.837	2724
309.868	3019
309.892	3149
309.946	3269
309.959	3466
310.001	4414
310.049	4823
310.055	4688
310.109	3524
310.139	2650
310.163	2212
310.218	1920
310.229	1807
310.272	2089
310.319	2431
310.326	2331
310.381	1814
310.409	1454
310.435	1600
310.489	1868
310.499	1920
310.543	1779
310.589	1735
310.598	1766
310.652	1903
310.679	1981
310.706	1953
310.760	1780
310.769	1755
310.814	2229
310.859	2669
310.868	2654
310.923	2646
310.948	2609
310.977	2547
311.031	2307
311.038	2284
311.085	2191
311.128	2049
311.139	2115
311.193	2548
311.218	2675
311.247	2469
311.301	2163
311.308	2118
311.356	2355
311.398	2513
311.410	2435
311.464	2129
311.488	1963
311.518	1977
311.572	2052
311.578	2059
311.626	1926
311.668	1766
311.680	1836
311.734	2171
311.758	2317
311.788	2324
311.842	2327
311.847	2325
311.896	2121
311.937	1971
311.950	1972
312.004	1951
312.027	1950
312.058	1954
312.112	1967
312.117	1968
312.165	2252
312.207	2496
312.297	1530
312.386	2035
312.476	1856
312.566	3122
312.656	2176
312.745	2181
312.835	2721
312.925	2547
313.015	2878
313.104	2459
313.194	3162
313.284	2935
313.374	2899
313.463	3114
313.553	3232
313.643	3169
313.732	3552
313.822	3713
313.912	4663
314.001	4536
314.091	4858
314.180	4651
314.270	4997
314.360	4742
314.449	3972
314.539	4119
314.628	4139
314.718	3982
314.808	4575
314.897	4598
314.987	5637
315.076	6247
315.166	6149
315.255	5160
315.345	5282
315.434	4039
315.524	4403
315.613	4953
315.703	5382
315.792	11048
315.881	38728
315.971	13569
316.060	6107
316.150	5227
316.239	4461
316.328	4517
316.418	4325
316.507	4995
316.597	6049
316.686	6313
316.775	5374
316.865	5338
316.954	4725
317.043	4517
317.133	3463
317.222	3412
317.311	2735
317.400	2771
317.490	4231
317.579	3686
317.668	4265
317.757	5826
317.847	17187
317.936	60544
318.025	19333
318.114	14962
318.203	8482
318.293	4889
318.382	8066
318.471	9721
318.560	7520
318.649	8989
318.738	5097
318.828	2924
318.917	2756
319.006	3252
319.095	3811
319.184	6428
319.273	4878
319.362	3495
319.451	2767
319.540	2650
319.629	3356
319.718	3866
319.807	3467
319.896	4318
319.985	8727
320.074	4568
320.163	3830
320.252	3355
320.341	4496
320.430	3866
320.519	4683
320.608	5204
320.697	5796
320.786	6123
320.875	7569
320.964	7270
321.053	7715
321.142	8343
321.230	9346
321.319	10987
321.408	12881
321.497	11403
321.586	9931
321.675	8116
321.764	8067
321.852	7381
321.941	8689
322.030	7860
322.119	8838
322.207	10825
322.296	11684
322.385	13815
322.474	15796
322.562	16231
322.651	13686
322.740	9585
322.829	8807
322.917	7503
323.006	7098
323.095	5671
323.183	5810
323.272	5193
323.361	6166
323.449	6938
323.538	4828
323.626	5732
323.715	4136
323.804	3515
323.892	5421
323.981	3928
324.069	4031
324.158	4291
324.246	4686
324.335	4224
324.424	4213
324.512	3396
324.601	3471
324.689	3842
324.778	4594
324.866	3606
324.954	3823
325.043	3233
325.131	2875
325.220	4622
325.308	2571
325.397	3645
325.485	2839
325.574	2771
325.662	3136
325.750	3014
325.839	3509
325.927	2817
326.015	3158
326.104	3115
326.192	3126
326.280	2858
326.369	2958
326.457	3103
326.545	3117
326.634	2512
326.722	3512
326.810	3380
326.898	4141
326.987	4050
327.075	3603
327.163	3962
327.251	3590
327.340	3751
327.428	6069
327.516	6779
327.604	4489
327.692	4282
327.781	3234
327.869	2794
327.957	2246
328.045	2555
328.133	2695
328.221	2465
328.309	2525
328.397	3812
328.485	3321
328.574	6031
328.662	8769
328.750	5066
328.838	3769
328.926	3263
329.014	3753
329.102	3242
329.190	3460
329.278	2759
329.366	3003
329.454	2842
329.542	2728
329.630	2376
329.718	3311
329.806	2102
329.893	3372
329.981	2156
330.069	2773
330.157	3150
330.245	4524
330.333	3312
330.421	2278
330.509	2797
330.597	3549
330.684	3338
330.772	3412
330.860	2257
330.948	3293
331.036	3138
331.123	2561
331.211	2623
331.299	3345
331.387	3499
331.475	4123
331.562	2632
331.650	3181
331.738	2661
331.825	2908
331.913	2068
332.001	3211
332.089	2499
332.176	2884
332.264	3200
332.352	3490
332.439	3332
332.527	2949
332.614	3317
332.702	3319
332.790	2957
332.877	3205
332.965	4115
333.052	3562
333.140	3367
333.228	4225
333.315	3903
333.403	2732
333.490	4528
333.578	3778
333.665	4743
333.753	5066
333.840	4266
333.928	5330
334.015	6234
334.103	8112
334.190	13846
334.278	13417
334.365	17525
334.452	18281
334.540	11650
334.627	11941
334.715	14455
334.802	19918
334.889	32319
334.977	44893
335.064	29691
335.151	15522
335.239	10128
335.326	8627
335.413	10926
335.501	13139
335.588	9218
335.675	10858
335.762	12249
335.850	16547
335.937	23405
336.024	38162
336.111	60825
336.199	56741
336.286	26042
336.373	14841
336.460	10464
336.547	8220
336.635	6823
336.722	6446
336.809	6017
336.896	5070
336.983	6190
337.070	8173
337.157	10974
337.245	6930
337.332	6403
337.419	5613
337.506	4300
337.593	4530
337.680	5955
337.767	8533
337.854	4594
337.941	4599
338.028	3669
338.115	3508
338.202	4125
338.289	4948
338.376	4560
338.463	4320
338.550	5051
338.637	5034
338.724	3986
338.811	4167
338.898	3519
338.984	2880
339.071	3213
339.158	3700
339.245	3757
339.332	3465
339.419	3411
339.506	3943
339.593	2581
339.679	3083
339.766	3351
339.853	3508
339.940	3509
340.027	3218
340.113	2711
340.200	2991
340.287	3091
340.374	2819
340.460	3376
340.547	2446
340.634	3725
340.720	4596
340.807	3480
340.894	3476
340.980	2701
341.067	2665
341.154	3892
341.240	3438
341.327	3446
341.414	3468
341.500	3029
341.587	3554
341.674	3853
341.760	3643
341.847	3299
341.933	3253
342.020	2806
342.106	3712
342.193	2708
342.279	2978
342.366	3702
342.452	3039
342.539	2437
342.625	3500
342.712	3947
342.798	3797
342.885	2850
342.971	2235
343.058	3203
343.144	2481
343.230	3312
343.317	3806
343.403	2550
343.490	3358
343.576	2300
343.662	2872
343.749	2654
343.835	2264
343.921	2980
344.008	9653
344.094	20604
344.180	6224
344.267	2403
344.353	5575
344.439	5378
344.525	3978
344.612	4139
344.698	3096
344.784	2741
344.870	2970
344.957	2065
345.043	4361
345.129	2322
345.215	3749
345.301	3102
345.387	2724
345.474	2261
345.560	2314
345.646	2299
345.732	3238
345.818	2659
345.904	3201
345.990	2059
346.076	2506
346.162	2749
346.249	3993
346.335	2573
346.421	3655
346.507	4643
346.593	7642
346.679	2960
346.765	4373
346.851	6060
346.937	4820
347.023	3785
347.108	3804
347.194	3910
347.280	3022
347.366	3561
347.452	12854
347.538	18684
347.624	10735
347.710	6668
347.796	3682
347.882	3112
347.967	2695
348.053	2729
348.139	2502
348.225	2492
348.311	2420
348.397	3143
348.482	3319
348.568	3912
348.654	5134
348.740	16639
348.825	19386
348.911	8369
348.997	7520
349.083	10033
349.168	3519
349.254	3546
349.340	3538
349.425	2673
349.511	2708
349.597	3881
349.682	2974
349.768	6510
349.854	4307
349.939	3904
350.025	3048
350.110	3706
350.196	3499
350.282	2750
350.367	3941
350.453	2941
350.538	2973
350.624	3105
350.709	3518
350.795	2122
350.880	2469
350.966	3774
351.051	3266
351.137	3675
351.222	2419
351.308	3827
351.393	4360
351.479	2966
351.564	2413
351.649	2505
351.735	3184
351.820	3113
351.906	2742
351.991	2186
352.076	3369
352.162	4955
352.247	2809
352.332	3121
352.418	2713
352.503	2493
352.588	5249
352.673	4338
352.759	2350
352.844	2431
352.929	2632
353.014	2373
353.100	3133
353.185	3972
353.270	3099
353.355	3134
353.441	3498
353.526	2860
353.611	3588
353.696	2795
353.781	3283
353.866	2413
353.952	2694
354.037	2398
354.122	4231
354.207	3329
354.292	3420
354.377	3291
354.462	2602
354.547	2636
354.632	3741
354.717	3719
354.802	3640
354.887	2754
354.972	2876
355.057	2773
355.142	2514
355.227	3430
355.312	2646
355.397	2898
355.482	4216
355.567	3760
355.652	3369
355.737	3734
355.822	5417
355.907	4704
355.991	3590
356.076	2484
356.161	2652
356.246	2723
356.331	3427
356.416	3265
356.501	11326
356.585	9700
356.670	2914
356.755	4718
356.840	3773
356.924	8332
357.009	21902
357.094	9837
357.179	3741
357.263	3393
357.348	3596
357.433	2851
357.517	3839
357.602	2801
357.687	3367
357.771	3708
357.856	4888
357.941	4338
358.025	7346
358.110	25704
358.195	12101
358.279	3314
358.364	4405
358.448	4580
358.533	7999
358.617	6493
358.702	7081
358.787	4399
358.871	3264
358.956	3499
359.040	3457
359.125	3188
359.209	4043
359.294	4813
359.378	6940
359.462	5758
359.547	3954
359.631	3458
359.716	2505
359.800	3048
359.885	4370
359.969	3291
360.053	3775
360.138	3585
360.222	3333
360.306	2860
360.391	3405
360.475	3585
360.559	4275
360.644	5281
360.728	3813
360.812	7947
360.896	14950
360.981	6481
361.065	4378
361.149	4299
361.233	4182
361.318	3994
361.402	4577
361.486	4593
361.570	4215
361.654	4367
361.739	5632
361.823	10667
361.907	17961
361.991	7776
362.075	8958
362.159	10648
362.243	20130
362.327	44887
362.411	69499
362.495	27899
362.580	13988
362.664	12969
362.748	14225
362.832	21965
362.916	43201
363.000	108656
363.084	155985
363.168	72399
363.252	23824
363.336	13666
363.420	10863
363.503	13047
363.587	13129
363.671	8947
363.755	7820
363.839	11115
363.923	10039
364.007	13418
364.091	17284
364.175	26444
364.258	57857
364.342	122884
364.426	213525
364.510	122023
364.594	39414
364.677	20354
364.761	20546
364.845	15740
364.929	8122
365.013	7121
365.096	6956
365.180	4574
365.264	6100
365.347	13750
365.431	8127
365.515	4269
365.598	3793
365.682	4839
365.766	3936
365.849	4289
365.933	4365
366.017	5442
366.100	3715
366.184	3579
366.267	5713
366.351	4115
366.435	3454
366.518	4360
366.602	4113
366.685	3459
366.769	4074
366.852	4472
366.936	4706
367.019	4665
367.103	3469
367.186	5671
367.270	3703
367.353	3576
367.436	5421
367.520	4835
367.603	5377
367.687	4065
367.770	5388
367.853	4805
367.937	6972
368.020	8827
368.104	3993
368.187	4423
368.270	4137
368.353	4158
368.437	3908
368.520	4730
368.603	3862
368.687	4718
368.770	6753
368.853	3800
368.936	4307
369.020	4320
369.103	2966
369.186	2762
369.269	2794
369.352	3951
369.436	3231
369.519	3651
369.602	1493
369.685	5155
369.768	2659
369.851	3804
369.934	2808
370.018	2608
370.101	2386
370.184	4786
370.267	4105
370.350	4050
370.433	4182
370.516	10187
370.599	23707
370.682	9095
370.765	6455
370.848	6714
370.931	8260
371.014	5854
371.097	1990
371.180	3452
371.263	2753
371.346	1878
371.429	3340
371.511	3671
371.594	2688
371.677	3476
371.760	4677
371.843	3414
371.926	10170
372.009	21057
372.091	9699
372.174	4591
372.257	10092
372.340	5343
372.423	4345
372.505	5278
372.588	2972
372.671	3900
372.754	8115
372.836	5694
372.919	4998
373.002	7117
373.085	3993
373.167	4973
373.250	4800
373.332	8705
373.415	14376
373.498	28271
373.580	14840
373.663	34617
373.746	41124
373.828	9113
373.911	6011
373.993	4682
374.076	7045
374.159	7693
374.241	4968
374.324	7847
374.406	8365
374.489	9706
374.571	22705
374.654	10677
374.736	7418
374.819	14281
374.901	21437
374.983	22370
375.066	7611
375.148	5185
375.231	8379
375.313	11980
375.395	7631
375.478	5982
375.560	6415
375.643	5786
375.725	7296
375.807	17187
375.890	14498
375.972	5057
376.054	5442
376.136	4839
376.219	4438
376.301	6889
376.383	13062
376.465	7657
376.548	3960
376.630	5353
376.712	11308
376.794	6057
376.877	2760
376.959	3311
377.041	3857
377.123	3776
377.205	3834
377.287	2832
377.369	4083
377.452	3276
377.534	3592
377.616	3351
377.698	4126
377.780	2428
377.862	3887
377.944	3702
378.026	2703
378.108	3522
378.190	3581
378.272	4058
378.354	3665
378.436	2158
378.518	1509
378.600	3642
378.682	4461
378.764	4868
378.846	4938
378.928	3843
379.010	3219
379.091	3768
379.173	3481
379.255	2093
379.337	2970
379.419	3005
379.501	7016
379.583	4093
379.664	2900
379.746	2847
379.828	6547
379.910	5080
379.991	6467
380.073	2546
380.155	2613
380.237	2764
380.318	2135
380.400	2736
380.482	3521
380.564	2720
380.645	4056
380.727	3635
380.809	3527
380.890	2689
380.972	2174
381.053	2583
381.135	3170
381.217	3335
381.298	6261
381.380	2876
381.461	3863
381.543	9350
381.624	10890
381.706	4131
381.787	3272
381.869	3500
381.951	7081
382.032	19816
382.113	15355
382.195	3048
382.276	5175
382.358	4912
382.439	9916
382.521	13001
382.602	18473
382.684	9534
382.765	10845
382.846	9371
382.928	11597
383.009	6944
383.090	6548
383.172	15087
383.253	22382
383.334	10068
383.416	14464
383.497	9167
383.578	4736
383.659	5871
383.741	13636
383.822	35089
383.903	18679
383.984	8958
384.066	15679
384.147	9708
384.228	7260
384.309	6771
384.390	6755
384.471	6795
384.553	5282
384.634	4251
384.715	5407
384.796	4550
384.877	3375
384.958	6195
385.039	6312
385.120	4845
385.201	4413
385.282	4492
385.363	5646
385.444	4776
385.525	7241
385.606	11654
385.687	10394
385.768	6553
385.849	6272
385.930	12786
386.011	22166
386.092	8349
386.173	7601
386.254	6626
386.335	6935
386.416	5577
386.496	7458
386.577	8819
386.658	6534
386.739	5749
386.820	7190
386.901	6617
386.981	7552
387.062	8793
387.143	9709
387.224	12784
387.304	14651
387.385	12421
387.466	10606
387.547	12935
387.627	12434
387.708	14119
387.789	17697
387.869	17314
387.950	11907
388.031	8259
388.111	6122
388.192	8875
388.273	8502
388.353	7679
388.434	6893
388.514	6524
388.595	13251
388.676	13908
388.756	8449
388.837	7046
388.917	5970
388.998	3149
389.078	6180
389.159	4733
389.239	3760
389.320	6161
389.400	4021
389.480	6012
389.561	7092
389.641	7299
389.722	5418
389.802	5295
389.883	5996
389.963	9939
390.043	7489
390.124	4430
390.204	6198
390.284	7341
390.365	5732
390.445	7300
390.525	8019
390.605	7918
390.686	5746
390.766	6021
390.846	5926
390.927	4636
391.007	3557
391.087	6156
391.167	4804
391.247	5427
391.328	6715
391.408	5971
391.488	7594
391.568	4718
391.648	5987
391.728	7668
391.808	7788
391.888	7121
391.969	8961
392.049	10363
392.129	9842
392.209	10237
392.289	15254
392.369	12413
392.449	12914
392.529	12153
392.609	14342
392.689	18065
392.769	21592
392.849	25505
392.929	30432
393.009	42123
393.089	60309
393.169	102530
393.248	228783
393.328	462020
393.408	481878
393.488	254403
393.568	108972
393.648	57895
393.728	36529
393.807	25556
393.887	22323
393.967	17081
394.047	15081
394.127	12370
394.206	14123
394.286	20096
394.366	70553
394.446	79988
394.525	21575
394.605	10116
394.685	9237
394.764	11974
394.844	20074
394.924	26451
395.003	12812
395.083	7592
395.163	7632
395.242	7069
395.322	7466
395.402	5240
395.481	9266
395.561	10043
395.640	29938
395.720	59997
395.799	33995
395.879	14146
395.958	12784
396.038	24190
396.117	91169
396.197	104800
396.276	33311
396.356	18870
396.435	20413
396.515	26706
396.594	38630
396.673	77883
396.753	205636
396.832	418251
396.912	337555
396.991	124638
397.070	53526
397.150	30209
397.229	26871
397.308	45464
397.388	87250
397.467	45048
397.546	17310
397.625	9089
397.705	11491
397.784	8192
397.863	7685
397.942	6893
398.022	7021
398.101	6556
398.180	10597
398.259	7508
398.338	6602
398.417	4631
398.497	4290
398.576	4938
398.655	4208
398.734	4375
398.813	5007
398.892	5773
398.971	8573
399.050	5253
399.129	3039
399.208	3788
399.287	4150
399.366	3608
399.445	3031
399.524	4549
399.603	2684
399.682	3999
399.761	4277
399.840	8502
399.919	8308
399.998	3088
400.077	2348
400.156	2361
400.235	4646
400.313	2579
400.392	1953
400.471	4402
400.550	4885
400.629	2152
400.708	3614
400.786	1385
400.865	3202
400.944	2170
401.023	4395
401.102	1640
401.180	2899
401.259	2102
401.338	2632
401.416	2835
401.495	1374
401.574	2793
401.652	1903
401.731	2874
401.810	1392
401.888	1896
401.967	1896
402.046	2700
402.124	2396
402.203	1335
402.281	2812
402.360	2610
402.438	3158
402.517	2523
402.596	2214
402.674	2513
402.753	2282
402.831	2683
402.910	3513
402.988	4952
403.066	12978
403.145	10269
403.223	6550
403.302	11500
403.380	10558
403.459	10117
403.537	5737
403.615	3476
403.694	1798
403.772	3779
403.850	3282
403.929	2110
404.007	2496
404.085	3937
404.164	3315
404.242	2888
404.320	4370
404.398	7684
404.477	7447
404.555	13736
404.633	12168
404.711	6489
404.789	5935
404.868	3015
404.946	1296
405.024	1519
405.102	1703
405.180	1698
405.258	1483
405.336	2871
405.415	1479
405.493	2409
405.571	3672
405.649	2253
405.727	1021
405.805	3868
405.883	3053
405.961	4081
406.039	1973
406.117	978
406.195	2765
406.273	2713
406.351	9790
406.429	6481
406.507	1877
406.585	1328
406.663	3031
406.740	1545
406.818	1194
406.896	1745
406.974	2858
407.052	1505
407.130	6127
407.208	7477
407.285	3505
407.363	1429
407.441	2700
407.519	2087
407.596	3038
407.674	11381
407.752	48877
407.830	37900
407.907	6398
407.985	2239
408.063	1858
408.141	1201
408.218	2730
408.296	1255
408.373	2660
408.451	3457
408.529	3106
408.606	2877
408.684	3161
408.762	2520
408.839	3058
408.917	3902
408.994	4120
409.072	3993
409.149	5891
409.227	10767
409.304	16041
409.382	18128
409.459	19430
409.537	25879
409.614	24227
409.692	18123
409.769	17560
409.846	25866
409.924	32197
410.001	23816
410.079	17013
410.156	12952
410.233	10657
410.311	7646
410.388	6374
410.465	6671
410.543	4863
410.620	5540
410.697	5174
410.775	5390
410.852	3199
410.929	6430
411.006	5728
411.083	4732
411.161	5087
411.238	4709
411.315	4123
411.392	4600
411.469	4181
411.547	3416
411.624	2452
411.701	2937
411.778	3601
411.855	3546
411.932	2365
412.009	2206
412.086	2718
412.163	2793
412.240	2239
412.317	2767
412.394	2053
412.471	2800
412.548	1633
412.625	2227
412.702	1888
412.779	3054
412.856	3341
412.933	1900
413.010	1991
413.087	1996
413.164	2346
413.241	3570
413.318	1570
413.395	2485
413.471	2471
413.548	1291
413.625	2276
413.702	1038
413.779	1886
413.855	1185
413.932	1787
414.009	704
414.086	1518
414.162	1670
414.239	2502
414.316	2657
414.393	5382
414.469	1666
414.546	1378
414.623	1607
414.699	1195
414.776	1128
414.853	1288
414.929	2070
415.006	1652
415.082	1068
415.159	1655
415.236	1890
415.312	1685
415.389	1860
415.465	621
415.542	1596
415.618	1477
415.695	1153
415.771	781
415.848	1124
415.924	1676
416.000	1352
416.077	2196
416.153	631
416.230	699
416.306	976
416.383	1567
416.459	1311
416.535	1327
416.612	472
416.688	1638
416.764	1117
416.841	1107
416.917	1341
416.993	863
417.069	1392
417.146	1165
417.222	1770
417.298	895
417.374	233
417.451	1993
417.527	1948
417.603	1541
417.679	1238
417.755	1746
417.831	1488
417.908	1917
417.984	1155
418.060	498
418.136	1331
418.212	1775
418.288	1832
418.364	1937
418.440	965
418.516	2665
418.592	1960
418.668	2146
418.744	1936
418.820	2776
418.896	2464
418.972	1889
419.048	2003
419.124	3003
419.200	1302
419.276	2162
419.352	2122
419.428	2736
419.504	2226
419.579	3225
419.655	3076
419.731	2816
419.807	3095
419.883	3256
419.959	2599
420.034	3858
420.110	3963
420.186	4911
420.262	6242
420.337	4419
420.413	4692
420.489	4890
420.565	6109
420.640	5329
420.716	6746
420.792	5067
420.867	6658
420.943	6395
421.019	7752
421.094	8674
421.170	9299
421.245	8703
421.321	11631
421.397	12162
421.472	20417
421.548	42398
421.623	30942
421.699	19685
421.774	20332
421.850	21198
421.925	27245
422.001	30688
422.076	37360
422.152	45628
422.227	57953
422.302	78965
422.378	104659
422.453	145870
422.529	196426
422.604	215795
422.679	169016
422.755	201158
422.830	203397
422.905	155835
422.981	116070
423.056	88283
423.131	67599
423.207	52737
423.282	43315
423.357	35974
423.432	28763
423.508	26280
423.583	21981
423.658	19868
423.733	18007
423.808	15471
423.883	15784
423.959	16237
424.034	18476
424.109	16915
424.184	12520
424.259	9474
424.334	9353
424.409	8320
424.484	7737
424.559	7077
424.634	6847
424.709	6202
424.784	5955
424.859	5601
424.934	4595
425.009	5905
425.084	6245
425.159	4951
425.234	4576
425.309	4187
425.384	4374
425.459	4542
425.534	4299
425.609	3262
425.683	2828
425.758	3239
425.833	3386
425.908	3428
425.983	3411
426.058	4612
426.132	3656
426.207	2922
426.282	4260
426.357	1967
426.431	2723
426.506	2916
426.581	2540
426.655	3344
426.730	2087
426.805	1688
426.879	2752
426.954	2440
427.029	2260
427.103	4112
427.178	6969
427.253	5006
427.327	2511
427.402	1896
427.476	3351
427.551	2274
427.625	2415
427.700	3006
427.774	2017
427.849	2629
427.923	1871
427.998	3263
428.072	3396
428.147	8606
428.221	33368
428.296	102901
428.370	63890
428.444	11296
428.519	4661
428.593	4051
428.667	4445
428.742	4526
428.816	13050
428.890	61432
428.965	99164
429.039	29697
429.113	6338
429.188	3341
429.262	3100
429.336	3351
429.410	4034
429.485	3296
429.559	3528
429.633	3942
429.707	5920
429.781	11861
429.855	56894
429.930	89265
430.004	29561
430.078	17400
430.152	42277
430.226	133021
430.300	140082
430.374	39177
430.448	12036
430.522	8005
430.596	9933
430.670	20785
430.744	77363
430.818	91631
430.892	20992
430.966	4665
431.040	2740
431.114	2448
431.188	1586
431.262	2102
431.336	1527
431.410	2739
431.484	2023
431.557	3717
431.631	3139
431.705	6386
431.779	28157
431.853	98128
431.927	74005
432.000	12862
432.074	3812
432.148	2111
432.222	1511
432.295	1905
432.369	471
432.443	1216
432.516	3226
432.590	7916
432.664	3998
432.737	590
432.811	10
432.885	468
432.958	1562
433.032	191
433.106	-270
433.179	48
433.253	1365
433.326	431
433.400	181
433.473	1111
433.547	1068
433.620	1035
433.694	-135
433.767	1494
433.841	936
433.914	1221
433.988	899
434.061	1907
434.134	1018
434.208	1253
434.281	291
434.355	574
434.428	1233
434.501	504
434.575	855
434.648	597
434.721	667
434.795	446
434.868	449
434.941	959
435.014	556
435.088	1558
435.161	1714
435.234	2154
435.307	2395
435.381	4012
435.454	6706
435.527	11756
435.600	14814
435.673	12443
435.746	9314
435.819	6800
435.892	5351
435.966	4380
436.039	2943
436.112	2491
436.185	1876
436.258	1548
436.331	922
436.404	1703
436.477	1065
436.550	1234
436.623	1327
436.696	-63
436.769	998
436.842	1190
436.915	464
436.987	1086
437.060	-89
437.133	717
437.206	717
437.279	593
437.352	567
437.425	928
437.498	565
437.570	1480
437.643	578
437.716	-16
437.789	699
437.861	415
437.934	502
438.007	523
438.080	204
438.152	96
438.225	1101
438.298	4392
438.370	12235
438.443	5631
438.516	1214
438.588	570
438.661	384
438.734	1035
438.806	616
438.879	1256
438.951	1645
439.024	147
439.096	531
439.169	803
439.241	341
439.314	-361
439.386	1116
439.459	947
439.531	789
439.604	312
439.676	1268
439.749	-118
439.821	275
439.893	814
439.966	1264
440.038	450
440.110	547
440.183	465
440.255	-12
440.327	1079
440.400	1649
440.472	6348
440.544	4675
440.617	883
440.689	1656
440.761	696
440.833	1589
440.905	1620
440.978	324
441.050	1404
441.122	1815
441.194	960
441.266	756
441.338	1727
441.411	1820
441.483	2214
441.555	3335
441.627	1691
441.699	1278
441.771	1243
441.843	1959
441.915	1510
441.987	2631
442.059	2730
442.131	3387
442.203	4696
442.275	5513
442.347	9583
442.419	21617
442.491	82494
442.563	171055
442.635	84463
442.706	23156
442.778	10704
442.850	6823
442.922	6322
442.994	5731
443.066	6324
443.137	7631
443.209	10425
443.281	16873
443.353	34386
443.425	95845
443.496	239758
443.568	256865
443.640	129747
443.711	40556
443.783	16851
443.855	11100
443.926	7326
443.998	6458
444.070	4935
444.141	3873
444.213	3758
444.285	3187
444.356	3839
444.428	4159
444.499	3332
444.571	3748
444.642	4185
444.714	3992
444.785	4770
444.857	5142
444.928	5985
445.000	6641
445.071	9273
445.143	11784
445.214	17774
445.285	28911
445.357	65550
445.428	171610
445.500	287866
445.571	246128
445.642	181317
445.714	78248
445.785	30006
445.856	13291
445.928	10062
445.999	7172
446.070	5043
446.141	4818
446.213	5268
446.284	3311
446.355	3382
446.426	3234
446.497	2269
446.569	1554
446.640	1849
446.711	1858
446.782	2205
446.853	1259
446.924	1484
446.995	607
447.066	1143
447.138	1497
447.209	917
447.280	-25
447.351	1120
447.422	603
447.493	220
447.564	839
447.635	330
447.706	553
447.777	78
447.847	871
447.918	244
447.989	63
448.060	1194
448.131	661
448.202	137
448.273	-12
448.344	915
448.414	409
448.485	26
448.556	521
448.627	50
448.698	1146
448.768	590
448.839	447
448.910	783
448.981	1625
449.051	233
449.122	574
449.193	115
449.263	528
449.334	-241
449.405	-204
449.475	-183
449.546	728
449.616	1287
449.687	1506
449.758	808
449.828	93
449.899	664
449.969	457
450.040	-40
450.110	145
450.181	731
450.251	577
450.322	831
450.392	864
450.463	-457
450.533	210
450.604	692
450.674	364
450.744	1216
450.815	1720
450.885	2889
450.955	1798
451.026	2211
451.096	696
451.166	1855
451.237	2574
451.307	3878
451.377	2723
451.447	1384
451.518	1852
451.588	871
451.658	1242
451.728	1124
451.799	1318
451.869	1900
451.939	542
452.009	78
452.079	1008
452.149	928
452.219	710
452.289	2524
452.360	2491
452.430	1923
452.500	2431
452.570	5257
452.640	12894
452.710	32869
452.780	40828
452.850	24900
452.920	12475
452.990	7198
453.060	4823
453.129	2690
453.199	2315
453.269	2914
453.339	4546
453.409	6198
453.479	5945
453.549	7630
453.619	7351
453.688	3906
453.758	1267
453.828	344
453.898	746
453.968	1267
454.037	646
454.087	979
454.107	1091
454.168	1306
454.177	1304
454.247	780
454.249	796
454.316	516
454.330	588
454.386	734
454.411	861
454.456	923
454.492	1487
454.525	1963
454.574	1709
454.595	1583
454.655	995
454.665	855
454.734	1231
454.736	1271
454.804	1252
454.817	1531
454.873	2479
454.898	2316
454.943	1871
454.979	1735
455.013	1611
455.060	1272
455.082	1084
455.141	1529
455.152	1575
455.221	2432
455.222	2487
455.291	3201
455.303	3278
455.360	3352
455.384	3884
455.430	4200
455.465	3966
455.499	3869
455.546	3172
455.569	2788
455.627	2556
455.638	2489
455.707	2098
455.708	2129
455.777	1847
455.789	1924
455.846	2252
455.869	2407
455.916	2537
455.950	2456
455.985	2369
456.031	2089
456.054	1915
456.112	2267
456.124	2294
456.193	1781
456.193	1745
456.262	3529
456.274	3560
456.332	3200
456.355	3081
456.401	2756
456.436	2978
456.470	3218
456.516	3276
456.540	3215
456.597	3227
456.609	3202
456.678	3685
456.678	3651
456.747	3803
456.759	3678
456.817	3120
456.840	3238
456.886	3197
456.920	3572
456.955	4034
457.001	4446
457.024	4559
457.082	4408
457.093	4344
457.162	4727
457.163	4765
457.232	5251
457.243	5320
457.301	5381
457.324	5473
457.370	5717
457.405	6445
457.439	7191
457.485	7272
457.508	7396
457.566	8678
457.577	9220
457.646	13658
457.647	13775
457.715	30295
457.727	33811
457.784	57602
457.808	73853
457.853	92482
457.889	109772
457.922	108334
457.969	79362
457.991	81827
458.050	91278
458.060	94359
458.129	152104
458.130	154058
458.198	150718
458.211	139717
458.267	90185
458.292	64840
458.336	45123
458.372	40573
458.405	50686
458.453	72139
458.474	89190
458.533	151104
458.543	155758
458.611	228694
458.614	230551
458.680	154097
458.694	126820
458.749	69485
458.775	49423
458.818	29981
458.855	22899
458.887	18858
458.936	15866
458.955	14917
459.016	12490
459.024	12177
459.093	10188
459.097	10184
459.162	10074
459.177	9919
459.230	9357
459.257	9320
459.299	9284
459.338	9047
459.368	8724
459.418	8755
459.437	8757
459.499	8649
459.505	8631
459.574	8100
459.579	8143
459.643	8478
459.659	8402
459.711	8257
459.740	8194
459.780	7975
459.820	8159
459.849	8242
459.900	8353
459.917	8333
459.981	8433
459.986	8455
460.054	8585
460.061	8634
460.123	8632
460.141	8691
460.191	9195
460.222	9533
460.260	9699
460.302	9743
460.328	10012
460.382	10657
460.397	11037
460.462	12996
460.465	13434
460.534	23730
460.543	25208
460.602	63075
460.623	77052
460.671	116214
460.703	150158
460.739	131809
460.783	102661
460.808	86563
460.864	26180
460.876	22014
460.944	11915
460.945	11807
461.013	10736
461.024	10436
461.081	9399
461.104	9335
461.150	8905
461.184	8660
461.218	9074
461.264	9790
461.286	9823
461.345	9325
461.355	9152
461.423	8403
461.425	8382
461.491	8781
461.505	9032
461.559	9616
461.585	9526
461.628	10110
461.665	11080
461.696	11248
461.745	11521
461.764	11189
461.825	9611
461.832	9637
461.901	9466
461.905	9507
461.969	8982
461.985	8730
462.037	9082
462.065	9415
462.105	9351
462.145	9351
462.173	9665
462.225	10066
462.241	10155
462.305	10817
462.310	10798
462.378	10574
462.385	10477
462.446	9894
462.465	9735
462.514	9886
462.545	10220
462.582	9945
462.625	9260
462.650	9189
462.705	9312
462.718	9412
462.785	9696
462.786	9695
462.854	9352
462.865	9329
462.922	9842
462.945	9973
462.990	9879
463.025	9736
463.058	9788
463.104	9982
463.126	9943
463.184	9828
463.194	9855
463.262	9856
463.264	9851
463.330	9885
463.344	9882
463.398	10492
463.424	10745
463.466	10267
463.504	9886
463.533	9960
463.583	10061
463.601	10009
463.663	9512
463.669	9541
463.737	10277
463.743	10310
463.805	10744
463.823	10855
463.873	11764
463.903	12309
463.940	12592
463.982	12979
464.008	12278
464.062	10754
464.076	10721
464.142	10027
464.144	10041
464.211	10379
464.221	10429
464.279	10671
464.301	10655
464.347	11149
464.381	11765
464.414	11450
464.461	10787
464.482	10779
464.540	10586
464.550	10633
464.617	10867
464.620	10863
464.685	10543
464.699	10498
464.753	12104
464.779	12799
464.820	13314
464.859	13796
464.888	13375
464.938	12534
464.956	12670
465.018	12992
465.023	12964
465.091	12466
465.098	12407
465.158	12570
465.177	12546
465.226	12793
465.257	12912
465.293	12652
465.336	12365
465.361	12698
465.416	13293
465.428	13355
465.495	13653
465.496	13681
465.563	14396
465.575	14533
465.631	15715
465.654	16200
465.698	14380
465.734	12709
465.765	12689
465.813	12572
465.833	12349
465.893	11699
465.900	11739
465.968	11927
465.972	11916
466.035	11901
466.052	11863
466.102	12099
466.131	12221
466.170	12554
466.210	12896
466.237	12798
466.290	12423
466.304	12559
466.369	13019
466.372	13029
466.439	12659
466.449	12572
466.506	12698
466.528	12715
466.573	13829
466.607	14644
466.641	15934
466.687	17620
466.708	18375
466.766	20378
466.775	19655
466.842	13895
466.845	13593
466.909	13660
466.925	13654
466.977	14789
467.004	15348
467.044	15432
467.083	15473
467.111	15910
467.163	16605
467.178	16913
467.242	18040
467.245	18031
467.312	17079
467.321	16918
467.379	17418
467.400	17545
467.446	18334
467.480	18839
467.559	17723
467.638	16539
467.717	16754
467.796	18271
467.875	18151
467.955	18215
468.034	21711
468.113	25819
468.192	32527
468.271	32288
468.350	41141
468.429	53724
468.508	54237
468.588	39186
468.667	25895
468.746	21694
468.825	19519
468.904	18255
468.983	17493
469.062	17612
469.141	18342
469.220	15700
469.299	16320
469.378	15866
469.456	18541
469.535	17772
469.614	16804
469.693	15779
469.772	16996
469.851	17898
469.930	16090
470.009	16475
470.088	15920
470.166	16867
470.245	17367
470.324	17607
470.403	15915
470.482	16089
470.560	15953
470.639	15920
470.718	16139
470.797	15617
470.875	16055
470.954	15651
471.033	16060
471.111	15106
471.190	14529
471.269	15504
471.347	15684
471.426	15634
471.505	16748
471.583	16770
471.662	16207
471.740	15513
471.819	16142
471.898	15493
471.976	16232
472.055	16203
472.133	19570
472.212	23578
472.290	17454
472.369	16121
472.447	15320
472.526	15228
472.604	16103
472.683	15502
472.761	15475
472.839	16235
472.918	15230
472.996	15996
473.075	15758
473.153	16627
473.231	15628
473.310	15930
473.388	16177
473.466	16147
473.545	16652
473.623	17332
473.701	17275
473.780	17491
473.858	16945
473.936	19044
474.014	16879
474.093	19393
474.171	23268
474.249	19176
474.327	17320
474.405	15720
474.484	16269
474.562	15940
474.640	15270
474.718	15189
474.796	16395
474.874	15081
474.952	15394
475.030	14336
475.108	15214
475.187	15447
475.265	15856
475.343	17457
475.421	18440
475.499	15619
475.577	14857
475.655	16713
475.733	16878
475.811	18502
475.889	17678
475.966	17749
476.044	15283
476.122	15470
476.200	15955
476.278	14970
476.356	15284
476.434	15670
476.512	15785
476.590	17063
476.667	15591
476.745	14499
476.823	15317
476.901	14635
476.979	14246
477.056	15611
477.134	14699
477.212	14867
477.290	14696
477.367	14701
477.445	13931
477.523	14267
477.601	13455
477.678	14729
477.756	15451
477.834	14044
477.911	15138
477.989	14379
478.066	14106
478.144	15445
478.222	14965
478.299	19273
478.377	22021
478.454	18812
478.532	14470
478.609	13720
478.687	14533
478.764	13694
478.842	14558
478.919	14219
478.997	13713
479.074	13866
479.152	14410
479.229	15671
479.307	13996
479.384	14162
479.461	14538
479.539	14043
479.616	14969
479.694	14274
479.771	14128
479.848	14117
479.926	12928
480.003	15667
480.080	14078
480.157	14339
480.235	14329
480.312	14701
480.389	14973
480.467	14968
480.544	16486
480.621	16830
480.698	16805
480.775	16020
480.853	15923
480.930	15282
481.007	16478
481.084	25412
481.161	39175
481.238	23487
481.315	14479
481.392	15652
481.470	15089
481.547	15976
481.624	15276
481.701	15601
481.778	15049
481.855	16593
481.932	17594
482.009	18969
482.086	18396
482.163	19625
482.240	22879
482.317	25169
482.393	21883
482.470	18914
482.547	18445
482.624	17283
482.701	17166
482.778	16359
482.855	17277
482.932	17577
483.009	19069
483.085	25467
483.162	33716
483.239	31487
483.316	22316
483.393	22470
483.469	19685
483.546	19405
483.623	17725
483.699	16742
483.776	16371
483.853	15699
483.930	16098
484.006	20393
484.083	24328
484.160	25263
484.236	34276
484.313	28938
484.389	25664
484.466	28090
484.543	31394
484.619	36053
484.696	38224
484.772	29120
484.849	23875
484.925	22520
485.002	22033
485.078	22744
485.155	20546
485.231	20161
485.308	19609
485.384	19791
485.461	21496
485.537	23168
485.614	21926
485.690	19220
485.766	18433
485.843	17863
485.919	18509
485.995	18878
486.072	18021
486.148	17944
486.224	18378
486.301	17435
486.377	18546
486.453	18388
486.530	20912
486.606	24550
486.682	24115
486.758	24243
486.835	26066
486.911	25786
486.987	25961
487.063	27487
487.139	34763
487.215	44321
487.292	38333
487.368	36396
487.444	44237
487.520	61681
487.596	93213
487.672	187883
487.748	516754
487.824	783017
487.900	298320
487.976	95696
488.052	53454
488.128	39974
488.204	31789
488.280	27748
488.356	25783
488.432	26425
488.508	27828
488.584	21769
488.660	20928
488.736	20199
488.812	18599
488.888	20980
488.964	19994
489.039	20601
489.115	25474
489.191	24836
489.267	19145
489.343	18342
489.418	17639
489.494	17964
489.570	15951
489.646	18208
489.722	16533
489.797	16802
489.873	19231
489.949	21378
490.024	19989
490.100	16502
490.176	17544
490.251	17118
490.327	17279
490.403	16789
490.478	16080
490.554	15462
490.629	16357
490.705	16066
490.781	14760
490.856	15474
490.932	15950
491.007	15886
491.083	15409
491.158	15105
491.234	15599
491.309	18585
491.385	16485
491.460	13761
491.536	15783
491.611	14643
491.686	14647
491.762	15327
491.837	15596
491.913	17347
491.988	18125
492.063	19609
492.139	14998
492.214	14371
492.289	14474
492.365	12864
492.440	14758
492.515	13343
492.590	13656
492.666	13206
492.741	14201
492.816	14539
492.891	13331
492.967	13646
493.042	13004
493.117	13434
493.192	13360
493.267	14954
493.342	22392
493.418	26314
493.493	13647
493.568	12244
493.643	12452
493.718	12997
493.793	12865
493.868	13158
493.943	12757
494.018	12492
494.093	12271
494.168	12505
494.243	12306
494.318	12166
494.393	12892
494.468	10741
494.543	12795
494.618	12349
494.693	12301
494.768	12003
494.842	11604
494.917	11852
494.992	11470
495.067	10952
495.142	10979
495.217	12132
495.292	11294
495.366	12386
495.441	11255
495.516	13266
495.591	13562
495.665	17833
495.740	25477
495.815	16890
495.890	12530
495.964	12081
496.039	15853
496.114	20317
496.188	36251
496.263	26185
496.338	12924
496.412	12796
496.487	13029
496.561	12635
496.636	12807
496.710	13544
496.785	15251
496.860	13464
496.934	11136
497.009	12255
497.083	11417
497.158	11714
497.232	12160
497.307	11828
497.381	11045
497.455	12084
497.530	13073
497.604	12194
497.679	11623
497.753	12811
497.827	12912
497.902	12234
497.976	14033
498.050	22321
498.125	59782
498.199	53831
498.273	13819
498.348	11881
498.422	11270
498.496	12267
498.570	12244
498.645	12284
498.719	10489
498.793	12258
498.867	13207
498.941	15883
499.016	28533
499.090	59534
499.164	24043
499.238	12199
499.312	11137
499.386	11946
499.460	12050
499.534	12809
499.609	11244
499.683	13401
499.757	13404
499.831	18754
499.905	42782
499.979	36861
500.053	12721
500.127	12894
500.201	11755
500.275	11784
500.349	11490
500.422	11786
500.496	12505
500.570	15548
500.644	25993
500.718	41493
500.792	16038
500.866	12496
500.940	12493
501.013	12535
501.087	11545
501.161	13742
501.235	12610
501.309	22517
501.382	36437
501.456	31192
501.530	14745
501.603	17599
501.677	12287
501.751	10230
501.825	12952
501.898	13783
501.972	18468
502.046	15011
502.119	11065
502.193	14216
502.266	19167
502.340	13678
502.413	14204
502.487	18205
502.561	13216
502.634	12223
502.708	11633
502.781	11215
502.855	12467
502.928	10602
503.002	11457
503.075	10848
503.149	11864
503.222	12396
503.295	11887
503.369	13373
503.442	14873
503.516	21044
503.589	32032
503.662	28143
503.736	24994
503.809	34942
503.882	41032
503.956	64637
504.029	119344
504.102	300008
504.175	427934
504.249	177499
504.322	69858
504.395	40021
504.468	27846
504.542	20725
504.615	17160
504.688	15975
504.761	13038
504.834	14787
504.907	12871
504.980	13327
505.053	11209
505.127	9541
505.200	13649
505.273	10928
505.346	11196
505.419	9308
505.492	11177
505.565	10061
505.638	9920
505.711	8936
505.784	8593
505.857	7913
505.930	9672
506.003	7847
506.076	10385
506.149	8743
506.221	7737
506.294	11453
506.367	11457
506.440	21807
506.513	13948
506.586	10209
506.659	9470
506.731	8580
506.804	8674
506.877	8273
506.950	8671
507.022	9161
507.095	7297
507.168	9299
507.241	9348
507.313	8041
507.386	7142
507.459	8987
507.531	9326
507.604	7334
507.677	9532
507.749	8071
507.822	10390
507.894	11830
507.967	14036
508.040	11706
508.112	10573
508.185	10494
508.257	8575
508.330	12318
508.402	9341
508.475	9843
508.547	9367
508.620	10983
508.692	10768
508.765	10254
508.837	8815
508.909	9172
508.982	9359
509.054	10149
509.127	9221
509.199	9024
509.271	8235
509.344	8583
509.416	9042
509.488	9460
509.560	8987
509.633	8270
509.705	9213
509.777	9646
509.849	10007
509.922	8439
509.994	8917
510.066	10832
510.138	10043
510.210	14140
510.283	11775
510.355	11327
510.427	10444
510.499	11416
510.571	10111
510.643	9388
510.715	10805
510.787	9037
510.859	11732
510.931	10382
511.003	11412
511.076	10937
511.148	9038
511.219	9790
511.291	11485
511.363	11529
511.435	9781
511.507	9206
511.579	9667
511.651	10251
511.723	9230
511.795	9145
511.867	8801
511.939	9578
512.010	9812
512.082	10315
512.154	9000
512.226	9754
512.298	10943
512.369	13362
512.441	12800
512.513	11519
512.585	9443
512.656	11835
512.728	9762
512.800	10542
512.871	10228
512.943	11143
513.015	9787
513.086	9977
513.158	10514
513.230	9728
513.301	9592
513.373	10546
513.444	9026
513.516	9742
513.588	8919
513.659	9912
513.731	9874
513.802	9620
513.874	12158
513.945	10674
514.016	10006
514.088	9832
514.159	9217
514.231	11131
514.302	11625
514.374	12281
514.445	9201
514.516	13521
514.588	9573
514.659	10431
514.730	11091
514.802	11333
514.873	8363
514.944	12334
515.016	9186
515.087	10516
515.158	10789
515.229	11850
515.301	8926
515.372	10835
515.443	9218
515.514	10912
515.585	9582
515.656	11500
515.728	10905
515.799	9443
515.870	10777
515.941	10044
516.012	9440
516.083	11644
516.154	10268
516.225	12192
516.296	12024
516.367	10100
516.438	10510
516.509	11203
516.580	12931
516.651	20937
516.722	40381
516.793	21960
516.864	11476
516.935	12124
517.006	13634
517.077	14364
517.148	20371
517.219	50180
517.289	68315
517.360	26815
517.431	15651
517.502	11377
517.573	12843
517.643	12105
517.714	12978
517.785	14018
517.856	12830
517.926	15678
517.997	16872
518.068	16911
518.138	20509
518.209	23769
518.280	47984
518.350	124893
518.421	59391
518.492	37341
518.562	45324
518.633	63198
518.703	100183
518.774	220472
518.845	515095
518.915	461098
518.986	144243
519.056	63576
519.127	41926
519.197	33952
519.268	35609
519.338	27715
519.408	17039
519.479	16972
519.549	14674
519.620	15959
519.690	13553
519.760	12321
519.831	12455
519.901	11344
519.971	11876
520.042	11643
520.112	11243
520.182	12433
520.253	11776
520.323	10958
520.393	10339
520.463	13271
520.534	9065
520.604	14017
520.674	11582
520.744	10437
520.814	11455
520.885	12685
520.955	14373
521.025	26479
521.095	14603
521.165	11394
521.235	9757
521.305	10999
521.375	10664
521.445	10499
521.515	10301
521.585	12082
521.655	9625
521.725	10925
521.795	10839
521.865	8441
521.935	12494
522.005	10201
522.075	10145
522.145	12214
522.215	10775
522.285	11546
522.355	10804
522.424	13799
522.494	12890
522.564	13076
522.634	11626
522.704	18269
522.774	12392
522.843	11460
522.913	11828
522.983	12382
523.053	10114
523.122	11054
523.192	10596
523.262	12238
523.331	10975
523.401	11640
523.471	10223
523.540	11670
523.610	9550
523.680	11512
523.749	12128
523.819	15185
523.888	14742
523.958	12286
524.027	11690
524.097	11616
524.166	11635
524.236	10073
524.305	13562
524.375	10828
524.444	11311
524.514	13594
524.583	10876
524.653	11228
524.722	11780
524.791	11904
524.861	13615
524.930	12080
524.999	12709
525.069	14167
525.138	13070
525.207	13981
525.277	14904
525.346	15911
525.415	17560
525.484	18374
525.554	21255
525.623	27588
525.692	36083
525.761	35795
525.830	41972
525.900	54337
525.969	87100
526.038	171592
526.107	336544
526.176	868057
526.245	657006
526.314	216422
526.383	452313
526.452	598550
526.522	777657
526.591	690632
526.660	136458
526.729	80710
526.797	88737
526.867	133341
526.935	358497
527.004	1078256
527.073	698054
527.142	121706
527.211	52845
527.280	36982
527.349	28320
527.418	22022
527.487	20855
527.555	18560
527.624	15677
527.693	14379
527.762	17094
527.831	14274
527.899	14520
527.968	13826
528.037	12365
528.106	13587
528.174	13568
528.243	13105
528.312	13141
528.380	13935
528.449	11191
528.518	13645
528.586	10125
528.655	13071
528.723	12501
528.792	12336
528.861	12066
528.929	11319
528.998	13583
529.066	14416
529.135	16395
529.203	16732
529.272	18572
529.340	22415
529.409	21759
529.477	19438
529.545	18515
529.614	22303
529.682	21404
529.751	23314
529.819	26200
529.887	27757
529.956	23948
530.024	25294
530.092	22826
530.161	23772
530.229	23862
530.297	25623
530.365	25503
530.434	26732
530.502	27087
530.570	25324
530.638	21976
530.707	23663
530.775	22642
530.843	22584
530.911	24371
530.979	23508
531.047	25580
531.115	25834
531.183	23652
531.252	23725
531.320	22457
531.388	21337
531.456	26036
531.524	25350
531.592	26475
531.660	29942
531.728	25830
531.796	26239
531.864	26561
531.932	25838
532.000	25710
532.067	28813
532.135	29270
532.203	30240
532.271	30854
532.339	33378
532.407	32774
532.475	31176
532.542	30176
532.610	30075
532.678	30454
532.746	39331
532.814	49615
532.881	34745
532.949	32453
533.017	30365
533.084	28408
533.152	28264
533.220	27742
533.287	27402
533.355	28819
533.423	30548
533.490	29861
533.558	29094
533.625	29236
533.693	28976
533.761	28131
533.828	28798
533.896	27446
533.963	31748
534.031	32412
534.098	38571
534.166	38260
534.233	37297
534.300	39820
534.368	39367
534.435	37180
534.503	38748
534.570	40347
534.637	44917
534.705	50201
534.772	61612
534.840	107891
534.907	383432
534.974	441749
535.041	74913
535.109	42528
535.176	34891
535.243	35441
535.310	34726
535.378	32698
535.445	33547
535.512	35112
535.579	32241
535.646	31886
535.714	33007
535.781	34417
535.848	35603
535.915	35343
535.982	34896
536.049	32552
536.116	33849
536.183	31423
536.250	30671
536.317	30470
536.384	32385
536.451	32891
536.518	33826
536.585	32016
536.652	35398
536.719	35258
536.786	31032
536.853	31549
536.920	33456
536.987	31304
537.053	30905
537.120	39311
537.187	39575
537.254	34506
537.321	34405
537.388	34922
537.454	33137
537.521	33137
537.588	33690
537.654	34021
537.721	37139
537.788	36113
537.855	33172
537.921	34762
537.988	34644
538.055	32013
538.121	30531
538.188	29138
538.254	29296
538.321	30537
538.388	32412
538.454	35666
538.521	36768
538.587	35195
538.654	33835
538.720	32927
538.787	34868
538.853	33701
538.920	32023
538.986	29690
539.053	29214
539.119	31290
539.185	31078
539.252	33727
539.318	35067
539.385	37829
539.451	34109
539.517	34171
539.583	34725
539.650	34190
539.716	36739
539.782	31238
539.849	30734
539.915	32878
539.981	30921
540.047	31365
540.114	31455
540.180	33591
540.246	35355
540.312	36224
540.378	34836
540.444	34500
540.510	35793
540.576	39877
540.643	33446
540.709	30439
540.775	33171
540.841	31431
540.907	31556
540.973	33724
541.039	33294
541.105	33589
541.171	35502
541.237	34685
541.303	34704
541.369	35759
541.435	34735
541.500	33673
541.566	31875
541.632	31014
541.698	31050
541.764	34101
541.830	32817
541.896	31387
541.961	32335
542.027	32781
542.093	35452
542.159	35832
542.224	32740
542.290	34011
542.356	32723
542.421	32617
542.487	31471
542.553	30733
542.618	30906
542.684	31899
542.750	32207
542.815	33327
542.881	33608
542.947	39147
543.012	36432
543.078	32003
543.143	29911
543.209	31998
543.274	31009
543.340	32277
543.405	33300
543.471	35548
543.536	34375
543.602	33457
543.667	32139
543.732	33707
543.798	32835
543.863	34349
543.928	33740
543.994	32336
544.059	33861
544.124	34956
544.190	34046
544.255	35615
544.320	35637
544.386	35376
544.451	37023
544.516	36323
544.581	36262
544.646	38696
544.712	42826
544.777	37876
544.842	37708
544.907	36465
544.972	38482
545.037	39217
545.102	41809
545.168	40134
545.233	40956
545.298	41492
545.363	40755
545.428	43905
545.493	44230
545.558	45620
545.623	43812
545.688	44404
545.753	46073
545.818	46496
545.883	49296
545.947	49814
546.012	52980
546.077	51957
546.142	56311
546.207	57264
546.272	59978
546.337	60139
546.401	64030
546.466	67349
546.531	68480
546.596	73296
546.661	76551
546.725	80429
546.790	84925
546.855	93529
546.919	101340
546.984	112525
547.049	120163
547.113	135390
547.178	151741
547.243	171442
547.307	193932
547.372	213319
547.436	212978
547.501	225077
547.565	239089
547.630	218586
547.695	214599
547.759	215912
547.823	215638
547.888	224197
547.952	228483
548.017	235880
548.081	251740
548.146	240581
548.210	245965
548.274	263630
548.339	256703
548.403	233536
548.468	221502
548.532	221364
548.596	226726
548.660	229563
548.725	247344
548.789	266480
548.853	259810
548.917	249353
548.982	241962
549.046	218398
549.110	199674
549.174	207609
549.238	240012
549.303	261068
549.367	266183
549.431	253402
549.495	239359
549.559	241902
549.623	276387
549.687	300494
549.751	296198
549.815	347049
549.879	349184
549.943	338479
550.007	354866
550.071	345541
550.135	317370
550.199	303262
550.263	299287
550.327	285351
550.391	294970
550.455	323090
550.519	337917
550.582	355641
550.646	395724
550.710	400214
550.774	393430
550.838	398736
550.901	410693
550.965	427367
551.029	445425
551.093	471023
551.156	500872
551.220	532326
551.284	551290
551.347	472545
551.411	429539
551.475	417479
551.538	427787
551.602	405362
551.666	388256
551.729	370235
551.793	363150
551.856	358477
551.920	352560
551.983	353295
552.047	350552
552.110	352837
552.174	356465
552.237	362446
552.301	340845
552.364	328243
552.428	322045
552.491	328744
552.554	336099
552.618	330453
552.681	338349
552.745	325223
552.808	333535
552.871	346363
552.934	341790
552.998	334783
553.061	329779
553.124	317938
553.187	318792
553.251	327369
553.314	329261
553.377	332435
553.440	351481
553.503	370913
553.567	372710
553.630	359316
553.693	356470
553.756	359650
553.819	355297
553.882	347297
553.945	347388
554.008	352256
554.071	353149
554.134	353334
554.197	338296
554.260	335918
554.323	341709
554.386	341998
554.449	352966
554.512	347906
554.575	338995
554.638	334658
554.701	335033
554.764	334495
554.827	322474
554.889	313794
554.952	298565
555.015	293235
555.078	297845
555.141	300102
555.203	294581
555.266	294127
555.329	292392
555.391	281413
555.454	277648
555.517	264436
555.580	257088
555.642	251039
555.705	248985
555.768	244406
555.830	238512
555.893	228033
555.955	221435
556.018	219200
556.080	217867
556.143	223866
556.206	218432
556.268	213943
556.330	210230
556.393	202407
556.455	198047
556.518	194645
556.580	189482
556.643	182184
556.705	178220
556.767	176384
556.830	174627
556.892	170464
556.955	166657
557.017	162701
557.079	162455
557.142	155766
557.204	153309
557.266	151320
557.328	143121
557.391	135710
557.453	134000
557.515	130537
557.577	132478
557.639	132966
557.701	130682
557.764	129321
557.826	129682
557.888	130661
557.950	133353
558.012	141975
558.074	170891
558.136	298756
558.198	573603
558.260	246220
558.322	132647
558.384	131152
558.446	131605
558.508	138693
558.570	150332
558.632	167303
558.694	206983
558.756	316661
558.818	705976
558.880	1281262
558.942	640144
559.003	608984
559.065	319111
559.127	154029
559.189	144518
559.251	161785
559.312	215590
559.374	422155
559.436	990216
559.498	553953
559.559	171646
559.621	142831
559.683	163309
559.744	240153
559.806	589803
559.868	782612
559.929	231610
559.991	159718
560.052	234122
560.114	548079
560.176	366115
560.237	338561
560.299	490149
560.360	138962
560.422	74465
560.483	66015
560.545	63906
560.606	60968
560.667	58541
560.729	56979
560.790	54603
560.852	53937
560.913	52173
560.974	50511
561.036	51210
561.097	49761
561.158	49986
561.220	50371
561.281	47955
561.342	46929
561.403	46998
561.465	46375
561.526	46901
561.587	46669
561.648	43882
561.709	44007
561.771	43044
561.832	41378
561.893	40564
561.954	39907
562.015	39542
562.076	39873
562.137	38911
562.198	38512
562.259	39326
562.320	38778
562.381	39215
562.442	39258
562.503	38189
562.564	36785
562.625	36288
562.686	36209
562.747	36117
562.808	35518
562.869	34336
562.930	35191
562.991	34527
563.051	34522
563.112	34193
563.173	33760
563.234	33613
563.294	34483
563.355	33542
563.416	32813
563.477	32610
563.537	32430
563.598	32941
563.659	31481
563.720	32759
563.780	30854
563.841	31931
563.901	31336
563.962	31310
564.023	30478
564.083	31382
564.144	30568
564.204	30685
564.265	31464
564.325	29629
564.386	31580
564.446	30850
564.507	28973
564.567	28759
564.628	28520
564.688	28428
564.749	28848
564.809	29653
564.869	29256
564.930	28586
564.990	28523
565.050	28293
565.111	29345
565.171	29168
565.231	28729
565.292	28606
565.352	27915
565.412	28750
565.472	28214
565.532	29313
565.593	27354
565.653	27735
565.713	28049
565.773	29422
565.833	29270
565.893	30143
565.953	27070
566.013	25701
566.074	26351
566.134	26691
566.194	26220
566.254	27766
566.314	27342
566.374	27035
566.434	26867
566.494	26849
566.554	26150
566.614	26867
566.673	27635
566.733	28751
566.793	28610
566.853	27658
566.913	27698
566.973	27097
567.033	28370
567.092	27752
567.152	27803
567.212	29308
567.272	27930
567.331	28265
567.391	28346
567.451	30837
567.511	29791
567.570	30067
567.630	28349
567.690	27251
567.749	28041
567.809	28149
567.868	26907
567.928	27200
567.988	28576
568.047	29339
568.107	28725
568.166	29319
568.226	27817
568.285	29615
568.345	28808
568.404	29114
568.464	28308
568.523	28782
568.582	28536
568.642	29112
568.701	27618
568.761	27791
568.820	28058
568.879	27751
568.939	28612
568.998	30062
569.057	27224
569.116	27486
569.176	28574
569.235	27769
569.294	27573
569.353	27436
569.413	26929
569.472	26555
569.531	25596
569.590	26412
569.649	25831
569.708	26411
569.767	27265
569.827	26470
569.886	26678
569.945	27208
570.004	26790
570.063	26719
570.122	28130
570.181	29689
570.240	29563
570.299	29148
570.358	27731
570.417	28474
570.475	28810
570.534	29395
570.593	27395
570.652	28800
570.711	27892
570.770	28256
570.829	27842
570.887	28025
570.946	29188
571.005	28023
571.064	28817
571.122	28611
571.181	27793
571.240	27933
571.299	27424
571.357	27533
571.416	26996
571.475	27199
571.533	27260
571.592	29580
571.650	29280
571.709	29843
571.768	32506
571.826	32622
571.885	31785
571.943	30364
572.002	28757
572.060	27879
572.119	28306
572.177	27255
572.236	27654
572.294	29261
572.352	29992
572.411	28973
572.469	28326
572.528	28282
572.586	27447
572.644	27000
572.703	27707
572.761	27267
572.819	26585
572.877	24490
572.936	24383
572.994	25199
573.052	24322
573.110	26286
573.169	26486
573.227	26468
573.285	26419
573.343	26814
573.401	25680
573.459	26572
573.517	25731
573.576	27463
573.634	26055
573.692	24903
573.750	26195
573.808	25734
573.866	24874
573.924	25374
573.982	25467
574.040	24900
574.098	24717
574.155	24245
574.213	24450
574.271	24716
574.329	25782
574.387	24819
574.445	23641
574.503	23160
574.560	22899
574.618	22936
574.676	22616
574.734	22395
574.792	23105
574.849	22627
574.907	20649
574.965	21284
575.022	19220
575.080	20449
575.138	19377
575.195	19139
575.253	18543
575.311	19596
575.368	19021
575.426	19330
575.483	20188
575.541	20101
575.598	19211
575.656	18825
575.713	20327
575.771	21252
575.828	19790
575.886	19187
575.943	18710
576.001	18272
576.058	18129
576.115	18391
576.173	18420
576.230	19511
576.287	20015
576.345	19572
576.402	18977
576.459	19865
576.517	18282
576.574	18561
576.631	18748
576.688	18587
576.746	18098
576.803	17776
576.860	17507
576.917	18497
576.974	18482
577.031	19093
577.089	18269
577.146	17494
577.203	17290
577.260	17178
577.317	16648
577.374	16641
577.431	17578
577.488	17230
577.545	17226
577.602	17974
577.659	17102
577.716	17866
577.773	18042
577.830	17724
577.886	17469
577.943	16485
578.000	16195
578.057	17906
578.114	17344
578.171	18833
578.227	18918
578.284	17924
578.341	18176
578.398	17300
578.454	17709
578.511	17115
578.568	17456
578.625	17183
578.681	17060
578.738	18008
578.794	16927
578.851	17622
578.908	16648
578.964	17636
579.021	18514
579.077	18710
579.134	17553
579.190	17881
579.247	17637
579.303	17089
579.360	17149
579.416	16878
579.473	17526
579.529	17662
579.586	18409
579.642	18710
579.698	17361
579.755	18103
579.811	18036
579.867	18838
579.924	18007
579.980	18362
580.036	19512
580.093	19686
580.149	21164
580.205	22159
580.261	20706
580.317	20786
580.374	20721
580.430	21091
580.486	19853
580.542	18876
580.598	19896
580.619	19878
580.654	19874
580.692	19717
580.710	19679
580.765	18837
580.767	18833
580.823	20218
580.838	20409
580.879	21006
580.911	20588
580.935	20310
580.984	19647
580.991	19586
581.047	19884
581.057	19942
581.103	20295
581.130	20171
581.159	20065
581.203	20908
581.215	21169
581.270	19150
581.276	19214
581.326	20043
581.349	19683
581.382	19148
581.422	19453
581.438	19596
581.494	19863
581.494	19841
581.550	19432
581.567	19237
581.606	18851
581.640	19515
581.661	19911
581.713	20128
581.717	20169
581.773	20522
581.786	20275
581.829	19462
581.859	20500
581.885	21419
581.932	20462
581.940	20301
581.996	20510
582.004	20318
582.052	19289
582.077	19581
582.107	19985
582.150	19440
582.163	19278
582.219	19261
582.223	19265
582.274	19399
582.296	19684
582.330	20241
582.368	19846
582.386	19659
582.441	20136
582.441	20143
582.497	20108
582.514	20515
582.552	21398
582.587	20663
582.608	20189
582.659	19691
582.663	19669
582.719	20941
582.732	20847
582.774	20628
582.805	20801
582.830	20882
582.877	21651
582.885	21796
582.941	21663
582.950	21827
582.996	22544
583.023	22877
583.052	23391
583.095	23142
583.107	23024
583.162	22603
583.168	22667
583.218	23326
583.240	22329
583.273	20815
583.313	20923
583.328	21006
583.384	20821
583.385	20784
583.439	19629
583.458	19869
583.494	20410
583.531	20855
583.549	21035
583.603	20312
583.605	20290
583.660	20504
583.676	20503
583.715	20448
583.748	20104
583.770	19986
583.820	19650
583.825	19569
583.881	20107
583.893	19710
583.936	18844
583.965	19621
583.991	20044
584.038	20115
584.046	20155
584.101	19730
584.110	19856
584.156	20542
584.183	20785
584.211	20953
584.255	21153
584.266	21181
584.321	21239
584.328	21193
584.376	20989
584.400	21232
584.431	21604
584.472	22064
584.486	22179
584.541	22787
584.545	22779
584.596	22508
584.617	22896
584.651	23588
584.689	23778
584.706	23802
584.761	24360
584.762	24370
584.816	24936
584.834	25353
584.871	26446
584.906	27132
584.926	27336
584.978	28812
584.980	28882
585.035	30728
585.051	31395
585.090	32945
585.123	34672
585.145	36277
585.195	39538
585.200	39873
585.254	44215
585.267	45873
585.309	51495
585.340	56591
585.364	61302
585.412	71519
585.419	73219
585.473	89962
585.484	95098
585.528	122955
585.556	150254
585.583	196817
585.628	303369
585.637	339834
585.692	643168
585.700	692642
585.747	891140
585.772	810154
585.801	570522
585.845	267388
585.856	220637
585.910	110546
585.917	100127
585.965	72968
585.989	62587
586.019	55797
586.061	48420
586.074	46898
586.128	42719
586.133	42440
586.183	39859
586.205	38642
586.237	37570
586.277	36191
586.292	35863
586.346	35262
586.349	35278
586.401	35088
586.421	34725
586.455	34139
586.493	34117
586.509	34395
586.564	33990
586.565	34045
586.618	37304
586.637	38616
586.672	42288
586.709	45833
586.727	47697
586.781	53971
586.781	53970
586.835	44943
586.853	42560
586.889	38649
586.925	35558
586.944	34477
586.996	32810
586.998	32795
587.052	32691
587.068	32725
587.106	33100
587.140	33083
587.161	32831
587.212	32857
587.215	32875
587.269	32637
587.284	32856
587.323	33459
587.356	33766
587.377	34080
587.427	35397
587.431	35419
587.485	35456
587.499	35292
587.539	35493
587.571	36349
587.593	37088
587.643	38546
587.648	38632
587.702	39379
587.715	39501
587.755	39438
587.786	39514
587.810	39711
587.858	40144
587.864	40144
587.917	40184
587.930	40162
587.971	40212
588.001	40379
588.025	40423
588.073	40342
588.079	40396
588.133	41347
588.145	41485
588.187	41076
588.217	41181
588.241	42100
588.288	43244
588.295	43324
588.348	44759
588.360	45006
588.402	45407
588.431	45904
588.456	46489
588.503	47991
588.510	48354
588.564	51574
588.575	52305
588.617	54672
588.646	56598
588.671	58904
588.718	64405
588.725	65646
588.778	78644
588.789	82143
588.832	112127
588.861	137272
588.886	186988
588.932	298977
588.939	312121
588.993	404666
589.004	404370
589.047	239085
589.075	143151
589.100	108980
589.147	67466
589.154	66078
589.207	59289
589.218	58283
589.261	58784
589.290	59556
589.314	61039
589.361	65307
589.368	66965
589.421	83897
589.433	88489
589.475	136328
589.504	175766
589.528	228895
589.576	342305
589.582	335359
589.635	202558
589.647	176026
589.689	101380
589.718	60698
589.742	56566
589.790	50283
589.795	50000
589.849	47909
589.861	47542
589.902	46885
589.932	46177
589.955	45479
590.004	44265
590.009	44171
590.062	43060
590.075	42816
590.115	42950
590.146	43252
590.168	43096
590.218	42746
590.222	42798
590.275	43707
590.289	43969
590.328	44555
590.360	45074
590.381	45316
590.431	45401
590.435	45368
590.488	45451
590.503	45441
590.541	46022
590.574	46501
590.594	47013
590.645	48712
590.647	48748
590.700	49636
590.716	49907
590.753	50829
590.787	51784
590.806	52072
590.859	53018
590.859	53037
590.912	54512
590.930	54942
590.965	55350
591.001	55911
591.018	55656
591.071	54604
591.072	54596
591.124	53955
591.143	53813
591.177	54112
591.214	54458
591.230	54684
591.283	55450
591.285	55479
591.336	55381
591.356	55283
591.389	55209
591.427	55295
591.442	55084
591.495	53953
591.498	53904
591.547	53812
591.569	53738
591.600	54926
591.640	56454
591.653	56502
591.706	56733
591.711	56777
591.759	58515
591.782	59378
591.811	60816
591.853	62918
591.864	62751
591.917	61926
591.924	61781
591.969	61984
591.995	62155
592.022	62535
592.066	63237
592.075	63399
592.127	64304
592.137	64488
592.180	66123
592.208	67175
592.233	67560
592.279	68297
592.285	68437
592.338	69593
592.350	69852
592.390	70343
592.421	70708
592.443	71045
592.491	71792
592.495	71837
592.548	72465
592.562	72639
592.600	71998
592.633	71448
592.653	71557
592.704	71467
592.705	71918
592.775	74186
592.846	76208
592.916	77902
592.987	77531
593.058	77544
593.128	79568
593.199	79242
593.270	80411
593.341	81336
593.411	84350
593.482	87492
593.553	90306
593.623	91370
593.694	93419
593.764	95540
593.835	93154
593.906	96329
593.976	97158
594.047	100225
594.117	106044
594.188	108207
594.258	106724
594.329	107239
594.399	110267
594.470	113919
594.540	118234
594.611	119001
594.681	119683
594.751	119030
594.822	124344
594.892	128477
594.963	131903
595.033	135130
595.103	138587
595.174	139725
595.244	142562
595.314	148523
595.384	149767
595.455	153597
595.525	157775
595.595	165786
595.665	166840
595.736	161312
595.806	166032
595.876	167600
595.946	166955
596.016	174410
596.087	181970
596.157	181113
596.227	181401
596.297	191539
596.367	203762
596.437	212993
596.507	213468
596.577	214883
596.647	220145
596.717	231663
596.787	235419
596.857	233541
596.927	235135
596.997	235574
597.067	239403
597.137	243612
597.207	245512
597.277	248810
597.347	236885
597.417	231235
597.487	229058
597.557	236077
597.626	238873
597.696	245023
597.766	241758
597.836	230036
597.906	218932
597.975	214183
598.045	217962
598.115	225518
598.185	245125
598.254	266986
598.324	289127
598.394	296965
598.464	286971
598.533	281902
598.603	265721
598.672	256406
598.742	264813
598.812	261576
598.881	273780
598.951	269030
599.020	276511
599.090	282865
599.159	288699
599.229	278840
599.299	273244
599.368	280494
599.437	277186
599.507	258018
599.576	249691
599.646	247061
599.715	241613
599.785	241571
599.854	235230
599.924	231221
599.993	229940
600.062	235834
600.132	240945
600.201	252394
600.270	291816
600.340	306390
600.409	301177
600.478	299388
600.547	306252
600.617	281980
600.686	230154
600.755	208760
600.824	200222
600.894	194990
600.963	197073
601.032	195365
601.101	189252
601.170	182868
601.239	177122
601.308	178823
601.378	180776
601.447	178759
601.516	182618
601.585	183587
601.654	188107
601.723	187223
601.792	191673
601.861	196546
601.930	204510
601.999	211019
602.068	208663
602.137	209364
602.206	212261
602.275	215835
602.343	217203
602.412	217453
602.481	222680
602.550	223670
602.619	227805
602.688	230522
602.756	232322
602.825	232886
602.894	239433
602.963	242876
603.032	246724
603.100	248206
603.169	246005
603.238	251042
603.307	249705
603.375	251820
603.444	255322
603.513	258139
603.581	259708
603.650	265993
603.719	257069
603.787	260687
603.856	268684
603.924	276301
603.993	283056
604.061	292282
604.130	305445
604.198	309649
604.267	314095
604.335	317166
604.404	322136
604.472	327999
604.541	333511
604.609	334600
604.678	337940
604.746	339133
604.815	347186
604.883	351284
604.951	350301
605.020	355473
605.088	360035
605.156	367386
605.225	371249
605.293	369604
605.361	371484
605.429	374935
605.498	380718
605.566	387951
605.634	405679
605.702	417594
605.771	430388
605.839	429340
605.907	423430
605.975	406863
606.043	400786
606.111	401141
606.180	402138
606.248	395149
606.316	391145
606.384	392001
606.452	388757
606.520	394342
606.588	408670
606.656	411338
606.724	403817
606.792	383014
606.860	349793
606.928	321969
606.996	307991
607.064	303614
607.132	310517
607.200	328633
607.267	340134
607.335	342796
607.403	351169
607.471	342174
607.539	334151
607.607	336230
607.674	298452
607.742	297012
607.810	294587
607.878	295650
607.946	302309
608.013	313246
608.081	320832
608.149	324594
608.216	333438
608.284	340843
608.352	344890
608.419	339163
608.487	334484
608.555	327350
608.622	337801
608.690	355757
608.757	386889
608.825	397646
608.893	387413
608.960	368963
609.028	352472
609.095	352738
609.163	350535
609.230	319982
609.298	291574
609.365	305881
609.432	328534
609.500	351616
609.567	396753
609.635	449010
609.702	469957
609.769	449382
609.837	364519
609.904	317742
609.971	326956
610.039	353225
610.106	427661
610.173	673734
610.241	1245256
610.308	946310
610.375	448987
610.442	360631
610.509	335945
610.577	335462
610.644	336319
610.711	346835
610.778	352769
610.845	364501
610.912	385163
610.980	399281
611.047	400217
611.114	393257
611.181	383020
611.248	380756
611.315	400672
611.382	412188
611.449	423043
611.516	426807
611.583	424154
611.650	427197
611.717	431630
611.784	439756
611.851	453764
611.918	472642
611.984	531364
612.051	662728
612.118	1004007
612.185	1688813
612.252	1454704
612.319	742435
612.386	587937
612.452	525913
612.519	490863
612.586	475751
612.653	480718
612.719	493502
612.786	476662
612.853	446767
612.919	432136
612.986	442232
613.053	420343
613.120	399551
613.186	385216
613.253	385133
613.319	387326
613.386	391051
613.453	396179
613.519	397613
613.586	391172
613.652	393158
613.719	390703
613.785	396163
613.852	400849
613.918	396346
613.985	400761
614.051	414087
614.118	411836
614.184	397428
614.250	398230
614.317	404398
614.383	399555
614.449	408709
614.516	403387
614.582	405414
614.648	401443
614.715	398031
614.781	390550
614.847	389666
614.914	388261
614.980	379036
615.046	379046
615.112	389678
615.179	391557
615.245	395212
615.311	390718
615.377	394680
615.443	399177
615.509	403489
615.575	420871
615.642	416582
615.708	426168
615.774	442035
615.840	464382
615.906	486080
615.972	557474
616.038	726854
616.104	1166001
616.170	1827281
616.236	1763625
616.302	992950
616.368	775673
616.434	595303
616.500	525219
616.565	559192
616.631	688262
616.697	605969
616.763	582691
616.829	774406
616.895	1235990
616.961	1268486
617.026	718654
617.092	495206
617.158	441214
617.224	420489
617.289	390825
617.355	370281
617.421	365470
617.487	362047
617.552	348006
617.618	343888
617.684	344304
617.749	344812
617.815	331677
617.880	323261
617.946	324038
618.012	330234
618.077	336654
618.143	323573
618.208	324286
618.274	344753
618.339	349986
618.405	298276
618.470	292779
618.536	294481
618.601	290299
618.667	272932
618.732	259360
618.798	257990
618.863	257530
618.928	252907
618.994	257216
619.059	253401
619.124	256798
619.190	255913
619.255	252898
619.320	252166
619.386	253339
619.451	253604
619.516	244310
619.581	249408
619.647	256041
619.712	257430
619.777	246564
619.842	247731
619.907	250507
619.972	257110
620.038	254660
620.103	246978
620.168	246648
620.233	253726
620.298	252485
620.363	257310
620.428	261729
620.493	267618
620.558	270490
620.623	274550
620.688	274462
620.753	271005
620.818	275197
620.883	275123
620.948	276283
621.013	273162
621.078	270518
621.143	274155
621.207	277417
621.272	268425
621.337	263270
621.402	260911
621.467	259296
621.532	259006
621.596	260237
621.661	253261
621.726	251480
621.791	253447
621.855	253078
621.920	250886
621.985	254691
622.049	259226
622.114	259387
622.179	263092
622.243	266596
622.308	275050
622.373	284475
622.437	281108
622.502	265302
622.566	262873
622.631	262638
622.695	267126
622.760	264908
622.824	265129
622.889	267416
622.953	264549
623.018	277313
623.082	281926
623.147	279893
623.211	273003
623.276	274710
623.340	264841
623.404	257541
623.469	256665
623.533	259970
623.597	255156
623.662	253733
623.726	241054
623.790	225896
623.854	219421
623.919	221567
623.983	226049
624.047	231999
624.111	232783
624.176	237028
624.240	234666
624.304	240667
624.368	235084
624.432	233227
624.496	239519
624.560	249151
624.625	254329
624.689	248961
624.753	261411
624.817	250431
624.881	242564
624.945	223708
625.009	215978
625.073	220027
625.137	225153
625.201	234205
625.265	235781
625.329	225894
625.393	228370
625.456	228215
625.520	234275
625.584	237766
625.648	242788
625.712	248397
625.776	247401
625.839	235586
625.903	204785
625.967	189370
626.031	200007
626.095	231671
626.158	222579
626.222	179919
626.286	165178
626.349	159854
626.413	150632
626.477	149406
626.540	150830
626.604	150432
626.668	145945
626.731	146244
626.795	145312
626.858	144737
626.922	143128
626.986	141669
627.049	141452
627.113	148151
627.176	143328
627.240	139091
627.303	138961
627.366	136934
627.430	140476
627.493	137885
627.557	135144
627.620	137999
627.684	143458
627.747	144966
627.810	133208
627.874	121087
627.937	117459
628.000	120529
628.064	118918
628.127	106167
628.190	104329
628.253	101853
628.317	98759
628.380	92432
628.443	91764
628.506	91122
628.569	87528
628.632	83318
628.696	82859
628.759	82695
628.822	78792
628.885	78677
628.948	76313
629.011	75162
629.074	73236
629.137	71957
629.200	69072
629.263	68960
629.326	67348
629.389	68042
629.452	68558
629.515	65317
629.578	64527
629.641	65866
629.704	64979
629.767	65264
629.830	62962
629.892	61080
629.955	61265
630.018	63229
630.081	60784
630.144	62790
630.207	60861
630.269	62089
630.332	59023
630.395	58827
630.458	57808
630.520	54773
630.583	57577
630.646	56997
630.708	58844
630.771	58213
630.834	62355
630.896	59550
630.959	58842
631.021	58501
631.084	59169
631.146	59484
631.209	60679
631.272	58768
631.334	60806
631.397	60810
631.459	62277
631.522	64982
631.584	67159
631.646	71172
631.709	74404
631.771	73325
631.834	70730
631.896	67767
631.958	63683
632.021	62320
632.083	58776
632.145	59205
632.208	56889
632.270	57083
632.332	55036
632.395	55183
632.457	55492
632.519	55149
632.581	54833
632.643	53954
632.706	54863
632.768	52960
632.830	53664
632.892	55761
632.954	54984
633.016	57422
633.078	55457
633.141	55493
633.203	55615
633.265	55846
633.327	54141
633.389	54685
633.451	55654
633.513	55401
633.575	57784
633.637	55586
633.698	57316
633.760	60955
633.822	63534
633.884	63894
633.946	67235
634.008	68615
634.070	71517
634.132	76260
634.193	82485
634.255	88591
634.317	91035
634.379	88961
634.441	80847
634.502	72826
634.564	66634
634.626	62282
634.687	59351
634.749	56705
634.811	55471
634.873	55301
634.934	54802
634.996	53651
635.057	54726
635.119	56152
635.181	57879
635.242	58123
635.304	56337
635.365	60094
635.427	56080
635.488	58038
635.550	56547
635.611	59317
635.673	57510
635.734	62411
635.796	66145
635.857	72244
635.918	78550
635.980	85650
636.041	91478
636.102	96374
636.164	95904
636.225	94381
636.286	82204
636.348	73545
636.409	66222
636.470	62067
636.531	59075
636.593	56748
636.654	54784
636.715	52710
636.776	51806
636.838	48846
636.899	48226
636.960	48722
637.021	47193
637.082	46259
637.143	46043
637.204	44023
637.265	43982
637.326	46842
637.387	46103
637.448	45775
637.509	46491
637.570	45382
637.631	45387
637.692	43164
637.753	41750
637.814	43072
637.875	41881
637.936	42695
637.997	41804
638.058	42434
638.119	41865
638.179	42335
638.240	41031
638.301	42061
638.362	40336
638.423	39420
638.483	41318
638.544	37627
638.605	40096
638.666	39018
638.726	39849
638.787	40014
638.848	39328
638.908	38062
638.969	37815
639.030	36422
639.090	35893
639.151	37430
639.211	38310
639.272	37864
639.332	37717
639.393	40820
639.453	40987
639.514	44568
639.574	38370
639.635	35479
639.695	37526
639.756	34136
639.816	34710
639.877	33784
639.937	36083
639.997	36049
640.058	33789
640.118	34751
640.178	35991
640.239	34522
640.299	35120
640.359	35783
640.420	38974
640.480	43462
640.540	48627
640.600	51116
640.661	47108
640.721	45555
640.781	50552
640.841	50968
640.901	38241
640.961	37251
641.021	39149
641.082	40907
641.142	37696
641.202	36355
641.262	31772
641.322	34124
641.382	32608
641.442	33259
641.502	33035
641.562	34514
641.622	33390
641.682	37153
641.742	42717
641.802	41171
641.861	35017
641.921	32101
641.981	31395
642.041	29911
642.101	30089
642.161	29381
642.221	30445
642.280	31440
642.340	30122
642.400	30045
642.460	33582
642.519	33119
642.579	32644
642.639	32303
642.698	31428
642.758	36298
642.818	33980
642.877	32565
642.937	33964
642.997	33103
643.056	32688
643.116	31796
643.175	35307
643.235	34465
643.294	36183
643.354	37591
643.414	40677
643.473	46397
643.532	53305
643.592	67604
643.651	97498
643.711	157341
643.770	282289
643.830	587060
643.889	1019228
643.948	447526
644.008	129378
644.067	74521
644.126	54850
644.186	45190
644.245	41031
644.304	36830
644.363	37048
644.423	33241
644.482	34703
644.541	36642
644.600	37104
644.659	45687
644.719	54673
644.778	78173
644.837	123451
644.896	243250
644.955	515788
645.014	225031
645.073	64080
645.132	45547
645.191	40994
645.250	38486
645.309	41649
645.368	44252
645.427	58707
645.486	96765
645.545	178651
645.604	63575
645.663	36455
645.722	35173
645.781	37554
645.840	40627
645.898	47602
645.957	62537
646.016	88708
646.075	147460
646.134	268715
646.192	598460
646.251	839676
646.310	255037
646.369	90447
646.427	67990
646.486	50972
646.545	39931
646.603	35325
646.662	32721
646.721	31656
646.779	31085
646.838	31828
646.896	39835
646.955	50749
647.014	78225
647.072	142200
647.131	365335
647.189	215596
647.248	43126
647.306	31148
647.365	27897
647.423	24629
647.481	25991
647.540	22265
647.598	24397
647.657	23356
647.715	23395
647.773	21522
647.832	23197
647.890	19810
647.948	20016
648.007	20100
648.065	18591
648.123	18440
648.181	20436
648.240	18939
648.298	17876
648.356	17934
648.414	19133
648.472	18450
648.531	17671
648.589	18158
648.647	17916
648.705	18716
648.763	18794
648.821	19205
648.879	19479
648.937	21476
648.995	26007
649.053	31008
649.111	44794
649.169	69512
649.227	122819
649.285	239140
649.343	591990
649.401	365553
649.459	71537
649.516	38793
649.574	28285
649.632	28623
649.690	31233
649.748	39269
649.806	55618
649.863	102686
649.921	271955
649.979	212844
650.037	36931
650.094	20484
650.152	19262
650.210	16961
650.268	18167
650.325	19332
650.383	22811
650.440	14442
650.498	13326
650.556	13041
650.613	12325
650.671	13933
650.728	13154
650.786	14584
650.843	22487
650.901	17245
650.958	12241
651.016	11763
651.073	11498
651.131	10628
651.188	10425
651.246	10341
651.303	9694
651.360	10778
651.418	9955
651.475	10563
651.532	9924
651.590	10139
651.647	9375
651.704	9668
651.762	10455
651.819	9981
651.876	9762
651.933	9428
651.990	9720
652.048	7908
652.105	8827
652.162	9406
652.219	9372
652.276	8911
652.333	9494
652.390	7010
652.448	8869
652.505	8912
652.562	8273
652.619	8084
652.676	8745
652.733	9826
652.790	7937
652.847	6225
652.904	8033
652.961	7077
653.017	7277
653.074	8435
653.131	7857
653.188	6666
653.245	7848
653.302	7665
653.359	8188
653.415	8403
653.472	6847
653.529	7239
653.586	7685
653.642	7517
653.699	8211
653.756	7343
653.813	7772
653.869	8416
653.926	8622
653.983	7476
654.039	8008
654.096	7477
654.152	8308
654.209	6425
654.266	7361
654.322	6727
654.379	7273
654.435	7220
654.492	7014
654.548	8195
654.605	8073
654.661	9348
654.717	8181
654.774	7434
654.830	7461
654.887	7511
654.943	8471
655.000	11267
655.056	9690
655.112	8260
655.168	6788
655.225	7515
655.281	8153
655.337	7610
655.394	7293
655.450	7286
655.506	7215
655.562	6858
655.618	8473
655.675	6504
655.731	6462
655.787	6349
655.843	6994
655.899	6511
655.955	7235
656.011	7448
656.067	5606
656.123	6971
656.179	7272
656.235	8125
656.291	5792
656.347	8418
656.403	6604
656.459	5834
656.515	6846
656.571	6563
656.627	6737
656.683	6868
656.739	6556
656.795	6384
656.850	6160
656.906	6794
656.962	7997
657.018	7549
657.074	10679
657.129	14176
657.185	22381
657.241	52149
657.297	32282
657.352	8883
657.408	7201
657.464	7296
657.519	6020
657.575	6095
657.630	6708
657.686	6495
657.742	5433
657.797	6160
657.853	6036
657.908	6297
657.964	5628
658.019	5864
658.075	6029
658.130	6873
658.186	4328
658.241	6338
658.297	4596
658.352	5020
658.407	6345
658.463	5901
658.518	5949
658.573	6657
658.629	5153
658.684	5871
658.739	5958
658.795	5299
658.850	5281
658.905	5630
658.960	5739
659.016	4551
659.071	5100
659.126	5093
659.181	5521
659.236	5711
659.291	5831
659.346	4922
659.401	5691
659.457	5998
659.512	5522
659.567	5853
659.622	5562
659.677	4948
659.732	4252
659.787	4743
659.842	4865
659.897	5541
659.952	6356
660.007	5579
660.061	5079
660.116	4637
660.171	4267
660.226	5845
660.281	6177
660.336	4705
660.391	6157
660.445	4250
660.500	4699
660.555	5554
660.610	4641
660.664	5814
660.719	4239
660.774	5261
660.828	5041
660.883	5157
660.938	5004
660.992	3976
661.047	5072
661.101	4712
661.156	4240
661.211	4551
661.265	5309
661.320	5110
661.374	5867
661.429	4903
661.483	5359
661.538	3977
661.592	5395
661.647	6610
661.701	8969
661.755	6310
661.810	5538
661.864	4556
661.919	4542
661.973	5821
662.027	4614
662.081	4197
662.136	5218
662.190	5326
662.244	5496
662.299	4637
662.353	5531
662.407	4208
662.461	4476
662.515	4069
662.569	4227
662.624	4963
662.678	4162
662.732	4519
662.786	4105
662.840	4672
662.894	5091
662.948	5204
663.002	4705
663.056	4844
663.110	4335
663.164	3836
663.218	5477
663.272	5150
663.326	4166
663.380	4555
663.434	4976
663.488	4346
663.542	4402
663.595	4995
663.649	4776
663.703	4277
663.757	4860
663.811	4180
663.864	4550
663.918	4685
663.972	4351
664.026	4125
664.079	4733
664.133	5608
664.187	5002
664.240	5522
664.294	5014
664.348	6172
664.401	5576
664.455	4524
664.508	3905
664.562	4479
664.615	5151
664.669	4601
664.722	4592
664.776	3892
664.829	4963
664.883	4652
664.936	4494
664.990	4193
665.043	5250
665.097	3924
665.150	4924
665.203	4660
665.257	4801
665.310	5130
665.363	4858
665.417	5110
665.470	5471
665.523	4685
665.576	4909
665.630	5081
665.683	5122
665.736	4874
665.789	5282
665.842	4567
665.895	4606
665.949	5000
666.002	5581
666.055	4937
666.108	6085
666.161	5969
666.214	5413
666.267	5147
666.320	5950
666.373	5549
666.426	6644
666.479	6195
666.532	4975
666.585	6474
666.638	6250
666.691	5518
666.744	5758
666.796	5187
666.849	5874
666.902	5130
666.955	6144
667.008	5260
667.060	4751
667.113	5389
667.166	5613
667.219	5796
667.271	5980
667.324	6003
667.377	5719
667.430	6031
667.482	5808
667.535	5251
667.587	5254
667.640	5080
667.693	5369
667.745	5273
667.798	5010
667.850	4502
667.903	5639
667.955	5472
668.008	5315
668.060	6243
668.113	5020
668.165	5461
668.218	5426
668.270	5230
668.322	5492
668.375	4606
668.427	4750
668.479	5373
668.532	5940
668.584	5426
668.636	5302
668.689	4217
668.741	4196
668.793	5139
668.845	5235
668.898	4952
668.950	4731
669.002	5384
669.054	4991
669.106	5051
669.158	5316
669.211	4475
669.263	4563
669.315	4531
669.367	4926
669.419	4039
669.471	4918
669.523	4983
669.575	5611
669.627	4516
669.679	3659
669.731	4281
669.783	5332
669.835	5354
669.886	5229
669.938	4810
669.990	4695
670.042	4555
670.094	4097
670.146	3894
670.197	4822
670.249	5571
670.301	5411
670.353	5625
670.404	6033
670.456	7272
670.508	10594
670.560	16281
670.611	25664
670.663	42566
670.715	94615
670.766	163361
670.818	57423
670.869	12599
670.921	8879
670.972	9028
671.024	7169
671.075	6477
671.127	5898
671.178	6199
671.230	6900
671.281	8108
671.333	8458
671.384	10733
671.436	13524
671.487	19078
671.538	28833
671.590	44176
671.641	72942
671.692	125313
671.744	230351
671.795	195155
671.846	82427
671.897	38764
671.949	24228
672.000	17207
672.051	13373
672.102	10906
672.153	8541
672.204	7963
672.256	7457
672.307	7095
672.358	6292
672.409	4365
672.460	5824
672.511	4858
672.562	4549
672.613	3445
672.664	4575
672.715	4157
672.766	3713
672.817	3549
672.868	3274
672.919	3286
672.970	3591
673.021	4414
673.071	2792
673.122	3631
673.173	3618
673.224	3503
673.275	3779
673.326	3371
673.376	3328
673.427	3203
673.478	3024
673.528	3885
673.579	3544
673.630	2745
673.680	4069
673.731	3846
673.782	3038
673.832	3221
673.883	3829
673.934	3195
673.984	3536
674.035	3552
674.085	3663
674.136	4159
674.186	3309
674.237	3559
674.287	3139
674.338	4484
674.388	3125
674.438	3878
674.489	4756
674.539	4229
674.589	3914
674.640	4060
674.690	3736
674.740	3266
674.791	3463
674.841	4025
674.891	2872
674.942	2925
674.992	2232
675.042	2564
675.092	2920
675.142	2862
675.193	2305
675.243	1902
675.293	2832
675.343	2963
675.393	2971
675.443	2794
675.493	3867
675.543	2772
675.593	2923
675.643	2845
675.693	2751
675.743	2831
675.793	2930
675.843	2269
675.893	2904
675.943	2352
675.993	3263
676.043	2691
676.093	1846
676.142	2251
676.192	3078
676.242	2465
676.292	2386
676.341	2583
676.391	3023
676.441	2139
676.491	2452
676.540	1483
676.590	1971
676.640	1424
676.689	2324
676.739	951
676.789	1432
676.838	2283
676.888	3372
676.937	2205
676.987	1636
677.037	1619
677.086	1799
677.136	1644
677.185	1347
677.235	1671
677.284	2072
677.333	1712
677.383	2166
677.432	1542
677.482	1211
677.531	1778
677.580	1984
677.630	1555
677.679	2405
677.728	1805
677.778	1692
677.827	2103
677.876	2217
677.925	2358
677.975	2394
678.024	1930
678.073	2546
678.122	2346
678.171	2591
678.220	2833
678.269	3785
678.319	3683
678.368	4023
678.417	3242
678.466	2272
678.515	2153
678.564	2768
678.613	1313
678.662	1365
678.711	2167
678.760	2362
678.809	1538
678.857	2734
678.906	2645
678.955	2349
679.004	2705
679.053	3492
679.102	2584
679.151	2355
679.199	939
679.248	1832
679.297	794
679.346	1012
679.394	1555
679.443	2193
679.492	1754
679.540	2378
679.589	2193
679.638	1527
679.686	2206
679.735	2441
679.784	2990
679.832	3876
679.881	2942
679.929	2062
679.978	1894
680.026	1966
680.075	1756
680.123	1046
680.172	1928
680.220	2421
680.268	2042
680.317	823
680.365	968
680.414	722
680.462	916
680.510	2420
680.559	777
680.607	1238
680.655	1603
680.703	1760
680.752	1653
680.800	1389
680.848	1486
680.896	807
680.945	1446
680.993	515
681.041	839
681.089	1997
681.137	865
681.185	1261
681.233	1901
681.258	1566
681.281	1206
681.329	983
681.377	1438
681.380	1510
681.425	2031
681.473	1999
681.502	2197
681.521	2253
681.569	2721
681.617	2303
681.624	2323
681.665	2103
681.713	3103
681.745	2561
681.761	2241
681.809	2203
681.857	2885
681.867	2994
681.904	3172
681.952	3286
681.989	2707
682.000	2482
682.048	2152
682.096	2653
682.111	2795
682.143	2955
682.191	3251
682.233	3417
682.239	3400
682.286	2792
682.334	4150
682.354	4057
682.382	3825
682.430	3722
682.476	3998
682.477	3964
682.525	3614
682.572	3834
682.598	4059
682.620	4202
682.667	4323
682.715	4390
682.720	4424
682.763	4305
682.810	4207
682.841	4033
682.857	3881
682.905	4417
682.952	4598
682.963	4486
683.000	3977
683.047	4141
683.085	5220
683.095	5466
683.142	5089
683.190	5409
683.206	5229
683.237	4780
683.284	5369
683.328	4479
683.332	4372
683.379	5565
683.426	5143
683.449	5198
683.473	5237
683.521	5208
683.568	5863
683.571	5926
683.615	6215
683.662	6089
683.693	5846
683.709	5651
683.757	5318
683.804	5854
683.814	5784
683.851	5433
683.898	5457
683.936	5956
683.945	6055
683.992	5918
684.039	6198
684.057	6183
684.086	6079
684.133	6418
684.179	6465
684.180	6439
684.227	6374
684.274	6857
684.300	7053
684.321	7154
684.368	5908
684.415	7403
684.422	7335
684.462	6893
684.509	6720
684.543	6839
684.556	6872
684.603	7672
684.649	7468
684.665	7791
684.696	8275
684.743	8125
684.786	8072
684.790	8038
684.837	7770
684.883	8058
684.908	8194
684.930	8383
684.977	8307
685.023	8102
685.029	8164
685.070	8424
685.117	8419
685.150	8497
685.164	8469
685.210	8258
685.257	8805
685.272	8759
685.303	8766
685.350	8902
685.393	9052
685.396	9018
685.443	9805
685.490	8506
685.514	8439
685.536	8477
685.583	8198
685.629	9434
685.636	9434
685.675	9321
685.722	9051
685.757	8987
685.768	8951
685.815	9202
685.861	9191
685.878	9182
685.908	9148
685.954	9506
686.000	9081
686.000	9067
686.047	10162
686.093	10478
686.121	10603
686.139	10598
686.185	10718
686.232	10642
686.242	10595
686.278	10230
686.324	10384
686.363	10183
686.370	10187
686.416	10345
686.463	10584
686.484	10663
686.509	10650
686.555	10821
686.601	10892
686.606	10880
686.647	10652
686.693	11274
686.727	10811
686.739	10658
686.785	10282
686.831	10231
686.848	10443
686.877	10871
686.923	11121
686.969	11088
686.969	11087
687.015	11165
687.061	12162
687.090	12351
687.107	12363
687.153	12794
687.199	12747
687.211	12551
687.245	11678
687.291	11748
687.332	12163
687.336	12277
687.382	11919
687.428	12717
687.453	12991
687.474	13146
687.520	13463
687.565	13825
687.574	13781
687.611	14279
687.657	15753
687.695	17041
687.702	17564
687.748	21282
687.794	25650
687.816	26700
687.839	25002
687.885	21263
687.931	18591
687.937	18210
687.976	16815
688.022	15248
688.058	14351
688.067	14431
688.113	13408
688.158	13228
688.179	13141
688.204	13152
688.249	13170
688.295	13361
688.300	13351
688.340	13545
688.386	13677
688.421	13618
688.431	13564
688.477	13641
688.522	13794
688.542	13672
688.567	13943
688.613	15120
688.658	15988
688.663	16007
688.703	15329
688.749	14911
688.784	14711
688.794	14789
688.839	15264
688.884	15164
688.905	15268
688.930	15212
688.975	14835
689.020	14349
689.026	14368
689.065	15070
689.110	15261
689.146	15242
689.155	15313
689.201	16946
689.246	17356
689.267	17478
689.291	16995
689.336	16429
689.381	15528
689.388	15422
689.426	15397
689.471	15620
689.509	15419
689.516	15441
689.561	15557
689.606	15269
689.630	15386
689.651	15463
689.696	15358
689.741	15191
689.750	15231
689.785	15727
689.830	16592
689.871	16099
689.875	16011
689.920	15578
689.965	15668
689.992	15371
690.010	15416
690.054	15535
690.099	15428
690.112	15591
690.144	15796
690.189	15310
690.233	14884
690.233	14906
690.278	15524
690.323	15403
690.354	15452
690.367	15463
690.412	16107
690.457	15874
690.474	15922
690.501	15844
690.546	15780
690.590	15543
690.595	15489
690.635	15633
690.680	15329
690.716	15541
690.724	15624
690.769	16031
690.813	16354
690.836	16473
690.857	17173
690.902	18677
690.946	20089
690.957	20259
690.991	22212
691.035	25811
691.077	28678
691.080	28689
691.124	27665
691.168	26892
691.198	26523
691.213	25813
691.257	23704
691.301	20307
691.318	19478
691.346	19330
691.390	18591
691.434	17491
691.439	17401
691.478	17472
691.522	17476
691.559	16957
691.567	16998
691.611	17641
691.655	18226
691.680	18543
691.699	18595
691.743	18303
691.787	18229
691.800	18110
691.831	18030
691.875	18314
691.919	18342
691.921	18302
691.964	17990
692.008	17921
692.041	17649
692.052	17619
692.096	17753
692.139	17636
692.162	17488
692.183	17356
692.227	17511
692.271	16815
692.282	16836
692.315	17118
692.359	16829
692.402	16862
692.403	16896
692.447	16707
692.490	16941
692.523	16862
692.534	16963
692.578	17340
692.622	17444
692.643	17570
692.666	17635
692.709	17737
692.753	17740
692.763	17745
692.797	17811
692.840	17771
692.884	17417
692.884	17453
692.928	17835
692.971	17788
693.004	17735
693.015	17772
693.059	18148
693.102	18282
693.124	18227
693.146	18286
693.189	18317
693.233	18728
693.245	18783
693.276	18968
693.320	18864
693.363	18873
693.365	18829
693.407	19030
693.450	19592
693.485	19890
693.493	20088
693.537	20447
693.580	21041
693.605	21539
693.624	22449
693.667	23933
693.710	26287
693.725	26765
693.753	31229
693.797	38787
693.840	46495
693.845	47238
693.883	45180
693.926	42841
693.966	40532
693.970	40036
694.013	34752
694.056	28767
694.086	24664
694.099	24175
694.142	22699
694.185	20922
694.206	20112
694.229	20149
694.272	20239
694.315	20201
694.326	20115
694.358	20053
694.401	20120
694.444	20001
694.446	19955
694.487	19926
694.530	19755
694.566	19661
694.573	19717
694.616	19595
694.659	19561
694.686	19492
694.702	19628
694.745	20088
694.787	20365
694.806	20462
694.830	20535
694.873	20523
694.916	20377
694.926	20329
694.959	20650
695.002	20892
695.044	21332
695.046	21295
695.087	21547
695.130	21712
695.166	21814
695.172	21889
695.215	21980
695.258	22223
695.286	22199
695.301	22413
695.343	23280
695.386	23862
695.406	24052
695.428	24577
695.471	25527
695.514	26699
695.526	26868
695.556	29015
695.599	32380
695.641	35393
695.646	35645
695.684	33595
695.726	31197
695.766	29109
695.769	29163
695.811	28700
695.854	28188
695.886	27951
695.896	28026
695.938	27819
695.981	27624
696.005	27544
696.023	28335
696.065	29941
696.108	31567
696.125	32158
696.150	32761
696.192	33908
696.235	34664
696.245	34798
696.277	35011
696.319	35286
696.361	35572
696.365	35494
696.404	35005
696.446	34519
696.485	34002
696.488	34094
696.530	34124
696.572	34207
696.604	34192
696.614	34231
696.656	33845
696.698	33738
696.724	33523
696.740	33770
696.783	34094
696.825	34654
696.844	34715
696.867	34873
696.909	35147
696.951	35291
696.964	35319
696.992	35690
697.034	35802
697.076	36183
697.083	36144
697.118	36881
697.160	37586
697.202	38342
697.203	38266
697.244	37951
697.286	37485
697.323	36944
697.327	37057
697.369	37334
697.411	37601
697.442	37713
697.453	37837
697.494	37850
697.536	37866
697.562	37808
697.578	37760
697.620	37437
697.661	37058
697.682	36763
697.703	37854
697.744	39874
697.786	41943
697.801	42538
697.828	42175
697.869	41489
697.911	40785
697.921	40513
697.952	40254
697.994	39766
698.035	39268
698.040	39115
698.077	39361
698.118	39431
698.160	39508
698.160	39406
698.201	40922
698.243	42323
698.279	43503
698.284	43722
698.325	44696
698.367	45665
698.399	46288
698.408	46487
698.449	46860
698.491	47223
698.518	47328
698.532	47403
698.573	47285
698.614	47153
698.638	46954
698.656	47234
698.697	47610
698.738	47973
698.757	48020
698.779	47926
698.820	47505
698.862	47084
698.877	46809
698.903	46748
698.944	46443
698.985	46146
698.996	45943
699.026	46251
699.067	46512
699.116	46702
699.235	46479
699.354	46427
699.474	43024
699.593	43658
699.713	44219
699.832	43840
699.951	47119
700.070	45165
700.190	41997
700.309	40915
700.428	39724
700.547	39654
700.667	38722
700.786	39425
700.905	37937
701.024	38345
701.143	38063
701.262	39779
701.381	41079
701.500	40192
701.619	38615
701.738	40515
701.857	40017
701.976	37043
702.095	37621
702.214	40002
702.333	37343
702.452	40235
702.571	40188
702.690	38715
702.809	39268
702.928	36683
703.047	35350
703.165	35046
703.284	36228
703.403	34316
703.522	35524
703.640	33348
703.759	34449
703.878	32475
703.997	34031
704.115	33982
704.234	34203
704.353	35057
704.471	32070
704.590	31545
704.708	32025
704.827	30460
704.946	29941
705.064	31313
705.183	30865
705.301	31633
705.420	31164
705.538	29114
705.656	29322
705.775	27305
705.893	31660
706.012	31673
706.130	29091
706.249	30213
706.367	26906
706.485	28090
706.604	27638
706.722	28418
706.840	37225
706.958	61705
707.077	46349
707.195	27779
707.313	27991
707.431	24775
707.549	25549
707.668	23259
707.786	27190
707.904	25483
708.022	26958
708.140	25718
708.258	24840
708.376	26510
708.494	24663
708.612	25276
708.730	27691
708.848	25060
708.966	26340
709.084	26066
709.202	25552
709.320	23319
709.438	22942
709.556	24362
709.674	22078
709.791	22835
709.909	21905
710.027	21327
710.145	22105
710.263	21561
710.380	21822
710.498	20895
710.616	21098
710.733	20201
710.851	20484
710.969	21131
711.086	19838
711.204	20099
711.322	20780
711.439	20982
711.557	18305
711.674	18732
711.792	19979
711.909	19444
712.027	19505
712.144	20371
712.262	20118
712.379	20566
712.497	19808
712.614	19348
712.732	20733
712.849	19731
712.966	20426
713.084	21897
713.201	19210
713.318	20452
713.436	23194
713.553	21122
713.670	24788
713.787	23282
713.905	21870
714.022	23831
714.139	26413
714.256	33795
714.373	51000
714.490	92848
714.608	236978
714.725	857559
714.842	945909
714.959	142372
715.076	51672
715.193	35071
715.310	30106
715.427	22460
715.544	22279
715.661	21769
715.778	19298
715.895	20955
716.011	19238
716.128	18813
716.245	19119
716.362	18777
716.479	16535
716.596	17244
716.713	18126
716.829	17454
716.946	15478
717.063	15176
717.180	14582
717.296	15920
717.413	15434
717.530	14757
717.646	14072
717.763	13957
717.880	13821
717.996	14139
718.113	13759
718.229	14086
718.346	13585
718.462	13455
718.579	14072
718.695	14724
718.812	13887
718.928	15154
719.045	13559
719.161	13464
719.277	14738
719.394	15402
719.510	15657
719.626	18699
719.743	23825
719.859	39697
719.975	83529
720.092	316866
720.208	732339
720.324	126290
720.440	30897
720.557	20970
720.673	17887
720.789	16336
720.905	17027
721.021	14655
721.137	12737
721.253	12878
721.369	12317
721.486	13163
721.602	11806
721.718	10920
721.834	12777
721.950	11514
722.066	11152
722.181	10896
722.297	11148
722.413	11039
722.529	11503
722.645	11558
722.761	11221
722.877	12688
722.993	13548
723.108	20236
723.224	18114
723.340	12846
723.456	10968
723.571	10065
723.687	9820
723.803	10376
723.918	10683
724.034	10709
724.150	9755
724.265	10550
724.381	10717
724.497	11073
724.612	10831
724.728	9858
724.843	10111
724.959	9656
725.074	10164
725.190	11221
725.305	9683
725.421	10222
725.536	10665
725.651	9920
725.767	9979
725.882	9791
725.997	9897
726.113	9072
726.228	10061
726.343	9095
726.459	9501
726.574	9778
726.689	9514
726.804	9266
726.920	8795
727.035	9939
727.150	9796
727.265	10034
727.380	9281
727.495	9772
727.610	9109
727.725	8973
727.841	8812
727.956	10351
728.071	10853
728.186	9796
728.301	7826
728.416	9237
728.531	9024
728.645	8770
728.760	8995
728.875	9309
728.990	9066
729.105	8466
729.220	9604
729.335	9180
729.449	9820
729.564	8236
729.679	9215
729.794	10524
729.908	9907
730.023	8523
730.138	10156
730.253	10507
730.367	9643
730.482	10235
730.596	10425
730.711	12231
730.826	18986
730.940	25261
731.055	14265
731.169	13087
731.284	14749
731.398	14442
731.513	15497
731.627	17550
731.742	22542
731.856	28375
731.970	30817
732.085	42087
732.199	63830
732.313	116005
732.428	285104
732.542	729559
732.656	487751
732.771	113261
732.885	55257
732.999	40316
733.113	40121
733.227	35147
733.342	32102
733.456	30491
733.570	28627
733.684	27120
733.798	25921
733.912	26124
734.026	26539
734.140	25698
734.254	25083
734.368	23987
734.482	25208
734.596	24548
734.710	22836
734.824	22891
734.938	22330
735.052	23676
735.166	21995
735.280	22066
735.393	21623
735.507	22434
735.621	21185
735.735	20991
735.849	21999
735.962	19917
736.076	21713
736.190	19935
736.303	20967
736.417	21594
736.531	19668
736.644	20474
736.758	19006
736.872	20157
736.985	20287
737.099	18560
737.212	18444
737.326	17996
737.439	19377
737.553	17747
737.666	18417
737.780	17393
737.893	19316
738.007	17452
738.120	20326
738.233	16947
738.347	19130
738.460	15949
738.573	19721
738.687	16897
738.800	17823
738.913	18742
739.026	17814
739.140	16568
739.253	17391
739.366	16900
739.479	16076
739.592	16601
739.705	14648
739.818	18272
739.932	16002
740.045	15768
740.158	16128
740.271	16681
740.384	17380
740.497	13924
740.610	15710
740.723	14456
740.836	14757
740.949	15292
741.062	18067
741.174	15498
741.287	14835
741.400	15596
741.513	14102
741.626	15978
741.739	14800
741.851	14305
741.964	16535
742.077	14575
742.189	12985
742.302	14975
742.415	14480
742.527	14067
742.640	14777
742.753	12636
742.865	13897
742.978	14347
743.090	12730
743.203	13803
743.316	11804
743.428	12523
743.541	14106
743.653	11768
743.766	11888
743.878	13646
743.990	12317
744.103	13246
744.215	12895
744.327	11930
744.440	14618
744.552	13528
744.664	11425
744.777	13489
744.889	11784
745.001	11791
745.113	14297
745.226	12633
745.338	11241
745.450	14023
745.562	12623
745.674	10019
745.786	13536
745.898	12786
746.010	11142
746.122	12929
746.234	13284
746.347	12271
746.459	12880
746.570	9945
746.682	12408
746.794	13686
746.906	10337
747.018	10684
747.130	12730
747.242	10188
747.354	10495
747.466	11651
747.577	10615
747.689	10796
747.801	11361
747.913	9581
748.024	10365
748.136	10677
748.248	9534
748.359	10554
748.471	10820
748.583	9406
748.694	9349
748.806	11250
748.918	10766
749.029	10062
749.141	9664
749.252	11245
749.364	8091
749.475	9799
749.587	9117
749.698	8866
749.809	10294
749.921	9642
750.032	9322
750.144	8206
750.255	8997
750.366	8857
750.478	8570
750.589	8705
750.700	8412
750.811	9684
750.923	8596
751.034	8625
751.145	10196
751.256	8993
751.367	7617
751.479	8416
751.590	8627
751.701	9226
751.812	7488
751.923	7556
752.034	10309
752.145	9202
752.256	10134
752.367	7894
752.478	7997
752.589	8607
752.700	8528
752.811	8430
752.922	8753
753.032	8817
753.143	9814
753.254	8405
753.365	11212
753.476	10448
753.586	8167
753.697	8254
753.808	9043
753.919	7773
754.029	8601
754.140	7600
754.251	8553
754.361	8276
754.472	8588
754.582	7699
754.693	9231
754.804	9528
754.914	7966
755.025	6842
755.135	7867
755.246	8930
755.356	7693
755.466	7288
755.577	7819
755.687	7617
755.798	6942
755.908	7169
756.018	7359
756.129	8083
756.239	8640
756.349	8619
756.460	8966
756.570	11038
756.680	8043
756.790	8892
756.900	8485
757.011	7227
757.121	7670
757.231	7159
757.341	6458
757.451	6604
757.561	7862
757.671	7811
757.781	7536
757.891	7968
758.001	5924
758.111	7603
758.221	8459
758.331	8397
758.441	8967
758.551	8754
758.661	10018
758.771	10541
758.880	9498
758.990	8467
759.100	9137
759.210	8931
759.320	10324
759.429	10127
759.539	10365
759.649	11729
759.758	14378
759.868	13997
759.978	14702
760.087	16270
760.197	15813
760.307	15025
760.416	14088
760.526	12744
760.635	12850
760.745	14168
760.854	16133
760.964	19264
761.073	18924
761.182	17467
761.292	14957
761.401	13180
761.511	11381
761.620	9470
761.729	9514
761.839	7573
761.948	9875
762.057	9144
762.166	9350
762.276	8907
762.385	9948
762.494	8685
762.603	8257
762.712	8742
762.822	7915
762.931	7878
763.040	7256
763.149	7733
763.258	7772
763.367	7581
763.476	8249
763.585	7157
763.694	8116
763.803	8271
763.912	9591
764.021	9112
764.130	9001
764.238	8899
764.347	10846
764.456	12005
764.565	11678
764.674	10439
764.783	10877
764.891	11950
765.000	12349
765.109	13603
765.217	13773
765.326	16756
765.435	18921
765.543	22375
765.652	26155
765.761	33984
765.869	45301
765.978	63316
766.086	99496
766.195	164587
766.303	297129
766.412	437625
766.520	378875
766.629	287093
766.737	155933
766.846	94299
766.954	62668
767.062	46258
767.171	35957
767.279	29931
767.387	23911
767.496	19903
767.604	18366
767.712	15946
767.820	14363
767.928	13951
768.037	13148
768.145	13168
768.253	13289
768.361	11724
768.469	11919
768.577	11763
768.685	12590
768.793	12820
768.901	14047
769.009	15179
769.117	16807
769.225	20899
769.333	30424
769.441	43446
769.549	69479
769.657	132704
769.765	279388
769.873	365733
769.981	268766
770.088	126242
770.196	66655
770.304	44190
770.412	33067
770.519	25260
770.627	21423
770.735	17355
770.842	16104
770.950	14409
771.058	13699
771.165	14928
771.273	14911
771.380	15336
771.488	17772
771.595	20735
771.703	18284
771.810	16978
771.918	16483
772.025	19551
772.133	21725
772.240	19869
772.348	22745
772.455	21287
772.562	19703
772.670	18155
772.777	19512
772.884	19610
772.991	16958
773.099	19077
773.206	17687
773.313	18499
773.420	18199
773.528	17379
773.635	16731
773.742	18458
773.849	17821
773.956	17563
774.063	15761
774.170	17617
774.277	16747
774.384	16168
774.491	15816
774.598	17119
774.705	15295
774.812	15695
774.919	15549
775.026	16863
775.133	14920
775.239	15720
775.346	15082
775.453	15482
775.560	14564
775.667	14840
775.773	15419
775.880	14459
775.987	15145
776.093	14702
776.200	17047
776.307	11571
776.413	12924
776.520	15825
776.627	13867
776.733	12230
776.840	11454
776.946	16353
777.053	13876
777.159	12786
777.266	11713
777.372	12939
777.478	12936
777.585	13874
777.691	11038
777.798	13713
777.904	12261
778.010	11543
778.117	13016
778.223	11814
778.329	12324
778.435	10550
778.542	13209
778.648	11949
778.754	10661
778.860	12785
778.966	12489
779.072	10893
779.178	12272
779.284	9697
779.391	10963
779.497	11975
779.603	12997
779.708	11700
779.815	14235
779.920	29682
780.026	57446
780.132	18078
780.238	12152
780.344	9360
780.450	13418
780.556	9278
780.661	8430
780.767	12225
780.873	7884
780.979	9668
781.085	10660
781.190	10509
781.296	9189
781.402	9369
781.507	10588
781.613	8423
781.719	8449
781.824	11736
781.930	9627
782.035	8616
782.141	10765
782.246	7440
782.352	7961
782.457	9336
782.563	9703
782.668	8975
782.773	8761
782.879	7865
782.984	9255
783.090	8578
783.195	9269
783.300	10561
783.405	8230
783.511	7170
783.616	7592
783.721	8000
783.826	7712
783.932	7431
784.037	8977
784.142	8819
784.247	8479
784.352	8482
784.457	7180
784.562	8422
784.667	8870
784.772	7522
784.877	6608
784.982	8647
785.087	8472
785.192	6727
785.297	7683
785.402	8060
785.507	7439
785.611	6973
785.716	6367
785.821	8038
785.926	6902
786.031	7379
786.135	6991
786.240	7262
786.345	5564
786.450	6212
786.554	6563
786.659	7066
786.763	6550
786.868	7296
786.973	8545
787.077	6083
787.182	5977
787.286	6668
787.391	8315
787.495	5436
787.600	5223
787.704	6631
787.809	6873
787.913	6131
788.017	6320
788.122	8362
788.226	6108
788.330	4431
788.435	6614
788.539	7241
788.643	5842
788.747	3918
788.852	6378
788.956	6751
789.060	7303
789.164	6714
789.268	6032
789.372	7096
789.476	5500
789.580	5320
789.684	4319
789.788	6724
789.892	5990
789.996	5155
790.100	3874
790.204	5965
790.308	7500
790.412	5006
790.516	4402
790.620	5638
790.724	7975
790.828	6466
790.931	3890
791.035	5839
791.139	5176
791.242	4942
791.346	5978
791.450	6069
791.554	4972
791.657	3720
791.761	5727
791.864	6281
791.968	6210
792.072	6023
792.175	3653
792.279	4379
792.382	4463
792.486	4140
792.589	5050
792.693	6109
792.796	4316
792.899	5461
793.003	6244
793.106	3623
793.209	4647
793.313	4957
793.416	3103
793.519	4697
793.623	6378
793.726	5682
793.829	4103
793.932	3379
794.035	3123
794.138	5328
794.242	6607
794.345	4343
794.448	3765
794.551	6860
794.654	14197
794.757	30502
794.860	8526
794.963	4579
795.066	4077
795.169	4284
795.272	4068
795.375	5466
795.477	3413
795.580	3472
795.683	3443
795.786	4755
795.889	4360
795.991	3880
796.094	4429
796.197	3742
796.300	5820
796.402	5198
796.505	4113
796.608	2859
796.710	4296
796.813	4454
796.915	5507
797.018	5470
797.120	4923
797.223	3925
797.326	5092
797.428	4295
797.530	3066
797.633	3888
797.735	5604
797.838	4855
797.940	6160
798.042	4725
798.145	3223
798.247	4028
798.349	2871
798.452	4861
798.554	4365
798.656	5044
798.758	6220
798.860	4454
798.962	4311
799.065	3936
799.167	2653
799.269	4403
799.371	5564
799.473	6033
799.575	6213
799.677	4335
799.779	5068
799.881	2733
799.983	5156
800.085	3708
800.187	4271
800.289	2334
800.390	2361
800.492	4009
800.594	4727
800.696	2823
800.798	2874
800.899	3926
801.001	3316
801.103	4350
801.205	3868
801.306	3627
801.408	3696
801.509	3839
801.611	3899
801.713	3361
801.814	3135
801.916	2428
802.017	2820
802.119	2029
802.220	3394
802.322	1931
802.423	4571
802.525	1863
802.626	3050
802.727	4229
802.829	3982
802.930	821
803.031	4064
803.133	2694
803.234	3402
803.335	3377
803.436	3201
803.538	3144
803.639	2039
803.740	3548
803.841	2455
803.942	3792
804.043	2721
804.144	2322
804.245	2816
804.346	3063
804.447	2349
804.548	3306
804.649	4893
804.750	2140
804.851	2630
804.952	1679
805.053	2998
805.154	1928
805.255	4058
805.355	2975
805.456	2714
805.557	2740
805.658	1928
805.758	2867
805.859	2703
805.960	3308
806.061	2538
806.161	2804
806.262	2216
806.362	1860
806.463	2603
806.564	3165
806.664	3302
806.765	1629
806.865	2089
806.966	2522
807.066	2057
807.166	2691
807.267	3151
807.367	1959
807.468	2648
807.568	1136
807.668	3497
807.769	3769
807.869	2906
807.969	2684
808.069	2014
808.170	2143
808.270	2222
808.370	1918
808.470	3187
808.570	2133
808.670	2484
808.770	2300
808.870	2445
808.970	2657
809.070	1453
809.170	2027
809.271	2301
809.370	3109
809.470	2682
809.570	2439
809.670	1900
809.770	2070
809.870	2387
809.970	2170
810.070	2357
810.169	3408
810.269	1256
810.369	3728
810.469	2073
810.568	2669
810.668	2399
810.768	1078
810.867	2103
810.967	2032
811.066	2623
811.166	1526
811.265	3242
811.365	1847
811.464	1661
811.564	2217
811.663	3036
811.763	1707
811.862	3084
811.962	3209
812.061	2153
812.160	1983
812.260	2734
812.359	2096
812.458	2137
812.557	3726
812.657	3436
812.756	2974
812.855	2514
812.954	2108
813.053	2333
813.153	2708
813.252	2138
813.351	2286
813.450	3035
813.549	1903
813.648	2518
813.747	2136
813.846	2352
813.945	1987
814.044	2866
814.143	2360
814.242	3555
814.341	2092
814.439	3688
814.538	3078
814.637	3151
814.736	2769
814.835	3789
814.933	3028
815.032	4713
815.131	6211
815.229	10672
815.328	16191
815.427	12095
815.525	10598
815.624	10122
815.722	9352
815.821	11093
815.919	9432
816.018	10030
816.116	9990
816.215	10373
816.313	11123
816.412	14047
816.510	14881
816.609	14187
816.707	16108
816.805	14640
816.904	14234
817.002	15344
817.100	14678
817.198	15613
817.296	14149
817.395	14255
817.493	14675
817.591	12851
817.689	13225
817.787	13168
817.885	12674
817.983	11712
818.081	13557
818.179	14827
818.277	23134
818.375	23274
818.473	14794
818.571	11540
818.669	12295
818.767	13075
818.865	12000
818.963	10542
819.061	11230
819.158	12039
819.256	16087
819.354	19462
819.452	34014
819.549	27830
819.647	16639
819.745	10319
819.842	10475
819.940	11928
820.038	10560
820.135	9648
820.233	10912
820.330	10326
820.428	9379
820.525	11772
820.623	9462
820.720	8417
820.818	9904
820.915	10768
821.012	9689
821.110	8886
821.207	10258
821.304	9026
821.402	10172
821.499	10839
821.596	7838
821.693	8170
821.791	10296
821.888	9526
821.985	9778
822.082	8092
822.179	8850
822.276	10014
822.373	8723
822.470	7825
822.567	9290
822.664	7743
822.761	9287
822.858	9519
822.955	8607
823.052	7225
823.149	8399
823.246	8845
823.343	7321
823.440	7090
823.536	9393
823.633	8684
823.730	6911
823.827	8273
823.923	9146
824.020	6611
824.117	8763
824.213	9033
824.310	7769
824.407	7321
824.503	8392
824.600	7406
824.696	5677
824.793	10177
824.889	8763
824.986	8106
825.082	5443
825.179	6571
825.275	8393
825.371	9769
825.468	6875
825.564	4316
825.660	7793
825.757	10120
825.853	7934
825.949	4983
826.045	5589
826.142	6715
826.238	8173
826.334	7472
826.430	7383
826.526	5005
826.622	4464
826.718	7576
826.814	8657
826.910	8182
827.006	3692
827.102	4882
827.198	6617
827.294	7697
827.390	8182
827.486	6677
827.582	3745
827.678	4462
827.774	8133
827.869	5134
827.965	6145
828.061	4897
828.157	7002
828.252	8254
828.348	6639
828.444	5888
828.539	4405
828.635	6705
828.731	7197
828.826	4856
828.922	6393
829.017	7749
829.113	7333
829.208	5722
829.304	5940
829.399	8902
829.495	6995
829.590	5261
829.685	6119
829.781	7269
829.876	8175
829.971	4386
830.066	3362
830.162	4587
830.257	8583
830.352	5996
830.447	4279
830.543	4579
830.638	5268
830.733	8571
830.828	4982
830.923	7066
831.018	5819
831.113	7605
831.208	5146
831.303	3630
831.398	4194
831.493	4966
831.588	9452
831.683	5172
831.778	3698
831.873	3975
831.967	6065
832.062	6220
832.157	4442
832.252	6029
832.346	4416
832.441	6357
832.536	4427
832.631	6123
832.725	3745
832.820	4491
832.914	5394
833.009	4473
833.104	3385
833.198	4192
833.293	3853
833.387	5624
833.482	5098
833.576	5349
833.670	6043
833.765	5695
833.859	7735
833.954	6380
834.048	5756
834.142	4229
834.237	2518
834.331	4575
834.425	4491
834.519	4290
834.613	4199
834.708	2982
834.802	3451
834.896	3945
834.990	4790
835.084	3967
835.178	2779
835.272	3801
835.366	6159
835.460	7478
835.554	4445
835.648	3165
835.742	1018
835.836	2798
835.930	3643
836.024	5158
836.117	4272
836.211	4209
836.305	2927
836.399	3110
836.493	2485
836.586	5213
836.680	4303
836.774	2610
836.867	3750
836.961	2819
837.055	2975
837.148	2761
837.242	3197
837.335	3450
837.429	2829
837.522	2428
837.616	2241
837.709	2457
837.803	2883
837.896	4156
837.989	3985
838.083	2243
838.176	2229
838.269	1863
838.363	3280
838.456	2509
838.549	3959
838.642	2979
838.735	3214
838.829	3756
838.922	3774
839.015	3095
839.108	1680
839.201	2468
839.294	3267
839.387	3430
839.480	2531
839.573	2236
839.666	1528
839.759	2371
839.852	1050
839.945	4192
840.038	1955
840.131	2193
840.223	2234
840.316	2995
840.409	3668
840.502	4585
840.594	4751
840.687	1074
840.780	1110
840.873	566
840.965	1904
841.058	3050
841.150	3237
841.243	1843
841.336	2535
841.428	2171
841.521	1960
841.613	2272
841.706	2115
841.798	2243
841.890	2339
841.983	1663
842.075	2275
842.167	1946
842.260	2369
842.352	3377
842.444	3280
842.537	2144
842.629	1737
842.721	1693
842.813	2548
842.905	1064
842.997	2677
843.090	2633
843.182	2276
843.274	782
843.366	2610
843.458	3375
843.550	3674
843.642	2836
843.734	2873
843.826	1822
843.918	1720
844.009	2047
844.101	1805
844.193	2244
844.285	2787
844.377	3317
844.469	1719
844.560	-350
844.652	1455
844.744	2096
844.835	2101
844.927	2590
845.019	2511
845.110	2524
845.202	2415
845.293	1608
845.385	1254
845.476	2402
845.568	2001
845.659	1827
845.751	2133
845.842	1083
845.934	2465
846.025	2113
846.116	1672
846.208	1957
846.299	1241
846.390	1547
846.482	944
846.573	1574
846.664	2433
846.755	1698
846.846	2552
846.937	638
847.029	1194
847.120	944
847.211	2182
847.302	3082
847.393	1321
847.484	2332
847.575	1052
847.666	368
847.757	1014
847.847	1751
847.938	3091
848.029	2033
848.120	1586
848.211	1811
848.302	1493
848.392	2096
848.483	2476
848.574	1586
848.664	1427
848.755	2589
848.846	931
848.936	1356
849.027	2359
849.118	2251
849.208	1607
849.299	4039
849.389	7336
849.480	13841
849.570	27051
849.661	48166
849.751	86117
849.841	41986
849.932	8182
850.022	4124
850.112	3354
850.203	3183
850.293	1801
850.383	1815
850.474	1840
850.564	1560
850.654	828
850.744	982
850.834	1824
850.924	1814
851.014	3145
851.104	2349
851.194	1294
851.284	2111
851.374	1384
851.464	799
851.554	1525
851.644	2643
851.734	2151
851.824	1884
851.914	2243
852.004	3184
852.094	2179
852.183	1476
852.273	1326
852.363	1836
852.452	1638
852.542	1764
852.632	1282
852.721	1287
852.811	1957
852.901	3039
852.990	2586
853.080	2716
853.169	2761
853.259	4065
853.348	4222
853.438	5900
853.527	6733
853.617	10000
853.706	18263
853.795	29014
853.885	54941
853.974	96952
854.063	163472
854.152	221634
854.242	125519
854.331	43480
854.420	19807
854.509	12267
854.598	10451
854.687	7202
854.777	6478
854.866	4554
854.955	4138
855.044	2910
855.133	3159
855.222	3642
855.311	1955
855.400	2408
855.488	2335
855.577	1453
855.666	2212
855.755	2532
855.844	2034
855.933	1988
856.021	2773
856.110	2374
856.199	1184
856.288	459
856.376	1222
856.465	1189
856.554	1958
856.642	1664
856.731	1956
856.819	2528
856.908	2447
856.996	1539
857.085	1072
857.173	905
857.262	398
857.350	1238
857.438	990
857.527	937
857.615	1691
857.703	2442
857.792	1894
857.880	1217
857.968	1142
858.056	2013
858.145	1767
858.233	1499
858.321	1417
858.409	1494
858.497	1682
858.585	949
858.673	1546
858.761	1183
858.849	984
858.937	352
859.025	977
859.113	1455
859.201	1520
859.289	1219
859.377	1618
859.465	1922
859.552	1354
859.640	1123
859.728	1192
859.816	917
859.903	1625
859.991	1442
860.079	893
860.166	1316
860.254	905
860.342	1110
860.429	866
860.517	817
860.604	1227
860.692	1154
860.779	782
860.867	623
860.954	1251
861.042	1812
861.129	1435
861.216	1335
861.304	1830
861.391	1761
861.478	728
861.565	2010
861.653	1943
861.740	1086
861.827	655
861.914	891
862.001	953
862.089	1694
862.176	2620
862.263	740
862.350	1627
862.437	565
862.524	1080
862.611	1025
862.698	2292
862.785	1747
862.871	1678
862.958	2089
863.045	1653
863.132	1307
863.219	2143
863.306	521
863.392	2412
863.479	1327
863.566	2267
863.652	1509
863.739	1222
863.826	1469
863.912	2254
863.999	1504
864.086	2670
864.172	2160
864.259	3062
864.345	3186
864.432	3113
864.518	2915
864.604	3158
864.691	3040
864.777	4446
864.863	4360
864.950	7547
865.036	9246
865.122	15695
865.209	18239
865.295	16444
865.381	15105
865.467	14121
865.553	16244
865.639	19286
865.726	24737
865.812	37984
865.898	61973
865.984	89224
866.070	140265
866.156	156611
866.242	70679
866.328	30268
866.414	19474
866.499	16335
866.585	14680
866.671	13680
866.757	13645
866.843	12888
866.928	13213
867.014	11542
867.100	12843
867.186	11589
867.271	11489
867.357	11783
867.442	11267
867.528	10980
867.614	11201
867.699	11153
867.785	10826
867.870	10300
867.956	9710
868.041	10471
868.127	9622
868.212	9896
868.297	10668
868.383	10295
868.468	10509
868.553	10345
868.639	10121
868.724	10799
868.809	11056
868.894	9270
868.979	9024
869.065	9873
869.150	8516
869.235	9369
869.320	9085
869.405	8304
869.490	9823
869.575	9877
869.660	8097
869.745	9040
869.830	10006
869.915	8288
870.000	8267
870.085	8415
870.169	10386
870.254	11032
870.339	7146
870.424	7604
870.509	9339
870.593	10113
870.678	10120
870.763	7692
870.847	7428
870.932	9106
871.016	9425
871.101	7060
871.186	8309
871.270	11027
871.355	6947
871.439	7277
871.523	9174
871.608	6688
871.692	5856
871.777	9454
871.861	8528
871.945	7620
872.030	7807
872.114	8258
872.198	6960
872.282	6741
872.367	6682
872.451	7406
872.535	6993
872.619	7386
872.703	7200
872.787	8307
872.871	8420
872.955	6583
873.039	4622
873.123	6469
873.207	7954
873.291	4781
873.375	5666
873.459	8306
873.543	7656
873.627	6143
873.711	5809
873.794	7199
873.878	6392
873.962	5565
874.045	6199
874.129	6601
874.137	6576
874.213	6328
874.245	6282
874.296	6213
874.352	5315
874.380	4876
874.460	5713
874.464	5747
874.547	6024
874.568	6066
874.631	6199
874.676	6094
874.714	5975
874.784	6817
874.798	6997
874.881	5900
874.892	5772
874.965	4922
874.999	5649
875.048	6600
875.107	6951
875.131	7091
875.215	4569
875.215	4568
875.298	4826
875.323	5066
875.381	5649
875.430	6769
875.465	7517
875.538	7528
875.548	7520
875.631	4871
875.646	4815
875.714	4648
875.753	4431
875.798	4225
875.861	6145
875.881	6695
875.964	5418
875.968	5342
876.047	4183
876.076	4576
876.130	5278
876.183	5673
876.213	5903
876.291	6836
876.296	6893
876.379	5421
876.398	5261
876.462	4635
876.506	4082
876.545	3734
876.613	3985
876.628	4018
876.711	5070
876.721	5172
876.794	6123
876.828	6074
876.877	5686
876.935	4559
876.960	4201
877.043	4662
877.043	4665
877.125	5599
877.150	6095
877.208	7072
877.258	6151
877.291	5429
877.365	3890
877.374	3730
877.456	4104
877.472	3886
877.539	3164
877.579	4245
877.622	5306
877.687	5557
877.704	5640
877.787	5576
877.794	5565
877.869	5637
877.901	5818
877.952	5549
878.008	4371
878.034	3993
878.115	3894
878.117	3897
878.199	4402
878.222	4388
878.282	4498
878.329	5419
878.364	5946
878.437	5620
878.447	5527
878.529	4217
878.544	4117
878.611	3889
878.651	4022
878.694	4490
878.758	5558
878.776	5739
878.858	5675
878.865	5656
878.941	5196
878.972	4508
879.023	3529
879.078	3740
879.105	4026
879.185	5333
879.187	5352
879.269	5767
879.292	5612
879.351	5079
879.399	4130
879.433	3495
879.506	4316
879.516	4461
879.598	4745
879.613	4622
879.680	3843
879.720	4239
879.762	4908
879.827	4748
879.844	4558
879.926	3650
879.933	3740
880.007	5203
880.040	4553
880.089	3276
880.147	4023
880.171	4594
880.253	6015
880.254	6010
880.335	4344
880.360	4495
880.417	5694
880.467	5926
880.499	5620
880.574	5274
880.580	5332
880.662	6163
880.680	6055
880.744	4620
880.787	4023
880.825	3788
880.893	3896
880.907	3952
880.989	4227
881.000	4256
881.070	4984
881.106	5208
881.152	4995
881.213	4424
881.233	4270
881.315	4144
881.319	4144
881.396	4405
881.426	4424
881.478	4737
881.532	5552
881.559	5815
881.639	5135
881.641	5107
881.722	4165
881.745	4131
881.803	4819
881.852	4910
881.885	4631
881.958	4276
881.966	4305
882.047	4172
882.064	4260
882.129	4481
882.171	4125
882.210	3415
882.277	2836
882.291	3009
882.372	4792
882.383	4936
882.454	5558
882.489	5680
882.535	5553
882.596	5963
882.616	6163
882.697	5653
882.702	5621
882.778	4180
882.808	3792
882.859	3485
882.914	3444
882.940	3655
883.020	3689
883.021	3698
883.102	4886
883.127	5151
883.183	6246
883.233	6973
883.264	6164
883.339	3580
883.345	3481
883.426	2889
883.445	2762
883.507	3186
883.551	3523
883.587	4020
883.657	5143
883.668	5336
883.749	6227
883.763	6261
883.830	4589
883.869	3971
883.910	3640
883.975	3126
883.991	3310
884.072	4628
884.081	4717
884.152	5678
884.187	6101
884.233	6372
884.292	6664
884.314	6139
884.394	3145
884.398	3051
884.475	2545
884.504	2281
884.555	2586
884.610	2791
884.636	2918
884.716	3627
884.716	3648
884.797	6354
884.821	6878
884.877	5857
884.927	5081
884.958	4766
885.033	3906
885.038	3880
885.118	3224
885.139	3179
885.199	3319
885.244	3495
885.279	3969
885.350	4696
885.359	4842
885.439	6565
885.456	6630
885.520	5944
885.561	5742
885.600	4768
885.667	3706
885.680	3965
885.760	4650
885.773	4797
885.840	3981
885.878	3631
885.920	3702
885.984	3617
886.000	3760
886.080	4839
886.089	4890
886.160	5620
886.195	5991
886.240	5669
886.300	5377
886.320	5308
886.400	4736
886.406	4693
886.480	3879
886.511	3581
886.560	3914
886.616	4218
886.640	4073
886.720	3606
886.722	3588
886.800	3926
886.827	4035
886.879	4367
886.932	4849
886.959	5243
887.038	6112
887.039	6113
887.119	5200
887.143	4974
887.198	5017
887.248	4975
887.278	4818
887.354	4155
887.358	4199
887.437	5205
887.459	5504
887.517	5331
887.564	4916
887.596	4738
887.669	4451
887.676	4349
887.755	3039
887.774	2745
887.835	3261
887.880	3591
887.914	3874
887.985	4350
887.994	4478
888.073	5775
888.090	5984
888.153	7341
888.195	8193
888.232	6864
888.300	4462
888.311	4441
888.391	4241
888.405	4197
888.470	3648
888.510	3283
888.549	3483
888.615	3894
888.628	4152
888.708	5588
888.720	5804
888.787	6000
888.825	6040
888.866	4945
888.930	3292
888.945	3302
889.024	3381
889.035	3388
889.103	4744
889.140	5393
889.182	4853
889.245	4144
889.261	4248
889.340	4687
889.349	4730
889.419	4992
889.454	5120
889.498	4563
889.559	3767
889.577	3881
889.656	4380
889.664	4425
889.735	5326
889.768	5739
889.814	5355
889.873	4815
889.978	4467
890.083	4081
890.187	4719
890.292	6834
890.397	4252
890.501	4685
890.606	3104
890.710	4580
890.815	6338
890.919	5402
891.024	5595
891.128	3447
891.233	3631
891.337	5324
891.442	6015
891.546	4926
891.650	4640
891.755	4385
891.859	5085
891.963	6357
892.068	5846
892.172	3649
892.276	2462
892.380	3509
892.484	5070
892.589	5510
892.693	4553
892.797	3101
892.901	2756
893.005	3221
893.109	6247
893.213	6489
893.317	4707
893.421	3134
893.525	2913
893.629	3472
893.733	5308
893.837	5022
893.941	4426
894.045	3469
894.148	3123
894.252	4076
894.356	5639
894.460	7463
894.564	3153
894.667	4584
894.771	2475
894.875	2139
894.978	3956
895.082	5212
895.186	5440
895.289	5011
895.393	4454
895.496	5462
895.600	4090
895.703	3002
895.807	3914
895.910	4288
896.014	4414
896.117	3692
896.221	4320
896.324	4930
896.427	3319
896.531	2923
896.634	3592
896.737	4533
896.840	3993
896.944	5356
897.047	5126
897.150	4089
897.253	4190
897.356	2836
897.460	2133
897.563	3424
897.666	4618
897.769	5255
897.872	2877
897.975	2195
898.078	4296
898.181	2769
898.284	3996
898.387	4219
898.490	4568
898.593	3179
898.695	2801
898.798	3782
898.901	3196
899.004	2815
899.107	3852
899.209	3397
899.312	6203
899.415	4119
899.518	3074
899.620	2715
899.723	3146
899.826	4269
899.928	2940
900.031	3409
900.133	5445
900.236	4080
900.338	2819
900.441	3359
900.543	3425
900.646	3712
900.748	4137
900.851	4714
900.953	3828
901.055	3035
901.158	3019
901.260	2889
901.362	2442
901.465	2622
901.567	3906
901.669	5394
901.771	3339
901.873	3805
901.976	3187
902.078	4656
902.180	3351
902.282	2774
902.384	3870
902.486	5673
902.588	4980
902.690	2513
902.792	2333
902.894	2494
902.996	4232
903.098	3772
903.200	3068
903.302	2471
903.404	2731
903.505	2812
903.607	3117
903.709	4928
903.811	5697
903.913	3125
904.014	2129
904.116	3296
904.218	2123
904.319	2680
904.421	5448
904.523	5266
904.624	3682
904.726	2951
904.827	1706
904.929	2302
905.030	3190
905.132	5293
905.233	4643
905.335	2896
905.436	1858
905.537	2294
905.639	2743
905.740	3861
905.841	5246
905.943	3894
906.044	3627
906.145	2247
906.247	2745
906.348	3280
906.449	2596
906.550	4066
906.651	3026
906.752	3160
906.854	2728
906.955	2308
907.056	2994
907.157	3633
907.258	5613
907.359	2530
907.460	1939
907.561	2199
907.662	2439
907.762	3480
907.863	3685
907.964	3688
908.065	3378
908.166	2676
908.267	3646
908.367	2528
908.468	2463
908.569	3314
908.670	5167
908.770	3426
908.871	3530
908.971	4771
909.072	2940
909.173	2509
909.273	2220
909.374	4520
909.474	3321
909.575	3149
909.675	2342
909.776	3279
909.876	3353
909.977	2970
910.077	3690
910.177	4596
910.278	3366
910.378	2544
910.478	3208
910.579	3801
910.679	4515
910.779	3309
910.879	3353
910.980	3384
911.080	4756
911.180	2475
911.280	3128
911.380	2096
911.480	2247
911.580	2679
911.680	3080
911.780	3846
911.880	4310
911.980	2469
912.080	2190
912.180	4085
912.280	4111
912.380	1966
912.480	2750
912.580	2375
912.679	2532
912.779	4530
912.879	3165
912.979	3088
913.078	2632
913.178	1748
913.278	2109
913.377	2161
913.477	2712
913.577	2707
913.676	4268
913.776	5096
913.875	3520
913.975	3078
914.074	2879
914.174	3360
914.273	3278
914.373	2704
914.472	3118
914.572	1987
914.671	2513
914.770	2925
914.870	2840
914.969	2559
915.068	3334
915.167	4547
915.267	3016
915.366	3232
915.465	3133
915.564	3178
915.663	3204
915.763	3881
915.862	4257
915.961	4221
916.060	2393
916.159	1875
916.258	2113
916.357	2639
916.456	3436
916.555	3200
916.654	2920
916.752	4454
916.851	4567
916.950	2972
917.049	1917
917.148	2989
917.247	3045
917.345	2024
917.444	2275
917.543	1877
917.642	3228
917.740	3373
917.839	5138
917.937	5259
918.036	5491
918.135	3236
918.233	3712
918.332	2719
918.430	2322
918.529	3293
918.627	3209
918.726	4448
918.824	3593
918.923	2731
919.021	2871
919.119	2673
919.218	3071
919.316	2895
919.414	3679
919.512	4552
919.611	4076
919.709	3693
919.807	4550
919.905	5829
920.003	5347
920.102	5218
920.200	4698
920.298	5409
920.396	5837
920.494	4755
920.592	3990
920.690	4210
920.788	4816
920.886	4917
920.984	5774
921.082	6093
921.180	7097
921.277	6629
921.375	7594
921.473	9235
921.571	9954
921.669	9260
921.766	8607
921.864	9097
921.962	9316
922.060	7814
922.157	8472
922.255	9543
922.352	9557
922.450	9653
922.548	9851
922.645	11486
922.743	13159
922.840	19690
922.938	25517
923.035	22700
923.133	21406
923.230	23580
923.327	29196
923.425	26830
923.522	27887
923.619	24195
923.717	23337
923.814	22269
923.911	22558
924.008	23084
924.106	21204
924.203	21788
924.300	21677
924.397	22174
924.494	22517
924.591	21378
924.688	20160
924.786	21770
924.883	21184
924.979	22354
925.077	22283
925.173	19854
925.270	21148
925.367	19314
925.464	21928
925.561	22207
925.658	23705
925.755	18708
925.852	21859
925.948	20235
926.045	19653
926.142	20638
926.239	22489
926.335	16795
926.432	19225
926.529	20725
926.625	22243
926.722	18704
926.818	17204
926.915	21292
927.011	20060
927.108	19071
927.204	20097
927.301	17395
927.397	18856
927.494	22978
927.590	16610
927.687	15742
927.783	21889
927.879	21639
927.976	18538
928.072	15863
928.168	19065
928.264	19692
928.361	16944
928.457	21823
928.553	18141
928.649	17409
928.745	20092
928.841	15516
928.937	18077
929.033	18388
929.129	17860
929.225	19924
929.321	18391
929.417	15036
929.513	19523
929.609	17490
929.705	15255
929.801	18651
929.897	16005
929.993	15382
930.089	17748
930.184	14777
930.280	16428
930.376	21065
930.471	16893
930.567	13449
930.663	15885
930.758	14036
930.854	16805
930.950	15154
931.045	14868
931.141	14515
931.236	18570
931.332	17740
931.427	12191
931.523	18339
931.618	17635
931.714	11674
931.809	12673
931.905	17747
932.000	13081
932.095	11248
932.191	17151
932.286	19435
932.381	17180
932.476	11424
932.572	14674
932.667	12636
932.762	13234
932.857	14528
932.952	17504
933.047	16320
933.142	10680
933.237	14145
933.332	15820
933.427	16669
933.522	14992
933.617	12128
933.712	12409
933.807	15776
933.902	17074
933.997	17897
934.092	13957
934.187	11294
934.282	15122
934.376	13381
934.471	16218
934.566	12998
934.661	12269
934.755	14023
934.850	16734
934.945	13061
935.039	11304
935.134	9861
935.228	11454
935.323	19882
935.417	13502
935.512	9140
935.606	9561
935.701	13977
935.795	16078
935.890	15137
935.984	11930
936.079	8743
936.173	12197
936.267	12241
936.362	10409
936.456	11979
936.550	16518
936.644	13823
936.738	10322
936.833	10090
936.927	9020
937.021	9819
937.115	12669
937.209	13148
937.303	11833
937.397	9913
937.491	10827
937.585	14307
937.679	12871
937.773	9930
937.867	9398
937.961	8635
938.055	13593
938.149	13378
938.243	8360
938.337	8054
938.430	9790
938.524	13147
938.618	11965
938.712	8885
938.805	10629
938.899	11563
938.993	15589
939.086	10052
939.180	6173
939.274	7929
939.367	11846
939.461	14007
939.554	10337
939.648	8971
939.741	9254
939.835	9876
939.928	15393
940.022	12815
940.115	10515
940.208	11989
940.302	14611
940.395	15794
940.488	10562
940.582	9112
940.675	8549
940.768	8834
940.861	11332
940.954	12829
941.048	8868
941.141	6280
941.234	8714
941.327	9595
941.420	11120
941.513	11067
941.606	9306
941.699	7670
941.792	10271
941.885	9868
941.978	9826
942.071	9812
942.164	7629
942.257	7245
942.349	8800
942.442	11292
942.535	8057
942.628	6934
942.721	8657
942.813	9541
942.906	10110
942.999	9311
943.091	7210
943.184	7639
943.277	9761
943.369	6762
943.462	5234
943.554	7912
943.647	9565
943.739	9949
943.832	12324
943.924	5693
944.017	5876
944.109	5892
944.201	8445
944.294	8566
944.386	8642
944.478	7626
944.571	6576
944.663	7661
944.755	7869
944.847	9097
944.940	8938
945.032	5561
945.124	5503
945.216	7468
945.308	7698
945.400	8329
945.492	7355
945.584	9104
945.676	10957
945.768	8828
945.860	9042
945.952	10115
946.044	8579
946.136	7103
946.228	7366
946.320	7375
946.412	8158
946.503	8888
946.595	11104
946.687	6378
946.779	5901
946.870	5500
946.962	6841
947.054	5929
947.145	8132
947.237	6593
947.329	6815
947.420	7685
947.512	8505
947.603	5287
947.695	6478
947.786	5788
947.878	6384
947.969	6979
948.061	8521
948.152	9076
948.243	4917
948.335	5029
948.426	5715
948.517	6685
948.609	8221
948.700	7157
948.791	7643
948.882	5171
948.973	4217
949.065	6563
949.156	7566
949.247	4933
949.338	6942
949.429	4252
949.520	4594
949.611	6015
949.702	8797
949.793	6320
949.884	6549
949.975	6692
950.066	4189
950.157	4639
950.247	6060
950.338	5087
950.429	4403
950.520	6407
950.611	3958
950.701	5597
950.792	9122
950.883	8189
950.973	6674
951.064	7377
951.155	7385
951.245	7145
951.336	7169
951.427	8025
951.517	9783
951.608	7536
951.698	6767
951.788	4687
951.879	4028
951.969	4414
952.060	5353
952.150	6425
952.240	8952
952.331	7241
952.421	7632
952.511	4910
952.602	4101
952.692	3877
952.782	5043
952.872	4848
952.962	7405
953.052	4846
953.143	5528
953.233	5800
953.323	6004
953.413	6835
953.503	7916
953.593	6300
953.683	5908
953.773	4319
953.863	4842
953.953	3232
954.042	5840
954.132	6442
954.222	6150
954.312	4823
954.402	5729
954.492	5403
954.581	4788
954.671	6496
954.761	4703
954.850	6870
954.940	4006
955.030	3432
955.119	3830
955.209	3838
955.298	4986
955.388	6744
955.477	7602
955.567	4253
955.656	3817
955.746	4804
955.835	4758
955.925	4107
956.014	6265
956.103	5533
956.193	8344
956.282	7108
956.371	6035
956.461	5544
956.550	5403
956.639	4870
956.728	5030
956.817	4965
956.906	4834
956.995	6438
957.085	5392
957.174	4749
957.263	5696
957.352	4261
957.441	5648
957.530	4664
957.619	3719
957.708	5149
957.796	5127
957.885	4465
957.974	4981
958.063	4686
958.152	3817
958.241	3338
958.329	2864
958.418	3963
958.507	4313
958.596	5474
958.684	4712
958.773	5343
958.861	4268
958.950	3233
959.039	3877
959.127	3812
959.216	4764
959.304	4510
959.393	4121
959.481	4867
959.570	4634
959.658	2740
959.746	2399
959.835	3693
959.923	4534
960.011	3264
960.100	3306
960.188	5508
960.276	4568
960.365	3849
960.453	3671
960.541	2585
960.629	4217
960.717	3151
960.805	2786
960.893	3178
960.981	4754
961.069	5787
961.158	5741
961.245	7972
961.333	6405
961.421	4610
961.509	4840
961.597	4004
961.685	4704
961.773	3464
961.861	5170
961.949	5500
962.036	4263
962.124	4071
962.212	3340
962.299	3632
962.387	3435
962.475	3300
962.562	3234
962.650	4551
962.738	4307
962.825	3022
962.913	3259
963.000	3216
963.088	4159
963.175	4231
963.263	3190
963.350	3494
963.438	3590
963.525	2912
963.612	3528
963.700	2979
963.787	4786
963.874	3979
963.962	3555
964.049	3078
964.136	3486
964.223	3176
964.310	3548
964.398	3569
964.485	3520
964.572	4127
964.659	4807
964.746	4205
964.833	2848
964.920	3062
965.007	3343
965.094	3343
965.181	3816
965.268	4870
965.355	3683
965.441	3897
965.528	3012
965.615	5044
965.702	3962
965.789	2824
965.875	4220
965.962	4777
966.049	3359
966.136	5488
966.222	4734
966.309	4916
966.395	5024
966.482	5424
966.569	4746
966.655	4154
966.742	4355
966.828	3038
966.915	2776
967.001	2958
967.087	1948
967.174	2918
967.260	3626
967.347	4682
967.433	3614
967.519	3590
967.605	3733
967.692	3621
967.778	3722
967.864	2406
967.950	3893
968.036	2893
968.123	4087
968.209	3580
968.295	2582
968.381	3631
968.467	3748
968.553	1761
968.639	3425
968.725	3729
968.811	4846
968.897	4368
968.983	3160
969.069	2703
969.154	2938
969.240	3465
969.326	2462
969.412	3271
969.497	3203
969.583	1966
969.669	4118
969.755	4228
969.840	3970
969.926	6186
970.012	7701
970.097	9112
970.183	7957
970.268	5709
970.354	4394
970.439	4278
970.525	4148
970.610	2730
970.696	4663
970.781	3980
970.866	2235
970.952	2664
971.037	2576
971.122	3382
971.208	4913
971.293	3768
971.378	2886
971.463	3537
971.549	4003
971.634	2370
971.719	3262
971.804	2653
971.889	2523
971.974	3457
972.059	3155
972.144	3035
972.229	4076
972.314	2810
972.399	3013
972.484	2727
972.569	3179
972.654	2401
972.739	3957
972.824	2004
972.908	3034
972.993	1836
973.078	1783
973.163	3339
973.247	3602
973.332	2163
973.417	4321
973.501	2821
973.586	3383
973.671	3821
973.755	2957
973.840	2714
973.924	4318
974.009	5201
974.093	5767
974.178	5982
974.262	5162
974.346	3770
974.431	3695
974.515	3553
974.600	4414
974.684	4178
974.768	2887
974.852	4278
974.937	3651
975.021	3786
975.105	4152
975.189	3701
975.273	4414
975.358	2656
975.442	3078
975.526	3527
975.610	3134
975.694	2360
975.778	3763
975.862	2815
975.946	2305
976.030	3805
976.114	3515
976.198	2830
976.281	3467
976.365	4022
976.449	2910
976.533	3160
976.617	2572
976.700	2099
976.784	2189
976.868	2228
976.951	2972
977.035	3895
977.119	2992
977.202	2991
977.286	4619
977.369	4866
977.453	7586
977.536	7325
977.620	5746
977.703	5252
977.787	3997
977.870	4913
977.953	5444
978.037	3336
978.120	3978
978.203	3126
978.287	4332
978.370	4152
978.453	2654
978.536	3206
978.620	4649
978.703	4871
978.786	3313
978.869	2375
978.952	2552
979.035	4660
979.118	4598
979.201	2891
979.284	3835
979.367	3553
979.450	4454
979.533	2991
979.616	2564
979.699	2840
979.782	3958
979.865	3538
979.948	3363
980.030	2677
980.113	3228
980.196	3337
980.279	4702
980.361	3827
980.444	3477
980.526	4522
980.609	6527
980.692	9029
980.774	7813
980.857	4958
980.939	6239
981.022	4636
981.104	4373
981.187	4546
981.269	4463
981.352	4955
981.434	4009
981.516	4231
981.599	5221
981.681	4317
981.763	4109
981.846	3818
981.928	4582
982.010	4167
982.092	4397
982.174	3642
982.256	4874
982.339	4397
982.421	3400
982.503	4405
982.585	2993
982.667	3728
982.749	4314
982.831	4124
982.913	3631
982.995	5358
983.077	4141
983.158	5537
983.240	4401
983.322	6251
983.404	8948
983.486	8543
983.568	7312
983.649	6820
983.731	6917
983.813	6263
983.894	5759
983.976	6297
984.058	6271
984.139	5325
984.221	4896
984.302	5898
984.384	6020
984.465	4691
984.547	6195
984.628	4460
984.710	5355
984.791	4675
984.872	6837
984.954	5365
985.035	6119
985.116	5107
985.198	5279
985.279	5083
985.360	5401
985.441	5431
985.522	5854
985.604	6110
985.685	4431
985.766	5813
985.847	6918
985.928	5987
986.009	5327
986.090	5232
986.171	6481
986.252	4622
986.333	5803
986.414	5185
986.495	4842
986.576	5905
986.656	6309
986.737	6173
986.818	6574
986.899	6257
986.980	6072
987.060	6321
987.141	6700
987.222	7779
987.302	8027
987.383	9432
987.464	8956
987.544	9014
987.625	7860
987.705	8421
987.786	8922
987.866	7773
987.947	7940
988.027	8024
988.108	7069
988.188	7757
988.268	7284
988.349	7429
988.429	7550
988.509	7250
988.589	6649
988.670	5181
988.750	8493
988.830	6196
988.910	7779
988.990	6744
989.070	6408
989.151	7049
989.231	6625
989.311	6572
989.391	6046
989.471	5918
989.551	6820
989.631	6366
989.711	6955
989.791	6195
989.870	5372
989.950	6394
990.030	5540
990.110	6153
990.190	5249
990.269	4423
990.349	4996
990.429	6822
990.509	5409
990.588	4302
990.668	5672
990.747	5390
990.827	5258
990.907	5205
990.986	6423
991.066	5873
991.145	4203
991.225	5708
991.304	6148
991.383	5963
991.463	5551
991.542	5652
991.622	4306
991.701	4568
991.780	4207
991.859	4104
991.939	3651
992.018	4536
992.097	5973
992.176	4240
992.256	3616
992.335	4021
992.414	5790
992.493	4150
992.572	3148
992.651	5340
992.730	4705
992.809	4176
992.888	4110
992.967	4910
993.046	5507
993.125	2125
993.203	3715
993.282	4077
993.361	4101
993.440	4032
993.519	3097
993.597	4341
993.676	3107
993.755	4556
993.834	4981
993.912	3218
993.991	4482
994.069	3163
994.148	3942
994.226	3299
994.305	3199
994.384	3779
994.462	5049
994.540	2365
994.619	2674
994.697	3078
994.776	3253
994.854	4694
994.932	2619
995.011	2681
995.089	3400
995.167	2266
995.245	3548
995.324	3733
995.402	4359
995.480	3106
995.558	2744
995.636	3232
995.714	2234
995.792	3489
995.870	1806
995.948	2766
996.026	1942
996.104	1248
996.182	2980
996.260	2839
996.338	2529
996.416	1542
996.494	2960
996.572	2665
996.649	3005
996.727	2227
996.805	2928
996.883	1436
996.960	2123
997.038	2430
997.116	3241
997.193	2603
997.271	2495
997.348	1642
997.426	1758
997.504	2022
997.581	4024
997.658	2109
997.736	-471
997.813	607
997.891	3480
997.968	2088
998.046	2041
998.123	1533
998.200	3225
998.277	2161
998.355	2899
998.432	866
998.509	1355
998.586	2172
998.663	1870
998.741	993
998.818	1047
998.895	1635
998.972	2053
999.049	3220
999.126	1825
999.203	1080
999.280	1746
999.357	1578
999.434	2189
999.511	1470
999.587	1685
999.664	498
999.741	1394
999.818	2082
999.895	2063
999.971	2049
1000.048	844
1000.125	1410
1000.202	720
1000.278	1694
1000.355	2728
1000.431	841
1000.508	345
1000.584	612
1000.661	718
1000.738	1128
1000.814	1646
1000.890	1610
1000.967	1152
1001.043	1518
1001.120	581
1001.196	1257
1001.272	685
1001.349	380
1001.425	1278
1001.501	978
1001.577	1339
1001.654	1738
1001.730	1502
1001.806	1100
1001.882	79
1001.958	1989
1002.034	2038
1002.110	1078
1002.186	165
1002.262	125
1002.338	199
1002.414	1214
1002.490	1044
1002.566	725
1002.642	-300
1002.718	1335
1002.794	383
1002.870	1770
1002.945	385
1003.021	-258
1003.097	-195
1003.173	1260
1003.248	1323
1003.324	1023
1003.400	828
1003.475	546
1003.551	719
1003.626	964
1003.702	524
1003.777	300
1003.853	626
1003.928	200
1004.004	313
1004.079	1266
1004.155	1313
1004.230	381
1004.305	1134
1004.381	396
1004.456	412
1004.531	311
1004.607	-716
1004.682	468
1004.757	331
1004.832	668
1004.907	-181
1004.982	773
1005.057	1180
1005.133	-338
1005.208	-92
1005.283	-285
1005.358	834
1005.433	-638
1005.508	156
1005.583	-97
1005.657	883
1005.732	589
1005.807	77
1005.882	529
1005.957	-2
1006.032	-212
1006.106	67
1006.181	384
1006.256	934
1006.331	743
1006.405	-74
1006.480	-197
1006.554	-905
1006.629	487
1006.704	-564
1006.778	192
1006.853	563
1006.927	-22
1007.002	-324
1007.076	-35
1007.150	-237
1007.225	498
1007.299	21
1007.373	-428
1007.448	152
1007.522	323
1007.596	-75
1007.671	-92
1007.745	434
1007.819	-337
1007.893	-370
1007.967	863
1008.041	-52
1008.115	-244
1008.190	-562
1008.264	184
1008.338	-939
1008.412	-648
1008.486	-408
1008.560	-307
1008.633	20
1008.707	263
1008.781	603
1008.855	619
1008.929	-262
1009.003	-466
1009.076	-494
1009.150	207
1009.224	-243
1009.298	361
1009.371	-655
1009.445	377
1009.519	-262
1009.592	-664
1009.666	-393
1009.739	-503
1009.813	-1065
1009.886	687
1009.960	-1539
1010.033	101
1010.107	476
1010.180	-133
1010.253	268
1010.327	-1578
1010.400	-800
1010.473	-62
1010.547	713
1010.620	-1198
1010.693	-331
1010.766	-1150
1010.840	-129
1010.913	-1062
1010.986	-1398
1011.059	-209
1011.132	-441
1011.205	-76
1011.278	70
1011.351	-1246
1011.424	-329
1011.497	-219
1011.570	-542
1011.643	-267
1011.716	-459
1011.789	163
1011.862	-337
1011.934	-609
1012.007	-917
1012.080	-1029
1012.153	-981
1012.225	-59
1012.298	-929
1012.371	-468
1012.443	-525
1012.516	-384
1012.588	212
1012.661	51
1012.733	-1161
1012.806	461
1012.879	-755
1012.951	-280
1013.023	-289
1013.096	-204
1013.168	-1370
1013.241	247
1013.313	232
1013.385	-1168
1013.458	-644
1013.530	-645
1013.602	-1580
1013.674	-405
1013.746	-988
1013.819	-983
1013.891	318
1013.963	-1368
1014.035	-356
1014.107	-884
1014.179	210
1014.251	-1597
1014.323	-279
1014.395	-840
1014.467	-1214
1014.539	-722
1014.611	-852
1014.683	-1034
1014.754	-870
1014.826	-773
1014.898	-390
1014.970	-1325
1015.042	131
1015.113	-1524
1015.185	-1048
1015.257	-1234
1015.328	-589
1015.400	-1160
1015.471	-289
1015.543	-1479
1015.615	307
1015.686	-155
1015.757	-796
1015.829	-658
1015.901	-719
1015.972	41
1016.043	-1125
1016.115	-1176
1016.186	-910
1016.257	-1083
1016.328	-912
1016.400	-428
1016.471	-1060
1016.542	-510
1016.613	-1130
1016.685	-721
1016.756	-351
1016.827	-1030
1016.898	-1425
1016.969	-149
1017.040	-1345
1017.111	-437
1017.182	-889
1017.253	-893
1017.324	-1419
1017.395	-1254
1017.466	-826
1017.537	-1568
1017.608	-891
1017.678	-782
1017.749	-533
1017.820	-401
1017.891	-1874
1017.961	-1237
1018.032	-1103
1018.103	-1065
1018.173	-1460
1018.244	-1586
1018.315	-875
1018.385	-181
1018.456	-1472
1018.526	-1665
1018.597	-1083
1018.667	-841
1018.738	-1666
1018.808	-763
1018.878	-1696
1018.949	-1796
1019.019	-975
1019.089	-526
1019.160	-1737
1019.230	-1147
1019.300	-685
1019.371	-1253
1019.441	-712
1019.511	-451
1019.581	-1154
1019.651	-1354
1019.721	-1773
1019.791	-644
1019.861	-1018
1019.931	-798
1020.001	-1232
1020.071	-271
1020.141	-2166
1020.211	-2068
1020.281	-1563
1020.351	-2319
1020.421	-823
1020.491	-1387
1020.560	-1318
1020.630	-1003
1020.700	-797
1020.770	-1845
1020.839	-1115
1020.909	-1257
1020.979	-737
1021.048	-1839
1021.118	-1335
1021.187	-1153
1021.257	-1258
1021.326	-1245
1021.396	-860
1021.465	-2236
1021.535	-850
1021.604	-2348
1021.674	-1900
1021.743	-1021
1021.812	-1258
1021.882	-1004
1021.951	-1489
1022.020	-909
1022.089	-433
1022.159	-965
1022.228	-770
1022.297	-1474
1022.366	-1706
1022.435	-1393
1022.504	-1192
1022.573	-1451
1022.642	-1878
1022.711	-1249
1022.781	-1679
1022.849	-1791
1022.918	-2101
1022.987	-1617
1023.056	-1651
1023.125	-2461
1023.194	-1680
1023.263	-2010
1023.331	-954
1023.400	-2847
1023.469	-2280
1023.538	-1764
1023.606	-2159
1023.675	-1569
1023.744	-1159
1023.812	-2048
1023.881	-1605
1023.949	-1952
1024.018	-1010
1024.086	-916
1024.155	-1449
1024.223	-1658
1024.292	-834
1024.360	-1736
1024.429	-1472
1024.497	-2301
1024.565	-1858
1024.634	-1701
1024.702	-705
1024.770	-990
1024.838	-1429
1024.907	-1998
1024.975	-1448
1025.043	-1447
1025.111	-1708
1025.179	-1508
1025.247	-2419
1025.315	-1850
1025.383	-1544
1025.451	-1488
1025.519	-1242
1025.587	-1774
1025.655	-2081
1025.723	-1625
1025.791	-1708
1025.859	-1986
1025.927	-1088
1025.995	-1440
1026.062	-1336
1026.130	-1934
1026.198	-1714
1026.266	-1591
1026.333	-1620
1026.401	-1606
1026.469	-1790
1026.536	-2581
1026.604	-1760
1026.671	-2755
1026.739	-1466
1026.806	-2273
1026.874	-1542
1026.941	-2104
1027.009	-2644
1027.076	-1737
1027.144	-963
1027.211	-2442
1027.278	-2192
1027.345	-1898
1027.413	-1321
1027.480	-1647
1027.547	-1722
1027.614	-1435
1027.682	-1892
1027.749	-2058
1027.816	-2140
1027.883	-1813
1027.950	-2391
1028.017	-1818
1028.084	-1234
1028.151	-2404
1028.218	-1607
1028.285	-1298
1028.352	-1875
1028.419	-2203
1028.486	-2173
1028.553	-2042
1028.619	-3141
1028.686	-1445
1028.753	-2025
1028.820	-1976
1028.886	-1543
1028.953	-1394
1029.020	-1846
1029.086	-1989
1029.153	-2097
1029.220	-2289
1029.286	-1763
1029.353	-2166
1029.419	-2271
1029.486	-1613
1029.552	-2357
1029.619	-2636
1029.685	-2329
1029.751	-2653
1029.818	-1945
1029.884	-2717
1029.951	-581
1030.017	-1986
1030.083	-1722
1030.149	-2095
1030.216	-1751
1030.282	-2686
1030.348	-2350
1030.414	-1990
1030.480	-2360
1030.546	-1757
1030.612	-2375
1030.678	-2512
1030.744	-2086
1030.810	-2304
1030.876	-3078
1030.942	-907
1031.008	-2597
1031.074	-1406
1031.140	-1670
1031.206	-2207
1031.272	-2113
1031.337	-2631
1031.403	-1724
1031.469	-2252
1031.534	-2427
1031.600	-1531
1031.666	-2129
1031.731	-2033
1031.797	-1925
1031.863	-2250
1031.928	-1730
1031.994	-2204
1032.059	-2189
1032.125	-2409
1032.190	-2455
1032.256	-1686
1032.321	-2592
1032.386	-2832
1032.452	-2443
1032.517	-2403
1032.582	-1919
1032.647	-2103
1032.713	-2255
1032.778	-1354
1032.843	-1981
1032.908	-2278
1032.974	-2092
1033.039	-2884
1033.104	-2329
1033.169	-1455
1033.234	-1890
1033.299	-1936
1033.364	-1671
1033.429	-1898
1033.494	-1891
1033.559	-2224
1033.624	-1247
1033.688	-1754
1033.753	-2541
1033.818	-1312
1033.883	-1485
1033.948	-1164
1034.013	-899
1034.077	-213
1034.142	684
1034.207	826
1034.271	1988
1034.336	3000
1034.400	1666
1034.465	98
1034.530	-685
1034.594	-1726
1034.658	-1072
1034.723	-2708
1034.787	-2254
1034.852	-1879
1034.916	-1869
1034.981	-2228
1035.045	-2657
1035.109	-2348
1035.173	-2071
1035.238	-2936
1035.302	-2199
1035.366	-2346
1035.430	-2471
1035.495	-2731
1035.559	-966
1035.623	-2532
1035.687	-2125
1035.751	-2725
1035.815	-1676
1035.879	-1975
1035.943	-2097
1036.007	-2997
1036.071	-2088
1036.135	-2680
1036.198	-1290
1036.262	-2454
1036.326	-2677
1036.390	-2319
1036.454	-2142
1036.517	-2364
1036.581	-1559
1036.645	-2036
1036.709	-1915
1036.772	-2364
1036.836	-1177
1036.900	-2209
1036.963	-2300
1037.026	-2366
1037.090	-1914
1037.154	-2000
1037.217	-2106
1037.280	-2361
1037.344	-1920
1037.407	-1906
1037.471	-2095
1037.534	-2686
1037.597	-1669
1037.661	-3121
1037.724	-1869
1037.787	-1896
1037.850	-1220
1037.913	-2206
1037.977	-1506
1038.040	-2373
1038.103	-1921
1038.166	-1934
1038.229	-1335
1038.292	-2289
1038.355	-1774
1038.418	-3162
1038.481	-1725
1038.544	-2185
1038.607	-1658
1038.670	-2484
1038.732	-2316
1038.795	-2877
1038.858	-1982
1038.921	-2361
1038.984	-2291
1039.046	-2495
1039.109	-1929
1039.172	-2156
1039.234	-1915
1039.297	-2456
1039.360	-2268
1039.422	-2726
1039.485	-2107
1039.547	-2777
1039.610	-2166
1039.672	-1879
1039.734	-1868
1039.797	-1926
1039.859	-1702
1039.922	-2802
1039.984	-2126
1040.046	-2062
1040.109	-2317
1040.171	-2456
1040.233	-2186
1040.295	-2138
1040.358	-2326
1040.420	-2356
1040.482	-2282
1040.544	-2654
1040.606	-2756
1040.668	-2312
1040.730	-1984
1040.792	-2434
1040.854	-2793
1040.916	-1748
1040.978	-2234
1041.040	-1343
1041.102	-2129
1041.164	-2605
1041.225	-2237
1041.287	-2497
1041.349	-2410
1041.411	-2347
1041.472	-1551
1041.534	-2411
1041.596	-2274
1041.657	-1940
1041.719	-2582
1041.781	-2133
1041.842	-2012
1041.904	-2633
1041.965	-2914
1042.027	-2039
1042.088	-2364
1042.150	-1685
1042.211	-2231
1042.272	-2005
1042.334	-2302
1042.395	-1889
1042.456	-2549
1042.518	-1804
1042.579	-1832
1042.640	-2285
1042.701	-1559
1042.763	-1725
1042.824	-2322
1042.885	-1676
1042.946	-1525
1043.007	-2506
1043.068	-1699
1043.129	-2154
1043.190	-2038
1043.251	-1560
1043.312	-2503
1043.373	-2612
1043.434	-2729
1043.495	-2668
1043.556	-1016
1043.616	-1940
1043.677	-2023
1043.738	-1859
1043.799	-1980
1043.859	-1495
1043.920	-2083
1043.981	-2559
1044.041	-1347
1044.102	-1412
1044.162	-1675
1044.223	-2354
1044.284	-1676
1044.344	-1687
1044.405	-2017
1044.465	-2116
1044.525	-2632
1044.586	-1408
1044.646	-2051
1044.707	-1691
1044.767	-1623
1044.827	-1996
1044.887	-1474
1044.948	-2050
1045.008	-2155
1045.068	-1432
1045.128	-2022
1045.188	-2397
1045.249	-1056
1045.309	-1944
1045.369	-1294
1045.429	-2182
1045.489	-2348
1045.549	-1876
1045.609	-2104
1045.669	-2501
1045.729	-1469
1045.789	-1583
1045.848	-1923
1045.908	-1072
1045.968	-1719
1046.028	-1490
1046.088	-1171
1046.147	-1360
1046.207	-1077
1046.267	-1192
1046.326	-1251
1046.386	-1719
1046.446	-774
1046.505	-1121
1046.565	-1300
1046.624	-531
1046.684	-1875
1046.743	-821
1046.803	-302
1046.862	-931
1046.922	0
