'Start Wavelength	183.907
'End Wavelength	1046.922
'Gate Delay	5.000
'Gate Width (ms)	1.050
'Laser Output Level	0.000
'X Position	0.000
'Y Position	0.000
'Z Position	0.000
'Grid Point Number	1.000
'Shot Number	100.000
183.907	1027.000
183.977	274.000
184.047	-156
184.116	490
184.186	400
184.256	1307
184.325	-68
184.395	-854
184.465	915
184.534	89
184.604	-353
184.674	1283
184.743	486
184.813	382
184.883	-40
184.952	-189
185.022	319
185.092	401
185.161	564
185.231	237
185.301	438
185.370	402
185.440	-374
185.509	512
185.579	94
185.649	459
185.718	242
185.788	525
185.857	-124
185.927	704
185.996	880
186.066	-533
186.136	53
186.205	524
186.275	-55
186.344	281
186.414	307
186.483	-249
186.553	1171
186.622	1737
186.692	1027
186.761	186
186.831	25
186.900	40
186.970	-167
187.039	500
187.109	1478
187.178	881
187.248	628
187.317	581
187.387	685
187.456	868
187.526	591
187.595	929
187.664	63
187.734	848
187.803	1390
187.873	896
187.942	419
188.012	648
188.081	544
188.150	122
188.220	1358
188.289	383
188.358	1002
188.428	709
188.497	199
188.567	-385
188.636	1278
188.705	4
188.775	294
188.844	83
188.913	768
188.983	284
189.052	454
189.121	458
189.191	11
189.260	819
189.329	717
189.399	695
189.468	225
189.537	928
189.606	712
189.676	443
189.745	646
189.814	627
189.883	226
189.953	803
190.022	686
190.091	567
190.161	1295
190.230	1239
190.299	461
190.368	1245
190.437	468
190.507	826
190.576	673
190.645	558
190.714	19
190.783	527
190.853	713
190.922	788
190.991	372
191.060	561
191.129	505
191.198	742
191.268	198
191.337	199
191.406	365
191.475	693
191.544	-139
191.613	1945
191.682	658
191.752	513
191.821	512
191.890	106
191.959	201
192.028	1157
192.097	814
192.166	364
192.235	503
192.304	1056
192.373	-323
192.442	119
192.511	851
192.580	384
192.650	1169
192.719	1184
192.788	-159
192.857	276
192.926	-107
192.995	-107
193.064	610
193.133	586
193.202	1379
193.271	1304
193.340	1301
193.409	700
193.478	832
193.547	1029
193.615	1296
193.684	1265
193.753	1362
193.822	798
193.891	841
193.960	1122
194.029	1219
194.098	393
194.167	1168
194.236	1659
194.305	849
194.374	-553
194.443	621
194.512	350
194.580	676
194.649	395
194.718	386
194.787	1032
194.856	-37
194.925	1361
194.994	-232
195.062	1076
195.131	738
195.200	743
195.269	233
195.338	1384
195.407	404
195.475	740
195.544	1143
195.613	482
195.682	182
195.751	486
195.819	558
195.888	343
195.957	1480
196.026	563
196.094	981
196.163	574
196.232	1520
196.301	780
196.369	-6
196.438	819
196.507	936
196.576	-69
196.644	405
196.713	465
196.782	1043
196.850	1892
196.919	655
196.988	1011
197.056	863
197.125	1432
197.194	276
197.262	131
197.331	430
197.400	319
197.468	532
197.537	1071
197.606	596
197.674	896
197.743	1459
197.812	867
197.880	1364
197.949	309
198.017	676
198.086	1365
198.155	666
198.223	1239
198.292	1324
198.360	1241
198.429	512
198.497	1016
198.566	273
198.635	865
198.703	895
198.772	1034
198.840	1178
198.909	1769
198.977	687
199.046	761
199.114	1115
199.183	298
199.251	470
199.320	701
199.388	902
199.457	846
199.525	1051
199.594	893
199.662	597
199.731	897
199.799	1051
199.867	1069
199.936	873
200.004	1962
200.073	1002
200.141	701
200.210	639
200.278	851
200.346	897
200.415	892
200.483	7
200.552	911
200.620	806
200.688	913
200.757	433
200.825	1154
200.893	-72
200.962	1646
201.030	1546
201.098	425
201.167	1241
201.235	1188
201.303	644
201.372	242
201.440	890
201.508	1255
201.577	297
201.645	1276
201.713	1011
201.781	593
201.850	1278
201.918	717
201.986	1104
202.055	1382
202.123	776
202.191	1300
202.259	1392
202.327	834
202.396	989
202.464	1035
202.532	1200
202.600	2061
202.669	1675
202.737	1060
202.805	1149
202.873	1243
202.941	658
203.009	887
203.078	939
203.146	1744
203.214	212
203.282	578
203.350	1492
203.418	1150
203.487	717
203.555	1622
203.623	1043
203.691	960
203.759	-244
203.827	1268
203.895	709
203.963	1349
204.031	810
204.099	1248
204.168	1062
204.236	886
204.304	750
204.372	1760
204.440	420
204.508	1066
204.576	370
204.644	880
204.712	483
204.780	899
204.848	1946
204.916	616
204.984	807
205.052	1256
205.120	683
205.188	1293
205.256	258
205.324	1099
205.392	475
205.460	1063
205.528	330
205.596	1599
205.664	1253
205.732	566
205.799	2252
205.867	2178
205.935	476
206.003	1620
206.071	1126
206.139	792
206.207	297
206.275	1337
206.343	844
206.411	967
206.478	1838
206.546	1810
206.614	933
206.682	1528
206.750	1362
206.818	2020
206.885	2028
206.953	779
207.021	1297
207.089	1482
207.157	218
207.225	1154
207.292	763
207.360	773
207.428	530
207.496	672
207.563	1740
207.631	440
207.699	593
207.767	375
207.834	1088
207.902	928
207.970	905
208.038	580
208.105	1262
208.173	1216
208.241	728
208.309	1521
208.376	1058
208.444	2195
208.512	833
208.579	794
208.647	1475
208.715	1573
208.782	897
208.850	1015
208.918	356
208.985	1013
209.053	1449
209.120	974
209.188	855
209.256	1463
209.323	818
209.391	1259
209.459	1912
209.526	1074
209.594	526
209.661	909
209.729	1868
209.796	1951
209.864	722
209.932	1139
209.999	2120
210.067	1266
210.134	1026
210.202	1412
210.269	1797
210.337	2886
210.404	1279
210.472	1690
210.539	1144
210.607	198
210.674	1324
210.742	1248
210.809	1704
210.877	1722
210.944	1619
211.012	906
211.079	2049
211.146	2297
211.214	2068
211.281	2007
211.349	2693
211.416	1895
211.484	1437
211.551	1130
211.618	1307
211.686	1340
211.753	1021
211.821	2470
211.888	1287
211.955	1475
212.023	906
212.090	1023
212.157	1058
212.225	960
212.292	2888
212.359	1950
212.427	4173
212.494	2804
212.561	3017
212.629	1796
212.696	598
212.763	1758
212.831	874
212.898	1597
212.965	1040
213.032	949
213.100	1150
213.167	1279
213.234	1983
213.301	1345
213.369	2033
213.436	850
213.503	912
213.570	920
213.638	1083
213.705	1554
213.772	229
213.839	1394
213.906	2227
213.973	1222
214.041	1191
214.108	2297
214.175	1436
214.242	1043
214.309	1896
214.376	1017
214.444	1142
214.511	1889
214.578	1437
214.645	1821
214.712	1174
214.779	1449
214.846	1458
214.913	2201
214.980	2229
215.048	2557
215.115	2835
215.182	1924
215.249	1489
215.316	1467
215.383	1137
215.450	977
215.517	2293
215.584	1350
215.651	1448
215.718	1404
215.785	1583
215.852	813
215.919	1659
215.986	1719
216.053	906
216.120	1179
216.187	983
216.254	1250
216.321	1489
216.388	497
216.455	1640
216.522	1373
216.589	1298
216.656	2045
216.722	2168
216.789	2540
216.856	1811
216.923	2310
216.990	1956
217.057	2359
217.124	1943
217.191	2209
217.258	1939
217.324	2341
217.391	3741
217.458	2848
217.525	2325
217.592	926
217.659	866
217.725	1718
217.792	1336
217.859	2656
217.926	1450
217.993	1426
218.059	1661
218.126	1453
218.193	1275
218.260	2276
218.327	886
218.393	892
218.460	538
218.527	1306
218.594	1465
218.660	1567
218.727	1492
218.794	968
218.860	1874
218.927	1595
218.994	1060
219.061	799
219.127	678
219.194	1025
219.261	914
219.327	1252
219.394	1856
219.461	610
219.527	917
219.594	1243
219.661	771
219.727	413
219.794	1595
219.860	645
219.927	2284
219.994	2868
220.060	3531
220.127	3513
220.193	3192
220.260	2265
220.326	2917
220.393	4491
220.460	5332
220.526	4019
220.593	2663
220.659	3585
220.726	2041
220.792	4592
220.859	4573
220.925	6056
220.992	7357
221.058	6367
221.125	5403
221.191	4016
221.258	2028
221.324	2528
221.391	2243
221.457	1299
221.524	1252
221.590	1491
221.657	3882
221.723	2796
221.789	1734
221.856	3351
221.922	1779
221.989	2192
222.055	1380
222.121	669
222.188	3244
222.254	1863
222.321	1076
222.387	1437
222.453	1157
222.520	1188
222.586	1235
222.652	1751
222.719	685
222.785	1903
222.851	673
222.918	429
222.984	768
223.050	1264
223.116	569
223.183	2188
223.249	439
223.315	389
223.382	1633
223.448	1226
223.514	505
223.580	1514
223.647	464
223.713	375
223.779	1043
223.845	905
223.911	1006
223.978	394
224.044	1238
224.110	224
224.176	517
224.242	98
224.309	258
224.375	1086
224.441	497
224.507	119
224.573	192
224.639	1600
224.705	447
224.772	1098
224.838	225
224.904	1075
224.970	564
225.036	593
225.102	858
225.168	1586
225.234	1125
225.300	787
225.366	483
225.432	1345
225.499	827
225.565	1078
225.631	859
225.697	1950
225.763	1162
225.829	1293
225.895	1613
225.961	2451
226.027	2576
226.093	1571
226.159	3300
226.225	5088
226.291	7477
226.357	10550
226.423	6558
226.489	4572
226.554	2147
226.620	2530
226.686	3558
226.752	5225
226.818	7455
226.884	12112
226.950	12546
227.016	6011
227.082	4154
227.148	2725
227.214	2574
227.279	1886
227.345	1671
227.411	2443
227.477	3337
227.543	4992
227.609	5369
227.674	5084
227.740	2726
227.806	1812
227.872	912
227.938	1629
228.003	2103
228.069	1370
228.135	778
228.201	1276
228.267	1493
228.332	1510
228.398	621
228.464	1946
228.530	576
228.595	1765
228.661	745
228.727	1292
228.792	2388
228.858	925
228.924	47
228.990	2643
229.055	670
229.121	1223
229.187	784
229.252	935
229.318	292
229.384	1193
229.449	999
229.515	-44
229.581	155
229.646	1529
229.712	1629
229.777	1566
229.843	1809
229.909	2155
229.974	1454
230.040	1608
230.105	1761
230.171	860
230.236	2387
230.302	1420
230.368	1097
230.433	2079
230.499	1255
230.564	1362
230.630	593
230.695	1281
230.761	1019
230.826	467
230.892	2224
230.957	-432
231.023	810
231.088	904
231.154	277
231.219	1849
231.284	1014
231.350	2002
231.415	-92
231.481	2179
231.546	586
231.612	1146
231.677	467
231.742	-551
231.808	1683
231.873	2
231.939	-381
232.004	1921
232.069	1550
232.135	158
232.200	167
232.265	1628
232.331	587
232.396	1267
232.461	575
232.527	670
232.592	63
232.657	1115
232.723	1386
232.788	623
232.853	1347
232.918	1035
232.984	276
233.049	536
233.114	1234
233.179	1829
233.245	1925
233.310	815
233.375	-90
233.440	928
233.506	-176
233.571	179
233.636	850
233.701	1248
233.766	871
233.832	742
233.897	483
233.962	245
234.027	1722
234.092	908
234.157	902
234.222	1056
234.288	1324
234.353	3085
234.418	2307
234.483	2503
234.548	885
234.613	1125
234.678	1597
234.743	909
234.808	2591
234.873	1407
234.938	1455
235.004	1637
235.069	1364
235.134	1116
235.199	1182
235.264	1466
235.329	303
235.394	2024
235.459	1210
235.524	1313
235.589	1673
235.654	406
235.719	250
235.784	1845
235.849	727
235.913	1705
235.978	1496
236.043	2448
236.108	740
236.173	426
236.238	1634
236.303	1066
236.368	632
236.433	2474
236.498	2313
236.563	2773
236.627	5399
236.692	15402
236.757	14191
236.822	7552
236.887	3634
236.952	3664
237.017	2607
237.081	3958
237.146	3389
237.211	9978
237.276	15913
237.341	19927
237.405	11479
237.470	6289
237.535	3961
237.600	2348
237.664	2568
237.729	2070
237.794	2108
237.859	6926
237.923	3501
237.988	1905
238.053	2299
238.118	1597
238.182	3214
238.247	4559
238.312	1030
238.376	1861
238.441	-341
238.506	2064
238.570	-285
238.635	1935
238.700	1125
238.764	1070
238.829	1967
238.893	1142
238.958	2038
239.023	1827
239.087	1653
239.152	2159
239.216	872
239.281	1264
239.346	1497
239.410	1047
239.475	717
239.539	3430
239.604	2647
239.668	2574
239.733	2129
239.797	5683
239.862	9360
239.926	9448
239.991	5004
240.055	3470
240.120	1613
240.184	2101
240.249	1026
240.313	1451
240.378	1424
240.442	2226
240.507	2591
240.571	541
240.635	1431
240.700	1985
240.764	638
240.829	965
240.893	509
240.957	1655
241.022	2928
241.086	2899
241.151	1133
241.215	28
241.279	1106
241.344	1335
241.408	1409
241.472	1654
241.537	2163
241.601	1853
241.665	-22
241.730	942
241.794	2501
241.858	1110
241.922	1666
241.987	1487
242.051	945
242.115	1090
242.179	1973
242.244	544
242.308	1612
242.372	1085
242.436	1193
242.501	1916
242.565	158
242.629	1102
242.693	1629
242.757	1048
242.822	1625
242.886	1340
242.950	1392
243.014	1012
243.078	1058
243.142	773
243.206	1074
243.271	1792
243.335	1120
243.399	3086
243.463	6169
243.527	16976
243.591	6624
243.655	3245
243.719	1174
243.783	2616
243.847	2003
243.911	4230
243.975	2119
244.040	597
244.104	2681
244.168	1392
244.232	1613
244.296	2697
244.360	2780
244.424	219
244.488	1846
244.552	2207
244.615	378
244.679	1142
244.743	835
244.807	580
244.871	639
244.935	1754
244.999	-158
245.063	1402
245.127	1430
245.191	2282
245.255	2098
245.319	1436
245.383	-7
245.446	2618
245.510	857
245.574	1115
245.638	1308
245.702	812
245.766	2626
245.829	2726
245.893	545
245.957	885
246.021	1829
246.085	1150
246.149	1204
246.212	3754
246.276	3663
246.340	2371
246.404	1170
246.467	2287
246.531	848
246.595	2762
246.659	1864
246.722	850
246.786	1011
246.850	2224
246.913	2361
246.977	666
247.041	800
247.104	1539
247.168	1233
247.232	2838
247.295	4725
247.359	3655
247.423	1645
247.486	2435
247.550	2453
247.614	731
247.677	1601
247.741	2261
247.804	816
247.868	2186
247.932	2233
247.995	5446
248.059	2011
248.122	500
248.186	2487
248.249	2170
248.313	7901
248.376	7893
248.440	4966
248.503	1382
248.567	3499
248.630	1596
248.694	2266
248.757	5518
248.821	9121
248.884	6602
248.948	4940
249.011	6788
249.075	9178
249.138	9174
249.202	3581
249.265	2625
249.328	3114
249.392	1648
249.455	3221
249.519	1823
249.582	2425
249.645	4361
249.709	3053
249.772	3620
249.835	2970
249.899	2377
249.962	2736
250.025	2164
250.089	3810
250.152	5799
250.215	2965
250.279	1762
250.342	1818
250.405	2907
250.468	1528
250.532	3262
250.595	4543
250.658	14629
250.721	26364
250.785	9871
250.848	6016
250.911	2587
250.974	2977
251.038	3248
251.101	6406
251.164	3823
251.227	3849
251.290	3520
251.354	6082
251.417	21378
251.480	22251
251.543	15265
251.606	37637
251.669	30464
251.732	11449
251.795	9770
251.859	10226
251.922	24568
251.985	14806
252.048	6617
252.111	4548
252.174	3350
252.237	5661
252.300	10763
252.363	13594
252.426	30058
252.489	12771
252.552	7316
252.615	3273
252.678	5072
252.741	8929
252.804	12839
252.867	32235
252.930	17909
252.993	9103
253.056	5661
253.119	3912
253.182	2735
253.245	5414
253.308	4783
253.371	2982
253.434	2633
253.497	3198
253.559	5382
253.622	3270
253.685	3393
253.748	4270
253.811	2087
253.874	3304
253.937	1624
254.000	2739
254.062	3327
254.125	4291
254.188	5112
254.251	4063
254.314	2000
254.376	3068
254.439	4272
254.502	2781
254.565	3174
254.628	6429
254.690	2793
254.753	1993
254.816	1233
254.878	1665
254.941	3460
255.004	3765
255.067	2263
255.129	1190
255.192	1673
255.255	119
255.317	1560
255.380	1912
255.443	2165
255.505	1031
255.568	911
255.631	816
255.693	1487
255.756	972
255.819	2155
255.881	1785
255.944	2412
256.006	1245
256.069	1376
256.132	513
256.194	1034
256.257	2372
256.319	2659
256.382	2858
256.444	4178
256.507	3216
256.569	2178
256.632	2322
256.694	3000
256.757	10749
256.819	29126
256.882	13309
256.944	5393
257.007	3929
257.069	2754
257.132	2501
257.194	4287
257.257	2562
257.319	2210
257.381	2930
257.444	8697
257.506	29651
257.569	34865
257.631	13572
257.693	7122
257.756	3118
257.818	3154
257.880	3193
257.943	2998
258.005	1634
258.067	1664
258.130	2493
258.192	2132
258.254	2919
258.317	1674
258.379	2665
258.441	3265
258.503	4212
258.566	3580
258.628	4096
258.690	1273
258.753	1579
258.815	2871
258.877	1195
258.939	1903
259.001	2387
259.064	2357
259.126	1433
259.188	1830
259.250	2165
259.312	2102
259.375	3676
259.437	1829
259.499	1365
259.561	2152
259.623	2071
259.685	2209
259.747	1347
259.809	3626
259.872	5240
259.934	7485
259.996	9591
260.058	2989
260.120	1667
260.182	1971
260.244	1540
260.306	638
260.368	1960
260.430	950
260.492	3744
260.554	5607
260.616	2106
260.678	4425
260.740	5574
260.802	1688
260.864	2573
260.926	604
260.988	2268
261.050	2376
261.112	4869
261.174	9237
261.236	4963
261.298	2896
261.359	3491
261.421	3773
261.483	1568
261.545	3036
261.607	423
261.669	2159
261.731	1307
261.793	3990
261.854	1482
261.916	1711
261.978	1568
262.040	2543
262.102	1497
262.164	1968
262.225	2238
262.287	1862
262.349	2758
262.411	2883
262.472	2609
262.534	1083
262.596	2601
262.658	2463
262.719	716
262.781	2494
262.843	2476
262.904	2855
262.966	2148
263.028	2523
263.090	7807
263.151	22295
263.213	8917
263.275	4366
263.336	1580
263.398	2229
263.459	1022
263.521	1658
263.583	2695
263.644	2561
263.706	2062
263.767	785
263.829	1833
263.891	1473
263.952	1084
264.014	700
264.075	2205
264.137	6621
264.198	2789
264.260	1365
264.321	2126
264.383	3763
264.444	9398
264.506	3831
264.567	2804
264.629	3743
264.690	7763
264.752	3728
264.813	1600
264.875	1140
264.936	2674
264.998	1061
265.059	1724
265.120	2868
265.182	2800
265.243	16725
265.305	19447
265.366	5419
265.427	2372
265.489	2511
265.550	365
265.611	1800
265.673	2315
265.734	1720
265.795	2085
265.857	483
265.918	1645
265.979	5883
266.040	25430
266.102	24916
266.163	6993
266.224	3689
266.286	2376
266.347	1267
266.408	1766
266.469	2096
266.530	1189
266.592	1461
266.653	2181
266.714	3177
266.775	2123
266.836	2490
266.898	1062
266.959	1602
267.020	2076
267.081	2925
267.142	717
267.203	1248
267.264	741
267.326	2040
267.387	599
267.448	1739
267.509	1544
267.570	1283
267.631	900
267.692	1210
267.753	1117
267.814	360
267.875	2086
267.936	4603
267.997	2455
268.058	1990
268.119	1576
268.180	1139
268.241	313
268.302	2169
268.363	814
268.424	1403
268.485	1287
268.546	752
268.607	1228
268.668	799
268.729	883
268.790	2120
268.851	1832
268.912	2738
268.972	3329
269.033	2080
269.094	1710
269.155	1980
269.216	350
269.277	1752
269.338	1187
269.398	1754
269.459	1307
269.520	1358
269.581	1587
269.642	1991
269.702	977
269.763	1708
269.824	852
269.885	782
269.945	2521
270.006	1586
270.067	799
270.128	1606
270.188	1363
270.249	761
270.310	1105
270.370	1884
270.431	1312
270.492	915
270.553	1744
270.613	2332
270.674	4267
270.734	1594
270.795	2251
270.856	2067
270.916	1109
270.977	1490
271.038	2067
271.098	759
271.159	1137
271.219	2481
271.280	1419
271.340	1444
271.401	655
271.462	2145
271.522	2195
271.583	2484
271.643	1793
271.704	1277
271.764	1107
271.825	3254
271.885	8822
271.946	11378
272.006	4288
272.066	5032
272.127	10301
272.187	9256
272.248	4767
272.308	3569
272.369	6762
272.429	3886
272.489	3051
272.550	3344
272.610	3442
272.671	3161
272.731	2726
272.791	3016
272.852	1839
272.912	2287
272.972	2804
273.033	2644
273.093	2125
273.153	3103
273.214	1881
273.274	2335
273.334	5700
273.394	9374
273.455	3955
273.515	4420
273.575	8989
273.635	3968
273.696	4040
273.756	7623
273.816	3954
273.876	3024
273.936	3648
273.997	6072
274.057	2140
274.117	2304
274.177	3794
274.237	10095
274.297	10398
274.358	4677
274.418	6312
274.478	5831
274.538	2409
274.598	2094
274.658	3695
274.718	5035
274.778	3402
274.838	1762
274.898	2239
274.958	6659
275.018	7238
275.078	5266
275.138	3242
275.198	1892
275.258	2407
275.318	1408
275.378	3140
275.438	3236
275.498	2724
275.558	4099
275.618	7798
275.678	6295
275.738	5493
275.798	4075
275.858	2584
275.918	1972
275.978	2660
276.038	1480
276.098	2750
276.157	2683
276.217	6480
276.277	3465
276.337	2148
276.397	2345
276.457	2405
276.517	2050
276.576	1317
276.636	1880
276.696	2410
276.756	4783
276.815	3490
276.875	2255
276.935	1878
276.995	2139
277.055	2810
277.114	3301
277.174	1985
277.234	6147
277.293	3185
277.353	2146
277.413	1860
277.472	2139
277.532	1732
277.592	2539
277.651	5655
277.711	12653
277.771	4886
277.830	13164
277.890	11346
277.950	7053
278.009	21196
278.069	9498
278.128	8600
278.188	12075
278.248	5871
278.307	13615
278.367	9387
278.426	2945
278.486	2636
278.545	1647
278.605	1886
278.664	1907
278.724	2501
278.783	3376
278.843	10186
278.902	3941
278.962	2572
279.021	3229
279.081	3509
279.140	3727
279.199	2951
279.259	3101
279.318	3170
279.378	4970
279.437	5955
279.496	16365
279.556	50953
279.615	41915
279.675	12062
279.734	6610
279.793	7821
279.853	12996
279.912	5789
279.971	4197
280.031	3490
280.090	5892
280.149	9273
280.208	7544
280.268	35578
280.327	37885
280.386	9396
280.445	6377
280.505	5698
280.564	4014
280.623	2933
280.682	4191
280.742	5662
280.801	3643
280.860	2173
280.919	2018
280.978	2237
281.037	1499
281.097	2176
281.156	2638
281.215	1759
281.274	1842
281.333	6112
281.392	6225
281.451	2924
281.510	2922
281.569	2450
281.628	1366
281.688	2078
281.747	3033
281.806	2099
281.865	2212
281.924	1688
281.983	2125
282.042	1792
282.101	1086
282.160	2098
282.219	2220
282.278	2496
282.337	4994
282.396	2698
282.454	2205
282.513	2388
282.572	5380
282.631	3290
282.690	2056
282.749	1078
282.808	1960
282.867	1989
282.926	2266
282.985	2024
283.043	2153
283.102	1517
283.161	2128
283.220	3615
283.279	7098
283.338	2512
283.396	1820
283.455	1807
283.514	2174
283.573	2494
283.631	2544
283.690	2540
283.749	2923
283.808	3568
283.866	3474
283.925	2989
283.984	2862
284.043	2232
284.101	2730
284.160	2109
284.219	4506
284.277	2318
284.336	2854
284.395	7869
284.453	7178
284.512	3708
284.570	4807
284.629	4654
284.688	3913
284.746	4483
284.805	5394
284.863	7020
284.922	8387
284.981	9786
285.039	12397
285.098	20848
285.156	43456
285.215	56998
285.273	56136
285.332	48260
285.390	27107
285.449	16725
285.507	12408
285.566	9352
285.624	7259
285.683	6729
285.741	4946
285.799	5112
285.858	4190
285.916	3374
285.975	4391
286.033	3044
286.091	3024
286.150	2245
286.208	2970
286.267	3062
286.325	2967
286.383	3229
286.442	3204
286.500	1471
286.558	2086
286.616	2276
286.675	2995
286.733	2625
286.791	2436
286.850	2579
286.908	3100
286.966	4151
287.024	2328
287.083	2333
287.141	1749
287.199	2830
287.257	3161
287.315	2878
287.374	2326
287.432	3990
287.490	4042
287.548	2570
287.606	3232
287.664	2943
287.723	3038
287.781	3018
287.839	3443
287.897	4028
287.955	4182
288.013	4325
288.071	10160
288.129	31138
288.187	86555
288.245	44113
288.303	15661
288.361	9169
288.419	6592
288.477	3910
288.535	4444
288.593	3601
288.651	3198
288.709	2171
288.767	3020
288.825	1894
288.883	2960
288.941	2273
288.999	1922
289.057	3092
289.115	2238
289.173	1976
289.231	2236
289.289	1766
289.346	3226
289.404	2780
289.462	3974
289.520	2473
289.578	2393
289.636	2744
289.694	3031
289.751	2105
289.809	2507
289.867	2591
289.925	3480
289.983	2115
290.040	2489
290.098	1206
290.156	2327
290.214	1687
290.271	2118
290.329	2166
290.387	2343
290.444	3066
290.502	1242
290.560	2560
290.617	2744
290.675	2766
290.733	1840
290.790	2629
290.848	2533
290.906	2582
290.963	2614
291.021	2452
291.078	2037
291.136	2616
291.194	4701
291.251	8854
291.309	3934
291.366	2976
291.424	2082
291.481	1844
291.539	2486
291.596	2997
291.654	2074
291.711	2470
291.769	2166
291.826	3129
291.884	3062
291.941	1678
291.999	1540
292.056	2567
292.114	2591
292.171	1982
292.228	2757
292.286	2985
292.343	2971
292.401	3176
292.458	3379
292.515	1871
292.573	2880
292.630	2629
292.687	2364
292.745	2892
292.802	3194
292.859	5755
292.917	8464
292.974	5580
293.031	2353
293.089	3023
293.146	2074
293.203	2190
293.260	2813
293.318	3155
293.375	3449
293.432	3056
293.489	2838
293.546	2134
293.604	2351
293.661	5081
293.718	10400
293.775	6780
293.832	4114
293.889	3856
293.947	3995
294.004	2558
294.061	2915
294.118	4793
294.175	8240
294.232	14488
294.289	7438
294.346	3193
294.403	3592
294.460	2739
294.517	3434
294.574	2577
294.631	2907
294.688	3161
294.745	4759
294.802	13203
294.859	18337
294.916	7857
294.973	4620
295.030	3349
295.087	3049
295.144	3038
295.201	3315
295.258	3162
295.315	2669
295.372	5302
295.429	9488
295.486	5163
295.542	4313
295.599	9659
295.656	18398
295.713	10463
295.770	9447
295.827	5521
295.883	3564
295.940	2905
295.997	4334
296.054	3068
296.111	3940
296.167	2490
296.224	2149
296.281	2318
296.338	2784
296.394	2566
296.451	2034
296.508	4943
296.564	8159
296.621	5653
296.678	9846
296.734	13798
296.791	6907
296.848	4181
296.904	3963
296.961	6234
297.018	10292
297.074	8603
297.131	4915
297.187	4186
297.244	4283
297.301	9034
297.357	16033
297.414	6726
297.470	4147
297.527	3364
297.583	2482
297.640	3307
297.696	2898
297.753	3033
297.809	2929
297.866	2765
297.922	2155
297.979	1857
298.035	2104
298.092	3115
298.148	6111
298.204	6453
298.261	3971
298.317	5644
298.374	11693
298.430	7728
298.486	4006
298.543	4009
298.599	5273
298.656	3515
298.712	4589
298.768	12107
298.824	9374
298.881	3788
298.937	2598
298.993	2977
299.050	3700
299.106	3763
299.162	3006
299.218	2412
299.275	2517
299.331	3112
299.387	3634
299.443	12231
299.500	22356
299.556	15789
299.612	7204
299.668	5885
299.724	14112
299.780	17882
299.837	7053
299.893	6439
299.949	16208
300.005	21794
300.061	15839
300.117	25597
300.173	12395
300.229	6001
300.285	5464
300.341	5651
300.397	4095
300.453	3358
300.510	4038
300.566	4504
300.622	7250
300.678	20942
300.734	30070
300.790	16057
300.845	13599
300.901	14341
300.957	23955
301.013	13718
301.069	6270
301.125	4773
301.181	4920
301.237	4107
301.293	2800
301.349	3223
301.405	2775
301.461	2334
301.516	3231
301.572	2530
301.628	3326
301.684	3970
301.740	4717
301.796	7165
301.851	4560
301.907	6542
301.963	7226
302.019	8555
302.074	24125
302.130	24019
302.186	11992
302.242	5319
302.297	4411
302.353	3940
302.409	7206
302.464	5969
302.520	5229
302.576	9391
302.631	11116
302.687	6652
302.743	3948
302.798	3415
302.854	3692
302.910	3625
302.965	5299
303.021	6047
303.076	5400
303.132	4835
303.187	4651
303.243	3891
303.299	3471
303.354	2805
303.410	3795
303.465	2378
303.521	3244
303.576	3186
303.632	3463
303.687	4054
303.743	8569
303.798	8403
303.853	5277
303.909	3705
303.964	3077
304.020	3719
304.075	4190
304.130	4571
304.186	6246
304.241	7019
304.297	6997
304.352	5076
304.358	4941
304.407	3843
304.449	3257
304.463	3065
304.518	3031
304.539	2773
304.573	2344
304.629	3089
304.630	3091
304.684	3297
304.720	5814
304.739	7077
304.794	10801
304.811	9477
304.850	6279
304.902	3789
304.905	3632
304.960	3907
304.992	4159
305.015	4313
305.071	3327
305.083	3086
305.126	2286
305.173	2182
305.181	2167
305.236	1964
305.264	2183
305.292	2374
305.347	3594
305.354	3606
305.402	3723
305.445	3693
305.457	3692
305.512	4322
305.535	3774
305.567	3019
305.622	3232
305.626	3305
305.678	4957
305.716	9442
305.733	11094
305.788	11011
305.807	9888
305.843	8118
305.897	8871
305.898	8868
305.953	9313
305.988	6645
306.008	5215
306.063	3998
306.078	3712
306.118	3077
306.168	1959
306.173	1862
306.228	2222
306.259	2155
306.283	2089
306.338	1847
306.349	2071
306.393	3015
306.440	3377
306.448	3429
306.503	3160
306.530	2948
306.558	3091
306.613	5781
306.620	6127
306.668	7942
306.711	9270
306.723	9416
306.778	7075
306.801	5731
306.833	4121
306.888	2711
306.892	2683
306.943	2793
306.982	2706
306.997	2605
307.052	2344
307.072	2289
307.107	2486
307.162	3339
307.163	3351
307.217	4263
307.253	4287
307.272	4228
307.327	5352
307.343	5172
307.381	4631
307.434	3403
307.436	3414
307.491	5597
307.524	8042
307.546	8924
307.600	9063
307.614	8214
307.655	5398
307.704	4055
307.710	4047
307.765	4348
307.795	5147
307.819	5780
307.874	8829
307.885	8895
307.929	8495
307.975	8296
307.984	8585
308.038	11046
308.065	13637
308.093	22162
308.148	45719
308.156	50944
308.202	78085
308.246	94356
308.257	91839
308.312	53047
308.336	36737
308.366	26931
308.421	15454
308.426	14659
308.475	9970
308.517	7460
308.530	6862
308.585	5801
308.607	5695
308.639	5849
308.694	5827
308.697	5901
308.748	8596
308.787	11149
308.803	11162
308.857	9146
308.877	8247
308.912	7700
308.967	7491
308.967	7523
309.021	10957
309.058	13129
309.076	15851
309.130	26806
309.148	31666
309.185	58633
309.238	104981
309.239	105300
309.293	111794
309.328	106168
309.348	93266
309.402	47705
309.418	35881
309.457	25462
309.508	15935
309.511	15561
309.566	12688
309.598	11640
309.620	11871
309.674	13524
309.688	14230
309.729	14306
309.778	12316
309.783	12012
309.837	8916
309.868	7213
309.892	7396
309.946	8649
309.959	9298
310.001	10994
310.049	12480
310.055	12179
310.109	7945
310.139	5457
310.163	4480
310.218	3431
310.229	3247
310.272	2866
310.319	2832
310.326	2816
310.381	2353
310.409	2317
310.435	2508
310.489	2700
310.499	2773
310.543	2681
310.589	2528
310.598	2516
310.652	2610
310.679	2634
310.706	2637
310.760	2420
310.769	2410
310.814	2114
310.859	1964
310.868	2032
310.923	2176
310.948	2349
310.977	2438
311.031	2542
311.038	2590
311.085	2491
311.128	2159
311.139	2166
311.193	2314
311.218	2372
311.247	2343
311.301	2302
311.308	2306
311.356	2101
311.398	1886
311.410	1876
311.464	1852
311.488	1839
311.518	1983
311.572	2322
311.578	2354
311.626	2327
311.668	2389
311.680	2506
311.734	2898
311.758	3136
311.788	2803
311.842	2143
311.847	2080
311.896	3269
311.937	4365
311.950	4211
312.004	3536
312.027	3236
312.058	2880
312.112	2269
312.117	2217
312.165	2216
312.207	2236
312.297	3323
312.386	3001
312.476	2384
312.566	2907
312.656	2081
312.745	2299
312.835	2343
312.925	2593
313.015	2296
313.104	2825
313.194	2823
313.284	2365
313.374	2775
313.463	2972
313.553	2707
313.643	1988
313.732	2517
313.822	3126
313.912	3065
314.001	3750
314.091	3656
314.180	4158
314.270	3872
314.360	4129
314.449	3442
314.539	3227
314.628	3394
314.718	3008
314.808	4042
314.897	3487
314.987	3405
315.076	5133
315.166	3730
315.255	4098
315.345	4072
315.434	3606
315.524	3022
315.613	4356
315.703	5633
315.792	14586
315.881	49969
315.971	15562
316.060	6252
316.150	6082
316.239	6152
316.328	4454
316.418	3462
316.507	4206
316.597	4385
316.686	4703
316.775	4355
316.865	6696
316.954	3907
317.043	2870
317.133	2575
317.222	2716
317.311	2835
317.400	1403
317.490	3726
317.579	3747
317.668	3711
317.757	7305
317.847	23303
317.936	80340
318.025	22138
318.114	17764
318.203	8516
318.293	5651
318.382	7266
318.471	7777
318.560	9871
318.649	18852
318.738	4819
318.828	3184
318.917	2928
319.006	3588
319.095	7357
319.184	21594
319.273	9691
319.362	4307
319.451	2332
319.540	2853
319.629	3196
319.718	4556
319.807	4174
319.896	7542
319.985	25867
320.074	8286
320.163	2970
320.252	4032
320.341	4844
320.430	2964
320.519	3786
320.608	3847
320.697	4508
320.786	4196
320.875	5190
320.964	5996
321.053	5761
321.142	7815
321.230	8567
321.319	8759
321.408	12474
321.497	9557
321.586	8007
321.675	7663
321.764	6739
321.852	5817
321.941	6853
322.030	5983
322.119	6676
322.207	11884
322.296	12200
322.385	10653
322.474	11646
322.562	16184
322.651	10934
322.740	8271
322.829	8303
322.917	7971
323.006	5735
323.095	4868
323.183	5177
323.272	5125
323.361	8841
323.449	20491
323.538	7716
323.626	13282
323.715	8674
323.804	4261
323.892	12354
323.981	6277
324.069	4335
324.158	7598
324.246	7769
324.335	4044
324.424	3656
324.512	3031
324.601	2833
324.689	3234
324.778	4151
324.866	4936
324.954	3154
325.043	2734
325.131	3188
325.220	5999
325.308	4601
325.397	4385
325.485	3129
325.574	2130
325.662	1629
325.750	2298
325.839	2836
325.927	1600
326.015	1810
326.104	3375
326.192	3510
326.280	2062
326.369	2960
326.457	3041
326.545	3257
326.634	2091
326.722	2120
326.810	2106
326.898	2928
326.987	3188
327.075	3564
327.163	4170
327.251	2827
327.340	2984
327.428	3628
327.516	3976
327.604	3504
327.692	2800
327.781	2942
327.869	2854
327.957	2288
328.045	1828
328.133	2814
328.221	1881
328.309	1905
328.397	3452
328.485	2487
328.574	4578
328.662	8097
328.750	5362
328.838	2699
328.926	2737
329.014	1930
329.102	2425
329.190	4879
329.278	3293
329.366	2196
329.454	1392
329.542	2266
329.630	2249
329.718	1998
329.806	2069
329.893	2576
329.981	1595
330.069	1818
330.157	5424
330.245	12693
330.333	7355
330.421	2456
330.509	2824
330.597	6049
330.684	4794
330.772	3111
330.860	4093
330.948	4600
331.036	2171
331.123	1698
331.211	1870
331.299	2535
331.387	4950
331.475	6085
331.562	2962
331.650	1808
331.738	1972
331.825	2633
331.913	2756
332.001	2545
332.089	3025
332.176	3824
332.264	7224
332.352	5070
332.439	2356
332.527	2516
332.614	2401
332.702	3101
332.790	3399
332.877	3444
332.965	7237
333.052	2527
333.140	2389
333.228	5768
333.315	2397
333.403	2675
333.490	5864
333.578	4162
333.665	6652
333.753	4127
333.840	2381
333.928	4003
334.015	6617
334.103	10908
334.190	29270
334.278	12267
334.365	12097
334.452	12124
334.540	7184
334.627	7047
334.715	9506
334.802	14541
334.889	39633
334.977	47444
335.064	21042
335.151	9055
335.239	7269
335.326	6856
335.413	17781
335.501	21617
335.588	6582
335.675	6525
335.762	7232
335.850	11843
335.937	14319
336.024	28357
336.111	61804
336.199	44162
336.286	17724
336.373	9722
336.460	6544
336.547	4732
336.635	4739
336.722	3819
336.809	3879
336.896	4610
336.983	8684
337.070	20566
337.157	31192
337.245	17160
337.332	12465
337.419	3452
337.506	3387
337.593	3020
337.680	8148
337.767	20759
337.854	6165
337.941	5845
338.028	6484
338.115	3101
338.202	5042
338.289	5642
338.376	14893
338.463	6372
338.550	11850
338.637	12357
338.724	4610
338.811	5709
338.898	2820
338.984	2959
339.071	2721
339.158	3136
339.245	4020
339.332	3438
339.419	3952
339.506	3921
339.593	1765
339.679	2528
339.766	1884
339.853	2701
339.940	3182
340.027	2900
340.113	2860
340.200	2504
340.287	2427
340.374	1702
340.460	3385
340.547	1324
340.634	2675
340.720	5547
340.807	4558
340.894	2029
340.980	2315
341.067	2716
341.154	3326
341.240	2635
341.327	3207
341.414	2627
341.500	2814
341.587	2718
341.674	3098
341.760	3808
341.847	3383
341.933	2434
342.020	1946
342.106	1898
342.193	2086
342.279	2670
342.366	1770
342.452	2801
342.539	2480
342.625	3894
342.712	6263
342.798	3512
342.885	2387
342.971	2736
343.058	1968
343.144	1758
343.230	2354
343.317	1871
343.403	1456
343.490	1565
343.576	1758
343.662	2640
343.749	2636
343.835	3156
343.921	3545
344.008	16081
344.094	35711
344.180	8366
344.267	2643
344.353	8961
344.439	8713
344.525	4092
344.612	3691
344.698	3982
344.784	2648
344.870	2757
344.957	1673
345.043	3021
345.129	1555
345.215	3123
345.301	2145
345.387	1109
345.474	1836
345.560	1770
345.646	2338
345.732	2346
345.818	1868
345.904	2549
345.990	2004
346.076	2703
346.162	2775
346.249	2914
346.335	2240
346.421	3155
346.507	4867
346.593	13009
346.679	3319
346.765	3980
346.851	5000
346.937	3071
347.023	3843
347.108	2644
347.194	2505
347.280	2384
347.366	3438
347.452	10237
347.538	22084
347.624	12586
347.710	9371
347.796	2675
347.882	2731
347.967	2741
348.053	3059
348.139	2204
348.225	2100
348.311	1888
348.397	2886
348.482	2407
348.568	3245
348.654	2967
348.740	10730
348.825	11466
348.911	6082
348.997	8922
349.083	16027
349.168	4293
349.254	2845
349.340	2398
349.425	2407
349.511	2450
349.597	2781
349.682	3641
349.768	8814
349.854	4926
349.939	2399
350.025	2467
350.110	2292
350.196	1281
350.282	1263
350.367	2757
350.453	2930
350.538	2287
350.624	2386
350.709	2799
350.795	1256
350.880	2538
350.966	3152
351.051	2307
351.137	2722
351.222	2531
351.308	3781
351.393	6785
351.479	2866
351.564	1700
351.649	2369
351.735	2995
351.820	1373
351.906	2825
351.991	2599
352.076	4744
352.162	6327
352.247	2365
352.332	2236
352.418	2308
352.503	3430
352.588	9725
352.673	6274
352.759	2324
352.844	2024
352.929	2071
353.014	1859
353.100	2239
353.185	3597
353.270	2821
353.355	3582
353.441	2597
353.526	2451
353.611	2523
353.696	2388
353.781	2802
353.866	2097
353.952	2979
354.037	2513
354.122	4692
354.207	4187
354.292	2745
354.377	1940
354.462	1533
354.547	1843
354.632	3040
354.717	3292
354.802	3023
354.887	2756
354.972	2153
355.057	2311
355.142	2156
355.227	2294
355.312	2474
355.397	3127
355.482	5677
355.567	3796
355.652	3761
355.737	3263
355.822	8915
355.907	6870
355.991	2999
356.076	1257
356.161	2476
356.246	2427
356.331	2556
356.416	3925
356.501	19386
356.585	18358
356.670	3976
356.755	4453
356.840	3769
356.924	11629
357.009	40970
357.094	15320
357.179	4153
357.263	3674
357.348	3501
357.433	3675
357.517	3454
357.602	2927
357.687	2269
357.771	4436
357.856	8118
357.941	5637
358.025	10564
358.110	43289
358.195	19615
358.279	3932
358.364	3261
358.448	5939
358.533	15231
358.617	11100
358.702	11425
358.787	5366
358.871	3947
358.956	3260
359.040	2704
359.125	1969
359.209	2945
359.294	4549
359.378	8422
359.462	4843
359.547	3634
359.631	2419
359.716	1781
359.800	2357
359.885	3686
359.969	1716
360.053	3628
360.138	3747
360.222	3266
360.306	3727
360.391	3371
360.475	4604
360.559	7556
360.644	6270
360.728	4621
360.812	10784
360.896	28352
360.981	10219
361.065	5301
361.149	3708
361.233	2819
361.318	2819
361.402	3193
361.486	3964
361.570	2852
361.654	2878
361.739	5107
361.823	17618
361.907	29715
361.991	7190
362.075	6504
362.159	6918
362.243	13190
362.327	30013
362.411	48053
362.495	19206
362.580	8141
362.664	7277
362.748	7824
362.832	12611
362.916	25473
363.000	78787
363.084	125668
363.168	67771
363.252	17151
363.336	9034
363.420	8847
363.503	23356
363.587	26255
363.671	7391
363.755	4601
363.839	6962
363.923	6538
364.007	8234
364.091	11300
364.175	19510
364.258	60771
364.342	98669
364.426	175456
364.510	92863
364.594	27094
364.677	15577
364.761	27902
364.845	20674
364.929	7537
365.013	5533
365.096	5044
365.180	5347
365.264	10286
365.347	36628
365.431	15391
365.515	4075
365.598	2891
365.682	3498
365.766	3787
365.849	5640
365.933	3186
366.017	4569
366.100	4135
366.184	3330
366.267	4266
366.351	3995
366.435	3231
366.518	2696
366.602	3359
366.685	2617
366.769	3282
366.852	4010
366.936	5854
367.019	3749
367.103	3875
367.186	6667
367.270	3914
367.353	2002
367.436	3603
367.520	2680
367.603	3970
367.687	2200
367.770	4460
367.853	5063
367.937	7757
368.020	11519
368.104	3381
368.187	4035
368.270	3901
368.353	4071
368.437	4600
368.520	9215
368.603	6204
368.687	6916
368.770	11923
368.853	4810
368.936	4667
369.020	5244
369.103	2849
369.186	2072
369.269	2444
369.352	3593
369.436	3074
369.519	3332
369.602	1390
369.685	3838
369.768	2435
369.851	3456
369.934	2190
370.018	3029
370.101	2396
370.184	5095
370.267	3171
370.350	3641
370.433	5107
370.516	15035
370.599	33644
370.682	12259
370.765	8101
370.848	9144
370.931	15877
371.014	7814
371.097	1858
371.180	3063
371.263	2620
371.346	1459
371.429	2857
371.511	2149
371.594	2143
371.677	4663
371.760	6228
371.843	4299
371.926	15474
372.009	33936
372.091	13398
372.174	6616
372.257	18380
372.340	7319
372.423	5427
372.505	8521
372.588	3206
372.671	5679
372.754	15096
372.836	8866
372.919	9672
373.002	18263
373.085	5648
373.167	4498
373.250	7208
373.332	15632
373.415	23770
373.498	49899
373.580	22063
373.663	47139
373.746	54653
373.828	9989
373.911	5397
373.993	5329
374.076	18238
374.159	17524
374.241	6829
374.324	12996
374.406	10087
374.489	14241
374.571	39019
374.654	15353
374.736	8501
374.819	24358
374.901	36466
374.983	38741
375.066	8959
375.148	6245
375.231	17624
375.313	30254
375.395	11643
375.478	5128
375.560	5040
375.643	5595
375.725	9360
375.807	31011
375.890	25359
375.972	9606
376.054	5998
376.136	9789
376.219	4727
376.301	9923
376.383	24829
376.465	10743
376.548	5664
376.630	7280
376.712	19863
376.794	9935
376.877	3315
376.959	2416
377.041	2947
377.123	5384
377.205	5746
377.287	2461
377.369	2638
377.452	3013
377.534	2398
377.616	2560
377.698	2448
377.780	2445
377.862	3289
377.944	3929
378.026	2169
378.108	3360
378.190	2606
378.272	3405
378.354	2991
378.436	2150
378.518	2492
378.600	6712
378.682	5857
378.764	8138
378.846	7504
378.928	2954
379.010	3508
379.091	4303
379.173	3788
379.255	2288
379.337	2665
379.419	5065
379.501	12825
379.583	6418
379.664	2993
379.746	2670
379.828	8916
379.910	10866
379.991	10479
380.073	3269
380.155	2229
380.237	1791
380.318	2699
380.400	2702
380.482	3419
380.564	3795
380.645	2926
380.727	2834
380.809	3724
380.890	2736
380.972	2494
381.053	2655
381.135	3478
381.217	3540
381.298	9199
381.380	5334
381.461	4840
381.543	19016
381.624	23764
381.706	5450
381.787	4297
381.869	4510
381.951	9535
382.032	37785
382.113	25120
382.195	4556
382.276	4930
382.358	7703
382.439	17704
382.521	22206
382.602	36399
382.684	16137
382.765	22850
382.846	26386
382.928	41182
383.009	23973
383.090	16676
383.172	61125
383.253	93384
383.334	31208
383.416	30338
383.497	17387
383.578	9237
383.659	15095
383.741	53617
383.822	144229
383.903	71440
383.984	20924
384.066	32211
384.147	20072
384.228	7160
384.309	6689
384.390	6004
384.471	5072
384.553	5120
384.634	5506
384.715	5137
384.796	4004
384.877	4486
384.958	9370
385.039	10009
385.120	4727
385.201	4853
385.282	4638
385.363	6125
385.444	4558
385.525	7142
385.606	16329
385.687	14915
385.768	6192
385.849	6288
385.930	18945
386.011	32070
386.092	10159
386.173	6212
386.254	5527
386.335	5929
386.416	6363
386.496	8185
386.577	10921
386.658	6630
386.739	4782
386.820	6431
386.901	5036
386.981	6075
387.062	5934
387.143	7766
387.224	12840
387.304	14418
387.385	9579
387.466	7821
387.547	10021
387.627	9007
387.708	11843
387.789	21308
387.869	22746
387.950	11713
388.031	6636
388.111	4326
388.192	8670
388.273	10722
388.353	7463
388.434	5119
388.514	7064
388.595	18576
388.676	21833
388.756	10165
388.837	8848
388.917	6056
388.998	3860
389.078	5438
389.159	4602
389.239	2289
389.320	5884
389.400	2926
389.480	6675
389.561	10341
389.641	7402
389.722	4404
389.802	4199
389.883	6590
389.963	14432
390.043	9946
390.124	4602
390.204	5509
390.284	10181
390.365	7149
390.445	12171
390.525	28593
390.605	24841
390.686	7153
390.766	5494
390.846	5170
390.927	4335
391.007	3287
391.087	5803
391.167	4338
391.247	3385
391.328	5911
391.408	7271
391.488	6713
391.568	4153
391.648	4606
391.728	5561
391.808	6689
391.888	6363
391.969	8689
392.049	11896
392.129	10307
392.209	10165
392.289	17156
392.369	13025
392.449	14050
392.529	12466
392.609	12215
392.689	13841
392.769	22025
392.849	23804
392.929	27335
393.009	42899
393.089	52554
393.169	89348
393.248	228818
393.328	536697
393.408	552017
393.488	243459
393.568	90330
393.648	45674
393.728	29658
393.807	19916
393.887	18090
393.967	14749
394.047	12898
394.127	12441
394.206	15823
394.286	41949
394.366	161634
394.446	178254
394.525	45553
394.605	13402
394.685	11784
394.764	16595
394.844	27702
394.924	26056
395.003	10057
395.083	6808
395.163	6705
395.242	6636
395.322	6669
395.402	5212
395.481	7923
395.561	13325
395.640	34990
395.720	50024
395.799	40612
395.879	26046
395.958	20444
396.038	60510
396.117	209875
396.197	234210
396.276	74222
396.356	27725
396.435	24068
396.515	25205
396.594	33364
396.673	70073
396.753	212264
396.832	485773
396.912	367103
396.991	112610
397.070	42867
397.150	23024
397.229	20521
397.308	34601
397.388	63440
397.467	30572
397.546	11377
397.625	7145
397.705	8990
397.784	7133
397.863	5941
397.942	5517
398.022	5680
398.101	9653
398.180	22432
398.259	12676
398.338	5621
398.417	4454
398.497	3049
398.576	3944
398.655	2438
398.734	4055
398.813	3678
398.892	9164
398.971	24289
399.050	12111
399.129	2550
399.208	3632
399.287	3636
399.366	2994
399.445	2624
399.524	3279
399.603	984
399.682	3230
399.761	6983
399.840	24983
399.919	21085
399.998	4797
400.077	1308
400.156	1527
400.235	4207
400.313	2478
400.392	2538
400.471	5693
400.550	7000
400.629	1963
400.708	2796
400.786	2134
400.865	5344
400.944	4394
401.023	5025
401.102	2233
401.180	2184
401.259	2224
401.338	2360
401.416	2563
401.495	1726
401.574	2626
401.652	1493
401.731	3233
401.810	1337
401.888	2169
401.967	1580
402.046	2395
402.124	1973
402.203	2013
402.281	3026
402.360	2412
402.438	7271
402.517	3759
402.596	2775
402.674	1691
402.753	2613
402.831	2478
402.910	2570
402.988	3544
403.066	11173
403.145	7836
403.223	5492
403.302	8277
403.380	7330
403.459	7146
403.537	3759
403.615	2689
403.694	1861
403.772	2481
403.850	2460
403.929	1300
404.007	1573
404.085	3564
404.164	2108
404.242	2408
404.320	7363
404.398	17125
404.477	14460
404.555	26976
404.633	26179
404.711	12706
404.789	7947
404.868	2147
404.946	788
405.024	2321
405.102	684
405.180	1187
405.258	416
405.336	2050
405.415	1361
405.493	2859
405.571	2807
405.649	186
405.727	934
405.805	3171
405.883	2704
405.961	2732
406.039	2477
406.117	1690
406.195	2022
406.273	4558
406.351	19008
406.429	12941
406.507	2699
406.585	661
406.663	1822
406.740	1179
406.818	1663
406.896	990
406.974	2851
407.052	1253
407.130	10096
407.208	15306
407.285	5241
407.363	1198
407.441	1585
407.519	2437
407.596	2810
407.674	12173
407.752	53476
407.830	43975
407.907	7512
407.985	2044
408.063	2410
408.141	2290
408.218	3327
408.296	1150
408.373	1321
408.451	1849
408.529	1952
408.606	1309
408.684	1828
408.762	2363
408.839	2018
408.917	2070
408.994	2294
409.072	2741
409.149	3301
409.227	7735
409.304	10642
409.382	11293
409.459	12213
409.537	17276
409.614	14701
409.692	10731
409.769	10493
409.846	16105
409.924	21597
410.001	13413
410.079	10377
410.156	7399
410.233	5386
410.311	3915
410.388	3465
410.465	4288
410.543	2487
410.620	3413
410.697	3771
410.775	2970
410.852	1837
410.929	4276
411.006	4883
411.083	2805
411.161	3646
411.238	4435
411.315	3026
411.392	2545
411.469	2827
411.547	2809
411.624	1332
411.701	1907
411.778	1876
411.855	2263
411.932	2141
412.009	1329
412.086	2434
412.163	1565
412.240	2328
412.317	2315
412.394	1363
412.471	1802
412.548	884
412.625	1184
412.702	1559
412.779	1941
412.856	2064
412.933	741
413.010	803
413.087	1974
413.164	3576
413.241	5732
413.318	971
413.395	2335
413.471	1249
413.548	2096
413.625	1820
413.702	228
413.779	1371
413.855	1203
413.932	427
414.009	258
414.086	676
414.162	1601
414.239	1605
414.316	3296
414.393	8107
414.469	2550
414.546	576
414.623	983
414.699	924
414.776	429
414.853	411
414.929	1234
415.006	1567
415.082	1466
415.159	1159
415.236	1900
415.312	1057
415.389	1394
415.465	635
415.542	876
415.618	27
415.695	658
415.771	275
415.848	1357
415.924	743
416.000	725
416.077	1754
416.153	358
416.230	552
416.306	409
416.383	734
416.459	1630
416.535	820
416.612	791
416.688	870
416.764	414
416.841	283
416.917	586
416.993	1195
417.069	1248
417.146	979
417.222	1440
417.298	1165
417.374	104
417.451	757
417.527	753
417.603	897
417.679	263
417.755	1567
417.831	556
417.908	1407
417.984	788
418.060	362
418.136	1423
418.212	607
418.288	956
418.364	1144
418.440	365
418.516	2054
418.592	1665
418.668	1759
418.744	1996
418.820	2067
418.896	1554
418.972	447
419.048	1010
419.124	2915
419.200	693
419.276	897
419.352	1407
419.428	1458
419.504	322
419.579	572
419.655	1418
419.731	1360
419.807	2393
419.883	3175
419.959	2999
420.034	2633
420.110	2857
420.186	5048
420.262	4928
420.337	1706
420.413	2607
420.489	2532
420.565	3444
420.640	2315
420.716	3290
420.792	1153
420.867	3829
420.943	1777
421.019	3647
421.094	3385
421.170	4062
421.245	4437
421.321	4951
421.397	5698
421.472	14008
421.548	38377
421.623	22774
421.699	8564
421.774	8873
421.850	8675
421.925	12752
422.001	14057
422.076	16298
422.152	20448
422.227	28443
422.302	40574
422.378	58981
422.453	98661
422.529	174201
422.604	241103
422.679	217523
422.755	238780
422.830	184946
422.905	107922
422.981	66325
423.056	44236
423.131	33668
423.207	24728
423.282	19533
423.357	16642
423.432	13735
423.508	11827
423.583	9779
423.658	10238
423.733	7252
423.808	7416
423.883	7721
423.959	8482
424.034	9624
424.109	9718
424.184	5922
424.259	5052
424.334	4629
424.409	3305
424.484	3044
424.559	2893
424.634	2932
424.709	2872
424.784	2835
424.859	2417
424.934	2898
425.009	4482
425.084	6506
425.159	3044
425.234	2514
425.309	1773
425.384	3974
425.459	3245
425.534	2036
425.609	1034
425.683	1371
425.758	1209
425.833	2119
425.908	2504
425.983	2250
426.058	6059
426.132	3183
426.207	1260
426.282	3272
426.357	1644
426.431	2387
426.506	1137
426.581	955
426.655	1501
426.730	1080
426.805	694
426.879	859
426.954	1365
427.029	1341
427.103	6193
427.178	14314
427.253	6154
427.327	1469
427.402	1121
427.476	3966
427.551	2369
427.625	1456
427.700	1722
427.774	950
427.849	922
427.923	1022
427.998	937
428.072	1760
428.147	6065
428.221	26982
428.296	87972
428.370	50380
428.444	6431
428.519	3599
428.593	5185
428.667	4646
428.742	6008
428.816	10626
428.890	54175
428.965	86231
429.039	22449
429.113	6393
429.188	2710
429.262	1550
429.336	2316
429.410	2654
429.485	3134
429.559	3967
429.633	3863
429.707	2315
429.781	8961
429.855	52484
429.930	78558
430.004	25652
430.078	24899
430.152	39118
430.226	114117
430.300	114870
430.374	23267
430.448	6082
430.522	8677
430.596	20154
430.670	22325
430.744	70747
430.818	82977
430.892	15008
430.966	2417
431.040	1453
431.114	738
431.188	152
431.262	831
431.336	534
431.410	2244
431.484	4390
431.557	3315
431.631	1746
431.705	4089
431.779	21053
431.853	81587
431.927	57612
432.000	7129
432.074	2374
432.148	1509
432.222	472
432.295	417
432.369	561
432.443	119
432.516	5840
432.590	14754
432.664	5481
432.737	390
432.811	402
432.885	932
432.958	55
433.032	-96
433.106	158
433.179	-561
433.253	-531
433.326	-463
433.400	-501
433.473	141
433.547	-32
433.620	-256
433.694	-408
433.767	1347
433.841	658
433.914	337
433.988	93
434.061	133
434.134	752
434.208	193
434.281	-259
434.355	-150
434.428	-169
434.501	327
434.575	-566
434.648	-472
434.721	259
434.795	438
434.868	0
434.941	-57
435.014	-103
435.088	-270
435.161	150
435.234	481
435.307	1468
435.381	2215
435.454	4217
435.527	6619
435.600	8029
435.673	6177
435.746	4852
435.819	2732
435.892	3001
435.966	1542
436.039	731
436.112	934
436.185	299
436.258	-295
436.331	-541
436.404	-718
436.477	5
436.550	-180
436.623	342
436.696	100
436.769	874
436.842	36
436.915	583
436.987	449
437.060	-405
437.133	607
437.206	-473
437.279	588
437.352	-2
437.425	-549
437.498	279
437.570	976
437.643	-420
437.716	557
437.789	-1098
437.861	-108
437.934	1770
438.007	123
438.080	-385
438.152	-21
438.225	1091
438.298	8169
438.370	23983
438.443	9276
438.516	1424
438.588	113
438.661	-1130
438.734	-414
438.806	-383
438.879	319
438.951	242
439.024	574
439.096	-462
439.169	210
439.241	-442
439.314	-42
439.386	111
439.459	848
439.531	746
439.604	65
439.676	140
439.749	-19
439.821	-543
439.893	-132
439.966	347
440.038	-45
440.110	246
440.183	-306
440.255	-381
440.327	1244
440.400	3509
440.472	11577
440.544	7477
440.617	997
440.689	1064
440.761	738
440.833	1431
440.905	1470
440.978	696
441.050	-376
441.122	427
441.194	20
441.266	429
441.338	-577
441.411	673
441.483	2914
441.555	4295
441.627	1122
441.699	1079
441.771	667
441.843	-77
441.915	-52
441.987	240
442.059	138
442.131	1440
442.203	1924
442.275	2944
442.347	4683
442.419	11609
442.491	59212
442.563	134329
442.635	53741
442.706	12026
442.778	6280
442.850	2022
442.922	2478
442.994	2024
443.066	2377
443.137	3929
443.209	5025
443.281	6890
443.353	17590
443.425	65544
443.496	201647
443.568	209380
443.640	84071
443.711	17611
443.783	6254
443.855	4169
443.926	2879
443.998	2290
444.070	1892
444.141	1907
444.213	1858
444.285	1847
444.356	1003
444.428	1036
444.499	1212
444.571	485
444.642	1537
444.714	648
444.785	1295
444.857	2376
444.928	4381
445.000	3578
445.071	4667
445.143	5929
445.214	6995
445.285	14245
445.357	36694
445.428	126983
445.500	244682
445.571	186681
445.642	120881
445.714	39401
445.785	14432
445.856	5236
445.928	3670
445.999	2169
446.070	1103
446.141	1983
446.213	1539
446.284	-99
446.355	1284
446.426	1028
446.497	59
446.569	1044
446.640	1351
446.711	205
446.782	351
446.853	861
446.924	421
446.995	-115
447.066	-127
447.138	442
447.209	1252
447.280	-188
447.351	241
447.422	-528
447.493	-51
447.564	98
447.635	-101
447.706	44
447.777	-294
447.847	-5
447.918	-625
447.989	72
448.060	544
448.131	959
448.202	1473
448.273	-481
448.344	7
448.414	195
448.485	-416
448.556	59
448.627	-680
448.698	408
448.768	-319
448.839	-886
448.910	315
448.981	719
449.051	-511
449.122	-684
449.193	-5
449.263	-238
449.334	282
449.405	-399
449.475	517
449.546	431
449.616	461
449.687	1201
449.758	-785
449.828	-580
449.899	-190
449.969	-677
450.040	-265
450.110	455
450.181	345
450.251	-121
450.322	-60
450.392	79
450.463	377
450.533	361
450.604	21
450.674	308
450.744	322
450.815	-424
450.885	392
450.955	261
451.026	221
451.096	-308
451.166	492
451.237	1565
451.307	4666
451.377	2680
451.447	23
451.518	-617
451.588	-43
451.658	-188
451.728	632
451.799	3599
451.869	3859
451.939	635
452.009	-208
452.079	-534
452.149	-292
452.219	404
452.289	4307
452.360	3624
452.430	1134
452.500	552
452.570	1173
452.640	6799
452.710	18149
452.780	21177
452.850	9756
452.920	3455
452.990	2188
453.060	926
453.129	1135
453.199	410
453.269	5105
453.339	11433
453.409	17811
453.479	16764
453.549	24555
453.619	25400
453.688	9239
453.758	1577
453.828	-51
453.898	19
453.968	150
454.037	-172
454.087	89
454.107	157
454.168	-687
454.177	-855
454.247	430
454.249	464
454.316	324
454.330	516
454.386	1046
454.411	1588
454.456	1889
454.492	2472
454.525	2904
454.574	2110
454.595	1810
454.655	296
454.665	51
454.734	1404
454.736	1527
454.804	2969
454.817	3649
454.873	4662
454.898	4932
454.943	5029
454.979	3037
455.013	1534
455.060	1452
455.082	1725
455.141	2605
455.152	2612
455.221	6581
455.222	6793
455.291	9559
455.303	10023
455.360	11581
455.384	15463
455.430	20671
455.465	16068
455.499	11779
455.546	8798
455.569	6835
455.627	4313
455.638	4030
455.707	1563
455.708	1601
455.777	1607
455.789	1598
455.846	1359
455.869	1528
455.916	1773
455.950	2097
455.985	2247
456.031	2001
456.054	1871
456.112	1949
456.124	1915
456.193	1761
456.193	1722
456.262	2068
456.274	2291
456.332	3007
456.355	2969
456.401	2491
456.436	2633
456.470	2738
456.516	2080
456.540	1807
456.597	1992
456.609	1975
456.678	3081
456.678	3051
456.747	1966
456.759	1950
456.817	1839
456.840	2004
456.886	2159
456.920	2743
456.955	3375
457.001	3663
457.024	3755
457.082	4084
457.093	4100
457.162	4685
457.163	4727
457.232	4405
457.243	4538
457.301	4957
457.324	4705
457.370	4462
457.405	4612
457.439	4766
457.485	5420
457.508	5919
457.566	7970
457.577	8397
457.646	10109
457.647	10209
457.715	22620
457.727	25071
457.784	43212
457.808	54240
457.853	65203
457.889	74041
457.922	67934
457.969	45666
457.991	48472
458.050	63538
458.060	67241
458.129	111000
458.130	112393
458.198	97472
458.211	88771
458.267	48236
458.292	31915
458.336	24858
458.372	24497
458.405	35014
458.453	53107
458.474	67844
458.533	116807
458.543	120329
458.611	169944
458.614	171200
458.680	92908
458.694	72013
458.749	34884
458.775	23405
458.818	15761
458.855	12763
458.887	11505
458.936	10167
458.955	9564
459.016	8508
459.024	8498
459.093	8291
459.097	8318
459.162	7915
459.177	7813
459.230	7402
459.257	7411
459.299	7459
459.338	7642
459.368	7809
459.418	7809
459.437	7722
459.499	7354
459.505	7285
459.574	7248
459.579	7253
459.643	6939
459.659	6746
459.711	6861
459.740	7380
459.780	7643
459.820	7515
459.849	7594
459.900	8080
459.917	8048
459.981	8319
459.986	8315
460.054	7851
460.061	7828
460.123	8072
460.141	8330
460.191	9505
460.222	9907
460.260	10027
460.302	10420
460.328	10429
460.382	10558
460.397	10841
460.462	11279
460.465	11619
460.534	21307
460.543	22593
460.602	54335
460.623	65945
460.671	100530
460.703	129915
460.739	112776
460.783	83544
460.808	67885
460.864	18878
460.876	15896
460.944	10436
460.945	10374
461.013	9253
461.024	9084
461.081	8660
461.104	8656
461.150	8623
461.184	8275
461.218	8441
461.264	8949
461.286	9067
461.345	8960
461.355	8860
461.423	8726
461.425	8725
461.491	9568
461.505	9776
461.559	14345
461.585	16403
461.628	22937
461.665	28884
461.696	30260
461.745	33185
461.764	28308
461.825	10932
461.832	10809
461.901	9424
461.905	9370
461.969	8817
461.985	8852
462.037	9638
462.065	9818
462.105	10280
462.145	11181
462.173	14039
462.225	19012
462.241	20550
462.305	26998
462.310	26253
462.378	14171
462.385	12816
462.446	10873
462.465	10139
462.514	10047
462.545	10300
462.582	10789
462.625	11128
462.650	10552
462.705	9515
462.718	9760
462.785	10681
462.786	10732
462.854	13665
462.865	14167
462.922	15748
462.945	16352
462.990	13359
463.025	10746
463.058	10503
463.104	10529
463.126	10376
463.184	9718
463.194	9888
463.262	10846
463.264	10887
463.330	13384
463.344	13869
463.398	14792
463.424	15172
463.466	12959
463.504	11035
463.533	11434
463.583	11894
463.601	11995
463.663	12603
463.669	12757
463.737	14137
463.743	14248
463.805	20277
463.823	22110
463.873	31117
463.903	36562
463.940	37907
463.982	39199
464.008	31506
464.062	15139
464.076	14784
464.142	12555
464.144	12544
464.211	11714
464.221	11649
464.279	11223
464.301	10953
464.347	11951
464.381	12700
464.414	13967
464.461	15733
464.482	15897
464.540	16186
464.550	15710
464.617	12178
464.620	12038
464.685	12996
464.699	13198
464.753	15671
464.779	16894
464.820	18082
464.859	19097
464.888	18884
464.938	18381
464.956	18601
465.018	19229
465.023	18988
465.091	15545
465.098	15163
465.158	15309
465.177	15342
465.226	16072
465.257	16444
465.293	16050
465.336	15553
465.361	16361
465.416	18129
465.428	19147
465.495	24374
465.496	24503
465.563	38097
465.575	40390
465.631	47077
465.654	49889
465.698	33066
465.734	18862
465.765	17839
465.813	16187
465.833	16031
465.893	15659
465.900	15565
465.968	14475
465.972	14360
466.035	14771
466.052	14883
466.102	15335
466.131	15568
466.170	15633
466.210	15639
466.237	15704
466.290	15645
466.304	15830
466.369	16515
466.372	16566
466.439	17115
466.449	17147
466.506	18107
466.528	18406
466.573	22807
466.607	26076
466.641	36389
466.687	50629
466.708	55120
466.766	67174
466.775	62190
466.842	23694
466.845	21815
466.909	18649
466.925	17875
466.977	17466
467.004	17190
467.044	18318
467.083	19364
467.111	20431
467.163	22346
467.178	23080
467.242	25866
467.245	25837
467.312	24060
467.321	23771
467.379	24071
467.400	24106
467.446	26344
467.480	27865
467.559	24827
467.638	22973
467.717	22849
467.796	23270
467.875	24869
467.955	26143
468.034	35981
468.113	65791
468.192	94424
468.271	39509
468.350	42272
468.429	50410
468.508	50935
468.588	39523
468.667	38087
468.746	48492
468.825	40579
468.904	24426
468.983	24936
469.062	32377
469.141	36039
469.220	20701
469.299	21040
469.378	22579
469.456	25087
469.535	23957
469.614	22871
469.693	23008
469.772	26794
469.851	34798
469.930	25664
470.009	21024
470.088	20348
470.166	21772
470.245	22619
470.324	24617
470.403	22022
470.482	20335
470.560	21153
470.639	19477
470.718	22125
470.797	22352
470.875	27478
470.954	40521
471.033	41130
471.111	20660
471.190	20449
471.269	19185
471.347	18843
471.426	19717
471.505	22462
471.583	21791
471.662	22045
471.740	21258
471.819	21027
471.898	21022
471.976	20100
472.055	20089
472.133	24157
472.212	31902
472.290	28345
472.369	20023
472.447	18971
472.526	18137
472.604	19352
472.683	19504
472.761	18775
472.839	18792
472.918	19363
472.996	20001
473.075	22634
473.153	22542
473.231	21912
473.310	21374
473.388	21413
473.466	19968
473.545	20707
473.623	21083
473.701	21487
473.780	22294
473.858	26312
473.936	36392
474.014	21971
474.093	23428
474.171	31620
474.249	37382
474.327	25484
474.405	18591
474.484	18575
474.562	17618
474.640	18102
474.718	18460
474.796	18499
474.874	17245
474.952	17422
475.030	17860
475.108	17600
475.187	17244
475.265	19518
475.343	20990
475.421	21320
475.499	18887
475.577	19422
475.655	23301
475.733	37442
475.811	58750
475.889	52881
475.966	35485
476.044	19703
476.122	20239
476.200	22602
476.278	19718
476.356	18854
476.434	19799
476.512	19972
476.590	20927
476.667	21261
476.745	17915
476.823	18478
476.901	19406
476.979	20657
477.056	20796
477.134	24831
477.212	30081
477.290	20885
477.367	18227
477.445	17118
477.523	17700
477.601	17489
477.678	17369
477.756	19844
477.834	21178
477.911	17436
477.989	18805
478.066	19006
478.144	19381
478.222	18887
478.299	21311
478.377	24339
478.454	22889
478.532	18950
478.609	17247
478.687	18415
478.764	17572
478.842	18908
478.919	17692
478.997	16896
479.074	17212
479.152	19870
479.229	23253
479.307	17697
479.384	16689
479.461	17063
479.539	17499
479.616	19482
479.694	17595
479.771	18011
479.848	19601
479.926	22855
480.003	24119
480.080	16763
480.157	17326
480.235	15392
480.312	16962
480.389	20075
480.467	26888
480.544	33552
480.621	23193
480.698	20947
480.775	21720
480.853	21881
480.930	21759
481.007	21308
481.084	28077
481.161	39915
481.238	28090
481.315	19304
481.392	20132
481.470	25767
481.547	31311
481.624	21329
481.701	19106
481.778	18775
481.855	21415
481.932	27380
482.009	39967
482.086	29354
482.163	21952
482.240	23725
482.317	27996
482.393	26690
482.470	23274
482.547	21961
482.624	20286
482.701	21913
482.778	22032
482.855	21591
482.932	19800
483.009	20780
483.085	25583
483.162	33308
483.239	32115
483.316	23702
483.393	24459
483.469	23221
483.546	21922
483.623	22871
483.699	19782
483.776	20574
483.853	22292
483.930	26565
484.006	53258
484.083	82683
484.160	43815
484.236	59236
484.313	47710
484.389	40424
484.466	38335
484.543	40388
484.619	45541
484.696	47317
484.772	43290
484.849	41585
484.925	34783
485.002	33926
485.078	37223
485.155	35391
485.231	31968
485.308	31053
485.384	32289
485.461	38239
485.537	52915
485.614	59562
485.690	31280
485.766	29600
485.843	29508
485.919	30309
485.995	31503
486.072	29040
486.148	28389
486.224	28589
486.301	28673
486.377	31743
486.453	31314
486.530	33571
486.606	40704
486.682	42803
486.758	49208
486.835	56409
486.911	46442
486.987	63617
487.063	49790
487.139	48894
487.215	53062
487.292	46088
487.368	43099
487.444	48398
487.520	63340
487.596	89044
487.672	162103
487.748	440405
487.824	686610
487.900	262683
487.976	86185
488.052	56295
488.128	48471
488.204	39821
488.280	36735
488.356	39942
488.432	62635
488.508	84364
488.584	34237
488.660	28060
488.736	28019
488.812	26629
488.888	29135
488.964	31061
489.039	36597
489.115	44199
489.191	38978
489.267	29880
489.343	28209
489.418	25360
489.494	24706
489.570	24457
489.646	25712
489.722	25016
489.797	26042
489.873	37235
489.949	66738
490.024	53126
490.100	24100
490.176	25938
490.251	24741
490.327	26640
490.403	23003
490.478	24669
490.554	22481
490.629	22871
490.705	21088
490.781	24299
490.856	22109
490.932	24120
491.007	22488
491.083	23569
491.158	23062
491.234	29281
491.309	51562
491.385	50145
491.460	23055
491.536	24298
491.611	20518
491.686	21665
491.762	22871
491.837	26323
491.913	35657
491.988	44039
492.063	43589
492.139	34959
492.214	26733
492.289	19103
492.365	18653
492.440	22117
492.515	22530
492.590	22383
492.666	19051
492.741	25125
492.816	32674
492.891	22824
492.967	19619
493.042	18798
493.117	19272
493.192	20407
493.267	28687
493.342	69767
493.418	91583
493.493	23696
493.568	16648
493.643	17579
493.718	20970
493.793	24361
493.868	22500
493.943	16903
494.018	17800
494.093	17787
494.168	18197
494.243	17197
494.318	15940
494.393	16418
494.468	16677
494.543	15936
494.618	16730
494.693	16379
494.768	16830
494.842	17609
494.917	14957
494.992	17308
495.067	15370
495.142	15840
495.217	16553
495.292	15947
495.366	16772
495.441	19356
495.516	21013
495.591	22654
495.665	36713
495.740	60442
495.815	34754
495.890	20866
495.964	18657
496.039	23120
496.114	25008
496.188	40093
496.263	32448
496.338	20079
496.412	21522
496.487	22242
496.561	20048
496.636	21893
496.710	21085
496.785	24964
496.860	24707
496.934	19186
497.009	18364
497.083	18876
497.158	19586
497.232	21717
497.307	24305
497.381	20800
497.455	24240
497.530	29374
497.604	22053
497.679	22845
497.753	32134
497.827	35383
497.902	27748
497.976	34352
498.050	84125
498.125	296191
498.199	266009
498.273	34756
498.348	23885
498.422	23259
498.496	22246
498.570	22648
498.645	22288
498.719	21816
498.793	26780
498.867	37580
498.941	51667
499.016	128809
499.090	327541
499.164	100880
499.238	22493
499.312	20584
499.386	21900
499.460	24003
499.534	23295
499.609	27275
499.683	36850
499.757	34170
499.831	66997
499.905	229690
499.979	195572
500.053	40589
500.127	35712
500.201	22532
500.275	22183
500.349	21075
500.422	22740
500.496	26267
500.570	42395
500.644	126126
500.718	236019
500.792	51068
500.866	24250
500.940	28854
501.013	25830
501.087	23185
501.161	28903
501.235	37990
501.309	91539
501.382	233474
501.456	173442
501.530	48347
501.603	85138
501.677	33037
501.751	20098
501.825	24761
501.898	41282
501.972	101460
502.046	56888
502.119	23529
502.193	46792
502.266	108495
502.340	49692
502.413	53004
502.487	94316
502.561	53132
502.634	21716
502.708	18078
502.781	16645
502.855	16977
502.928	16002
503.002	17542
503.075	16902
503.149	18841
503.222	19904
503.295	19892
503.369	22505
503.442	31298
503.516	79701
503.589	182445
503.662	111425
503.736	47814
503.809	100012
503.882	85614
503.956	132279
504.029	152259
504.102	249189
504.175	358805
504.249	154914
504.322	66159
504.395	39535
504.468	29688
504.542	25334
504.615	21182
504.688	20943
504.761	16536
504.834	18938
504.907	17071
504.980	17924
505.053	15999
505.127	14193
505.200	21271
505.273	22645
505.346	15872
505.419	14717
505.492	14702
505.565	13707
505.638	13744
505.711	14413
505.784	12999
505.857	13523
505.930	15325
506.003	13742
506.076	16445
506.149	17569
506.221	19550
506.294	19365
506.367	43015
506.440	130564
506.513	59755
506.586	21474
506.659	13888
506.731	13354
506.804	13550
506.877	15172
506.950	15306
507.022	14932
507.095	15704
507.168	17575
507.241	13382
507.313	11873
507.386	11377
507.459	13393
507.531	12309
507.604	10801
507.677	12501
507.749	11074
507.822	17111
507.894	19726
507.967	24669
508.040	17530
508.112	16347
508.185	15777
508.257	13733
508.330	18685
508.402	16079
508.475	16102
508.547	17843
508.620	16564
508.692	23629
508.765	15675
508.837	13567
508.909	13579
508.982	15129
509.054	14013
509.127	13641
509.199	13068
509.271	14029
509.344	13015
509.416	13239
509.488	14231
509.560	13866
509.633	13939
509.705	15678
509.777	15474
509.849	15550
509.922	14866
509.994	15441
510.066	15169
510.138	15069
510.210	26163
510.283	23116
510.355	20250
510.427	17836
510.499	16106
510.571	15827
510.643	15508
510.715	18407
510.787	15247
510.859	18479
510.931	18678
511.003	18320
511.076	17182
511.148	15816
511.219	18798
511.291	25432
511.363	26742
511.435	17096
511.507	14898
511.579	16874
511.651	15877
511.723	14928
511.795	14670
511.867	15584
511.939	17837
512.010	28626
512.082	22730
512.154	14166
512.226	15114
512.298	20722
512.369	23870
512.441	20432
512.513	19337
512.585	16816
512.656	17567
512.728	17187
512.800	15662
512.871	15829
512.943	15784
513.015	13989
513.086	15034
513.158	16229
513.230	15433
513.301	17719
513.373	17908
513.444	15662
513.516	15413
513.588	14089
513.659	15232
513.731	15444
513.802	13648
513.874	18807
513.945	20086
514.016	15299
514.088	15283
514.159	14727
514.231	16667
514.302	20697
514.374	19962
514.445	19239
514.516	34981
514.588	24508
514.659	19481
514.730	30712
514.802	20568
514.873	14584
514.944	18417
515.016	17292
515.087	16114
515.158	22448
515.229	29766
515.301	16504
515.372	16957
515.443	15048
515.514	17782
515.585	15538
515.656	16024
515.728	15486
515.799	16334
515.870	16323
515.941	16065
516.012	16285
516.083	18740
516.154	19009
516.225	18712
516.296	19838
516.367	17398
516.438	17496
516.509	20821
516.580	26571
516.651	54926
516.722	147970
516.793	68274
516.864	27077
516.935	27741
517.006	30285
517.077	32888
517.148	61408
517.219	188638
517.289	290861
517.360	147966
517.431	49358
517.502	22249
517.573	22596
517.643	22635
517.714	24593
517.785	25261
517.856	24481
517.926	28187
517.997	29725
518.068	31473
518.138	37804
518.209	50200
518.280	137780
518.350	429127
518.421	174914
518.492	49265
518.562	50000
518.633	64549
518.703	90038
518.774	190233
518.845	442612
518.915	404360
518.986	131015
519.056	63626
519.127	51609
519.197	61421
519.268	134405
519.338	85391
519.408	30515
519.479	24880
519.549	22597
519.620	22114
519.690	19184
519.760	20047
519.831	19002
519.901	18501
519.971	18041
520.042	20409
520.112	20602
520.182	20015
520.253	19194
520.323	18517
520.393	19072
520.463	24320
520.534	19831
520.604	31350
520.674	21854
520.744	22238
520.814	30910
520.885	30594
520.955	50515
521.025	154755
521.095	52805
521.165	19695
521.235	18389
521.305	16868
521.375	16761
521.445	17477
521.515	17623
521.585	17493
521.655	16684
521.725	18210
521.795	17832
521.865	15889
521.935	24310
522.005	20920
522.075	16489
522.145	17916
522.215	20891
522.285	24557
522.355	29319
522.424	48266
522.494	40394
522.564	21193
522.634	22112
522.704	35982
522.774	20267
522.843	16853
522.913	17809
522.983	17752
523.053	16530
523.122	16466
523.192	15818
523.262	22507
523.331	22080
523.401	16455
523.471	14763
523.540	15332
523.610	14791
523.680	15828
523.749	16966
523.819	22232
523.888	21390
523.958	16573
524.027	16436
524.097	17082
524.166	16769
524.236	14820
524.305	17115
524.375	15833
524.444	14720
524.514	19081
524.583	17452
524.653	19489
524.722	22017
524.791	16581
524.861	17411
524.930	15223
524.999	15929
525.069	19574
525.138	18925
525.207	21823
525.277	20079
525.346	18733
525.415	19965
525.484	21401
525.554	25655
525.623	29422
525.692	36163
525.761	35420
525.830	41086
525.900	51288
525.969	79135
526.038	147878
526.107	295516
526.176	786597
526.245	612915
526.314	195565
526.383	405055
526.452	539728
526.522	711345
526.591	656637
526.660	129441
526.729	73366
526.797	79914
526.867	123606
526.935	349449
527.004	989752
527.073	650885
527.142	107323
527.211	48575
527.280	35473
527.349	28551
527.418	21839
527.487	21516
527.555	18716
527.624	17727
527.693	16656
527.762	19662
527.831	16219
527.899	16837
527.968	17393
528.037	15035
528.106	16190
528.174	18286
528.243	19725
528.312	22988
528.380	21789
528.449	15672
528.518	16282
528.586	13904
528.655	16042
528.723	14260
528.792	14212
528.861	16603
528.929	14666
528.998	17344
529.066	22555
529.135	31027
529.203	29742
529.272	38767
529.340	46626
529.409	42448
529.477	39051
529.545	41469
529.614	45405
529.682	51674
529.751	55840
529.819	58553
529.887	62773
529.956	56978
530.024	52946
530.092	49962
530.161	50126
530.229	50391
530.297	54526
530.365	53460
530.434	57858
530.502	58293
530.570	52728
530.638	46176
530.707	45320
530.775	44999
530.843	44993
530.911	50759
530.979	49926
531.047	57620
531.115	54589
531.183	49046
531.252	46119
531.320	44755
531.388	44709
531.456	53021
531.524	52867
531.592	56044
531.660	64112
531.728	56094
531.796	53822
531.864	53573
531.932	53569
532.000	54316
532.067	58464
532.135	60921
532.203	63687
532.271	67270
532.339	66021
532.407	68566
532.475	63083
532.542	60316
532.610	60340
532.678	63311
532.746	81739
532.814	109845
532.881	74199
532.949	62617
533.017	59678
533.084	57198
533.152	55619
533.220	55510
533.287	55566
533.355	58446
533.423	59509
533.490	59597
533.558	57953
533.625	55483
533.693	55667
533.761	53133
533.828	53268
533.896	53256
533.963	59573
534.031	60128
534.098	65290
534.166	59995
534.233	55827
534.300	55758
534.368	55716
534.435	52951
534.503	54835
534.570	57914
534.637	59714
534.705	65301
534.772	73250
534.840	108910
534.907	357039
534.974	425774
535.041	84009
535.109	54597
535.176	46780
535.243	48029
535.310	46187
535.378	45898
535.445	43602
535.512	43209
535.579	40284
535.646	38673
535.714	40623
535.781	43549
535.848	43793
535.915	44779
535.982	45911
536.049	43229
536.116	42159
536.183	39041
536.250	37574
536.317	37113
536.384	37136
536.451	37317
536.518	39607
536.585	37239
536.652	40818
536.719	39627
536.786	35374
536.853	35193
536.920	38029
536.987	38957
537.053	35898
537.120	55756
537.187	51192
537.254	36076
537.321	36082
537.388	35357
537.454	32948
537.521	32467
537.588	32114
537.654	32365
537.721	34603
537.788	33347
537.855	32443
537.921	33142
537.988	32834
538.055	31720
538.121	29175
538.188	29177
538.254	29123
538.321	31434
538.388	32374
538.454	33004
538.521	35001
538.587	33152
538.654	31395
538.720	30747
538.787	30340
538.853	29000
538.920	30522
538.986	29704
539.053	27709
539.119	28562
539.185	27486
539.252	29898
539.318	30556
539.385	33770
539.451	30483
539.517	31110
539.583	31051
539.650	35236
539.716	43621
539.782	29376
539.849	27045
539.915	27318
539.981	26955
540.047	28483
540.114	28923
540.180	28073
540.246	27638
540.312	29974
540.378	31863
540.444	32247
540.510	33141
540.576	43999
540.643	29742
540.709	26426
540.775	28736
540.841	27347
540.907	29421
540.973	34135
541.039	28445
541.105	28218
541.171	27835
541.237	27396
541.303	28469
541.369	29052
541.435	28873
541.500	29547
541.566	25163
541.632	25513
541.698	24293
541.764	27424
541.830	26076
541.896	23916
541.961	25977
542.027	25127
542.093	27953
542.159	28912
542.224	27155
542.290	28516
542.356	27483
542.421	29222
542.487	26424
542.553	25420
542.618	27024
542.684	25608
542.750	25331
542.815	26786
542.881	30027
542.947	41107
543.012	35337
543.078	24901
543.143	24492
543.209	25698
543.274	24165
543.340	25262
543.405	29325
543.471	31782
543.536	26643
543.602	26588
543.667	25132
543.732	27272
543.798	25643
543.863	26910
543.928	25900
543.994	25368
544.059	26556
544.124	25749
544.190	25681
544.255	27091
544.320	26631
544.386	27295
544.451	28671
544.516	27763
544.581	28223
544.646	36720
544.712	41902
544.777	31187
544.842	31059
544.907	31960
544.972	29833
545.037	31210
545.102	33154
545.168	31786
545.233	32959
545.298	32811
545.363	33342
545.428	34040
545.493	36194
545.558	41830
545.623	36121
545.688	32890
545.753	34430
545.818	34351
545.883	36492
545.947	36773
546.012	39538
546.077	38346
546.142	40709
546.207	40319
546.272	43087
546.337	43187
546.401	44876
546.466	46812
546.531	46476
546.596	50608
546.661	50637
546.725	53984
546.790	55248
546.855	59138
546.919	64919
546.984	72113
547.049	75509
547.113	86171
547.178	93706
547.243	105099
547.307	121366
547.372	131998
547.436	133807
547.501	138453
547.565	148330
547.630	134566
547.695	132569
547.759	135471
547.823	134337
547.888	134988
547.952	138985
548.017	143875
548.081	157943
548.146	153815
548.210	152592
548.274	158244
548.339	154093
548.403	141896
548.468	133233
548.532	134225
548.596	136239
548.660	138271
548.725	150287
548.789	165995
548.853	158154
548.917	150006
548.982	150738
549.046	136004
549.110	120298
549.174	125222
549.238	141905
549.303	156758
549.367	158030
549.431	151675
549.495	141015
549.559	144603
549.623	164149
549.687	178402
549.751	177080
549.815	209855
549.879	210833
549.943	200981
550.007	211029
550.071	208827
550.135	189936
550.199	180867
550.263	178677
550.327	169458
550.391	180303
550.455	193261
550.519	199854
550.582	212395
550.646	238305
550.710	240171
550.774	236260
550.838	239703
550.901	248119
550.965	259852
551.029	273364
551.093	293894
551.156	324183
551.220	373303
551.284	390531
551.347	310044
551.411	291826
551.475	276651
551.538	256283
551.602	240359
551.666	226562
551.729	214121
551.793	210994
551.856	205241
551.920	201462
551.983	201771
552.047	198850
552.110	200776
552.174	205189
552.237	205531
552.301	190220
552.364	183677
552.428	177885
552.491	182876
552.554	187583
552.618	186246
552.681	190409
552.745	183212
552.808	192029
552.871	204021
552.934	194257
552.998	187798
553.061	184019
553.124	178645
553.187	176361
553.251	183038
553.314	183753
553.377	188704
553.440	206511
553.503	250717
553.567	280076
553.630	204120
553.693	195324
553.756	195037
553.819	191312
553.882	184863
553.945	186322
554.008	186476
554.071	187281
554.134	189442
554.197	178967
554.260	175351
554.323	177731
554.386	179784
554.449	187112
554.512	186447
554.575	179489
554.638	178264
554.701	174482
554.764	174886
554.827	169167
554.889	164483
554.952	153572
555.015	153032
555.078	153621
555.141	156622
555.203	152196
555.266	152606
555.329	152355
555.391	145163
555.454	144936
555.517	140487
555.580	134885
555.642	131047
555.705	129925
555.768	128704
555.830	124945
555.893	119299
555.955	117147
556.018	113009
556.080	115573
556.143	117716
556.206	115235
556.268	113746
556.330	111432
556.393	107886
556.455	107074
556.518	107971
556.580	103864
556.643	96930
556.705	95141
556.767	92154
556.830	92830
556.892	90361
556.955	91252
557.017	88808
557.079	86328
557.142	84046
557.204	83970
557.266	85559
557.328	82163
557.391	74975
557.453	72808
557.515	74076
557.577	74912
557.639	75338
557.701	75118
557.764	73804
557.826	75512
557.888	78396
557.950	81166
558.012	89085
558.074	113932
558.136	225343
558.198	488126
558.260	194087
558.322	84822
558.384	81399
558.446	85105
558.508	90613
558.570	99932
558.632	115358
558.694	149299
558.756	241788
558.818	579167
558.880	1113972
558.942	543143
559.003	520451
559.065	260446
559.127	107457
559.189	100274
559.251	113529
559.312	159790
559.374	337228
559.436	860158
559.498	482496
559.559	126109
559.621	102554
559.683	117921
559.744	189060
559.806	497510
559.868	698642
559.929	186453
559.991	118288
560.052	181652
560.114	467531
560.176	313417
560.237	279404
560.299	426239
560.360	109261
560.422	51838
560.483	44731
560.545	42909
560.606	41134
560.667	38983
560.729	37885
560.790	36955
560.852	36585
560.913	36683
560.974	33861
561.036	33249
561.097	34660
561.158	33648
561.220	34072
561.281	32701
561.342	31913
561.403	32842
561.465	32507
561.526	35161
561.587	37625
561.648	30302
561.709	30165
561.771	30100
561.832	29629
561.893	27978
561.954	29147
562.015	27944
562.076	28123
562.137	27969
562.198	28073
562.259	27352
562.320	28479
562.381	27544
562.442	28502
562.503	26907
562.564	26988
562.625	26001
562.686	26586
562.747	27314
562.808	26121
562.869	26848
562.930	29538
562.991	28255
563.051	27085
563.112	25473
563.173	25440
563.234	25231
563.294	25400
563.355	25377
563.416	25176
563.477	24842
563.537	25338
563.598	26117
563.659	25317
563.720	25021
563.780	25005
563.841	25118
563.901	25931
563.962	23989
564.023	24858
564.083	24808
564.144	24913
564.204	24510
564.265	23605
564.325	26358
564.386	34392
564.446	29775
564.507	23444
564.567	22646
564.628	22544
564.688	23923
564.749	22480
564.809	24696
564.869	25432
564.930	22149
564.990	22880
565.050	21639
565.111	22761
565.171	22231
565.231	22129
565.292	22586
565.352	21269
565.412	22525
565.472	21609
565.532	21732
565.593	21656
565.653	21707
565.713	22767
565.773	22414
565.833	23349
565.893	24182
565.953	21504
566.013	21903
566.074	22933
566.134	24594
566.194	29708
566.254	29723
566.314	23915
566.374	22057
566.434	23413
566.494	22559
566.554	22139
566.614	21707
566.673	22309
566.733	22876
566.793	22998
566.853	22009
566.913	22698
566.973	23340
567.033	23042
567.092	23114
567.152	23177
567.212	23357
567.272	23275
567.331	24248
567.391	23678
567.451	25488
567.511	27758
567.570	26256
567.630	23816
567.690	22329
567.749	20935
567.809	22266
567.868	22797
567.928	22668
567.988	24893
568.047	24409
568.107	23920
568.166	24136
568.226	25731
568.285	27944
568.345	27572
568.404	26050
568.464	23996
568.523	24153
568.582	24300
568.642	25267
568.701	24616
568.761	27943
568.820	31927
568.879	33078
568.939	33205
568.998	27923
569.057	24888
569.116	23806
569.176	23037
569.235	22461
569.294	21774
569.353	20650
569.413	21971
569.472	21461
569.531	21103
569.590	20210
569.649	19895
569.708	19525
569.767	20801
569.827	21965
569.886	19895
569.945	20861
570.004	21060
570.063	20767
570.122	21153
570.181	21394
570.240	23205
570.299	22892
570.358	21899
570.417	21239
570.475	21011
570.534	21425
570.593	21329
570.652	21265
570.711	20737
570.770	21163
570.829	22014
570.887	21587
570.946	21881
571.005	20954
571.064	20418
571.122	22216
571.181	21913
571.240	20336
571.299	20662
571.357	21210
571.416	21107
571.475	21696
571.533	23263
571.592	21787
571.650	22446
571.709	22662
571.768	24308
571.826	24394
571.885	23249
571.943	21536
572.002	20937
572.060	21028
572.119	19490
572.177	19904
572.236	19803
572.294	20366
572.352	21102
572.411	21323
572.469	20370
572.528	20458
572.586	20097
572.644	20183
572.703	19824
572.761	19690
572.819	19912
572.877	18662
572.936	18997
572.994	17567
573.052	19594
573.110	18510
573.169	19884
573.227	19590
573.285	18794
573.343	19395
573.401	19155
573.459	18737
573.517	19482
573.576	20854
573.634	19927
573.692	19650
573.750	19701
573.808	19986
573.866	19039
573.924	20783
573.982	19459
574.040	18669
574.098	18574
574.155	17510
574.213	19006
574.271	17473
574.329	18407
574.387	17825
574.445	16784
574.503	16554
574.560	15837
574.618	16707
574.676	17074
574.734	16869
574.792	17522
574.849	16883
574.907	16193
574.965	15058
575.022	14924
575.080	14893
575.138	15746
575.195	15440
575.253	15066
575.311	14552
575.368	15320
575.426	15595
575.483	16372
575.541	16357
575.598	15278
575.656	15845
575.713	16214
575.771	15653
575.828	16427
575.886	14681
575.943	16205
576.001	14558
576.058	14894
576.115	15119
576.173	17393
576.230	16900
576.287	16550
576.345	16650
576.402	16309
576.459	16810
576.517	15564
576.574	16138
576.631	16293
576.688	16267
576.746	14961
576.803	14713
576.860	14670
576.917	15407
576.974	15298
577.031	14925
577.089	14443
577.146	15179
577.203	14077
577.260	15877
577.317	15198
577.374	16554
577.431	15270
577.488	14062
577.545	14390
577.602	15637
577.659	14926
577.716	15174
577.773	17195
577.830	15089
577.886	15092
577.943	14157
578.000	14238
578.057	15392
578.114	15630
578.171	16814
578.227	18950
578.284	18559
578.341	16549
578.398	15665
578.454	14949
578.511	16870
578.568	16722
578.625	16029
578.681	15140
578.738	14180
578.794	14569
578.851	14895
578.908	15139
578.964	14946
579.021	14533
579.077	14277
579.134	14603
579.190	14140
579.247	13862
579.303	13556
579.360	13812
579.416	14558
579.473	14951
579.529	13793
579.586	15218
579.642	15641
579.698	15549
579.755	16597
579.811	16292
579.867	16368
579.924	15175
579.980	16214
580.036	19059
580.093	19427
580.149	24454
580.205	25979
580.261	21761
580.317	19690
580.374	18358
580.430	19257
580.486	18398
580.542	17683
580.598	17811
580.619	17691
580.654	17506
580.692	17160
580.710	17024
580.765	16806
580.767	16821
580.823	17964
580.838	18029
580.879	18283
580.911	17866
580.935	17590
580.984	17569
580.991	17599
581.047	18194
581.057	18220
581.103	18395
581.130	18460
581.159	18588
581.203	19484
581.215	19751
581.270	19538
581.276	19390
581.326	18166
581.349	18383
581.382	18748
581.422	18700
581.438	18713
581.494	18351
581.494	18333
581.550	18073
581.567	18004
581.606	17952
581.640	18423
581.661	18730
581.713	19664
581.717	19753
581.773	18491
581.786	18349
581.829	17980
581.859	18509
581.885	18997
581.932	19502
581.940	19606
581.996	18965
582.004	19017
582.052	19321
582.077	19356
582.107	19449
582.150	19101
582.163	19003
582.219	19576
582.223	19533
582.274	19225
582.296	19295
582.330	19469
582.368	20188
582.386	20517
582.441	20553
582.441	20562
582.497	20067
582.514	20371
582.552	21192
582.587	21228
582.608	21262
582.659	20883
582.663	20847
582.719	21886
582.732	21740
582.774	21467
582.805	21638
582.830	21768
582.877	23552
582.885	23876
582.941	24959
582.950	25369
582.996	27367
583.023	28546
583.052	29954
583.095	30199
583.107	30199
583.162	29790
583.168	29621
583.218	28026
583.240	26703
583.273	24783
583.313	24042
583.328	23805
583.384	22226
583.385	22201
583.439	21249
583.458	21069
583.494	20976
583.531	20718
583.549	20550
583.603	20460
583.605	20452
583.660	20326
583.676	20123
583.715	19677
583.748	19484
583.770	19371
583.820	19235
583.825	19184
583.881	20404
583.893	19967
583.936	18770
583.965	19220
583.991	19569
584.038	19009
584.046	18867
584.101	19406
584.110	19425
584.156	19658
584.183	19756
584.211	19812
584.255	20282
584.266	20420
584.321	20539
584.328	20584
584.376	20897
584.400	20848
584.431	20576
584.472	20038
584.486	19917
584.541	21608
584.545	21650
584.596	22027
584.617	21856
584.651	21604
584.689	21948
584.706	22060
584.761	22820
584.762	22835
584.816	23230
584.834	23406
584.871	23357
584.906	23522
584.926	23804
584.978	24562
584.980	24560
585.035	25415
585.051	25669
585.090	26818
585.123	28281
585.145	28942
585.195	29029
585.200	29107
585.254	31853
585.267	32824
585.309	35828
585.340	38524
585.364	40562
585.412	45072
585.419	45788
585.473	54623
585.484	57399
585.528	71154
585.556	87125
585.583	112208
585.628	175105
585.637	195641
585.692	388208
585.700	422670
585.747	570212
585.772	492535
585.801	326766
585.845	129111
585.856	98864
585.910	52956
585.917	49298
585.965	39316
585.989	35884
586.019	32561
586.061	30418
586.074	29970
586.128	28859
586.133	28759
586.183	27263
586.205	26865
586.237	26555
586.277	25628
586.292	25103
586.346	24618
586.349	24611
586.401	24250
586.421	24212
586.455	24178
586.493	24509
586.509	24957
586.564	26604
586.565	26768
586.618	33715
586.637	33627
586.672	31538
586.709	30126
586.727	29772
586.781	31784
586.781	31754
586.835	26285
586.853	24942
586.889	22712
586.925	21362
586.944	21111
586.996	21636
586.998	21621
587.052	21079
587.068	21163
587.106	21360
587.140	21202
587.161	21164
587.212	21377
587.215	21345
587.269	21384
587.284	21373
587.323	21568
587.356	21639
587.377	21766
587.427	22938
587.431	22948
587.485	22892
587.499	22897
587.539	23239
587.571	23637
587.593	23951
587.643	24928
587.648	24966
587.702	24911
587.715	25030
587.755	25513
587.786	25986
587.810	26171
587.858	26242
587.864	26240
587.917	27058
587.930	27283
587.971	27916
588.001	28451
588.025	29006
588.073	29664
588.079	29692
588.133	30238
588.145	30618
588.187	31968
588.217	32468
588.241	33351
588.288	35997
588.295	36370
588.348	39747
588.360	40617
588.402	43192
588.431	44829
588.456	47057
588.503	52465
588.510	53239
588.564	60200
588.575	61897
588.617	69245
588.646	75568
588.671	82719
588.718	99255
588.725	103409
588.778	142091
588.789	152092
588.832	232174
588.861	296180
588.886	390071
588.932	577968
588.939	592988
588.993	656690
589.004	661002
589.047	480693
589.075	344809
589.100	264039
589.147	141335
589.154	134868
589.207	101512
589.218	95837
589.261	90100
589.290	88365
589.314	91579
589.361	101702
589.368	106326
589.421	150780
589.433	162327
589.475	266854
589.504	350576
589.528	436744
589.576	589347
589.582	576000
589.635	395692
589.647	353039
589.689	201522
589.718	109944
589.742	90457
589.790	61107
589.795	59654
589.849	48906
589.861	46899
589.902	44067
589.932	41504
589.955	39285
590.004	34738
590.009	34406
590.062	31964
590.075	31478
590.115	30540
590.146	30018
590.168	29575
590.218	28487
590.222	28343
590.275	27306
590.289	26997
590.328	27291
590.360	27730
590.381	27668
590.431	27322
590.435	27289
590.488	27399
590.503	27570
590.541	27535
590.574	27399
590.594	27309
590.645	27175
590.647	27151
590.700	27548
590.716	27653
590.753	27638
590.787	27696
590.806	27889
590.859	28644
590.859	28603
590.912	28207
590.930	28011
590.965	28735
591.001	29824
591.018	29553
591.071	28215
591.072	28237
591.124	27212
591.143	26802
591.177	27256
591.214	28048
591.230	28061
591.283	28127
591.285	28166
591.336	28207
591.356	28333
591.389	28446
591.427	28603
591.442	28292
591.495	27310
591.498	27277
591.547	27382
591.569	27585
591.600	28134
591.640	28840
591.653	28828
591.706	28900
591.711	28960
591.759	29607
591.782	30015
591.811	30571
591.853	31467
591.864	31391
591.917	31137
591.924	31125
591.969	30593
591.995	30474
592.022	30258
592.066	29969
592.075	30212
592.127	32045
592.137	32446
592.180	33240
592.208	33780
592.233	33574
592.279	33336
592.285	33295
592.338	33402
592.350	33478
592.390	33282
592.421	33239
592.443	33153
592.491	33133
592.495	33113
592.548	33627
592.562	33822
592.600	34414
592.633	35038
592.653	34544
592.704	33208
592.705	33412
592.775	34284
592.846	35559
592.916	35182
592.987	35667
593.058	35960
593.128	36365
593.199	36443
593.270	36122
593.341	36720
593.411	37931
593.482	39291
593.553	41087
593.623	40262
593.694	42386
593.764	42420
593.835	42322
593.906	42002
593.976	43845
594.047	45081
594.117	48343
594.188	48220
594.258	47495
594.329	47365
594.399	49029
594.470	50034
594.540	52082
594.611	53080
594.681	52802
594.751	51985
594.822	53475
594.892	56144
594.963	57507
595.033	59838
595.103	61650
595.174	61584
595.244	65536
595.314	68498
595.384	65957
595.455	67629
595.525	70800
595.595	73128
595.665	73032
595.736	70468
595.806	72269
595.876	73173
595.946	72552
596.016	76796
596.087	79030
596.157	78850
596.227	79373
596.297	82744
596.367	88084
596.437	93849
596.507	95051
596.577	96636
596.647	96153
596.717	102242
596.787	102761
596.857	101099
596.927	103268
596.997	103108
597.067	105675
597.137	107514
597.207	108490
597.277	108785
597.347	106232
597.417	101360
597.487	101637
597.557	103496
597.626	106176
597.696	108461
597.766	108270
597.836	104965
597.906	98965
597.975	96959
598.045	97082
598.115	101255
598.185	108745
598.254	119212
598.324	129340
598.394	131907
598.464	128333
598.533	126332
598.603	120567
598.672	116557
598.742	118711
598.812	119521
598.881	123165
598.951	122669
599.020	124355
599.090	127401
599.159	134303
599.229	128179
599.299	124527
599.368	128402
599.437	129801
599.507	118640
599.576	117684
599.646	116167
599.715	115825
599.785	114705
599.854	112806
599.924	109817
599.993	111622
600.062	113179
600.132	115651
600.201	120611
600.270	138588
600.340	146145
600.409	143519
600.478	142983
600.547	147511
600.617	138811
600.686	116513
600.755	106005
600.824	103515
600.894	102622
600.963	103605
601.032	104336
601.101	102423
601.170	100095
601.239	97220
601.308	99416
601.378	101148
601.447	101099
601.516	102928
601.585	103408
601.654	104387
601.723	106468
601.792	111524
601.861	114373
601.930	120243
601.999	121474
602.068	120109
602.137	121281
602.206	122111
602.275	124823
602.343	126125
602.412	127400
602.481	128483
602.550	126140
602.619	130630
602.688	131861
602.756	132319
602.825	133944
602.894	138462
602.963	138398
603.032	140521
603.100	142115
603.169	139125
603.238	142761
603.307	140031
603.375	141109
603.444	146204
603.513	140983
603.581	142951
603.650	148919
603.719	136098
603.787	133871
603.856	139845
603.924	141166
603.993	144715
604.061	150230
604.130	158235
604.198	161153
604.267	162788
604.335	165641
604.404	166102
604.472	168924
604.541	170812
604.609	174044
604.678	177954
604.746	177585
604.815	184641
604.883	182779
604.951	182626
605.020	186763
605.088	181927
605.156	180602
605.225	183242
605.293	181961
605.361	182571
605.429	181761
605.498	188915
605.566	188496
605.634	200116
605.702	203025
605.771	209933
605.839	212707
605.907	205550
605.975	200727
606.043	197482
606.111	192781
606.180	200511
606.248	192424
606.316	189550
606.384	192040
606.452	184352
606.520	176593
606.588	183103
606.656	183385
606.724	182182
606.792	171513
606.860	155570
606.928	141540
606.996	135479
607.064	131648
607.132	136578
607.200	144423
607.267	149368
607.335	152048
607.403	155658
607.471	149141
607.539	146506
607.607	148318
607.674	132781
607.742	130415
607.810	128584
607.878	129592
607.946	131513
608.013	137636
608.081	140312
608.149	140682
608.216	145038
608.284	150651
608.352	150648
608.419	147069
608.487	147383
608.555	143863
608.622	147551
608.690	155295
608.757	169417
608.825	176383
608.893	170620
608.960	161170
609.028	154107
609.095	154775
609.163	152929
609.230	138298
609.298	126421
609.365	131582
609.432	141121
609.500	151827
609.567	175159
609.635	199792
609.702	212369
609.769	203402
609.837	162315
609.904	137304
609.971	140219
610.039	155454
610.106	191917
610.173	329129
610.241	710865
610.308	475869
610.375	196370
610.442	152274
610.509	144265
610.577	143816
610.644	144640
610.711	148216
610.778	153125
610.845	158844
610.912	168108
610.980	176101
611.047	179306
611.114	175862
611.181	168337
611.248	165936
611.315	176850
611.382	181544
611.449	186844
611.516	189928
611.583	185960
611.650	187531
611.717	191070
611.784	191937
611.851	200578
611.918	209036
611.984	236067
612.051	309469
612.118	538537
612.185	1153058
612.252	855350
612.319	300603
612.386	248467
612.452	225653
612.519	217111
612.586	211437
612.653	213951
612.719	220603
612.786	212535
612.853	198774
612.919	195343
612.986	197001
613.053	185951
613.120	175170
613.186	170691
613.253	171436
613.319	171278
613.386	172461
613.453	175045
613.519	175444
613.586	172552
613.652	177530
613.719	172882
613.785	175769
613.852	178744
613.918	175182
613.985	180443
614.051	188605
614.118	197943
614.184	189993
614.250	176891
614.317	181526
614.383	178317
614.449	181843
614.516	180972
614.582	181452
614.648	180425
614.715	176564
614.781	172739
614.847	173045
614.914	173254
614.980	167125
615.046	168474
615.112	173120
615.179	172995
615.245	175720
615.311	172881
615.377	178601
615.443	180389
615.509	179358
615.575	184076
615.642	182737
615.708	186689
615.774	193312
615.840	204937
615.906	215235
615.972	246107
616.038	340572
616.104	626703
616.170	1267691
616.236	1184092
616.302	406163
616.368	313251
616.434	236817
616.500	217876
616.565	235149
616.631	290789
616.697	244249
616.763	244408
616.829	340771
616.895	582268
616.961	578854
617.026	273378
617.092	195889
617.158	185906
617.224	184483
617.289	170505
617.355	164049
617.421	161566
617.487	160800
617.552	154105
617.618	154005
617.684	151707
617.749	156287
617.815	148751
617.880	146414
617.946	144998
618.012	148423
618.077	151269
618.143	145240
618.208	146702
618.274	155643
618.339	159052
618.405	133487
618.470	133552
618.536	132146
618.601	130481
618.667	125174
618.732	118145
618.798	117538
618.863	116092
618.928	114488
618.994	117705
619.059	116016
619.124	118312
619.190	115575
619.255	115527
619.320	115596
619.386	117182
619.451	115447
619.516	111214
619.581	113749
619.647	116918
619.712	118327
619.777	113543
619.842	112950
619.907	115670
619.972	117101
620.038	117431
620.103	113475
620.168	113444
620.233	114014
620.298	115173
620.363	116590
620.428	120468
620.493	123033
620.558	124863
620.623	125777
620.688	124526
620.753	123775
620.818	125946
620.883	126881
620.948	126415
621.013	125798
621.078	124134
621.143	124632
621.207	128035
621.272	124899
621.337	121844
621.402	122743
621.467	121188
621.532	120910
621.596	121214
621.661	118644
621.726	117595
621.791	117559
621.855	117705
621.920	116351
621.985	118862
622.049	122066
622.114	121206
622.179	121527
622.243	124836
622.308	126492
622.373	133123
622.437	129011
622.502	123380
622.566	121432
622.631	119762
622.695	124942
622.760	123665
622.824	122475
622.889	123984
622.953	123183
623.018	129994
623.082	130967
623.147	129046
623.211	127024
623.276	127400
623.340	121753
623.404	119260
623.469	119686
623.533	121142
623.597	116906
623.662	117639
623.726	111577
623.790	103235
623.854	101420
623.919	105127
623.983	104146
624.047	107360
624.111	107479
624.176	108800
624.240	107868
624.304	113559
624.368	107163
624.432	108382
624.496	109154
624.560	115778
624.625	116773
624.689	112970
624.753	117464
624.817	112899
624.881	111531
624.945	101964
625.009	97975
625.073	100628
625.137	101624
625.201	106800
625.265	106994
625.329	102047
625.393	104682
625.456	102477
625.520	106095
625.584	108097
625.648	110923
625.712	116445
625.776	124302
625.839	123323
625.903	94634
625.967	86404
626.031	94830
626.095	111307
626.158	100751
626.222	79871
626.286	75208
626.349	71785
626.413	67939
626.477	67566
626.540	68533
626.604	66806
626.668	66975
626.731	65184
626.795	65407
626.858	63728
626.922	63445
626.986	63456
627.049	62289
627.113	65871
627.176	63006
627.240	61633
627.303	59914
627.366	59501
627.430	61860
627.493	61002
627.557	58542
627.620	62832
627.684	61822
627.747	63991
627.810	57707
627.874	53557
627.937	51089
628.000	53820
628.064	51656
628.127	46842
628.190	47232
628.253	44896
628.317	43154
628.380	42308
628.443	40882
628.506	40645
628.569	38877
628.632	36475
628.696	36580
628.759	36318
628.822	34524
628.885	34843
628.948	33280
629.011	33385
629.074	32923
629.137	32328
629.200	31410
629.263	31924
629.326	29927
629.389	30694
629.452	29696
629.515	29476
629.578	28799
629.641	30311
629.704	28359
629.767	28775
629.830	27693
629.892	27302
629.955	26116
630.018	29538
630.081	28088
630.144	28244
630.207	26346
630.269	28124
630.332	26125
630.395	26956
630.458	24993
630.520	24429
630.583	24186
630.646	25602
630.708	24860
630.771	24785
630.834	27129
630.896	26430
630.959	26888
631.021	25526
631.084	26500
631.146	25527
631.209	25993
631.272	26746
631.334	25700
631.397	25780
631.459	25767
631.522	27003
631.584	27223
631.646	29805
631.709	30098
631.771	31007
631.834	29384
631.896	28325
631.958	25503
632.021	26260
632.083	23656
632.145	25570
632.208	23694
632.270	25463
632.332	23326
632.395	23516
632.457	24123
632.519	23968
632.581	23290
632.643	22223
632.706	23778
632.768	22458
632.830	24134
632.892	23762
632.954	23118
633.016	25157
633.078	23938
633.141	24065
633.203	23446
633.265	23350
633.327	23183
633.389	22857
633.451	25228
633.513	23746
633.575	24457
633.637	23576
633.698	24161
633.760	25459
633.822	25675
633.884	26309
633.946	26461
634.008	26897
634.070	28067
634.132	30233
634.193	32002
634.255	35071
634.317	35321
634.379	34816
634.441	30897
634.502	28582
634.564	26732
634.626	24241
634.687	23935
634.749	23526
634.811	22919
634.873	23040
634.934	22761
634.996	22737
635.057	22724
635.119	22437
635.181	23250
635.242	24451
635.304	21911
635.365	25429
635.427	21967
635.488	23359
635.550	21746
635.611	24015
635.673	21875
635.734	25891
635.796	25751
635.857	27934
635.918	29039
635.980	32851
636.041	34310
636.102	36603
636.164	36135
636.225	36204
636.286	29692
636.348	28221
636.409	25445
636.470	23563
636.531	23476
636.593	22978
636.654	22625
636.715	22194
636.776	21469
636.838	20683
636.899	20252
636.960	20139
637.021	19605
637.082	19422
637.143	19759
637.204	19560
637.265	18389
637.326	19927
637.387	19689
637.448	19833
637.509	19693
637.570	19747
637.631	19406
637.692	18775
637.753	16920
637.814	18546
637.875	18808
637.936	18966
637.997	17521
638.058	18823
638.119	18632
638.179	18807
638.240	17157
638.301	17893
638.362	16849
638.423	16713
638.483	18931
638.544	16994
638.605	17994
638.666	18047
638.726	17436
638.787	18649
638.848	17509
638.908	16785
638.969	15962
639.030	15623
639.090	15804
639.151	15845
639.211	17184
639.272	17655
639.332	17442
639.393	17408
639.453	17397
639.514	18819
639.574	17151
639.635	15666
639.695	16249
639.756	14153
639.816	16231
639.877	15800
639.937	17470
639.997	17363
640.058	14917
640.118	15082
640.178	16155
640.239	15810
640.299	15180
640.359	15459
640.420	16650
640.480	18598
640.540	20268
640.600	21484
640.661	18962
640.721	17081
640.781	21211
640.841	20070
640.901	16906
640.961	16250
641.021	16509
641.082	17799
641.142	16462
641.202	16468
641.262	13360
641.322	14923
641.382	13952
641.442	15801
641.502	14695
641.562	15336
641.622	14887
641.682	16573
641.742	18123
641.802	16887
641.861	14758
641.921	14445
641.981	14167
642.041	14740
642.101	14382
642.161	13573
642.221	13652
642.280	14184
642.340	13232
642.400	13076
642.460	14621
642.519	14416
642.579	14180
642.639	15532
642.698	11883
642.758	16762
642.818	14037
642.877	14203
642.937	14641
642.997	14715
643.056	14506
643.116	13489
643.175	15842
643.235	15037
643.294	15605
643.354	16539
643.414	17228
643.473	20981
643.532	23703
643.592	30189
643.651	45848
643.711	77557
643.770	146440
643.830	340381
643.889	725269
643.948	227258
644.008	44460
644.067	27805
644.126	21730
644.186	17885
644.245	16456
644.304	14843
644.363	16700
644.423	14349
644.482	14922
644.541	16460
644.600	14013
644.659	19628
644.719	23174
644.778	34843
644.837	56329
644.896	113976
644.955	276598
645.014	105851
645.073	24370
645.132	18764
645.191	16941
645.250	15971
645.309	18126
645.368	18591
645.427	22713
645.486	35738
645.545	67740
645.604	23406
645.663	14902
645.722	14690
645.781	15808
645.840	17559
645.898	19989
645.957	29339
646.016	41909
646.075	75037
646.134	143444
646.192	358421
646.251	579382
646.310	111357
646.369	31951
646.427	26131
646.486	19245
646.545	17076
646.603	15677
646.662	14171
646.721	13493
646.779	13919
646.838	12422
646.896	18168
646.955	23033
647.014	34511
647.072	64243
647.131	178984
647.189	101640
647.248	17110
647.306	12713
647.365	12555
647.423	9780
647.481	12925
647.540	9336
647.598	10886
647.657	9735
647.715	11176
647.773	9347
647.832	11450
647.890	7817
647.948	7691
648.007	9920
648.065	8889
648.123	9142
648.181	10038
648.240	10069
648.298	8216
648.356	8120
648.414	9972
648.472	8480
648.531	9156
648.589	7412
648.647	7850
648.705	8339
648.763	8447
648.821	8230
648.879	8809
648.937	9809
648.995	12089
649.053	14502
649.111	20870
649.169	34946
649.227	63575
649.285	128687
649.343	375813
649.401	208246
649.459	28961
649.516	17995
649.574	13901
649.632	17479
649.690	21284
649.748	18487
649.806	25287
649.863	47997
649.921	127031
649.979	96828
650.037	15100
650.094	7993
650.152	8695
650.210	7455
650.268	8296
650.325	7358
650.383	9726
650.440	5854
650.498	6636
650.556	5436
650.613	6324
650.671	5472
650.728	6441
650.786	6325
650.843	9528
650.901	5695
650.958	6176
651.016	4901
651.073	5275
651.131	4422
651.188	5323
651.246	5412
651.303	4124
651.360	5331
651.418	4828
651.475	5074
651.532	4384
651.590	5314
651.647	5018
651.704	4371
651.762	5151
651.819	4527
651.876	3551
651.933	3763
651.990	4286
652.048	3248
652.105	4075
652.162	4541
652.219	3590
652.276	4510
652.333	3961
652.390	3039
652.448	3945
652.505	3670
652.562	4515
652.619	4393
652.676	5607
652.733	5867
652.790	4086
652.847	2619
652.904	3767
652.961	2394
653.017	3760
653.074	4078
653.131	3725
653.188	2645
653.245	4100
653.302	3680
653.359	3983
653.415	3816
653.472	3479
653.529	3782
653.586	3601
653.642	3002
653.699	3984
653.756	3358
653.813	3209
653.869	4081
653.926	3130
653.983	3131
654.039	3712
654.096	2241
654.152	4269
654.209	2589
654.266	3618
654.322	2244
654.379	3304
654.435	3994
654.492	3049
654.548	3434
654.605	3773
654.661	4065
654.717	2788
654.774	3532
654.830	3459
654.887	3414
654.943	3411
655.000	4312
655.056	3588
655.112	3450
655.168	2611
655.225	2753
655.281	4196
655.337	2982
655.394	4297
655.450	3198
655.506	2852
655.562	3168
655.618	4618
655.675	1921
655.731	3454
655.787	2539
655.843	4526
655.899	2379
655.955	3437
656.011	3096
656.067	3116
656.123	3881
656.179	3588
656.235	4899
656.291	2307
656.347	4462
656.403	3530
656.459	3088
656.515	3629
656.571	3078
656.627	2477
656.683	3531
656.739	3989
656.795	3276
656.850	3711
656.906	3716
656.962	3233
657.018	3194
657.074	3972
657.129	5364
657.185	7999
657.241	18637
657.297	13090
657.352	4643
657.408	2179
657.464	4000
657.519	2143
657.575	2379
657.630	2668
657.686	2038
657.742	2326
657.797	2343
657.853	2094
657.908	3115
657.964	2102
658.019	2582
658.075	2467
658.130	3656
658.186	2308
658.241	3078
658.297	2125
658.352	3270
658.407	3214
658.463	2278
658.518	2771
658.573	2855
658.629	2609
658.684	2317
658.739	3527
658.795	2111
658.850	2679
658.905	1556
658.960	2660
659.016	2420
659.071	2393
659.126	2734
659.181	1822
659.236	3555
659.291	3697
659.346	2155
659.401	3089
659.457	3330
659.512	3710
659.567	3863
659.622	3385
659.677	2048
659.732	1702
659.787	2598
659.842	2340
659.897	2875
659.952	2941
660.007	2379
660.061	2361
660.116	1830
660.171	2074
660.226	2718
660.281	3272
660.336	1901
660.391	3519
660.445	1721
660.500	3180
660.555	2634
660.610	1893
660.664	2758
660.719	1546
660.774	1861
660.828	2670
660.883	2569
660.938	2880
660.992	1038
661.047	2257
661.101	1886
661.156	2006
661.211	1496
661.265	1817
661.320	2194
661.374	2846
661.429	1600
661.483	3217
661.538	1376
661.592	2176
661.647	2892
661.701	3850
661.755	3160
661.810	2425
661.864	1759
661.919	1867
661.973	2705
662.027	2677
662.081	1470
662.136	1936
662.190	2021
662.244	3121
662.299	1727
662.353	2431
662.407	1724
662.461	1820
662.515	2231
662.569	2413
662.624	2500
662.678	1712
662.732	2309
662.786	1735
662.840	2390
662.894	2287
662.948	2193
663.002	2342
663.056	2800
663.110	2204
663.164	1689
663.218	2563
663.272	1838
663.326	2416
663.380	1795
663.434	2294
663.488	1306
663.542	2571
663.595	2534
663.649	2094
663.703	2161
663.757	2798
663.811	1643
663.864	1850
663.918	1705
663.972	1624
664.026	2929
664.079	1285
664.133	2469
664.187	2063
664.240	1654
664.294	2356
664.348	3064
664.401	2298
664.455	2345
664.508	2352
664.562	2029
664.615	2439
664.669	1727
664.722	2975
664.776	1833
664.829	2189
664.883	2723
664.936	1915
664.990	2160
665.043	2134
665.097	1610
665.150	2978
665.203	1198
665.257	2079
665.310	2028
665.363	2971
665.417	2280
665.470	2504
665.523	2390
665.576	2417
665.630	2806
665.683	2335
665.736	2472
665.789	2695
665.842	2234
665.895	2275
665.949	2753
666.002	2733
666.055	2291
666.108	2849
666.161	2784
666.214	3090
666.267	2372
666.320	2755
666.373	2741
666.426	2462
666.479	2389
666.532	3112
666.585	3396
666.638	4017
666.691	2470
666.744	3116
666.796	2171
666.849	3408
666.902	2376
666.955	2848
667.008	2344
667.060	2520
667.113	2063
667.166	2922
667.219	3063
667.271	3109
667.324	2474
667.377	3198
667.430	2964
667.482	3004
667.535	2896
667.587	2917
667.640	2583
667.693	2016
667.745	2791
667.798	3435
667.850	1629
667.903	2607
667.955	2979
668.008	2173
668.060	2795
668.113	2892
668.165	2543
668.218	2391
668.270	2416
668.322	2551
668.375	1994
668.427	2905
668.479	2121
668.532	3024
668.584	3212
668.636	2725
668.689	3005
668.741	2826
668.793	2950
668.845	2513
668.898	2737
668.950	3169
669.002	3954
669.054	2375
669.106	2723
669.158	2897
669.211	2343
669.263	2328
669.315	2977
669.367	2687
669.419	2049
669.471	3523
669.523	2538
669.575	3312
669.627	3001
669.679	1945
669.731	2102
669.783	2777
669.835	3080
669.886	2543
669.938	2970
669.990	3491
670.042	1842
670.094	2660
670.146	2638
670.197	3121
670.249	3159
670.301	3978
670.353	5411
670.404	7284
670.456	8639
670.508	15055
670.560	23924
670.611	42523
670.663	74628
670.715	176270
670.766	309289
670.818	113828
670.869	20333
670.921	9911
670.972	7344
671.024	6260
671.075	4358
671.127	3982
671.178	3306
671.230	4997
671.281	4430
671.333	4780
671.384	3946
671.436	5857
671.487	7509
671.538	10660
671.590	16182
671.641	27551
671.692	48149
671.744	100369
671.795	74872
671.846	24481
671.897	11287
671.949	7615
672.000	5622
672.051	5269
672.102	4731
672.153	3486
672.204	3398
672.256	3335
672.307	3085
672.358	3326
672.409	2349
672.460	2965
672.511	1680
672.562	2908
672.613	1594
672.664	1747
672.715	2686
672.766	1907
672.817	2328
672.868	2312
672.919	2038
672.970	1583
673.021	1661
673.071	1564
673.122	2062
673.173	2213
673.224	1747
673.275	2531
673.326	1536
673.376	1783
673.427	1650
673.478	2277
673.528	2251
673.579	1993
673.630	2549
673.680	2198
673.731	1124
673.782	1554
673.832	1915
673.883	2054
673.934	1538
673.984	1701
674.035	1336
674.085	2916
674.136	1240
674.186	2007
674.237	2390
674.287	2181
674.338	2226
674.388	1726
674.438	1686
674.489	2063
674.539	2028
674.589	2966
674.640	2815
674.690	1718
674.740	2025
674.791	1922
674.841	1080
674.891	1904
674.942	2190
674.992	1395
675.042	1827
675.092	2103
675.142	713
675.193	877
675.243	1444
675.293	2292
675.343	877
675.393	1596
675.443	2120
675.493	1709
675.543	1232
675.593	1664
675.643	1891
675.693	1707
675.743	1567
675.793	1465
675.843	1268
675.893	2196
675.943	2177
675.993	2196
676.043	1163
676.093	1994
676.142	892
676.192	2144
676.242	1651
676.292	1689
676.341	884
676.391	1522
676.441	1249
676.491	1563
676.540	1173
676.590	903
676.640	377
676.689	1203
676.739	847
676.789	1222
676.838	336
676.888	1909
676.937	1100
676.987	1068
677.037	773
677.086	-99
677.136	1348
677.185	1014
677.235	1491
677.284	1264
677.333	1746
677.383	1382
677.432	883
677.482	1682
677.531	1111
677.580	1322
677.630	678
677.679	1039
677.728	1169
677.778	1955
677.827	1007
677.876	1556
677.925	524
677.975	1991
678.024	1239
678.073	2143
678.122	975
678.171	1352
678.220	1175
678.269	1974
678.319	1757
678.368	2779
678.417	1515
678.466	1488
678.515	1196
678.564	1055
678.613	1632
678.662	1510
678.711	1161
678.760	1437
678.809	1232
678.857	1168
678.906	1819
678.955	1690
679.004	1702
679.053	2231
679.102	1822
679.151	1064
679.199	767
679.248	1130
679.297	1987
679.346	1268
679.394	322
679.443	1579
679.492	802
679.540	1294
679.589	1632
679.638	1057
679.686	849
679.735	2293
679.784	1647
679.832	2150
679.881	1543
679.929	1370
679.978	891
680.026	1297
680.075	1195
680.123	1089
680.172	-167
680.220	843
680.268	293
680.317	1553
680.365	408
680.414	968
680.462	991
680.510	1949
680.559	789
680.607	1151
680.655	56
680.703	800
680.752	734
680.800	1246
680.848	7
680.896	1312
680.945	353
680.993	964
681.041	1252
681.089	867
681.137	1500
681.185	767
681.233	349
681.258	854
681.281	1312
681.329	567
681.377	-64
681.380	14
681.425	1061
681.473	1523
681.502	1607
681.521	1625
681.569	1423
681.617	1163
681.624	1227
681.665	1468
681.713	1550
681.745	1267
681.761	1097
681.809	913
681.857	1711
681.867	1595
681.904	1130
681.952	1109
681.989	1789
682.000	1960
682.048	1415
682.096	1454
682.111	1720
682.143	2227
682.191	1261
682.233	2218
682.239	2339
682.286	1555
682.334	1762
682.354	1461
682.382	1016
682.430	2559
682.476	1231
682.477	1186
682.525	1885
682.572	1378
682.598	1493
682.620	1551
682.667	1953
682.715	2328
682.720	2352
682.763	2399
682.810	2041
682.841	2246
682.857	2316
682.905	1757
682.952	1974
682.963	2175
683.000	2814
683.047	1743
683.085	2608
683.095	2824
683.142	2209
683.190	2438
683.206	2367
683.237	2229
683.284	2679
683.328	2788
683.332	2774
683.379	2595
683.426	1988
683.449	2420
683.473	2870
683.521	2204
683.568	2586
683.571	2574
683.615	2186
683.662	3233
683.693	2831
683.709	2565
683.757	2569
683.804	3075
683.814	3126
683.851	3279
683.898	2375
683.936	2858
683.945	2972
683.992	2566
684.039	2871
684.057	2874
684.086	2829
684.133	3116
684.179	3231
684.180	3222
684.227	3245
684.274	3448
684.300	3526
684.321	3555
684.368	2467
684.415	3600
684.422	3497
684.462	2830
684.509	2704
684.543	3167
684.556	3310
684.603	3305
684.649	3000
684.665	3130
684.696	3404
684.743	3622
684.786	3592
684.790	3577
684.837	3856
684.883	3930
684.908	3789
684.930	3637
684.977	4781
685.023	3936
685.029	3951
685.070	3984
685.117	3642
685.150	3998
685.164	4135
685.210	3886
685.257	4333
685.272	4480
685.303	4758
685.350	4753
685.393	4336
685.396	4288
685.443	3906
685.490	4227
685.514	4043
685.536	3879
685.583	4622
685.629	4307
685.636	4248
685.675	3989
685.722	4657
685.757	4331
685.768	4140
685.815	4684
685.861	4623
685.878	4575
685.908	4746
685.954	4280
686.000	5619
686.000	5632
686.047	4294
686.093	5181
686.121	5256
686.139	5337
686.185	5340
686.232	4911
686.242	5131
686.278	5557
686.324	5107
686.363	4561
686.370	4535
686.416	5034
686.463	5210
686.484	5463
686.509	5583
686.555	4854
686.601	5749
686.606	5733
686.647	5549
686.693	5057
686.727	5071
686.739	5106
686.785	4476
686.831	5329
686.848	5249
686.877	5144
686.923	5664
686.969	5285
686.969	5282
687.015	5367
687.061	5164
687.090	5672
687.107	5924
687.153	5372
687.199	5902
687.211	5783
687.245	5466
687.291	5544
687.332	5140
687.336	5122
687.382	6061
687.428	5832
687.453	6386
687.474	6669
687.520	5989
687.565	6143
687.574	5984
687.611	5688
687.657	6190
687.695	6461
687.702	6591
687.748	8350
687.794	9198
687.816	9399
687.839	8849
687.885	7206
687.931	6338
687.937	6274
687.976	6338
688.022	6232
688.058	6046
688.067	6084
688.113	5637
688.158	6029
688.179	6127
688.204	6176
688.249	6754
688.295	6665
688.300	6659
688.340	6690
688.386	6878
688.421	6520
688.431	6388
688.477	6555
688.522	6464
688.542	6371
688.567	6479
688.613	6821
688.658	7376
688.663	7369
688.703	7021
688.749	6918
688.784	6670
688.794	6662
688.839	7173
688.884	7089
688.905	7098
688.930	6970
688.975	6703
689.020	6957
689.026	6884
689.065	6755
689.110	7485
689.146	7366
689.155	7287
689.201	7432
689.246	7158
689.267	7168
689.291	7235
689.336	7245
689.381	7020
689.388	7020
689.426	6945
689.471	6599
689.509	6581
689.516	6630
689.561	6676
689.606	6633
689.630	6825
689.651	6952
689.696	6561
689.741	7261
689.750	7180
689.785	7149
689.830	7273
689.871	7342
689.875	7311
689.920	7365
689.965	7259
689.992	6775
690.010	6635
690.054	7191
690.099	7746
690.112	7592
690.144	7146
690.189	7554
690.233	7054
690.233	7062
690.278	7439
690.323	6998
690.354	7325
690.367	7455
690.412	7098
690.457	7491
690.474	7377
690.501	7429
690.546	7774
690.590	8081
690.595	8111
690.635	8168
690.680	8028
690.716	7848
690.724	7867
690.769	8183
690.813	8358
690.836	8508
690.857	9230
690.902	10490
690.946	12181
690.957	12640
690.991	16175
691.035	20639
691.077	25433
691.080	25433
691.124	22569
691.168	19907
691.198	18287
691.213	17159
691.257	14297
691.301	11420
691.318	10203
691.346	9732
691.390	9009
691.434	8642
691.439	8543
691.478	8349
691.522	8566
691.559	8218
691.567	8178
691.611	8320
691.655	8078
691.680	8134
691.699	8319
691.743	8380
691.787	9047
691.800	9024
691.831	8964
691.875	8790
691.919	8802
691.921	8792
691.964	8766
692.008	8713
692.041	8410
692.052	8396
692.096	8182
692.139	8695
692.162	8702
692.183	8622
692.227	8144
692.271	8299
692.282	8210
692.315	8322
692.359	8768
692.402	8759
692.403	8776
692.447	8597
692.490	8960
692.523	9035
692.534	9012
692.578	8822
692.622	8543
692.643	8380
692.666	8416
692.709	8425
692.753	8683
692.763	8620
692.797	8359
692.840	8613
692.884	8325
692.884	8343
692.928	8716
692.971	8838
693.004	8867
693.015	8829
693.059	8471
693.102	8360
693.124	8181
693.146	8395
693.189	8908
693.233	9243
693.245	9432
693.276	9544
693.320	9308
693.363	9312
693.365	9284
693.407	9694
693.450	10334
693.485	10448
693.493	10535
693.537	11334
693.580	11984
693.605	12407
693.624	13770
693.667	16920
693.710	20404
693.725	21548
693.753	27940
693.797	37977
693.840	48734
693.845	49762
693.883	45467
693.926	39467
693.966	34976
693.970	34254
694.013	26366
694.056	18457
694.086	12951
694.099	12778
694.142	11948
694.185	11289
694.206	11183
694.229	11227
694.272	10386
694.315	9950
694.326	9754
694.358	9531
694.401	9649
694.444	9701
694.446	9670
694.487	9520
694.530	9436
694.566	9199
694.573	9192
694.616	9026
694.659	9151
694.686	9090
694.702	8988
694.745	8825
694.787	8180
694.806	8144
694.830	8575
694.873	8866
694.916	9310
694.926	9384
694.959	9421
695.002	9481
695.044	9336
695.046	9320
695.087	9735
695.130	9711
695.166	10107
695.172	10158
695.215	9896
695.258	9850
695.286	9733
695.301	9906
695.343	10544
695.386	10931
695.406	11105
695.428	11070
695.471	11069
695.514	11100
695.526	11006
695.556	11496
695.599	12549
695.641	13190
695.646	13243
695.684	12605
695.726	11874
695.766	11153
695.769	11173
695.811	10996
695.854	11054
695.886	10851
695.896	10930
695.938	11209
695.981	11578
696.005	11689
696.023	11820
696.065	12230
696.108	12580
696.125	12692
696.150	12716
696.192	12733
696.235	12574
696.245	12561
696.277	12920
696.319	13334
696.361	13493
696.365	13491
696.404	13263
696.446	12930
696.485	12562
696.488	12630
696.530	13021
696.572	13479
696.604	13843
696.614	13814
696.656	13470
696.698	13196
696.724	12882
696.740	12862
696.783	12895
696.825	12884
696.844	12880
696.867	12894
696.909	12670
696.951	12566
696.964	12490
696.992	12613
697.034	12729
697.076	12930
697.083	12909
697.118	13166
697.160	13594
697.202	13957
697.203	13929
697.244	13544
697.286	13254
697.323	12881
697.327	12931
697.369	13140
697.411	13274
697.442	13349
697.453	13412
697.494	13583
697.536	13762
697.562	13820
697.578	13839
697.620	13762
697.661	13669
697.682	13632
697.703	14137
697.744	14940
697.786	15894
697.801	16167
697.828	15868
697.869	15304
697.911	14744
697.921	14594
697.952	14606
697.994	14443
698.035	14350
698.040	14297
698.077	14391
698.118	14512
698.160	14539
698.160	14500
698.201	15029
698.243	15598
698.279	16031
698.284	16081
698.325	16201
698.367	16252
698.399	16237
698.408	16307
698.449	16450
698.491	16593
698.518	16649
698.532	16671
698.573	16562
698.614	16511
698.638	16425
698.656	16614
698.697	16946
698.738	17283
698.757	17397
698.779	17123
698.820	16512
698.862	15891
698.877	15624
698.903	16048
698.944	16655
698.985	17256
698.996	17380
699.026	16981
699.067	16362
699.116	15585
699.235	17483
699.354	16246
699.474	15933
699.593	15111
699.713	16332
699.832	15959
699.951	16776
700.070	15899
700.190	15938
700.309	15058
700.428	14615
700.547	14116
700.667	14062
700.786	14569
700.905	13974
701.024	12860
701.143	13509
701.262	13971
701.381	14294
701.500	14546
701.619	14766
701.738	13846
701.857	14723
701.976	13466
702.095	12946
702.214	13716
702.333	13658
702.452	13984
702.571	13679
702.690	14375
702.809	14785
702.928	13318
703.047	13244
703.165	13176
703.284	13540
703.403	12894
703.522	13590
703.640	12354
703.759	12486
703.878	13649
703.997	12498
704.115	12739
704.234	12509
704.353	11962
704.471	11697
704.590	11248
704.708	12116
704.827	11325
704.946	11980
705.064	11008
705.183	11759
705.301	12065
705.420	13919
705.538	13379
705.656	12603
705.775	11921
705.893	15472
706.012	17896
706.130	11892
706.249	12458
706.367	11828
706.485	11983
706.604	11002
706.722	10601
706.840	12612
706.958	18806
707.077	14568
707.195	10909
707.313	11354
707.431	10664
707.549	11042
707.668	9964
707.786	11518
707.904	9561
708.022	10585
708.140	10522
708.258	9986
708.376	10880
708.494	10477
708.612	10757
708.730	12223
708.848	11374
708.966	11856
709.084	10347
709.202	11802
709.320	9899
709.438	11265
709.556	11132
709.674	10671
709.791	10849
709.909	10878
710.027	10364
710.145	10709
710.263	11254
710.380	9624
710.498	10629
710.616	10611
710.733	9854
710.851	9977
710.969	10113
711.086	9235
711.204	10693
711.322	11039
711.439	9449
711.557	10229
711.674	8946
711.792	9908
711.909	9185
712.027	10400
712.144	8912
712.262	10084
712.379	9488
712.497	12164
712.614	11061
712.732	10750
712.849	9910
712.966	10846
713.084	11798
713.201	10137
713.318	10356
713.436	11596
713.553	9912
713.670	11499
713.787	11764
713.905	11350
714.022	10752
714.139	10768
714.256	12939
714.373	17073
714.490	29214
714.608	68834
714.725	293000
714.842	331273
714.959	30348
715.076	14582
715.193	11167
715.310	11936
715.427	9660
715.544	10031
715.661	8626
715.778	9149
715.895	9694
716.011	9220
716.128	8569
716.245	10129
716.362	9128
716.479	8826
716.596	8415
716.713	9764
716.829	9147
716.946	8959
717.063	7392
717.180	8691
717.296	7557
717.413	8407
717.530	7080
717.646	7436
717.763	7498
717.880	8034
717.996	6966
718.113	7526
718.229	7362
718.346	7465
718.462	6839
718.579	8264
718.695	7524
718.812	8621
718.928	8576
719.045	7585
719.161	6722
719.277	7742
719.394	7469
719.510	8022
719.626	7400
719.743	11504
719.859	13412
719.975	25935
720.092	96841
720.208	238455
720.324	32483
720.440	10142
720.557	8256
720.673	8630
720.789	10194
720.905	16249
721.021	8887
721.137	6952
721.253	5607
721.369	7344
721.486	6808
721.602	8543
721.718	6451
721.834	6062
721.950	6090
722.066	5748
722.181	5548
722.297	5707
722.413	6028
722.529	6777
722.645	5931
722.761	5761
722.877	5922
722.993	6067
723.108	6573
723.224	6403
723.340	6020
723.456	5951
723.571	5287
723.687	5772
723.803	5308
723.918	6297
724.034	5404
724.150	4720
724.265	4841
724.381	8598
724.497	8689
724.612	5321
724.728	5278
724.843	6157
724.959	5572
725.074	7709
725.190	8024
725.305	5661
725.421	4861
725.536	6070
725.651	5636
725.767	5267
725.882	4921
725.997	5942
726.113	4790
726.228	4912
726.343	4569
726.459	5378
726.574	4656
726.689	5850
726.804	4852
726.920	5952
727.035	4801
727.150	5556
727.265	3920
727.380	4806
727.495	4317
727.610	4983
727.725	4295
727.841	4407
727.956	7476
728.071	6530
728.186	4123
728.301	4132
728.416	4627
728.531	5096
728.645	3909
728.760	4139
728.875	3813
728.990	4622
729.105	3940
729.220	4289
729.335	3996
729.449	4652
729.564	4611
729.679	4290
729.794	5198
729.908	4755
730.023	4481
730.138	4437
730.253	4529
730.367	3916
730.482	4135
730.596	5189
730.711	5026
730.826	7042
730.940	7473
731.055	5679
731.169	5071
731.284	5634
731.398	4371
731.513	5491
731.627	5567
731.742	7084
731.856	7892
731.970	7714
732.085	9050
732.199	12044
732.313	19612
732.428	49974
732.542	160583
732.656	104737
732.771	18562
732.885	11153
732.999	9258
733.113	11548
733.227	10204
733.342	9403
733.456	8354
733.570	8761
733.684	7711
733.798	8385
733.912	8914
734.026	8382
734.140	7891
734.254	7953
734.368	8739
734.482	10285
734.596	8100
734.710	7418
734.824	7162
734.938	7614
735.052	7379
735.166	7925
735.280	7732
735.393	8366
735.507	7261
735.621	7194
735.735	8973
735.849	8793
735.962	7350
736.076	6979
736.190	6144
736.303	7879
736.417	8237
736.531	6867
736.644	6744
736.758	6913
736.872	6893
736.985	6764
737.099	6033
737.212	6809
737.326	6659
737.439	6826
737.553	6129
737.666	7689
737.780	6254
737.893	6483
738.007	5222
738.120	7274
738.233	5903
738.347	6088
738.460	5238
738.573	7576
738.687	5389
738.800	6179
738.913	6160
739.026	6417
739.140	5813
739.253	5736
739.366	5744
739.479	5918
739.592	5062
739.705	5082
739.818	6045
739.932	5995
740.045	5850
740.158	5624
740.271	5480
740.384	6584
740.497	4907
740.610	6612
740.723	4590
740.836	6710
740.949	5482
741.062	5793
741.174	5775
741.287	5515
741.400	5532
741.513	5914
741.626	5356
741.739	5408
741.851	5229
741.964	5765
742.077	4878
742.189	5640
742.302	5803
742.415	5799
742.527	5574
742.640	5735
742.753	4559
742.865	4988
742.978	4925
743.090	4580
743.203	4278
743.316	4929
743.428	4126
743.541	5409
743.653	4011
743.766	4471
743.878	4767
743.990	4833
744.103	5879
744.215	6940
744.327	3979
744.440	5723
744.552	4082
744.664	4275
744.777	4306
744.889	4209
745.001	5028
745.113	4658
745.226	4350
745.338	4772
745.450	4634
745.562	4629
745.674	3688
745.786	4962
745.898	3586
746.010	5223
746.122	3904
746.234	3879
746.347	4402
746.459	4924
746.570	3654
746.682	6211
746.794	6778
746.906	4716
747.018	3730
747.130	4626
747.242	3717
747.354	4037
747.466	3835
747.577	4106
747.689	4389
747.801	4686
747.913	3160
748.024	3897
748.136	3500
748.248	3496
748.359	3267
748.471	3839
748.583	2874
748.694	3707
748.806	4779
748.918	3554
749.029	3781
749.141	4611
749.252	3838
749.364	4206
749.475	3971
749.587	4036
749.698	3687
749.809	4507
749.921	3409
750.032	2903
750.144	2562
750.255	2945
750.366	2732
750.478	3996
750.589	3556
750.700	2828
750.811	4184
750.923	3683
751.034	2654
751.145	4076
751.256	3568
751.367	2964
751.479	3884
751.590	3638
751.701	3242
751.812	2907
751.923	3218
752.034	4352
752.145	2997
752.256	3738
752.367	3685
752.478	4424
752.589	3213
752.700	3718
752.811	3191
752.922	3568
753.032	3355
753.143	4152
753.254	2614
753.365	3595
753.476	3036
753.586	4072
753.697	3145
753.808	3606
753.919	3000
754.029	2670
754.140	2796
754.251	3675
754.361	2896
754.472	3898
754.582	2816
754.693	2870
754.804	3173
754.914	3733
755.025	2671
755.135	3775
755.246	3289
755.356	3145
755.466	3619
755.577	4017
755.687	3666
755.798	3236
755.908	2424
756.018	3984
756.129	2838
756.239	3046
756.349	4556
756.460	3475
756.570	4058
756.680	3671
756.790	3274
756.900	3828
757.011	2427
757.121	3104
757.231	2311
757.341	2841
757.451	2563
757.561	3246
757.671	3000
757.781	3592
757.891	3826
758.001	3122
758.111	3351
758.221	3629
758.331	2855
758.441	4272
758.551	3684
758.661	3612
758.771	3986
758.880	4109
758.990	3504
759.100	3769
759.210	3737
759.320	5526
759.429	3976
759.539	4472
759.649	4463
759.758	5198
759.868	5045
759.978	4419
760.087	4517
760.197	5773
760.307	4924
760.416	5278
760.526	4297
760.635	4545
760.745	5809
760.854	5363
760.964	5835
761.073	5129
761.182	4396
761.292	4903
761.401	5604
761.511	4857
761.620	4622
761.729	4464
761.839	4639
761.948	4509
762.057	4721
762.166	4458
762.276	4489
762.385	4976
762.494	4597
762.603	5292
762.712	6017
762.822	5339
762.931	5310
763.040	4613
763.149	5381
763.258	6786
763.367	6310
763.476	6790
763.585	5669
763.694	7946
763.803	6815
763.912	8029
764.021	8089
764.130	7108
764.238	8706
764.347	9301
764.456	9227
764.565	10183
764.674	11058
764.783	12003
764.891	11857
765.000	14049
765.109	14941
765.217	17808
765.326	21008
765.435	25212
765.543	28946
765.652	36336
765.761	46647
765.869	63983
765.978	90087
766.086	138158
766.195	221225
766.303	357714
766.412	411213
766.520	343577
766.629	326863
766.737	207212
766.846	131079
766.954	88935
767.062	64527
767.171	48988
767.279	39314
767.387	31517
767.496	26216
767.604	22897
767.712	19451
767.820	17523
767.928	16290
768.037	14878
768.145	14347
768.253	14205
768.361	13225
768.469	13433
768.577	12416
768.685	15397
768.793	14467
768.901	15838
769.009	18253
769.117	21493
769.225	27828
769.333	39248
769.441	57829
769.549	95999
769.657	174957
769.765	326450
769.873	346882
769.981	285821
770.088	167176
770.196	92333
770.304	58589
770.412	42479
770.519	31808
770.627	25663
770.735	20753
770.842	19172
770.950	15043
771.058	14410
771.165	13144
771.273	12772
771.380	10934
771.488	11998
771.595	11362
771.703	10509
771.810	9590
771.918	10027
772.025	10181
772.133	10931
772.240	10209
772.348	10592
772.455	9862
772.562	9317
772.670	7832
772.777	9551
772.884	8515
772.991	8158
773.099	8312
773.206	7272
773.313	8154
773.420	7795
773.528	7304
773.635	7303
773.742	8570
773.849	7358
773.956	6716
774.063	6567
774.170	6516
774.277	7107
774.384	5860
774.491	6761
774.598	7150
774.705	6799
774.812	5911
774.919	6444
775.026	6068
775.133	5995
775.239	6286
775.346	7002
775.453	5401
775.560	5163
775.667	5360
775.773	6393
775.880	5792
775.987	6139
776.093	5959
776.200	6156
776.307	3753
776.413	5581
776.520	5550
776.627	6407
776.733	4849
776.840	4429
776.946	7779
777.053	7229
777.159	9314
777.266	6576
777.372	9877
777.478	7932
777.585	6304
777.691	4302
777.798	4572
777.904	5065
778.010	4530
778.117	5482
778.223	4569
778.329	4837
778.435	3764
778.542	5244
778.648	4418
778.754	3718
778.860	4018
778.966	4940
779.072	3746
779.178	3573
779.284	3142
779.391	4218
779.497	3975
779.603	6275
779.708	5524
779.815	10410
779.920	32268
780.026	69703
780.132	12788
780.238	5257
780.344	3328
780.450	5462
780.556	3708
780.661	3313
780.767	4756
780.873	3467
780.979	3361
781.085	4228
781.190	3730
781.296	3248
781.402	3168
781.507	3589
781.613	3436
781.719	3824
781.824	4256
781.930	3637
782.035	2534
782.141	4657
782.246	2691
782.352	3453
782.457	3386
782.563	3609
782.668	3257
782.773	2668
782.879	2697
782.984	3785
783.090	2384
783.195	3299
783.300	3306
783.405	3882
783.511	2401
783.616	3759
783.721	2322
783.826	3159
783.932	1998
784.037	2888
784.142	3179
784.247	2703
784.352	2322
784.457	1713
784.562	2448
784.667	3463
784.772	2619
784.877	2100
784.982	3286
785.087	3010
785.192	2434
785.297	3662
785.402	2070
785.507	2726
785.611	2319
785.716	2256
785.821	1860
785.926	1737
786.031	1498
786.135	3052
786.240	2707
786.345	1154
786.450	3078
786.554	1879
786.659	1828
786.763	1898
786.868	1763
786.973	3435
787.077	1996
787.182	1740
787.286	1971
787.391	3013
787.495	1670
787.600	2328
787.704	1816
787.809	3230
787.913	1713
788.017	2328
788.122	1916
788.226	2584
788.330	1306
788.435	1900
788.539	2810
788.643	2248
788.747	646
788.852	1584
788.956	1822
789.060	3090
789.164	2336
789.268	1895
789.372	1884
789.476	2623
789.580	1612
789.684	1377
789.788	1906
789.892	1825
789.996	2019
790.100	1038
790.204	2205
790.308	3212
790.412	750
790.516	2065
790.620	1182
790.724	2546
790.828	2902
790.931	1288
791.035	2578
791.139	1244
791.242	804
791.346	2300
791.450	1074
791.554	1763
791.657	520
791.761	2755
791.864	2269
791.968	2067
792.072	1815
792.175	2479
792.279	776
792.382	1728
792.486	1544
792.589	1041
792.693	1950
792.796	1490
792.899	2364
793.003	1424
793.106	157
793.209	1826
793.313	2028
793.416	-176
793.519	2040
793.623	1974
793.726	1588
793.829	1429
793.932	1236
794.035	949
794.138	2494
794.242	2917
794.345	1708
794.448	2688
794.551	4535
794.654	18335
794.757	40369
794.860	8595
794.963	2092
795.066	1004
795.169	1807
795.272	1596
795.375	2033
795.477	986
795.580	942
795.683	951
795.786	2436
795.889	502
795.991	1550
796.094	2205
796.197	560
796.300	1985
796.402	2055
796.505	1247
796.608	399
796.710	1584
796.813	2122
796.915	957
797.018	1423
797.120	1176
797.223	-495
797.326	2415
797.428	232
797.530	370
797.633	917
797.735	2491
797.838	1672
797.940	2510
798.042	652
798.145	690
798.247	711
798.349	-803
798.452	1038
798.554	1047
798.656	928
798.758	2655
798.860	1348
798.962	861
799.065	121
799.167	676
799.269	2513
799.371	1508
799.473	926
799.575	840
799.677	1120
799.779	1839
799.881	-446
799.983	1645
800.085	294
800.187	859
800.289	97
800.390	1020
800.492	1115
800.594	1505
800.696	604
800.798	1054
800.899	-33
801.001	1379
801.103	1037
801.205	1011
801.306	1082
801.408	-86
801.509	932
801.611	699
801.713	1294
801.814	707
801.916	378
802.017	409
802.119	230
802.220	1229
802.322	-1487
802.423	2273
802.525	-144
802.626	1104
802.727	1496
802.829	1406
802.930	-1464
803.031	2245
803.133	330
803.234	933
803.335	1179
803.436	346
803.538	399
803.639	-77
803.740	363
803.841	657
803.942	672
804.043	1485
804.144	-19
804.245	1175
804.346	-201
804.447	-309
804.548	-40
804.649	1709
804.750	347
804.851	-7
804.952	877
805.053	1038
805.154	66
805.255	1085
805.355	730
805.456	859
805.557	434
805.658	36
805.758	614
805.859	30
805.960	775
806.061	-164
806.161	87
806.262	828
806.362	272
806.463	333
806.564	676
806.664	842
806.765	-263
806.865	364
806.966	442
807.066	577
807.166	872
807.267	481
807.367	-497
807.468	1290
807.568	-1582
807.668	913
807.769	877
807.869	468
807.969	-193
808.069	410
808.170	393
808.270	-364
808.370	141
808.470	629
808.570	-718
808.670	546
808.770	138
808.870	-292
808.970	-302
809.070	-198
809.170	-456
809.271	888
809.370	-562
809.470	311
809.570	-430
809.670	-606
809.770	-401
809.870	1266
809.970	281
810.070	486
810.169	440
810.269	-839
810.369	569
810.469	823
810.568	105
810.668	368
810.768	-656
810.867	471
810.967	441
811.066	-102
811.166	-320
811.265	674
811.365	-414
811.464	-186
811.564	184
811.663	417
811.763	-846
811.862	1292
811.962	818
812.061	286
812.160	-131
812.260	345
812.359	658
812.458	-110
812.557	1121
812.657	1393
812.756	298
812.855	31
812.954	-49
813.053	1232
813.153	-269
813.252	-416
813.351	245
813.450	761
813.549	-94
813.648	1196
813.747	-632
813.846	309
813.945	114
814.044	864
814.143	573
814.242	838
814.341	-73
814.439	1591
814.538	482
814.637	473
814.736	350
814.835	961
814.933	-488
815.032	1602
815.131	1420
815.229	3074
815.328	4656
815.427	3699
815.525	3077
815.624	2888
815.722	2020
815.821	2557
815.919	2997
816.018	2655
816.116	2272
816.215	2232
816.313	2454
816.412	3368
816.510	3019
816.609	5400
816.707	3912
816.805	3886
816.904	3475
817.002	3877
817.100	4267
817.198	4178
817.296	3235
817.395	3190
817.493	4336
817.591	3275
817.689	2989
817.787	3162
817.885	3845
817.983	5604
818.081	6845
818.179	13815
818.277	33775
818.375	30625
818.473	8397
818.571	4118
818.669	4347
818.767	5034
818.865	3266
818.963	3941
819.061	4467
819.158	6523
819.256	11937
819.354	25887
819.452	62506
819.549	40115
819.647	9798
819.745	4580
819.842	3967
819.940	3394
820.038	2406
820.135	2993
820.233	3751
820.330	2792
820.428	1657
820.525	4040
820.623	2146
820.720	3121
820.818	2434
820.915	2473
821.012	2808
821.110	2390
821.207	3327
821.304	1353
821.402	2160
821.499	4298
821.596	3661
821.693	2808
821.791	2975
821.888	2824
821.985	2444
822.082	1804
822.179	3174
822.276	3808
822.373	1849
822.470	1866
822.567	2244
822.664	1883
822.761	1960
822.858	2276
822.955	2836
823.052	2163
823.149	1333
823.246	2508
823.343	1218
823.440	2327
823.536	1674
823.633	2369
823.730	1664
823.827	2626
823.923	1303
824.020	3311
824.117	1670
824.213	2973
824.310	2194
824.407	1042
824.503	2353
824.600	2170
824.696	1620
824.793	2952
824.889	1020
824.986	1818
825.082	1149
825.179	2119
825.275	2281
825.371	2334
825.468	1979
825.564	96
825.660	1660
825.757	2469
825.853	1983
825.949	1078
826.045	2408
826.142	1149
826.238	1056
826.334	2268
826.430	1275
826.526	1428
826.622	662
826.718	1652
826.814	2260
826.910	2675
827.006	-62
827.102	778
827.198	1481
827.294	2155
827.390	2133
827.486	1915
827.582	94
827.678	961
827.774	2086
827.869	806
827.965	1729
828.061	952
828.157	2053
828.252	1912
828.348	950
828.444	2120
828.539	368
828.635	1076
828.731	1288
828.826	707
828.922	1272
829.017	921
829.113	1874
829.208	752
829.304	522
829.399	2821
829.495	1055
829.590	1960
829.685	1251
829.781	1206
829.876	1549
829.971	908
830.066	380
830.162	928
830.257	1611
830.352	1157
830.447	1698
830.543	603
830.638	420
830.733	2318
830.828	342
830.923	1637
831.018	902
831.113	2161
831.208	195
831.303	610
831.398	627
831.493	1217
831.588	1247
831.683	1950
831.778	232
831.873	1381
831.967	1375
832.062	515
832.157	306
832.252	1859
832.346	799
832.441	1295
832.536	640
832.631	1710
832.725	913
832.820	486
832.914	431
833.009	-753
833.104	972
833.198	595
833.293	336
833.387	1294
833.482	1008
833.576	320
833.670	925
833.765	1243
833.859	135
833.954	1190
834.048	545
834.142	809
834.237	-81
834.331	1666
834.425	984
834.519	-53
834.613	421
834.708	547
834.802	418
834.896	146
834.990	597
835.084	704
835.178	426
835.272	958
835.366	901
835.460	1332
835.554	251
835.648	370
835.742	-569
835.836	225
835.930	-87
836.024	483
836.117	988
836.211	636
836.305	479
836.399	1821
836.493	221
836.586	1166
836.680	195
836.774	191
836.867	1909
836.961	279
837.055	-62
837.148	640
837.242	302
837.335	439
837.429	337
837.522	44
837.616	-41
837.709	1677
837.803	311
837.896	1648
837.989	965
838.083	1166
838.176	-721
838.269	319
838.363	1460
838.456	157
838.549	913
838.642	517
838.735	672
838.829	1550
838.922	79
839.015	468
839.108	-1207
839.201	771
839.294	849
839.387	407
839.480	-481
839.573	1244
839.666	334
839.759	944
839.852	-43
839.945	763
840.038	-702
840.131	539
840.223	-59
840.316	1154
840.409	8
840.502	-28
840.594	1028
840.687	-783
840.780	269
840.873	-853
840.965	372
841.058	66
841.150	1805
841.243	604
841.336	-205
841.428	362
841.521	-650
841.613	-191
841.706	-141
841.798	-43
841.890	249
841.983	-441
842.075	92
842.167	618
842.260	-130
842.352	1238
842.444	281
842.537	1181
842.629	960
842.721	81
842.813	131
842.905	-241
842.997	-87
843.090	43
843.182	310
843.274	718
843.366	2805
843.458	4439
843.550	3188
843.642	384
843.734	-293
843.826	281
843.918	-176
844.009	700
844.101	-49
844.193	-207
844.285	9
844.377	456
844.469	481
844.560	67
844.652	48
844.744	1074
844.835	518
844.927	837
845.019	116
845.110	100
845.202	43
845.293	-119
845.385	-718
845.476	-253
845.568	366
845.659	87
845.751	-424
845.842	783
845.934	2
846.025	-507
846.116	460
846.208	615
846.299	251
846.390	13
846.482	74
846.573	490
846.664	-894
846.755	-447
846.846	639
846.937	-521
847.029	-666
847.120	622
847.211	-414
847.302	1209
847.393	-1224
847.484	574
847.575	-693
847.666	205
847.757	69
847.847	173
847.938	191
848.029	657
848.120	-179
848.211	-459
848.302	-56
848.392	285
848.483	-55
848.574	-731
848.664	-123
848.755	715
848.846	11
848.936	23
849.027	-787
849.118	433
849.208	-161
849.299	1257
849.389	1726
849.480	4398
849.570	7430
849.661	15127
849.751	27917
849.841	10806
849.932	1138
850.022	790
850.112	28
850.203	456
850.293	-445
850.383	-202
850.474	-1044
850.564	-219
850.654	-266
850.744	732
850.834	-110
850.924	-82
851.014	594
851.104	1126
851.194	-340
851.284	-492
851.374	-587
851.464	-487
851.554	-9
851.644	577
851.734	779
851.824	414
851.914	295
852.004	1731
852.094	1750
852.183	-10
852.273	139
852.363	-676
852.452	-256
852.542	32
852.632	-426
852.721	636
852.811	-875
852.901	342
852.990	12
853.080	528
853.169	-746
853.259	718
853.348	-365
853.438	1027
853.527	1127
853.617	2212
853.706	4358
853.795	8227
853.885	20622
853.974	40210
854.063	69616
854.152	111635
854.242	45866
854.331	9296
854.420	3158
854.509	2273
854.598	1742
854.687	668
854.777	403
854.866	734
854.955	332
855.044	-265
855.133	564
855.222	114
855.311	-365
855.400	275
855.488	-401
855.577	-187
855.666	-769
855.755	836
855.844	386
855.933	258
856.021	449
856.110	5
856.199	-854
856.288	80
856.376	-445
856.465	-407
856.554	-292
856.642	-158
856.731	172
856.819	-22
856.908	-50
856.996	-116
857.085	-88
857.173	-232
857.262	-554
857.350	-83
857.438	-735
857.527	298
857.615	-134
857.703	1265
857.792	-1059
857.880	-585
857.968	-527
858.056	73
858.145	-818
858.233	371
858.321	-612
858.409	453
858.497	-1114
858.585	-587
858.673	-345
858.761	-484
858.849	-668
858.937	-286
859.025	-72
859.113	510
859.201	-690
859.289	431
859.377	257
859.465	-388
859.552	-593
859.640	-62
859.728	-429
859.816	-93
859.903	-648
859.991	-596
860.079	-969
860.166	-444
860.254	-599
860.342	609
860.429	-663
860.517	-799
860.604	-352
860.692	-292
860.779	-1311
860.867	181
860.954	-532
861.042	540
861.129	704
861.216	885
861.304	-295
861.391	444
861.478	-684
861.565	227
861.653	335
861.740	-1270
861.827	-832
861.914	-173
862.001	-366
862.089	386
862.176	-419
862.263	-690
862.350	-353
862.437	148
862.524	-981
862.611	-143
862.698	-376
862.785	707
862.871	240
862.958	589
863.045	-497
863.132	457
863.219	-119
863.306	-294
863.392	135
863.479	-96
863.566	-1033
863.652	-122
863.739	-1097
863.826	1174
863.912	-106
863.999	-66
864.086	-444
864.172	528
864.259	251
864.345	435
864.432	31
864.518	322
864.604	-40
864.691	588
864.777	563
864.863	1799
864.950	2182
865.036	2231
865.122	4984
865.209	5907
865.295	4824
865.381	5143
865.467	3611
865.553	4631
865.639	5571
865.726	8739
865.812	13382
865.898	24271
865.984	33970
866.070	60690
866.156	69365
866.242	22419
866.328	7297
866.414	5271
866.499	3933
866.585	4233
866.671	2763
866.757	5163
866.843	3850
866.928	4036
867.014	2787
867.100	3907
867.186	3019
867.271	4033
867.357	3826
867.442	3963
867.528	3188
867.614	3296
867.699	3463
867.785	4298
867.870	3467
867.956	4294
868.041	3388
868.127	4063
868.212	3965
868.297	3866
868.383	3422
868.468	3718
868.553	3336
868.639	4446
868.724	3329
868.809	3467
868.894	3118
868.979	2809
869.065	3093
869.150	2904
869.235	3039
869.320	2716
869.405	1855
869.490	3134
869.575	3262
869.660	2648
869.745	3363
869.830	3635
869.915	2380
870.000	2972
870.085	2011
870.169	3808
870.254	3583
870.339	1253
870.424	1174
870.509	3432
870.593	3207
870.678	3283
870.763	2134
870.847	2276
870.932	3216
871.016	2822
871.101	1530
871.186	2393
871.270	3311
871.355	1959
871.439	2088
871.523	2601
871.608	2077
871.692	1943
871.777	3488
871.861	3387
871.945	2024
872.030	2582
872.114	2329
872.198	2726
872.282	2296
872.367	2489
872.451	854
872.535	2317
872.619	2008
872.703	2471
872.787	2597
872.871	2096
872.955	1728
873.039	1089
873.123	2345
873.207	2473
873.291	967
873.375	1562
873.459	1770
873.543	1633
873.627	2115
873.711	1906
873.794	1403
873.878	2116
873.962	332
874.045	790
874.129	1458
874.137	1488
874.213	1785
874.245	1556
874.296	1189
874.352	1053
874.380	981
874.460	1820
874.464	1853
874.547	1855
874.568	1814
874.631	1683
874.676	1858
874.714	1997
874.784	1669
874.798	1605
874.881	2260
874.892	2132
874.965	1258
874.999	1634
875.048	2146
875.107	1663
875.131	1454
875.215	1420
875.215	1420
875.298	368
875.323	734
875.381	1683
875.430	2272
875.465	2591
875.538	1465
875.548	1321
875.631	1343
875.646	1324
875.714	1263
875.753	954
875.798	668
875.861	1824
875.881	2127
875.964	1178
875.968	1219
876.047	2141
876.076	2177
876.130	2264
876.183	2766
876.213	2989
876.291	2521
876.296	2493
876.379	1825
876.398	1764
876.462	1453
876.506	1330
876.545	1321
876.613	1347
876.628	1361
876.711	2594
876.721	2584
876.794	2515
876.828	2522
876.877	2326
876.935	1569
876.960	1350
877.043	1793
877.043	1790
877.125	1551
877.150	2198
877.208	3385
877.258	2364
877.291	1751
877.365	1806
877.374	1825
877.456	1694
877.472	1746
877.539	1881
877.579	2147
877.622	2527
877.687	3150
877.704	3287
877.787	2185
877.794	2223
877.869	2717
877.901	2693
877.952	2395
878.008	2344
878.034	2409
878.115	1678
878.117	1673
878.199	1666
878.222	1799
878.282	2187
878.329	2950
878.364	3360
878.437	2848
878.447	2721
878.529	1641
878.544	1581
878.611	1737
878.651	1809
878.694	2156
878.758	2948
878.776	3073
878.858	2482
878.865	2517
878.941	2646
878.972	2227
879.023	1747
879.078	1931
879.105	2189
879.185	3018
879.187	3032
879.269	2647
879.292	2812
879.351	3131
879.399	2737
879.433	2389
879.506	2748
879.516	2844
879.598	2285
879.613	2355
879.680	2409
879.720	2384
879.762	2727
879.827	2959
879.844	2865
879.926	2544
879.933	2540
880.007	2938
880.040	2666
880.089	2019
880.147	2094
880.171	2341
880.253	3284
880.254	3278
880.335	2827
880.360	2865
880.417	3502
880.467	3926
880.499	4013
880.574	4227
880.580	4208
880.662	3840
880.680	3604
880.744	2813
880.787	2627
880.825	2673
880.893	2376
880.907	2329
880.989	2476
881.000	2499
881.070	3029
881.106	3365
881.152	3380
881.213	2442
881.233	2183
881.315	2979
881.319	2960
881.396	3241
881.426	3193
881.478	2891
881.532	3155
881.559	3359
881.639	3201
881.641	3193
881.722	2680
881.745	2694
881.803	3401
881.852	3425
881.885	3177
881.958	3129
881.966	3129
882.047	3358
882.064	3268
882.129	3074
882.171	2964
882.210	2698
882.277	2292
882.291	2376
882.372	2837
882.383	2999
882.454	4280
882.489	4368
882.535	3919
882.596	3859
882.616	4030
882.697	4302
882.702	4282
882.778	2792
882.808	2429
882.859	2553
882.914	2615
882.940	2660
883.020	3052
883.021	3067
883.102	3298
883.127	3537
883.183	4204
883.233	4399
883.264	4076
883.339	3341
883.345	3259
883.426	2259
883.445	2041
883.507	2599
883.551	2872
883.587	3129
883.657	3811
883.668	3906
883.749	4399
883.763	4435
883.830	3602
883.869	3013
883.910	2735
883.975	2563
883.991	2636
884.072	3172
884.081	3179
884.152	4092
884.187	4578
884.233	5072
884.292	5602
884.314	5050
884.394	2399
884.398	2278
884.475	1714
884.504	1620
884.555	2295
884.610	2851
884.636	2962
884.716	3316
884.716	3334
884.797	4370
884.821	4775
884.877	4703
884.927	4404
884.958	4168
885.033	3507
885.038	3474
885.118	2533
885.139	2492
885.199	3040
885.244	2984
885.279	3278
885.350	4270
885.359	4422
885.439	5798
885.456	5937
885.520	4938
885.561	4284
885.600	3835
885.667	3422
885.680	3521
885.760	3665
885.773	3718
885.840	3489
885.878	3215
885.920	3330
885.984	3750
886.000	3950
886.080	4420
886.089	4494
886.160	4446
886.195	4241
886.240	4261
886.300	4440
886.320	4455
886.400	4436
886.406	4419
886.480	4021
886.511	3797
886.560	3673
886.616	3620
886.640	3661
886.720	3396
886.722	3390
886.800	3901
886.827	3910
886.879	4100
886.932	4236
886.959	4485
887.038	5416
887.039	5428
887.119	4819
887.143	4657
887.198	4561
887.248	4515
887.278	4627
887.354	4539
887.358	4539
887.437	4436
887.459	4373
887.517	4670
887.564	4920
887.596	4798
887.669	4372
887.676	4312
887.755	3529
887.774	3278
887.835	3374
887.880	3641
887.914	4223
887.985	5030
887.994	5111
888.073	5921
888.090	6034
888.153	6670
888.195	7077
888.232	6047
888.300	4150
888.311	4196
888.391	4347
888.405	4367
888.470	3709
888.510	3303
888.549	3403
888.615	3506
888.628	3683
888.708	4729
888.720	4865
888.787	5147
888.825	5301
888.866	4673
888.930	3656
888.945	3806
889.024	4558
889.035	4638
889.103	5073
889.140	5313
889.182	5089
889.245	4661
889.261	4689
889.340	4782
889.349	4777
889.419	4716
889.454	4675
889.498	4517
889.559	4242
889.577	4352
889.656	4802
889.664	4834
889.735	5410
889.768	5662
889.814	5612
889.873	5505
889.978	4774
890.083	4624
890.187	5643
890.292	6384
890.397	5167
890.501	5505
890.606	4298
890.710	4061
890.815	6174
890.919	4910
891.024	4948
891.128	4456
891.233	3596
891.337	5549
891.442	6471
891.546	4869
891.650	4648
891.755	4479
891.859	5705
891.963	5724
892.068	5076
892.172	4689
892.276	3718
892.380	4212
892.484	5195
892.589	6280
892.693	5238
892.797	3720
892.901	3267
893.005	3804
893.109	6212
893.213	6890
893.317	4518
893.421	3856
893.525	3341
893.629	3745
893.733	4628
893.837	5267
893.941	4122
894.045	4438
894.148	4289
894.252	6142
894.356	5636
894.460	6484
894.564	4089
894.667	4640
894.771	2635
894.875	3160
894.978	4597
895.082	4693
895.186	5122
895.289	5192
895.393	3611
895.496	5301
895.600	3137
895.703	3834
895.807	3818
895.910	4749
896.014	4355
896.117	3504
896.221	4674
896.324	5030
896.427	3805
896.531	2814
896.634	4349
896.737	4461
896.840	4062
896.944	5230
897.047	5282
897.150	4269
897.253	2742
897.356	2480
897.460	2593
897.563	3807
897.666	4883
897.769	5335
897.872	3450
897.975	4063
898.078	4118
898.181	3492
898.284	3520
898.387	5064
898.490	4836
898.593	2739
898.695	2790
898.798	4322
898.901	3318
899.004	4126
899.107	4225
899.209	2913
899.312	4524
899.415	4687
899.518	2993
899.620	2076
899.723	3023
899.826	3543
899.928	3040
900.031	4304
900.133	5856
900.236	4572
900.338	2942
900.441	3962
900.543	3746
900.646	4072
900.748	3131
900.851	5463
900.953	4659
901.055	2468
901.158	3710
901.260	3714
901.362	3178
901.465	2369
901.567	3767
901.669	5382
901.771	2929
901.873	3984
901.976	2817
902.078	4380
902.180	3119
902.282	2969
902.384	3846
902.486	4928
902.588	4183
902.690	3784
902.792	3333
902.894	3804
902.996	3872
903.098	4279
903.200	3196
903.302	4325
903.404	2526
903.505	2917
903.607	3397
903.709	5201
903.811	5198
903.913	3654
904.014	3389
904.116	3375
904.218	3388
904.319	3365
904.421	5058
904.523	5216
904.624	4483
904.726	4207
904.827	3085
904.929	3684
905.030	3396
905.132	5055
905.233	4619
905.335	3010
905.436	2991
905.537	3619
905.639	3764
905.740	3799
905.841	3801
905.943	4131
906.044	3848
906.145	3615
906.247	2921
906.348	3803
906.449	3287
906.550	4548
906.651	3384
906.752	2994
906.854	2877
906.955	2973
907.056	3066
907.157	3933
907.258	4830
907.359	3472
907.460	2412
907.561	2744
907.662	3025
907.762	3222
907.863	3895
907.964	5130
908.065	3249
908.166	3337
908.267	3336
908.367	3620
908.468	2969
908.569	3427
908.670	3933
908.770	4059
908.871	4424
908.971	3653
909.072	4154
909.173	3593
909.273	3305
909.374	4050
909.474	2952
909.575	2818
909.675	3436
909.776	3634
909.876	3488
909.977	3674
910.077	4220
910.177	4365
910.278	4002
910.378	3034
910.478	3901
910.579	3721
910.679	3383
910.779	3877
910.879	4866
910.980	3430
911.080	4696
911.180	3710
911.280	2658
911.380	2603
911.480	3675
911.580	2822
911.680	3702
911.780	4219
911.880	4345
911.980	3946
912.080	3515
912.180	3880
912.280	3999
912.380	4363
912.480	2339
912.580	3040
912.679	2125
912.779	3877
912.879	4340
912.979	4142
913.078	3018
913.178	3127
913.278	2618
913.377	2966
913.477	2927
913.577	3273
913.676	4086
913.776	4874
913.875	3888
913.975	3740
914.074	2638
914.174	4532
914.273	3045
914.373	4399
914.472	2794
914.572	2806
914.671	2998
914.770	3481
914.870	2833
914.969	2892
915.068	4359
915.167	4393
915.267	3392
915.366	3835
915.465	3005
915.564	3998
915.663	3387
915.763	4267
915.862	3249
915.961	4205
916.060	3660
916.159	3222
916.258	3159
916.357	3848
916.456	4478
916.555	4155
916.654	4279
916.752	4499
916.851	3806
916.950	3497
917.049	3374
917.148	3480
917.247	2897
917.345	3324
917.444	3085
917.543	4502
917.642	3615
917.740	3428
917.839	5059
917.937	5416
918.036	5040
918.135	3854
918.233	3360
918.332	2999
918.430	3479
918.529	3742
918.627	3647
918.726	4896
918.824	3626
918.923	3699
919.021	3912
919.119	3860
919.218	3620
919.316	4422
919.414	3153
919.512	4540
919.611	5254
919.709	4541
919.807	4826
919.905	5557
920.003	4980
920.102	5451
920.200	4611
920.298	4953
920.396	6145
920.494	5441
920.592	4598
920.690	4664
920.788	4401
920.886	4991
920.984	5779
921.082	5194
921.180	5905
921.277	6568
921.375	6568
921.473	8864
921.571	9136
921.669	8802
921.766	7175
921.864	8576
921.962	7747
922.060	7529
922.157	7572
922.255	8529
922.352	7815
922.450	9411
922.548	8021
922.645	10396
922.743	11816
922.840	16295
922.938	21251
923.035	18473
923.133	17260
923.230	19323
923.327	23563
923.425	22979
923.522	21831
923.619	20625
923.717	19645
923.814	18062
923.911	18058
924.008	18130
924.106	17570
924.203	17040
924.300	18363
924.397	18306
924.494	18523
924.591	17897
924.688	15867
924.786	17257
924.883	16854
924.979	17208
925.077	17150
925.173	16673
925.270	17676
925.367	17126
925.464	18669
925.561	18563
925.658	19713
925.755	16352
925.852	18873
925.948	18085
926.045	17452
926.142	17251
926.239	19321
926.335	14584
926.432	16638
926.529	18426
926.625	20010
926.722	17252
926.818	15090
926.915	17788
927.011	15972
927.108	16833
927.204	16960
927.301	15199
927.397	15563
927.494	19084
927.590	14333
927.687	13947
927.783	18484
927.879	18193
927.976	15277
928.072	14816
928.168	15835
928.264	17276
928.361	14907
928.457	17498
928.553	15784
928.649	14971
928.745	16279
928.841	13512
928.937	15699
929.033	16256
929.129	13689
929.225	17111
929.321	15861
929.417	13603
929.513	16403
929.609	13606
929.705	12345
929.801	15534
929.897	13829
929.993	13564
930.089	14315
930.184	13618
930.280	14237
930.376	17349
930.471	14824
930.567	12173
930.663	13737
930.758	11924
930.854	12768
930.950	13126
931.045	12675
931.141	13301
931.236	16000
931.332	15182
931.427	10964
931.523	15500
931.618	15457
931.714	10517
931.809	11397
931.905	15503
932.000	12158
932.095	8649
932.191	14096
932.286	16299
932.381	15410
932.476	11078
932.572	11977
932.667	12080
932.762	11293
932.857	12298
932.952	14648
933.047	13809
933.142	11090
933.237	12419
933.332	13223
933.427	15017
933.522	12684
933.617	11416
933.712	10650
933.807	13559
933.902	15016
933.997	15964
934.092	11900
934.187	11186
934.282	12224
934.376	12953
934.471	13780
934.566	11720
934.661	11385
934.755	12682
934.850	14358
934.945	12525
935.039	11515
935.134	8864
935.228	10807
935.323	16097
935.417	10953
935.512	9189
935.606	8944
935.701	11343
935.795	12806
935.890	12191
935.984	10549
936.079	8484
936.173	10988
936.267	10662
936.362	9457
936.456	11017
936.550	13843
936.644	12524
936.738	9259
936.833	9710
936.927	8793
937.021	9770
937.115	10086
937.209	11886
937.303	11527
937.397	9316
937.491	10368
937.585	11930
937.679	11468
937.773	9374
937.867	9006
937.961	8729
938.055	11825
938.149	13074
938.243	8462
938.337	7855
938.430	8972
938.524	12469
938.618	10828
938.712	9121
938.805	9189
938.899	10843
938.993	13710
939.086	10019
939.180	7347
939.274	10469
939.367	10456
939.461	13046
939.554	9125
939.648	8321
939.741	8987
939.835	10126
939.928	11995
940.022	12269
940.115	9558
940.208	10826
940.302	12398
940.395	13766
940.488	8707
940.582	9991
940.675	7008
940.768	7681
940.861	11223
940.954	12713
941.048	7800
941.141	6454
941.234	7257
941.327	9195
941.420	9888
941.513	10705
941.606	8559
941.699	8037
941.792	10248
941.885	9701
941.978	9805
942.071	10450
942.164	6749
942.257	6697
942.349	8024
942.442	10192
942.535	7722
942.628	8087
942.721	7769
942.813	9006
942.906	9753
942.999	9341
943.091	6986
943.184	9709
943.277	8893
943.369	7803
943.462	5881
943.554	7810
943.647	8685
943.739	8473
943.832	10570
943.924	6078
944.017	6457
944.109	6704
944.201	7597
944.294	7956
944.386	8029
944.478	8141
944.571	6642
944.663	7725
944.755	7858
944.847	9166
944.940	9327
945.032	6858
945.124	5867
945.216	8048
945.308	7615
945.400	8233
945.492	7595
945.584	9003
945.676	10569
945.768	7520
945.860	8789
945.952	9425
946.044	8595
946.136	6968
946.228	6612
946.320	7043
946.412	6828
946.503	8440
946.595	9773
946.687	7396
946.779	5856
946.870	6274
946.962	5865
947.054	6362
947.145	7944
947.237	7895
947.329	6876
947.420	8058
947.512	7580
947.603	5162
947.695	6173
947.786	6151
947.878	6641
947.969	7796
948.061	7866
948.152	7661
948.243	5454
948.335	5368
948.426	4843
948.517	7350
948.609	8329
948.700	7690
948.791	6401
948.882	5927
948.973	4856
949.065	6648
949.156	7109
949.247	5502
949.338	6361
949.429	4576
949.520	5600
949.611	6296
949.702	7562
949.793	6395
949.884	6308
949.975	6597
950.066	4936
950.157	5348
950.247	5621
950.338	6546
950.429	5139
950.520	6834
950.611	5492
950.701	6455
950.792	8338
950.883	7696
950.973	6313
951.064	6921
951.155	7391
951.245	7486
951.336	7304
951.427	7553
951.517	9267
951.608	7085
951.698	5755
951.788	5445
951.879	4923
951.969	4773
952.060	5570
952.150	6444
952.240	8271
952.331	7114
952.421	7086
952.511	5031
952.602	4465
952.692	5042
952.782	5003
952.872	5096
952.962	6567
953.052	5611
953.143	4490
953.233	5219
953.323	5228
953.413	6010
953.503	7876
953.593	5457
953.683	6273
953.773	5240
953.863	5201
953.953	4890
954.042	5496
954.132	5629
954.222	6421
954.312	5144
954.402	4865
954.492	5076
954.581	6084
954.671	6158
954.761	5157
954.850	6821
954.940	4338
955.030	4610
955.119	4411
955.209	4496
955.298	5994
955.388	6292
955.477	6518
955.567	5341
955.656	4922
955.746	5428
955.835	5305
955.925	5007
956.014	4475
956.103	6696
956.193	7146
956.282	7338
956.371	5731
956.461	6321
956.550	6047
956.639	5363
956.728	5208
956.817	5339
956.906	5209
956.995	6605
957.085	5239
957.174	6688
957.263	4453
957.352	5239
957.441	4773
957.530	6825
957.619	5371
957.708	5198
957.796	5109
957.885	5891
957.974	5182
958.063	4251
958.152	3912
958.241	4921
958.329	3832
958.418	5295
958.507	4760
958.596	7826
958.684	5328
958.773	5792
958.861	4993
958.950	5289
959.039	3859
959.127	5479
959.216	6015
959.304	5536
959.393	5764
959.481	5678
959.570	5171
959.658	4947
959.746	4457
959.835	6142
959.923	6227
960.011	5154
960.100	5956
960.188	6499
960.276	4998
960.365	4645
960.453	4196
960.541	4338
960.629	4894
960.717	4492
960.805	4008
960.893	4881
960.981	4298
961.069	6910
961.158	6519
961.245	7619
961.333	7364
961.421	5483
961.509	4370
961.597	5191
961.685	4760
961.773	4583
961.861	5659
961.949	6239
962.036	5215
962.124	4672
962.212	3891
962.299	4253
962.387	4958
962.475	4730
962.562	4080
962.650	4938
962.738	4787
962.825	3359
962.913	3857
963.000	3676
963.088	5017
963.175	5979
963.263	4297
963.350	4378
963.438	4486
963.525	4655
963.612	5328
963.700	5307
963.787	9649
963.874	7527
963.962	4285
964.049	3595
964.136	3639
964.223	3936
964.310	3587
964.398	3899
964.485	4168
964.572	4416
964.659	5418
964.746	4377
964.833	3126
964.920	4133
965.007	3711
965.094	4164
965.181	4380
965.268	4999
965.355	3686
965.441	4862
965.528	3991
965.615	5097
965.702	3951
965.789	3845
965.875	4041
965.962	5208
966.049	4343
966.136	6031
966.222	4419
966.309	5360
966.395	4685
966.482	5519
966.569	4040
966.655	5379
966.742	4135
966.828	4561
966.915	3221
967.001	4536
967.087	3636
967.174	3720
967.260	4493
967.347	5522
967.433	5747
967.519	8143
967.605	5092
967.692	4280
967.778	4797
967.864	3973
967.950	4151
968.036	4238
968.123	4832
968.209	5069
968.295	1859
968.381	4738
968.467	3417
968.553	2858
968.639	4967
968.725	4693
968.811	4993
968.897	6113
968.983	4316
969.069	3185
969.154	4112
969.240	2844
969.326	2690
969.412	3824
969.497	3767
969.583	2741
969.669	4063
969.755	4635
969.840	3826
969.926	5933
970.012	8422
970.097	8740
970.183	7494
970.268	5718
970.354	6229
970.439	3815
970.525	6638
970.610	5070
970.696	4656
970.781	4082
970.866	3062
970.952	3914
971.037	4336
971.122	4372
971.208	3776
971.293	4224
971.378	2842
971.463	4721
971.549	4442
971.634	3344
971.719	4190
971.804	4188
971.889	4142
971.974	4224
972.059	3982
972.144	4682
972.229	4004
972.314	3653
972.399	3981
972.484	3437
972.569	4342
972.654	3090
972.739	4993
972.824	5166
972.908	3879
972.993	3902
973.078	3159
973.163	3232
973.247	3433
973.332	3439
973.417	4055
973.501	3716
973.586	3866
973.671	4372
973.755	3671
973.840	3960
973.924	5673
974.009	5096
974.093	6463
974.178	5961
974.262	5504
974.346	5413
974.431	4414
974.515	4145
974.600	3983
974.684	5272
974.768	3144
974.852	4765
974.937	3210
975.021	4505
975.105	4138
975.189	3822
975.273	4036
975.358	2869
975.442	2806
975.526	3249
975.610	3316
975.694	3412
975.778	4336
975.862	3319
975.946	1740
976.030	4932
976.114	2677
976.198	3934
976.281	3580
976.365	4165
976.449	3785
976.533	4532
976.617	3014
976.700	3236
976.784	3751
976.868	3107
976.951	4080
977.035	3596
977.119	2780
977.202	4065
977.286	3885
977.369	5175
977.453	7346
977.536	7014
977.620	4862
977.703	5935
977.787	4405
977.870	5544
977.953	5475
978.037	3690
978.120	4763
978.203	4518
978.287	4850
978.370	4790
978.453	3824
978.536	3401
978.620	3960
978.703	5491
978.786	4351
978.869	2591
978.952	3748
979.035	5189
979.118	5156
979.201	3045
979.284	4048
979.367	3969
979.450	3996
979.533	2987
979.616	3444
979.699	4290
979.782	4021
979.865	3665
979.948	4054
980.030	3231
980.113	3839
980.196	3033
980.279	5221
980.361	3845
980.444	3917
980.526	6205
980.609	6017
980.692	7445
980.774	7050
980.857	5712
980.939	5160
981.022	4923
981.104	4276
981.187	4377
981.269	4782
981.352	4901
981.434	3684
981.516	4876
981.599	5425
981.681	5067
981.763	4361
981.846	4496
981.928	4339
982.010	4549
982.092	4023
982.174	5184
982.256	4189
982.339	3596
982.421	3811
982.503	4662
982.585	3636
982.667	4181
982.749	3370
982.831	3997
982.913	2891
982.995	4867
983.077	4216
983.158	5785
983.240	4448
983.322	5866
983.404	7829
983.486	7667
983.568	7332
983.649	6731
983.731	6211
983.813	5844
983.894	5576
983.976	5113
984.058	5205
984.139	6243
984.221	4398
984.302	5729
984.384	5065
984.465	4598
984.547	5529
984.628	4865
984.710	6311
984.791	5471
984.872	5096
984.954	4602
985.035	4828
985.116	6034
985.198	4957
985.279	6119
985.360	4923
985.441	5266
985.522	5603
985.604	5606
985.685	3442
985.766	6618
985.847	5756
985.928	5471
986.009	5110
986.090	4524
986.171	5341
986.252	5952
986.333	5725
986.414	5520
986.495	5386
986.576	5120
986.656	5650
986.737	6157
986.818	6364
986.899	5786
986.980	6006
987.060	5963
987.141	6064
987.222	7063
987.302	7171
987.383	8093
987.464	7357
987.544	8133
987.625	6677
987.705	8025
987.786	8219
987.866	7426
987.947	6979
988.027	7490
988.108	5768
988.188	7529
988.268	4997
988.349	6341
988.429	6773
988.509	5895
988.589	6275
988.670	5620
988.750	7382
988.830	5673
988.910	6139
988.990	6287
989.070	6209
989.151	6041
989.231	5089
989.311	6244
989.391	4781
989.471	4962
989.551	5973
989.631	5281
989.711	5757
989.791	5625
989.870	4965
989.950	6372
990.030	5372
990.110	5865
990.190	4383
990.269	5464
990.349	5715
990.429	5671
990.509	5538
990.588	4830
990.668	5486
990.747	5033
990.827	4603
990.907	5074
990.986	5291
991.066	5871
991.145	3945
991.225	5653
991.304	5798
991.383	5818
991.463	4472
991.542	5756
991.622	4457
991.701	4299
991.780	4050
991.859	3882
991.939	4432
992.018	4922
992.097	5643
992.176	4474
992.256	4957
992.335	4609
992.414	5212
992.493	3697
992.572	3564
992.651	5568
992.730	5191
992.809	4192
992.888	3074
992.967	5020
993.046	4696
993.125	3751
993.203	4268
993.282	4984
993.361	4094
993.440	4839
993.519	3679
993.597	4065
993.676	3822
993.755	5490
993.834	4028
993.912	3748
993.991	3840
994.069	3628
994.148	3513
994.226	3558
994.305	2310
994.384	2882
994.462	5087
994.540	3704
994.619	3081
994.697	3969
994.776	4289
994.854	4279
994.932	3027
995.011	4224
995.089	3086
995.167	3069
995.245	3500
995.324	3009
995.402	3670
995.480	3853
995.558	2782
995.636	2556
995.714	2765
995.792	4762
995.870	3148
995.948	2518
996.026	2813
996.104	2401
996.182	4178
996.260	2238
996.338	2138
996.416	2412
996.494	3066
996.572	4322
996.649	2569
996.727	2625
996.805	4072
996.883	2796
996.960	2183
997.038	3831
997.116	2612
997.193	3337
997.271	2894
997.348	1580
997.426	2477
997.504	2702
997.581	3555
997.658	3163
997.736	960
997.813	1781
997.891	2603
997.968	3319
998.046	2546
998.123	2872
998.200	2445
998.277	2394
998.355	3092
998.432	1285
998.509	1869
998.586	2935
998.663	3043
998.741	2693
998.818	2073
998.895	1900
998.972	2378
999.049	2910
999.126	1811
999.203	2902
999.280	2764
999.357	1458
999.434	1107
999.511	2986
999.587	1837
999.664	1427
999.741	2210
999.818	2783
999.895	1919
999.971	2422
1000.048	1897
1000.125	2464
1000.202	1326
1000.278	2639
1000.355	2259
1000.431	2492
1000.508	1707
1000.584	2201
1000.661	2060
1000.738	1379
1000.814	1988
1000.890	2190
1000.967	2505
1001.043	2175
1001.120	2282
1001.196	2082
1001.272	1462
1001.349	1652
1001.425	1717
1001.501	2182
1001.577	1173
1001.654	2610
1001.730	1649
1001.806	1589
1001.882	903
1001.958	2756
1002.034	2848
1002.110	1772
1002.186	1627
1002.262	1596
1002.338	693
1002.414	2282
1002.490	2474
1002.566	1298
1002.642	1347
1002.718	2387
1002.794	635
1002.870	1737
1002.945	1418
1003.021	1786
1003.097	1164
1003.173	2042
1003.248	1462
1003.324	1263
1003.400	1480
1003.475	490
1003.551	1350
1003.626	861
1003.702	552
1003.777	1311
1003.853	426
1003.928	400
1004.004	1656
1004.079	2143
1004.155	1479
1004.230	1003
1004.305	1762
1004.381	1125
1004.456	1122
1004.531	470
1004.607	1066
1004.682	963
1004.757	1600
1004.832	1422
1004.907	91
1004.982	933
1005.057	1675
1005.133	1068
1005.208	1104
1005.283	1229
1005.358	1579
1005.433	219
1005.508	1052
1005.583	960
1005.657	506
1005.732	1927
1005.807	378
1005.882	837
1005.957	190
1006.032	540
1006.106	1092
1006.181	328
1006.256	1370
1006.331	-21
1006.405	-507
1006.480	1002
1006.554	1247
1006.629	329
1006.704	694
1006.778	291
1006.853	548
1006.927	948
1007.002	172
1007.076	573
1007.150	106
1007.225	851
1007.299	828
1007.373	279
1007.448	773
1007.522	1527
1007.596	690
1007.671	-186
1007.745	1682
1007.819	560
1007.893	517
1007.967	1837
1008.041	278
1008.115	1012
1008.190	1141
1008.264	1712
1008.338	-159
1008.412	552
1008.486	88
1008.560	382
1008.633	96
1008.707	833
1008.781	933
1008.855	539
1008.929	164
1009.003	187
1009.076	-263
1009.150	1011
1009.224	556
1009.298	1099
1009.371	-344
1009.445	700
1009.519	294
1009.592	35
1009.666	-397
1009.739	563
1009.813	-777
1009.886	1184
1009.960	-924
1010.033	1305
1010.107	743
1010.180	-547
1010.253	99
1010.327	167
1010.400	580
1010.473	-9
1010.547	540
1010.620	836
1010.693	807
1010.766	-269
1010.840	86
1010.913	1086
1010.986	-92
1011.059	-474
1011.132	-312
1011.205	1083
1011.278	232
1011.351	391
1011.424	493
1011.497	165
1011.570	-370
1011.643	132
1011.716	-276
1011.789	307
1011.862	443
1011.934	-92
1012.007	-1260
1012.080	366
1012.153	182
1012.225	922
1012.298	-349
1012.371	-741
1012.443	567
1012.516	-1257
1012.588	180
1012.661	826
1012.733	-339
1012.806	673
1012.879	-695
1012.951	-23
1013.023	-47
1013.096	257
1013.168	-112
1013.241	363
1013.313	78
1013.385	-359
1013.458	346
1013.530	590
1013.602	-1198
1013.674	973
1013.746	-1455
1013.819	466
1013.891	-10
1013.963	-375
1014.035	-288
1014.107	336
1014.179	-460
1014.251	517
1014.323	-215
1014.395	-153
1014.467	-122
1014.539	138
1014.611	-621
1014.683	-54
1014.754	-218
1014.826	-910
1014.898	-534
1014.970	-57
1015.042	588
1015.113	-322
1015.185	-136
1015.257	-41
1015.328	502
1015.400	494
1015.471	-122
1015.543	-552
1015.615	-535
1015.686	-248
1015.757	-86
1015.829	113
1015.901	190
1015.972	-533
1016.043	-396
1016.115	-507
1016.186	145
1016.257	-920
1016.328	-63
1016.400	457
1016.471	-573
1016.542	-311
1016.613	49
1016.685	-128
1016.756	-1042
1016.827	-1095
1016.898	-371
1016.969	944
1017.040	-656
1017.111	374
1017.182	-568
1017.253	262
1017.324	-621
1017.395	-576
1017.466	-489
1017.537	-159
1017.608	-938
1017.678	-809
1017.749	-207
1017.820	-466
1017.891	-925
1017.961	-1014
1018.032	-224
1018.103	-286
1018.173	-747
1018.244	-365
1018.315	-1458
1018.385	474
1018.456	-936
1018.526	-750
1018.597	-702
1018.667	41
1018.738	-1299
1018.808	-236
1018.878	-1442
1018.949	-1158
1019.019	-1012
1019.089	-1216
1019.160	-655
1019.230	-1108
1019.300	-971
1019.371	-1240
1019.441	-427
1019.511	-563
1019.581	-899
1019.651	-427
1019.721	-1032
1019.791	-1185
1019.861	-891
1019.931	623
1020.001	-256
1020.071	-644
1020.141	-191
1020.211	-865
1020.281	-998
1020.351	-518
1020.421	-38
1020.491	-649
1020.560	-1351
1020.630	-160
1020.700	-664
1020.770	-168
1020.839	-792
1020.909	-945
1020.979	-916
1021.048	-880
1021.118	-684
1021.187	-646
1021.257	-1868
1021.326	-488
1021.396	-1041
1021.465	-999
1021.535	-1388
1021.604	-1869
1021.674	-847
1021.743	-541
1021.812	-771
1021.882	-401
1021.951	-954
1022.020	-343
1022.089	22
1022.159	-616
1022.228	-728
1022.297	-705
1022.366	-883
1022.435	-517
1022.504	-1485
1022.573	-544
1022.642	-626
1022.711	-1426
1022.781	-1383
1022.849	-842
1022.918	-1180
1022.987	-903
1023.056	-1357
1023.125	-590
1023.194	-917
1023.263	-1105
1023.331	-211
1023.400	-610
1023.469	-1044
1023.538	-850
1023.606	-1534
1023.675	2
1023.744	-966
1023.812	-615
1023.881	-1276
1023.949	-501
1024.018	-677
1024.086	-843
1024.155	-1774
1024.223	-1571
1024.292	-880
1024.360	-792
1024.429	-1617
1024.497	-1154
1024.565	-1176
1024.634	-1160
1024.702	-311
1024.770	-1436
1024.838	-1116
1024.907	-1005
1024.975	-1288
1025.043	-1183
1025.111	-1897
1025.179	-626
1025.247	-1753
1025.315	-809
1025.383	-259
1025.451	-591
1025.519	-1591
1025.587	-811
1025.655	-1418
1025.723	-894
1025.791	-1550
1025.859	-1050
1025.927	-1003
1025.995	-1420
1026.062	-919
1026.130	-875
1026.198	-1302
1026.266	-1230
1026.333	-517
1026.401	-830
1026.469	-1475
1026.536	-483
1026.604	-535
1026.671	-776
1026.739	-1183
1026.806	-968
1026.874	-536
1026.941	-1278
1027.009	-1095
1027.076	-1176
1027.144	-1256
1027.211	-1261
1027.278	-1158
1027.345	-784
1027.413	-852
1027.480	-1302
1027.547	-1372
1027.614	-980
1027.682	-275
1027.749	-973
1027.816	-1373
1027.883	-634
1027.950	-930
1028.017	-1474
1028.084	-1106
1028.151	-1061
1028.218	-1477
1028.285	-1111
1028.352	-1413
1028.419	-1085
1028.486	-1376
1028.553	-1118
1028.619	-805
1028.686	-782
1028.753	-1643
1028.820	-724
1028.886	-1254
1028.953	-1100
1029.020	-1233
1029.086	-1564
1029.153	-2034
1029.220	-1513
1029.286	-1620
1029.353	-1149
1029.419	-1570
1029.486	-1063
1029.552	-1401
1029.619	-585
1029.685	-1162
1029.751	-65
1029.818	-245
1029.884	-1636
1029.951	-1110
1030.017	-1511
1030.083	-1539
1030.149	-1508
1030.216	-1612
1030.282	-869
1030.348	-2531
1030.414	-1365
1030.480	-1272
1030.546	-1384
1030.612	-979
1030.678	-1048
1030.744	-1843
1030.810	-1747
1030.876	-1594
1030.942	-1557
1031.008	-1619
1031.074	-1709
1031.140	-1040
1031.206	-616
1031.272	-2379
1031.337	-772
1031.403	-1818
1031.469	-1674
1031.534	-1590
1031.600	-326
1031.666	-1650
1031.731	-836
1031.797	-1292
1031.863	-971
1031.928	-1280
1031.994	-981
1032.059	-1171
1032.125	-608
1032.190	-1614
1032.256	-1684
1032.321	-2605
1032.386	-1840
1032.452	-1151
1032.517	-1701
1032.582	-1858
1032.647	-273
1032.713	-1713
1032.778	-1100
1032.843	-1449
1032.908	-1685
1032.974	-1093
1033.039	-812
1033.104	-575
1033.169	-1492
1033.234	-797
1033.299	-841
1033.364	-1057
1033.429	-775
1033.494	-799
1033.559	-966
1033.624	-1186
1033.688	-763
1033.753	-1816
1033.818	-1324
1033.883	-1504
1033.948	-552
1034.013	-297
1034.077	242
1034.142	541
1034.207	1684
1034.271	2395
1034.336	4122
1034.400	2734
1034.465	717
1034.530	-863
1034.594	-1113
1034.658	-1524
1034.723	-1740
1034.787	-966
1034.852	-886
1034.916	-1947
1034.981	-1663
1035.045	-996
1035.109	-1436
1035.173	-583
1035.238	-1624
1035.302	-1386
1035.366	-984
1035.430	-1166
1035.495	-2052
1035.559	-1036
1035.623	-909
1035.687	-1966
1035.751	-1231
1035.815	-1041
1035.879	-1318
1035.943	-1352
1036.007	-1739
1036.071	-1370
1036.135	-1371
1036.198	-1344
1036.262	-1670
1036.326	-1842
1036.390	-1861
1036.454	-1673
1036.517	-1125
1036.581	-667
1036.645	-1304
1036.709	-971
1036.772	-1149
1036.836	-1527
1036.900	-1972
1036.963	-1751
1037.026	-1475
1037.090	-1393
1037.154	-1409
1037.217	-1471
1037.280	-1568
1037.344	-2122
1037.407	-968
1037.471	-1393
1037.534	-1769
1037.597	-1594
1037.661	-1578
1037.724	-1694
1037.787	-379
1037.850	-1922
1037.913	-1569
1037.977	-1227
1038.040	-1571
1038.103	-1253
1038.166	-844
1038.229	-1646
1038.292	-1683
1038.355	-1299
1038.418	-1498
1038.481	-2102
1038.544	-1284
1038.607	-1445
1038.670	-1323
1038.732	-1390
1038.795	-963
1038.858	-2204
1038.921	-1695
1038.984	-1239
1039.046	-1163
1039.109	-1938
1039.172	-1451
1039.234	-1749
1039.297	-1405
1039.360	-1289
1039.422	-637
1039.485	-1125
1039.547	-1549
1039.610	-1908
1039.672	-758
1039.734	-1922
1039.797	-1812
1039.859	-1166
1039.922	-1087
1039.984	-1962
1040.046	-1433
1040.109	-1311
1040.171	-1448
1040.233	-2088
1040.295	-1691
1040.358	-1635
1040.420	-1507
1040.482	-1746
1040.544	-1704
1040.606	-1721
1040.668	-1859
1040.730	-1683
1040.792	-692
1040.854	-1281
1040.916	-928
1040.978	-1424
1041.040	-1731
1041.102	-1666
1041.164	-1598
1041.225	-1571
1041.287	-929
1041.349	-2703
1041.411	-1215
1041.472	-1319
1041.534	-1902
1041.596	-1804
1041.657	-1182
1041.719	-1434
1041.781	-1071
1041.842	-1998
1041.904	-1237
1041.965	-1299
1042.027	-1313
1042.088	-2026
1042.150	-1115
1042.211	-1905
1042.272	-1493
1042.334	-1451
1042.395	-1206
1042.456	-1563
1042.518	-1384
1042.579	-1837
1042.640	-1409
1042.701	-1616
1042.763	-1766
1042.824	-2269
1042.885	-2027
1042.946	-1822
1043.007	-1907
1043.068	-1735
1043.129	-1379
1043.190	-2099
1043.251	-1455
1043.312	-1943
1043.373	-1155
1043.434	-1998
1043.495	-1228
1043.556	-1771
1043.616	-1893
1043.677	-1085
1043.738	-1389
1043.799	-2109
1043.859	-1845
1043.920	-1788
1043.981	-1764
1044.041	-2413
1044.102	-1283
1044.162	-1877
1044.223	-1907
1044.284	-1117
1044.344	-1356
1044.405	-1893
1044.465	-1877
1044.525	-1651
1044.586	-1884
1044.646	-1999
1044.707	-1324
1044.767	-1716
1044.827	-1155
1044.887	-1405
1044.948	-1247
1045.008	-2132
1045.068	-1152
1045.128	-1785
1045.188	-860
1045.249	-476
1045.309	-891
1045.369	-1489
1045.429	-2275
1045.489	-1220
1045.549	-1254
1045.609	-1197
1045.669	-1097
1045.729	-1325
1045.789	-1722
1045.848	-792
1045.908	-1339
1045.968	-1291
1046.028	-1291
1046.088	-1087
1046.147	-986
1046.207	-1630
1046.267	-915
1046.326	-960
1046.386	-555
1046.446	-847
1046.505	-122
1046.565	-621
1046.624	-910
1046.684	-114
1046.743	-921
1046.803	-376
1046.862	11
1046.922	0
