'Start Wavelength	183.907
'End Wavelength	1046.922
'Gate Delay	5.000
'Gate Width (ms)	1.050
'Laser Output Level	0.000
'X Position	0.000
'Y Position	0.000
'Z Position	0.000
'Grid Point Number	1.000
'Shot Number	100.000
183.907	1182.000
183.977	-442.000
184.047	-17
184.116	780
184.186	847
184.256	-605
184.325	-498
184.395	41
184.465	1186
184.534	-870
184.604	-167
184.674	528
184.743	637
184.813	548
184.883	175
184.952	-261
185.022	-144
185.092	113
185.161	36
185.231	578
185.301	389
185.370	663
185.440	195
185.509	10
185.579	-77
185.649	20
185.718	928
185.788	1284
185.857	763
185.927	-540
185.996	690
186.066	-404
186.136	227
186.205	8
186.275	718
186.344	497
186.414	232
186.483	-156
186.553	2021
186.622	122
186.692	902
186.761	-58
186.831	-105
186.900	-107
186.970	548
187.039	699
187.109	975
187.178	625
187.248	1127
187.317	575
187.387	220
187.456	284
187.526	-247
187.595	607
187.664	854
187.734	-298
187.803	719
187.873	498
187.942	531
188.012	146
188.081	845
188.150	34
188.220	795
188.289	1109
188.358	830
188.428	439
188.497	1083
188.567	386
188.636	-51
188.705	859
188.775	745
188.844	384
188.913	734
188.983	-111
189.052	-379
189.121	-399
189.191	397
189.260	471
189.329	111
189.399	572
189.468	338
189.537	477
189.606	470
189.676	1107
189.745	414
189.814	550
189.883	637
189.953	-528
190.022	-131
190.091	228
190.161	547
190.230	524
190.299	296
190.368	-115
190.437	416
190.507	584
190.576	1064
190.645	837
190.714	367
190.783	200
190.853	111
190.922	761
190.991	792
191.060	194
191.129	367
191.198	1055
191.268	738
191.337	298
191.406	1089
191.475	260
191.544	510
191.613	73
191.682	1014
191.752	35
191.821	1427
191.890	14
191.959	87
192.028	450
192.097	746
192.166	751
192.235	-62
192.304	406
192.373	753
192.442	78
192.511	29
192.580	-111
192.650	603
192.719	-137
192.788	221
192.857	299
192.926	959
192.995	-102
193.064	407
193.133	518
193.202	527
193.271	515
193.340	259
193.409	342
193.478	1247
193.547	563
193.615	457
193.684	448
193.753	593
193.822	1072
193.891	-31
193.960	284
194.029	798
194.098	280
194.167	-104
194.236	1030
194.305	-193
194.374	-450
194.443	543
194.512	-193
194.580	831
194.649	905
194.718	360
194.787	20
194.856	114
194.925	-57
194.994	477
195.062	136
195.131	598
195.200	215
195.269	487
195.338	393
195.407	1644
195.475	211
195.544	495
195.613	361
195.682	401
195.751	318
195.819	114
195.888	262
195.957	944
196.026	176
196.094	756
196.163	-6
196.232	370
196.301	185
196.369	142
196.438	33
196.507	328
196.576	158
196.644	1162
196.713	838
196.782	626
196.850	999
196.919	658
196.988	528
197.056	-181
197.125	589
197.194	501
197.262	375
197.331	390
197.400	-65
197.468	311
197.537	152
197.606	393
197.674	918
197.743	109
197.812	501
197.880	463
197.949	-395
198.017	214
198.086	362
198.155	770
198.223	84
198.292	923
198.360	213
198.429	501
198.497	-322
198.566	-31
198.635	509
198.703	278
198.772	182
198.840	550
198.909	1052
198.977	881
199.046	-320
199.114	563
199.183	279
199.251	854
199.320	-496
199.388	410
199.457	194
199.525	314
199.594	-179
199.662	974
199.731	-138
199.799	430
199.867	59
199.936	8
200.004	591
200.073	793
200.141	-122
200.210	605
200.278	939
200.346	134
200.415	1458
200.483	912
200.552	1158
200.620	202
200.688	708
200.757	579
200.825	597
200.893	856
200.962	-220
201.030	529
201.098	603
201.167	443
201.235	-98
201.303	652
201.372	595
201.440	717
201.508	-231
201.577	193
201.645	240
201.713	483
201.781	416
201.850	509
201.918	629
201.986	374
202.055	784
202.123	945
202.191	-32
202.259	376
202.327	-27
202.396	535
202.464	823
202.532	409
202.600	1035
202.669	550
202.737	199
202.805	-130
202.873	638
202.941	884
203.009	87
203.078	591
203.146	871
203.214	197
203.282	215
203.350	780
203.418	1032
203.487	1153
203.555	83
203.623	291
203.691	-612
203.759	239
203.827	142
203.895	1020
203.963	-155
204.031	517
204.099	460
204.168	870
204.236	574
204.304	708
204.372	430
204.440	1200
204.508	133
204.576	-122
204.644	255
204.712	743
204.780	410
204.848	1274
204.916	221
204.984	759
205.052	253
205.120	368
205.188	627
205.256	375
205.324	377
205.392	1109
205.460	-142
205.528	262
205.596	612
205.664	164
205.732	667
205.799	409
205.867	876
205.935	561
206.003	493
206.071	811
206.139	587
206.207	355
206.275	208
206.343	684
206.411	720
206.478	1168
206.546	-19
206.614	-18
206.682	478
206.750	313
206.818	765
206.885	1573
206.953	-19
207.021	700
207.089	957
207.157	161
207.225	645
207.292	292
207.360	-26
207.428	73
207.496	-218
207.563	-18
207.631	558
207.699	595
207.767	317
207.834	1328
207.902	223
207.970	379
208.038	739
208.105	887
208.173	440
208.241	103
208.309	523
208.376	854
208.444	726
208.512	694
208.579	-422
208.647	883
208.715	1271
208.782	708
208.850	439
208.918	185
208.985	732
209.053	425
209.120	249
209.188	660
209.256	-407
209.323	-159
209.391	-132
209.459	1515
209.526	235
209.594	651
209.661	841
209.729	677
209.796	222
209.864	487
209.932	-919
209.999	1628
210.067	238
210.134	1152
210.202	109
210.269	1305
210.337	1290
210.404	681
210.472	258
210.539	803
210.607	228
210.674	923
210.742	468
210.809	595
210.877	560
210.944	823
211.012	-574
211.079	1056
211.146	878
211.214	1133
211.281	807
211.349	1885
211.416	1460
211.484	871
211.551	41
211.618	850
211.686	879
211.753	518
211.821	592
211.888	727
211.955	479
212.023	612
212.090	163
212.157	912
212.225	465
212.292	596
212.359	213
212.427	1376
212.494	759
212.561	1197
212.629	641
212.696	792
212.763	1033
212.831	682
212.898	1287
212.965	641
213.032	230
213.100	321
213.167	234
213.234	632
213.301	836
213.369	663
213.436	-215
213.503	537
213.570	926
213.638	740
213.705	937
213.772	-572
213.839	115
213.906	632
213.973	453
214.041	197
214.108	629
214.175	1168
214.242	236
214.309	1442
214.376	573
214.444	255
214.511	54
214.578	793
214.645	1323
214.712	1893
214.779	517
214.846	522
214.913	1189
214.980	1330
215.048	1311
215.115	1940
215.182	1270
215.249	1309
215.316	-133
215.383	1702
215.450	755
215.517	895
215.584	875
215.651	1400
215.718	485
215.785	926
215.852	-373
215.919	1460
215.986	196
216.053	919
216.120	346
216.187	412
216.254	1288
216.321	-192
216.388	956
216.455	892
216.522	975
216.589	568
216.656	602
216.722	1705
216.789	567
216.856	517
216.923	788
216.990	895
217.057	341
217.124	1194
217.191	604
217.258	920
217.324	1039
217.391	2186
217.458	406
217.525	861
217.592	676
217.659	599
217.725	1703
217.792	839
217.859	1200
217.926	257
217.993	205
218.059	1111
218.126	698
218.193	497
218.260	509
218.327	1086
218.393	647
218.460	421
218.527	-30
218.594	301
218.660	387
218.727	1188
218.794	541
218.860	1361
218.927	552
218.994	1173
219.061	-252
219.127	1028
219.194	332
219.261	840
219.327	55
219.394	659
219.461	-1164
219.527	406
219.594	271
219.661	1085
219.727	-276
219.794	755
219.860	-48
219.927	1315
219.994	1586
220.060	3667
220.127	2656
220.193	2799
220.260	414
220.326	1451
220.393	1358
220.460	2075
220.526	1273
220.593	1043
220.659	2117
220.726	863
220.792	2015
220.859	1362
220.925	1866
220.992	2842
221.058	2034
221.125	1732
221.191	1028
221.258	657
221.324	629
221.391	444
221.457	633
221.524	1058
221.590	723
221.657	1652
221.723	975
221.789	776
221.856	1297
221.922	286
221.989	1004
222.055	526
222.121	32
222.188	1747
222.254	156
222.321	1314
222.387	-181
222.453	546
222.520	402
222.586	457
222.652	614
222.719	-230
222.785	-127
222.851	813
222.918	482
222.984	776
223.050	605
223.116	-304
223.183	849
223.249	432
223.315	-475
223.382	248
223.448	912
223.514	396
223.580	68
223.647	-126
223.713	110
223.779	447
223.845	-232
223.911	543
223.978	-86
224.044	513
224.110	94
224.176	221
224.242	896
224.309	68
224.375	162
224.441	794
224.507	362
224.573	-273
224.639	95
224.705	486
224.772	205
224.838	-88
224.904	396
224.970	514
225.036	668
225.102	-97
225.168	790
225.234	478
225.300	420
225.366	1352
225.432	985
225.499	898
225.565	101
225.631	190
225.697	609
225.763	849
225.829	5
225.895	793
225.961	648
226.027	1480
226.093	-71
226.159	1509
226.225	3282
226.291	3998
226.357	4050
226.423	1996
226.489	1290
226.554	1404
226.620	992
226.686	1891
226.752	1357
226.818	4133
226.884	4687
226.950	5295
227.016	3085
227.082	1916
227.148	1419
227.214	1431
227.279	899
227.345	1879
227.411	1629
227.477	3232
227.543	4168
227.609	4884
227.674	4444
227.740	2136
227.806	1249
227.872	1273
227.938	244
228.003	485
228.069	268
228.135	18
228.201	553
228.267	578
228.332	-488
228.398	247
228.464	884
228.530	1000
228.595	12
228.661	-35
228.727	157
228.792	1757
228.858	-286
228.924	-1340
228.990	1253
229.055	-80
229.121	204
229.187	423
229.252	-199
229.318	-330
229.384	576
229.449	13
229.515	-1037
229.581	107
229.646	1838
229.712	27
229.777	-122
229.843	707
229.909	1188
229.974	1739
230.040	465
230.105	640
230.171	-817
230.236	1072
230.302	133
230.368	590
230.433	260
230.499	1503
230.564	1506
230.630	499
230.695	669
230.761	939
230.826	-843
230.892	1345
230.957	-797
231.023	162
231.088	-257
231.154	241
231.219	531
231.284	400
231.350	639
231.415	322
231.481	1574
231.546	849
231.612	-414
231.677	-834
231.742	-255
231.808	1130
231.873	-486
231.939	-789
232.004	1060
232.069	1018
232.135	46
232.200	370
232.265	86
232.331	1413
232.396	-540
232.461	176
232.527	-230
232.592	559
232.657	305
232.723	358
232.788	-372
232.853	1468
232.918	-322
232.984	211
233.049	-112
233.114	-29
233.179	858
233.245	1883
233.310	52
233.375	-775
233.440	-74
233.506	17
233.571	-207
233.636	-31
233.701	112
233.766	-96
233.832	-40
233.897	-49
233.962	-1181
234.027	1640
234.092	57
234.157	417
234.222	-7
234.288	1134
234.353	924
234.418	1216
234.483	1192
234.548	1250
234.613	-89
234.678	910
234.743	-633
234.808	1404
234.873	-499
234.938	1228
235.004	56
235.069	516
235.134	-239
235.199	212
235.264	281
235.329	60
235.394	607
235.459	725
235.524	-90
235.589	619
235.654	-163
235.719	-382
235.784	543
235.849	292
235.913	122
235.978	1053
236.043	1091
236.108	801
236.173	-577
236.238	980
236.303	129
236.368	408
236.433	270
236.498	450
236.563	1413
236.627	1497
236.692	7171
236.757	7292
236.822	2707
236.887	1041
236.952	1432
237.017	311
237.081	1568
237.146	1205
237.211	3570
237.276	7256
237.341	11552
237.405	5435
237.470	2257
237.535	1368
237.600	1168
237.664	2162
237.729	-424
237.794	-158
237.859	2312
237.923	772
237.988	233
238.053	974
238.118	701
238.182	1000
238.247	1712
238.312	-227
238.376	176
238.441	-669
238.506	1271
238.570	-168
238.635	1517
238.700	701
238.764	-799
238.829	1318
238.893	-257
238.958	1827
239.023	821
239.087	986
239.152	218
239.216	-121
239.281	362
239.346	1351
239.410	289
239.475	87
239.539	1939
239.604	1602
239.668	2238
239.733	2833
239.797	6134
239.862	8956
239.926	8106
239.991	4803
240.055	2670
240.120	2237
240.184	1637
240.249	926
240.313	150
240.378	-73
240.442	343
240.507	1458
240.571	883
240.635	157
240.700	352
240.764	436
240.829	682
240.893	-372
240.957	-332
241.022	892
241.086	1065
241.151	-275
241.215	-876
241.279	1181
241.344	-555
241.408	1258
241.472	-552
241.537	1636
241.601	474
241.665	309
241.730	-261
241.794	1319
241.858	-43
241.922	583
241.987	932
242.051	535
242.115	-316
242.179	1136
242.244	-75
242.308	1517
242.372	466
242.436	5
242.501	151
242.565	-572
242.629	-706
242.693	1795
242.757	-22
242.822	245
242.886	793
242.950	1806
243.014	-422
243.078	-22
243.142	83
243.206	-604
243.271	316
243.335	49
243.399	1007
243.463	1503
243.527	6179
243.591	1823
243.655	622
243.719	-592
243.783	606
243.847	1131
243.911	1068
243.975	-15
244.040	-585
244.104	1907
244.168	206
244.232	504
244.296	630
244.360	443
244.424	-733
244.488	382
244.552	849
244.615	-439
244.679	192
244.743	-153
244.807	-129
244.871	612
244.935	76
244.999	-625
245.063	-559
245.127	1264
245.191	785
245.255	-284
245.319	714
245.383	-658
245.446	780
245.510	-8
245.574	165
245.638	1102
245.702	-1001
245.766	1222
245.829	1193
245.893	79
245.957	-118
246.021	1485
246.085	-248
246.149	89
246.212	2604
246.276	2531
246.340	465
246.404	1149
246.467	601
246.531	-183
246.595	2308
246.659	1454
246.722	340
246.786	586
246.850	-138
246.913	1181
246.977	-855
247.041	573
247.104	593
247.168	638
247.232	1381
247.295	3101
247.359	1602
247.423	1073
247.486	1463
247.550	1768
247.614	59
247.677	1326
247.741	482
247.804	614
247.868	1030
247.932	545
247.995	3597
248.059	460
248.122	-345
248.186	1403
248.249	930
248.313	4968
248.376	5631
248.440	2930
248.503	98
248.567	2340
248.630	186
248.694	2189
248.757	2662
248.821	5795
248.884	3204
248.948	2887
249.011	3952
249.075	6930
249.138	5980
249.202	2712
249.265	1246
249.328	1514
249.392	363
249.455	1473
249.519	1040
249.582	967
249.645	1924
249.709	2354
249.772	966
249.835	1637
249.899	488
249.962	1820
250.025	-54
250.089	1448
250.152	2594
250.215	1614
250.279	957
250.342	1508
250.405	779
250.468	1211
250.532	1479
250.595	1561
250.658	6038
250.721	11923
250.785	3693
250.848	3176
250.911	1158
250.974	1841
251.038	1809
251.101	4307
251.164	1155
251.227	1490
251.290	986
251.354	2979
251.417	8669
251.480	10933
251.543	6460
251.606	17663
251.669	13867
251.732	5573
251.795	4259
251.859	5147
251.922	9823
251.985	6417
252.048	3317
252.111	2201
252.174	770
252.237	3369
252.300	7097
252.363	7281
252.426	14795
252.489	5750
252.552	3026
252.615	776
252.678	2479
252.741	4647
252.804	5899
252.867	15904
252.930	8583
252.993	3911
253.056	3546
253.119	1822
253.182	978
253.245	1345
253.308	1642
253.371	355
253.434	1218
253.497	1939
253.559	3601
253.622	1947
253.685	940
253.748	2200
253.811	1288
253.874	2492
253.937	247
254.000	1160
254.062	2131
254.125	3428
254.188	3803
254.251	3020
254.314	686
254.376	1721
254.439	2256
254.502	1718
254.565	2427
254.628	5080
254.690	1558
254.753	798
254.816	933
254.878	718
254.941	2102
255.004	2586
255.067	627
255.129	408
255.192	1047
255.255	155
255.317	895
255.380	1093
255.443	343
255.505	1114
255.568	-639
255.631	156
255.693	1210
255.756	495
255.819	598
255.881	899
255.944	1062
256.006	277
256.069	292
256.132	284
256.194	291
256.257	1295
256.319	422
256.382	1658
256.444	3141
256.507	1419
256.569	659
256.632	1989
256.694	855
256.757	5163
256.819	14492
256.882	5620
256.944	2116
257.007	3000
257.069	1354
257.132	1017
257.194	876
257.257	786
257.319	125
257.381	1412
257.444	3783
257.506	14545
257.569	17814
257.631	6998
257.693	3520
257.756	1194
257.818	844
257.880	1230
257.943	1839
258.005	675
258.067	1172
258.130	1111
258.192	1279
258.254	1178
258.317	663
258.379	1651
258.441	2242
258.503	2612
258.566	872
258.628	2007
258.690	-12
258.753	1889
258.815	1183
258.877	591
258.939	1124
259.001	1134
259.064	895
259.126	755
259.188	722
259.250	1319
259.312	857
259.375	636
259.437	770
259.499	1321
259.561	348
259.623	757
259.685	222
259.747	391
259.809	1482
259.872	2566
259.934	4091
259.996	5332
260.058	1648
260.120	920
260.182	342
260.244	246
260.306	93
260.368	1290
260.430	-156
260.492	1264
260.554	2778
260.616	1219
260.678	2056
260.740	1919
260.802	517
260.864	1051
260.926	122
260.988	1114
261.050	539
261.112	1722
261.174	3227
261.236	3015
261.298	1176
261.359	1117
261.421	1940
261.483	430
261.545	1762
261.607	69
261.669	363
261.731	993
261.793	2094
261.854	522
261.916	924
261.978	306
262.040	690
262.102	1880
262.164	-158
262.225	1956
262.287	425
262.349	1606
262.411	1780
262.472	1689
262.534	-103
262.596	555
262.658	1504
262.719	-395
262.781	1031
262.843	299
262.904	1631
262.966	1134
263.028	727
263.090	3148
263.151	7045
263.213	3028
263.275	2225
263.336	723
263.398	1476
263.459	-203
263.521	620
263.583	2463
263.644	1497
263.706	1293
263.767	410
263.829	1469
263.891	625
263.952	774
264.014	-977
264.075	785
264.137	2712
264.198	1632
264.260	-192
264.321	360
264.383	788
264.444	5426
264.506	1393
264.567	1372
264.629	2025
264.690	2469
264.752	1586
264.813	1201
264.875	483
264.936	1944
264.998	790
265.059	1976
265.120	1503
265.182	1689
265.243	6950
265.305	9053
265.366	2432
265.427	1913
265.489	1262
265.550	72
265.611	1381
265.673	867
265.734	1008
265.795	1029
265.857	849
265.918	747
265.979	1895
266.040	10979
266.102	11266
266.163	3449
266.224	2102
266.286	1363
266.347	-23
266.408	1026
266.469	587
266.530	730
266.592	182
266.653	1251
266.714	1745
266.775	1688
266.836	49
266.898	1109
266.959	1236
267.020	954
267.081	1346
267.142	935
267.203	-30
267.264	320
267.326	1088
267.387	217
267.448	551
267.509	1211
267.570	491
267.631	554
267.692	-142
267.753	1013
267.814	104
267.875	1674
267.936	2190
267.997	1131
268.058	927
268.119	1159
268.180	782
268.241	345
268.302	1178
268.363	268
268.424	353
268.485	1404
268.546	34
268.607	389
268.668	485
268.729	248
268.790	381
268.851	1556
268.912	1126
268.972	1446
269.033	441
269.094	711
269.155	1090
269.216	1037
269.277	783
269.338	616
269.398	1335
269.459	34
269.520	1083
269.581	655
269.642	1299
269.702	593
269.763	814
269.824	543
269.885	430
269.945	1961
270.006	417
270.067	633
270.128	1146
270.188	560
270.249	-484
270.310	410
270.370	605
270.431	1016
270.492	638
270.553	627
270.613	776
270.674	2537
270.734	1752
270.795	874
270.856	1013
270.916	241
270.977	319
271.038	2363
271.098	971
271.159	1051
271.219	1365
271.280	1356
271.340	1058
271.401	68
271.462	791
271.522	1342
271.583	491
271.643	1493
271.704	947
271.764	1339
271.825	1848
271.885	6773
271.946	9072
272.006	3452
272.066	4351
272.127	8065
272.187	8860
272.248	5504
272.308	2227
272.369	4747
272.429	2940
272.489	1971
272.550	1900
272.610	3008
272.671	1847
272.731	1590
272.791	1093
272.852	1741
272.912	1205
272.972	1059
273.033	673
273.093	1093
273.153	1443
273.214	1531
273.274	687
273.334	2821
273.394	6108
273.455	2942
273.515	2906
273.575	5432
273.635	2060
273.696	3006
273.756	4660
273.816	2987
273.876	1335
273.936	1677
273.997	2108
274.057	1233
274.117	761
274.177	2317
274.237	7105
274.297	6371
274.358	3348
274.418	4005
274.478	4408
274.538	2021
274.598	720
274.658	1921
274.718	1823
274.778	1516
274.838	1519
274.898	1839
274.958	1880
275.018	5149
275.078	4060
275.138	2270
275.198	869
275.258	1622
275.318	1305
275.378	2109
275.438	2260
275.498	2912
275.558	1466
275.618	3577
275.678	4863
275.738	3925
275.798	2743
275.858	1498
275.918	749
275.978	2070
276.038	1464
276.098	2071
276.157	2260
276.217	5267
276.277	2786
276.337	1645
276.397	1405
276.457	2595
276.517	1718
276.576	1697
276.636	1019
276.696	1797
276.756	2528
276.815	3046
276.875	2137
276.935	982
276.995	1511
277.055	1536
277.114	1584
277.174	2586
277.234	3666
277.293	2190
277.353	826
277.413	1797
277.472	964
277.532	1796
277.592	1595
277.651	2626
277.711	4488
277.771	2386
277.830	6537
277.890	5397
277.950	3354
278.009	9714
278.069	4283
278.128	3932
278.188	4734
278.248	3957
278.307	4327
278.367	4276
278.426	2142
278.486	1586
278.545	1058
278.605	1149
278.664	1506
278.724	1602
278.783	2180
278.843	7405
278.902	2714
278.962	1581
279.021	1570
279.081	2030
279.140	1721
279.199	1488
279.259	1492
279.318	2142
279.378	1976
279.437	3619
279.496	10282
279.556	21557
279.615	15881
279.675	4457
279.734	3321
279.793	5330
279.853	8804
279.912	5026
279.971	2658
280.031	2203
280.090	4621
280.149	8564
280.208	3852
280.268	12960
280.327	13283
280.386	4037
280.445	2926
280.505	3343
280.564	1670
280.623	1734
280.682	2498
280.742	3614
280.801	1844
280.860	1660
280.919	1422
280.978	1606
281.037	1010
281.097	1288
281.156	2099
281.215	1820
281.274	2088
281.333	5004
281.392	4289
281.451	1483
281.510	1209
281.569	1358
281.628	1085
281.688	2574
281.747	1238
281.806	1497
281.865	1133
281.924	1109
281.983	1089
282.042	1479
282.101	1720
282.160	1449
282.219	370
282.278	2117
282.337	2968
282.396	2401
282.454	689
282.513	1539
282.572	3788
282.631	3400
282.690	2225
282.749	1436
282.808	849
282.867	1432
282.926	1902
282.985	2182
283.043	1320
283.102	1459
283.161	1537
283.220	2680
283.279	5002
283.338	2809
283.396	1699
283.455	1851
283.514	1671
283.573	2714
283.631	1591
283.690	1972
283.749	878
283.808	2590
283.866	3521
283.925	2026
283.984	1756
284.043	2287
284.101	2935
284.160	2102
284.219	3092
284.277	1862
284.336	2192
284.395	5836
284.453	4787
284.512	2809
284.570	2525
284.629	2683
284.688	2775
284.746	2304
284.805	1952
284.863	2728
284.922	3994
284.981	4354
285.039	5994
285.098	9364
285.156	19911
285.215	38187
285.273	39238
285.332	24149
285.390	11267
285.449	7867
285.507	5503
285.566	3766
285.624	3280
285.683	3659
285.741	2741
285.799	3010
285.858	2113
285.916	2087
285.975	2220
286.033	1372
286.091	1409
286.150	1990
286.208	2346
286.267	1973
286.325	1452
286.383	2689
286.442	2253
286.500	1748
286.558	1756
286.616	1471
286.675	2460
286.733	2110
286.791	1316
286.850	2114
286.908	2719
286.966	3899
287.024	1803
287.083	2019
287.141	1374
287.199	2841
287.257	2706
287.315	2566
287.374	2102
287.432	3789
287.490	2280
287.548	3063
287.606	2084
287.664	1560
287.723	1970
287.781	2631
287.839	2531
287.897	2413
287.955	2472
288.013	2613
288.071	5089
288.129	14549
288.187	45029
288.245	21604
288.303	7265
288.361	4277
288.419	3075
288.477	3051
288.535	2241
288.593	2573
288.651	2405
288.709	1898
288.767	1662
288.825	2062
288.883	2459
288.941	2289
288.999	2103
289.057	1740
289.115	1243
289.173	2392
289.231	1899
289.289	2231
289.346	766
289.404	2492
289.462	2826
289.520	2756
289.578	2388
289.636	2557
289.694	1959
289.751	2027
289.809	1960
289.867	2433
289.925	2964
289.983	2486
290.040	2061
290.098	1906
290.156	2363
290.214	2440
290.271	1301
290.329	3490
290.387	1924
290.444	1620
290.502	1839
290.560	2023
290.617	1866
290.675	1684
290.733	1425
290.790	2721
290.848	2666
290.906	1858
290.963	2037
291.021	2020
291.078	2129
291.136	2309
291.194	2937
291.251	6801
291.309	3216
291.366	2953
291.424	2281
291.481	2032
291.539	1555
291.596	1896
291.654	1408
291.711	2304
291.769	2025
291.826	3284
291.884	2862
291.941	1804
291.999	1898
292.056	2548
292.114	2158
292.171	2478
292.228	2208
292.286	2227
292.343	2377
292.401	3031
292.458	3041
292.515	2377
292.573	2861
292.630	2759
292.687	2012
292.745	1667
292.802	2320
292.859	3362
292.917	5618
292.974	4748
293.031	2175
293.089	2133
293.146	2020
293.203	1732
293.260	1698
293.318	2035
293.375	2648
293.432	1917
293.489	1572
293.546	2082
293.604	1513
293.661	4556
293.718	8126
293.775	5439
293.832	3416
293.889	3237
293.947	2613
294.004	2679
294.061	2423
294.118	2785
294.175	6375
294.232	8523
294.289	4201
294.346	3094
294.403	2590
294.460	3262
294.517	1641
294.574	2962
294.631	2076
294.688	2178
294.745	3343
294.802	10325
294.859	11818
294.916	6113
294.973	2080
295.030	2565
295.087	2368
295.144	1962
295.201	2458
295.258	2542
295.315	1936
295.372	4789
295.429	7696
295.486	5305
295.542	3404
295.599	6286
295.656	8937
295.713	6012
295.770	8101
295.827	3721
295.883	2738
295.940	2560
295.997	2929
296.054	2762
296.111	2352
296.167	2541
296.224	2491
296.281	2354
296.338	1513
296.394	1579
296.451	1965
296.508	4767
296.564	7250
296.621	5440
296.678	8460
296.734	12344
296.791	5103
296.848	3505
296.904	3022
296.961	5357
297.018	8531
297.074	7145
297.131	3848
297.187	2452
297.244	2372
297.301	7919
297.357	13972
297.414	6177
297.470	3285
297.527	2677
297.583	2608
297.640	3017
297.696	1653
297.753	2573
297.809	1661
297.866	1872
297.922	2083
297.979	1681
298.035	1797
298.092	3120
298.148	5240
298.204	6473
298.261	3272
298.317	4596
298.374	9357
298.430	6832
298.486	3341
298.543	2956
298.599	2568
298.656	2524
298.712	2990
298.768	7368
298.824	5129
298.881	3073
298.937	2942
298.993	2342
299.050	1456
299.106	2818
299.162	3002
299.218	2965
299.275	2785
299.331	3928
299.387	3803
299.443	11669
299.500	22972
299.556	17129
299.612	7086
299.668	7325
299.724	16175
299.780	20240
299.837	8520
299.893	6706
299.949	15694
300.005	23351
300.061	17213
300.117	26022
300.173	13652
300.229	6314
300.285	6165
300.341	5871
300.397	4168
300.453	3742
300.510	3615
300.566	4937
300.622	7418
300.678	25163
300.734	33656
300.790	18053
300.845	14849
300.901	16182
300.957	25120
301.013	14851
301.069	6557
301.125	4832
301.181	3670
301.237	3892
301.293	2495
301.349	3287
301.405	2727
301.461	3452
301.516	3229
301.572	2736
301.628	3206
301.684	3072
301.740	3594
301.796	6460
301.851	4274
301.907	6219
301.963	6239
302.019	8852
302.074	21730
302.130	23503
302.186	12023
302.242	6285
302.297	3921
302.353	3717
302.409	5715
302.464	6270
302.520	4175
302.576	9186
302.631	10715
302.687	6904
302.743	3474
302.798	3018
302.854	2562
302.910	3874
302.965	2888
303.021	4181
303.076	3530
303.132	3964
303.187	5179
303.243	3355
303.299	2901
303.354	3299
303.410	2445
303.465	2290
303.521	1448
303.576	3261
303.632	3008
303.687	3270
303.743	8024
303.798	7862
303.853	3801
303.909	3526
303.964	2470
304.020	3846
304.075	4266
304.130	3727
304.186	5196
304.241	6670
304.297	5698
304.352	4021
304.358	3866
304.407	2605
304.449	3511
304.463	3819
304.518	3069
304.539	2891
304.573	2606
304.629	2774
304.630	2787
304.684	3422
304.720	5569
304.739	6654
304.794	10922
304.811	9466
304.850	5956
304.902	3602
304.905	3454
304.960	2875
304.992	2765
305.015	2634
305.071	2528
305.083	2564
305.126	2773
305.173	2643
305.181	2627
305.236	2487
305.264	2408
305.292	2302
305.347	2923
305.354	2874
305.402	2644
305.445	2768
305.457	2760
305.512	2999
305.535	3071
305.567	3253
305.622	2186
305.626	2300
305.678	4618
305.716	7386
305.733	8312
305.788	10480
305.807	9345
305.843	7580
305.897	8716
305.898	8720
305.953	8930
305.988	6612
306.008	5458
306.063	3394
306.078	3223
306.118	2739
306.168	2595
306.173	2590
306.228	2490
306.259	2278
306.283	2166
306.338	2694
306.349	2782
306.393	3068
306.440	2930
306.448	2901
306.503	2921
306.530	2902
306.558	3166
306.613	4169
306.620	4296
306.668	5194
306.711	7993
306.723	8490
306.778	8060
306.801	6577
306.833	4775
306.888	3312
306.892	3270
306.943	3067
306.982	2860
306.997	2798
307.052	2763
307.072	2741
307.107	2801
307.162	2671
307.163	2676
307.217	3328
307.253	3074
307.272	3011
307.327	3567
307.343	3539
307.381	3232
307.434	3411
307.436	3483
307.491	4422
307.524	5983
307.546	6503
307.600	7230
307.614	6942
307.655	5676
307.704	3888
307.710	3782
307.765	3904
307.795	4029
307.819	4245
307.874	5478
307.885	5544
307.929	5702
307.975	6388
307.984	6744
308.038	8952
308.065	10976
308.093	17165
308.148	32438
308.156	35960
308.202	55231
308.246	69109
308.257	67511
308.312	39104
308.336	27543
308.366	20729
308.421	12839
308.426	12173
308.475	8364
308.517	6736
308.530	6430
308.585	4881
308.607	4831
308.639	4893
308.694	4909
308.697	4873
308.748	5384
308.787	6557
308.803	6585
308.857	6141
308.877	5801
308.912	5973
308.967	6858
308.967	6871
309.021	9097
309.058	10566
309.076	12872
309.130	21129
309.148	24707
309.185	43351
309.238	75224
309.239	75505
309.293	84810
309.328	80661
309.348	70626
309.402	36896
309.418	28096
309.457	20135
309.508	13194
309.511	12946
309.566	10078
309.598	9031
309.620	8942
309.674	8660
309.688	8824
309.729	8988
309.778	8566
309.783	8494
309.837	7114
309.868	6591
309.892	7442
309.946	9796
309.959	10632
310.001	13255
310.049	15516
310.055	15106
310.109	10007
310.139	6952
310.163	5903
310.218	4528
310.229	4294
310.272	3974
310.319	3587
310.326	3590
310.381	3861
310.409	3797
310.435	3620
310.489	3699
310.499	3687
310.543	3913
310.589	4134
310.598	4117
310.652	3940
310.679	3836
310.706	3767
310.760	3623
310.769	3611
310.814	3952
310.859	4009
310.868	3984
310.923	4148
310.948	4163
310.977	4237
311.031	4359
311.038	4368
311.085	4151
311.128	3851
311.139	3855
311.193	3998
311.218	4024
311.247	4428
311.301	5023
311.308	5115
311.356	4826
311.398	4417
311.410	4474
311.464	4766
311.488	4829
311.518	4582
311.572	4207
311.578	4152
311.626	4851
311.668	5493
311.680	5380
311.734	4764
311.758	4469
311.788	4591
311.842	4787
311.847	4803
311.896	5296
311.937	5705
311.950	5748
312.004	5894
312.027	5937
312.058	5508
312.112	4738
312.117	4651
312.165	5009
312.207	5297
312.297	5787
312.386	4634
312.476	4367
312.566	6241
312.656	4528
312.745	5252
312.835	5518
312.925	6371
313.015	5173
313.104	5810
313.194	5038
313.284	5566
313.374	6105
313.463	6612
313.553	6541
313.643	6310
313.732	7104
313.822	7437
313.912	8116
314.001	8659
314.091	8284
314.180	8923
314.270	8716
314.360	8365
314.449	7885
314.539	7947
314.628	7903
314.718	8582
314.808	8424
314.897	8992
314.987	9244
315.076	9909
315.166	9872
315.255	9590
315.345	9718
315.434	8585
315.524	8540
315.613	9656
315.703	10465
315.792	18263
315.881	51761
315.971	20670
316.060	10498
316.150	9468
316.239	8878
316.328	9002
316.418	7985
316.507	9408
316.597	10591
316.686	11034
316.775	10542
316.865	10028
316.954	8249
317.043	8424
317.133	7101
317.222	7283
317.311	6708
317.400	5402
317.490	7199
317.579	7203
317.668	7211
317.757	11310
317.847	26440
317.936	79458
318.025	28200
318.114	22678
318.203	13499
318.293	10895
318.382	16464
318.471	16849
318.560	16330
318.649	22304
318.738	9919
318.828	7410
318.917	6314
319.006	7035
319.095	9472
319.184	22397
319.273	13505
319.362	8900
319.451	6349
319.540	6390
319.629	7516
319.718	9574
319.807	6990
319.896	10902
319.985	27135
320.074	12439
320.163	6836
320.252	7422
320.341	8155
320.430	8557
320.519	8930
320.608	8625
320.697	10061
320.786	10815
320.875	11899
320.964	13141
321.053	14411
321.142	16214
321.230	17815
321.319	18963
321.408	23497
321.497	20428
321.586	16577
321.675	15320
321.764	15945
321.852	14737
321.941	15838
322.030	15598
322.119	16381
322.207	22632
322.296	21901
322.385	23616
322.474	24935
322.562	31009
322.651	22153
322.740	18492
322.829	16549
322.917	14763
323.006	12135
323.095	12842
323.183	10083
323.272	12225
323.361	11682
323.449	16586
323.538	11315
323.626	13690
323.715	11598
323.804	8979
323.892	12055
323.981	10162
324.069	7589
324.158	9515
324.246	9070
324.335	8830
324.424	9278
324.512	8083
324.601	8106
324.689	10902
324.778	14055
324.866	8447
324.954	6632
325.043	7918
325.131	7311
325.220	8771
325.308	8081
325.397	8266
325.485	6815
325.574	6739
325.662	5849
325.750	6911
325.839	6846
325.927	6723
326.015	6957
326.104	6873
326.192	6669
326.280	7118
326.369	6428
326.457	7098
326.545	7763
326.634	6599
326.722	5975
326.810	6678
326.898	7193
326.987	8914
327.075	8839
327.163	8246
327.251	7752
327.340	10888
327.428	13315
327.516	12453
327.604	9212
327.692	8315
327.781	6900
327.869	7577
327.957	6711
328.045	6758
328.133	5701
328.221	5568
328.309	5854
328.397	5340
328.485	7838
328.574	11618
328.662	17180
328.750	11682
328.838	7885
328.926	6600
329.014	6988
329.102	7752
329.190	8483
329.278	8108
329.366	6316
329.454	6102
329.542	6301
329.630	5911
329.718	6628
329.806	6852
329.893	7137
329.981	6479
330.069	6401
330.157	10056
330.245	16867
330.333	11224
330.421	7067
330.509	6395
330.597	10967
330.684	8647
330.772	7100
330.860	7187
330.948	8505
331.036	7080
331.123	5448
331.211	6849
331.299	6761
331.387	7654
331.475	9886
331.562	7272
331.650	6683
331.738	6470
331.825	6827
331.913	6706
332.001	6050
332.089	7206
332.176	7141
332.264	8158
332.352	7784
332.439	7745
332.527	6168
332.614	6341
332.702	7188
332.790	7193
332.877	7769
332.965	8723
333.052	7404
333.140	6945
333.228	8954
333.315	7809
333.403	7798
333.490	7908
333.578	7932
333.665	10365
333.753	8990
333.840	9052
333.928	9529
334.015	11842
334.103	17068
334.190	34245
334.278	24571
334.365	28751
334.452	29573
334.540	21048
334.627	20122
334.715	26350
334.802	34911
334.889	57010
334.977	70420
335.064	45615
335.151	26642
335.239	19262
335.326	17194
335.413	24987
335.501	29374
335.588	16896
335.675	18677
335.762	23755
335.850	31275
335.937	41825
336.024	61713
336.111	96047
336.199	84228
336.286	43820
336.373	26127
336.460	19300
336.547	15590
336.635	13426
336.722	12450
336.809	11181
336.896	10185
336.983	14003
337.070	22863
337.157	30711
337.245	16340
337.332	12922
337.419	10063
337.506	9627
337.593	9227
337.680	12914
337.767	23068
337.854	11621
337.941	10533
338.028	9877
338.115	8374
338.202	9360
338.289	9053
338.376	13481
338.463	8971
338.550	14480
338.637	15995
338.724	8128
338.811	9066
338.898	7546
338.984	6917
339.071	6959
339.158	6816
339.245	9820
339.332	8455
339.419	7786
339.506	7844
339.593	6838
339.679	6532
339.766	7809
339.853	6556
339.940	8444
340.027	6738
340.113	6758
340.200	6849
340.287	6958
340.374	6060
340.460	8696
340.547	5917
340.634	7778
340.720	11075
340.807	8928
340.894	6906
340.980	6880
341.067	6815
341.154	7364
341.240	6981
341.327	9331
341.414	8621
341.500	7226
341.587	7883
341.674	7748
341.760	8135
341.847	7859
341.933	6994
342.020	5919
342.106	6116
342.193	6339
342.279	7319
342.366	6498
342.452	8392
342.539	7111
342.625	8174
342.712	11496
342.798	9029
342.885	6914
342.971	6340
343.058	6549
343.144	5898
343.230	6913
343.317	6454
343.403	7034
343.490	6309
343.576	6864
343.662	6894
343.749	7007
343.835	6965
343.921	8297
344.008	19894
344.094	40398
344.180	13397
344.267	8055
344.353	14124
344.439	14409
344.525	8521
344.612	10373
344.698	10763
344.784	8143
344.870	7355
344.957	6003
345.043	6977
345.129	6664
345.215	7924
345.301	6797
345.387	5657
345.474	6035
345.560	6007
345.646	5723
345.732	6106
345.818	6678
345.904	5572
345.990	6706
346.076	6309
346.162	6528
346.249	7047
346.335	5961
346.421	6089
346.507	9288
346.593	19297
346.679	8125
346.765	8127
346.851	11849
346.937	9677
347.023	8220
347.108	7164
347.194	6967
347.280	6868
347.366	9144
347.452	21649
347.538	36979
347.624	22180
347.710	15860
347.796	7828
347.882	7267
347.967	7076
348.053	8083
348.139	6878
348.225	6753
348.311	6310
348.397	7084
348.482	8039
348.568	9003
348.654	10114
348.740	27935
348.825	31471
348.911	16010
348.997	15878
349.083	22345
349.168	9547
349.254	6967
349.340	7303
349.425	7216
349.511	7159
349.597	7770
349.682	8624
349.768	16840
349.854	10925
349.939	7722
350.025	6454
350.110	7164
350.196	7414
350.282	6651
350.367	7391
350.453	7338
350.538	7103
350.624	6547
350.709	7797
350.795	6801
350.880	5984
350.966	7275
351.051	6904
351.137	7314
351.222	7009
351.308	9078
351.393	14351
351.479	7734
351.564	6943
351.649	6416
351.735	6374
351.820	6597
351.906	6499
351.991	6376
352.076	10471
352.162	12932
352.247	7128
352.332	6015
352.418	7925
352.503	8351
352.588	17152
352.673	13889
352.759	7696
352.844	6273
352.929	6082
353.014	7097
353.100	7559
353.185	7771
353.270	7934
353.355	8130
353.441	6508
353.526	6456
353.611	7661
353.696	6879
353.781	7430
353.866	5597
353.952	6859
354.037	7198
354.122	9081
354.207	8863
354.292	6766
354.377	6542
354.462	6652
354.547	6211
354.632	7440
354.717	7718
354.802	8302
354.887	7134
354.972	7209
355.057	6290
355.142	5870
355.227	6786
355.312	7612
355.397	8335
355.482	11252
355.567	8462
355.652	8149
355.737	8293
355.822	16669
355.907	14451
355.991	8247
356.076	6521
356.161	6819
356.246	6976
356.331	6740
356.416	8936
356.501	24255
356.585	24901
356.670	8564
356.755	9283
356.840	9134
356.924	18803
357.009	45461
357.094	21242
357.179	9037
357.263	8044
357.348	8689
357.433	7939
357.517	8133
357.602	8378
357.687	7750
357.771	9353
357.856	14173
357.941	11815
358.025	15219
358.110	48542
358.195	24786
358.279	8704
358.364	8732
358.448	12546
358.533	25017
358.617	19011
358.702	19950
358.787	12182
358.871	9469
358.956	9275
359.040	7865
359.125	6572
359.209	7668
359.294	11865
359.378	17030
359.462	12022
359.547	8356
359.631	7371
359.716	6772
359.800	7720
359.885	8127
359.969	6820
360.053	8284
360.138	7866
360.222	7523
360.306	7979
360.391	8258
360.475	10178
360.559	14959
360.644	12962
360.728	10815
360.812	16646
360.896	33952
360.981	16486
361.065	11870
361.149	9133
361.233	9377
361.318	8439
361.402	8928
361.486	9858
361.570	9881
361.654	10287
361.739	11005
361.823	24899
361.907	37749
361.991	15974
362.075	16482
362.159	22530
362.243	36259
362.327	74164
362.411	104273
362.495	46593
362.580	25776
362.664	23234
362.748	26631
362.832	39918
362.916	72863
363.000	170244
363.084	232256
363.168	116714
363.252	40796
363.336	26124
363.420	21065
363.503	30020
363.587	33174
363.671	17353
363.755	16451
363.839	19110
363.923	19154
364.007	25966
364.091	31896
364.175	49701
364.258	108482
364.342	197429
364.426	306661
364.510	183334
364.594	67377
364.677	36641
364.761	43578
364.845	32846
364.929	16943
365.013	14936
365.096	14113
365.180	13077
365.264	16236
365.347	36113
365.431	18855
365.515	10177
365.598	8414
365.682	10897
365.766	10324
365.849	12596
365.933	9805
366.017	11676
366.100	9777
366.184	10146
366.267	10641
366.351	10033
366.435	8985
366.518	9025
366.602	9883
366.685	9502
366.769	9397
366.852	10667
366.936	12010
367.019	10743
367.103	9649
367.186	13205
367.270	9611
367.353	9286
367.436	10868
367.520	10409
367.603	10664
367.687	10277
367.770	11821
367.853	10497
367.937	15492
368.020	21442
368.104	9732
368.187	9873
368.270	10976
368.353	11557
368.437	9825
368.520	11126
368.603	10615
368.687	13933
368.770	21259
368.853	10945
368.936	9389
369.020	10352
369.103	7521
369.186	7776
369.269	8108
369.352	8667
369.436	8335
369.519	8620
369.602	6615
369.685	8810
369.768	8126
369.851	8812
369.934	7048
370.018	7918
370.101	7763
370.184	10344
370.267	8753
370.350	9501
370.433	10873
370.516	23127
370.599	41248
370.682	18869
370.765	15379
370.848	17352
370.931	24861
371.014	14628
371.097	7283
371.180	8229
371.263	7716
371.346	7099
371.429	7505
371.511	7198
371.594	7641
371.677	9108
371.760	10843
371.843	9429
371.926	23578
372.009	44493
372.091	19542
372.174	12413
372.257	25290
372.340	13941
372.423	11548
372.505	12353
372.588	9253
372.671	11641
372.754	23887
372.836	15578
372.919	14220
373.002	22199
373.085	10605
373.167	10129
373.250	14109
373.332	25157
373.415	31417
373.498	56588
373.580	29900
373.663	54089
373.746	64103
373.828	18043
373.911	12298
373.993	11192
374.076	22200
374.159	20498
374.241	12556
374.324	23004
374.406	18955
374.489	21754
374.571	50471
374.654	25626
374.736	16046
374.819	32823
374.901	43414
374.983	44582
375.066	15595
375.148	13123
375.231	20739
375.313	32486
375.395	18388
375.478	12829
375.560	12310
375.643	12006
375.725	16346
375.807	38066
375.890	31090
375.972	12963
376.054	11409
376.136	12271
376.219	9506
376.301	15607
376.383	33316
376.465	17756
376.548	10931
376.630	14107
376.712	29659
376.794	17715
376.877	9263
376.959	7322
377.041	7960
377.123	9478
377.205	10392
377.287	7739
377.369	7887
377.452	9737
377.534	9054
377.616	8251
377.698	8535
377.780	7448
377.862	8838
377.944	9496
378.026	7428
378.108	8889
378.190	7944
378.272	7787
378.354	8227
378.436	8210
378.518	7860
378.600	11831
378.682	11073
378.764	16882
378.846	16018
378.928	8588
379.010	8979
379.091	9028
379.173	7996
379.255	6958
379.337	7554
379.419	11001
379.501	22413
379.583	13111
379.664	7872
379.746	8852
379.828	16847
379.910	20532
379.991	20467
380.073	8914
380.155	8215
380.237	7123
380.318	7260
380.400	7359
380.482	7976
380.564	8559
380.645	9226
380.727	8984
380.809	7778
380.890	7813
380.972	6187
381.053	7690
381.135	7691
381.217	9318
381.298	16764
381.380	11810
381.461	9684
381.543	25644
381.624	32919
381.706	11315
381.787	8126
381.869	9452
381.951	15446
382.032	42311
382.113	31121
382.195	10001
382.276	10438
382.358	12240
382.439	26442
382.521	28585
382.602	42114
382.684	21140
382.765	30512
382.846	29391
382.928	29487
383.009	19244
383.090	15711
383.172	40826
383.253	58459
383.334	27451
383.416	36318
383.497	23568
383.578	12081
383.659	16636
383.741	39108
383.822	86826
383.903	48964
383.984	25654
384.066	43936
384.147	30370
384.228	14346
384.309	12814
384.390	13271
384.471	13855
384.553	11602
384.634	11274
384.715	11634
384.796	9949
384.877	10763
384.958	17552
385.039	19286
385.120	11779
385.201	10915
385.282	10822
385.363	11333
385.444	11329
385.525	15189
385.606	26232
385.687	24893
385.768	14275
385.849	15033
385.930	29479
386.011	43727
386.092	19647
386.173	13964
386.254	13690
386.335	13281
386.416	12818
386.496	17978
386.577	21704
386.658	15432
386.739	13123
386.820	14272
386.901	12913
386.981	15026
387.062	15427
387.143	17637
387.224	26571
387.304	28494
387.385	22270
387.466	20221
387.547	23671
387.627	22336
387.708	25873
387.789	38433
387.869	41389
387.950	24180
388.031	17042
388.111	14231
388.192	17255
388.273	18861
388.353	15368
388.434	13409
388.514	14620
388.595	29277
388.676	34968
388.756	21666
388.837	18730
388.917	15507
388.998	10040
389.078	12274
389.159	11608
389.239	8959
389.320	12612
389.400	10595
389.480	14311
389.561	21479
389.641	16896
389.722	11410
389.802	11642
389.883	15291
389.963	26328
390.043	18840
390.124	11164
390.204	12339
390.284	20912
390.365	16420
390.445	18428
390.525	25805
390.605	25482
390.686	14834
390.766	14021
390.846	12537
390.927	10742
391.007	10592
391.087	13119
391.167	12708
391.247	11615
391.328	12972
391.408	13692
391.488	13364
391.568	11554
391.648	12536
391.728	14857
391.808	14853
391.888	14896
391.969	20180
392.049	24913
392.129	20295
392.209	20994
392.289	31986
392.369	26925
392.449	25649
392.529	23169
392.609	25752
392.689	29997
392.769	42638
392.849	47117
392.929	52467
393.009	75356
393.089	97688
393.169	153755
393.248	307250
393.328	541909
393.408	544507
393.488	324388
393.568	157314
393.648	89319
393.728	57986
393.807	42709
393.887	34786
393.967	30131
394.047	26388
394.127	24241
394.206	25536
394.286	46102
394.366	140242
394.446	159211
394.525	51354
394.605	24060
394.685	20069
394.764	24495
394.844	42226
394.924	50067
395.003	24269
395.083	15772
395.163	14361
395.242	13555
395.322	14210
395.402	12995
395.481	17041
395.561	20960
395.640	55332
395.720	98364
395.799	66728
395.879	37690
395.958	29376
396.038	60779
396.117	181056
396.197	201940
396.276	79705
396.356	41485
396.435	40233
396.515	46496
396.594	63361
396.673	117401
396.753	274591
396.832	496963
396.912	410653
396.991	176171
397.070	82023
397.150	50345
397.229	43165
397.308	70863
397.388	134348
397.467	73540
397.546	29411
397.625	18729
397.705	19555
397.784	17794
397.863	16341
397.942	13729
398.022	13961
398.101	16342
398.180	26688
398.259	19752
398.338	13337
398.417	11013
398.497	11142
398.576	10801
398.655	9965
398.734	11041
398.813	10041
398.892	13065
398.971	25303
399.050	18225
399.129	9342
399.208	10020
399.287	8967
399.366	8152
399.445	8812
399.524	8830
399.603	6709
399.682	9701
399.761	11918
399.840	26840
399.919	23056
399.998	9554
400.077	6852
400.156	7234
400.235	10005
400.313	7915
400.392	7551
400.471	12060
400.550	15149
400.629	8789
400.708	8229
400.786	7247
400.865	9468
400.944	9562
401.023	9693
401.102	6051
401.180	7047
401.259	6926
401.338	6360
401.416	6784
401.495	5907
401.574	7694
401.652	6324
401.731	7579
401.810	6175
401.888	6175
401.967	5300
402.046	7014
402.124	7692
402.203	6514
402.281	6243
402.360	7475
402.438	9572
402.517	7689
402.596	6878
402.674	6270
402.753	6509
402.831	6752
402.910	7702
402.988	10864
403.066	28204
403.145	20240
403.223	13070
403.302	24809
403.380	21963
403.459	20413
403.537	11778
403.615	8916
403.694	6532
403.772	7982
403.850	7812
403.929	6727
404.007	6836
404.085	9658
404.164	8277
404.242	8263
404.320	14654
404.398	35935
404.477	34937
404.555	38997
404.633	36557
404.711	29300
404.789	21099
404.868	8169
404.946	7711
405.024	6238
405.102	6020
405.180	5708
405.258	4134
405.336	7066
405.415	5448
405.493	7653
405.571	7841
405.649	4972
405.727	5143
405.805	8183
405.883	7055
405.961	8432
406.039	5819
406.117	5115
406.195	6667
406.273	10024
406.351	28121
406.429	19594
406.507	7261
406.585	5661
406.663	5980
406.740	6484
406.818	5194
406.896	5494
406.974	6219
407.052	5263
407.130	17689
407.208	24992
407.285	9754
407.363	5461
407.441	6129
407.519	5829
407.596	6238
407.674	17994
407.752	64167
407.830	51997
407.907	12506
407.985	5914
408.063	5373
408.141	5226
408.218	7026
408.296	6545
408.373	6563
408.451	7368
408.529	8130
408.606	7887
408.684	8626
408.762	8712
408.839	8406
408.917	8510
408.994	10062
409.072	10683
409.149	11736
409.227	18986
409.304	26648
409.382	29798
409.459	31989
409.537	40378
409.614	38317
409.692	31678
409.769	30621
409.846	41617
409.924	50151
410.001	39109
410.079	30108
410.156	23993
410.233	19342
410.311	15647
410.388	13925
410.465	12557
410.543	12474
410.620	11939
410.697	11315
410.775	11050
410.852	10515
410.929	12987
411.006	13568
411.083	11439
411.161	10992
411.238	11923
411.315	10268
411.392	9076
411.469	10126
411.547	8829
411.624	7504
411.701	7999
411.778	6704
411.855	8397
411.932	7010
412.009	6630
412.086	6863
412.163	7646
412.240	7132
412.317	8863
412.394	7141
412.471	6985
412.548	5729
412.625	6161
412.702	7105
412.779	8329
412.856	8124
412.933	6104
413.010	5828
413.087	7301
413.164	9606
413.241	12416
413.318	6587
413.395	7348
413.471	6022
413.548	6106
413.625	6404
413.702	5295
413.779	6079
413.855	5429
413.932	4329
414.009	5105
414.086	5190
414.162	5714
414.239	6233
414.316	9761
414.393	16839
414.469	8323
414.546	5288
414.623	5588
414.699	4334
414.776	5408
414.853	4583
414.929	5517
415.006	4349
415.082	5611
415.159	5909
415.236	5166
415.312	5013
415.389	5636
415.465	5796
415.542	5470
415.618	4853
415.695	6183
415.771	4370
415.848	4988
415.924	4909
416.000	5596
416.077	5586
416.153	4205
416.230	4438
416.306	4242
416.383	4594
416.459	5191
416.535	3810
416.612	4700
416.688	4668
416.764	4377
416.841	4499
416.917	4818
416.993	4335
417.069	5382
417.146	5139
417.222	6358
417.298	5130
417.374	4392
417.451	5451
417.527	5196
417.603	4915
417.679	5167
417.755	5489
417.831	4203
417.908	5765
417.984	5393
418.060	4080
418.136	5834
418.212	6439
418.288	5645
418.364	5108
418.440	4388
418.516	6010
418.592	5993
418.668	6905
418.744	7300
418.820	7312
418.896	6714
418.972	5391
419.048	6188
419.124	7374
419.200	6339
419.276	6346
419.352	5841
419.428	7028
419.504	6353
419.579	7053
419.655	6609
419.731	7014
419.807	8332
419.883	8885
419.959	9612
420.034	8953
420.110	9796
420.186	15496
420.262	14332
420.337	10510
420.413	10549
420.489	10912
420.565	11988
420.640	11872
420.716	13329
420.792	11647
420.867	14279
420.943	13175
421.019	15874
421.094	16780
421.170	17766
421.245	17479
421.321	19772
421.397	22148
421.472	33698
421.548	61389
421.623	49041
421.699	34104
421.774	35830
421.850	39665
421.925	46974
422.001	55417
422.076	66192
422.152	81513
422.227	103663
422.302	137322
422.378	184304
422.453	254410
422.529	326244
422.604	315459
422.679	229656
422.755	284398
422.830	333868
422.905	276466
422.981	207985
423.056	156437
423.131	120174
423.207	93316
423.282	75582
423.357	63591
423.432	53878
423.508	46997
423.583	42009
423.658	37082
423.733	32550
423.808	30094
423.883	28797
423.959	29317
424.034	31904
424.109	29994
424.184	23237
424.259	19890
424.334	18701
424.409	16393
424.484	16182
424.559	13901
424.634	13878
424.709	13936
424.784	13023
424.859	12306
424.934	11234
425.009	13808
425.084	17881
425.159	12266
425.234	11233
425.309	9087
425.384	11244
425.459	11840
425.534	9762
425.609	8488
425.683	8285
425.758	8068
425.833	8905
425.908	9251
425.983	9876
426.058	14001
426.132	10217
426.207	7251
426.282	9928
426.357	6577
426.431	7657
426.506	7547
426.581	7503
426.655	6420
426.730	6650
426.805	6289
426.879	7804
426.954	6409
427.029	6981
427.103	12800
427.178	26016
427.253	15701
427.327	7432
427.402	6825
427.476	10260
427.551	8211
427.625	6617
427.700	6199
427.774	5367
427.849	6958
427.923	6720
427.998	6935
428.072	8441
428.147	15516
428.221	52827
428.296	146776
428.370	93062
428.444	20669
428.519	10315
428.593	10568
428.667	10699
428.742	13181
428.816	24476
428.890	90333
428.965	141505
429.039	47110
429.113	14362
429.188	9414
429.262	7013
429.336	7548
429.410	8771
429.485	8568
429.559	9492
429.633	9293
429.707	10422
429.781	21133
429.855	86973
429.930	129868
430.004	48397
430.078	37821
430.152	73332
430.226	185675
430.300	192147
430.374	60633
430.448	22025
430.522	16815
430.596	26935
430.670	38069
430.744	114574
430.818	134340
430.892	33554
430.966	9753
431.040	7332
431.114	6062
431.188	5029
431.262	4029
431.336	5233
431.410	6706
431.484	8387
431.557	8447
431.631	6505
431.705	11283
431.779	41049
431.853	139253
431.927	105963
432.000	22358
432.074	8407
432.148	5869
432.222	4817
432.295	3805
432.369	3502
432.443	3232
432.516	10438
432.590	25106
432.664	12185
432.737	3089
432.811	2591
432.885	2424
432.958	3776
433.032	1872
433.106	3417
433.179	3011
433.253	2912
433.326	2595
433.400	3125
433.473	3905
433.547	2569
433.620	3144
433.694	3825
433.767	4203
433.841	3258
433.914	3643
433.988	3630
434.061	3532
434.134	3818
434.208	3835
434.281	2668
434.355	2462
434.428	3446
434.501	3224
434.575	3306
434.648	2990
434.721	3446
434.795	3288
434.868	3797
434.941	2815
435.014	3733
435.088	4054
435.161	5897
435.234	5818
435.307	7043
435.381	7821
435.454	11807
435.527	18801
435.600	22266
435.673	20693
435.746	15786
435.819	12288
435.892	11723
435.966	7959
436.039	7580
436.112	5535
436.185	5187
436.258	4703
436.331	3617
436.404	4415
436.477	4260
436.550	4324
436.623	4068
436.696	3598
436.769	4135
436.842	3640
436.915	3646
436.987	3347
437.060	3608
437.133	3307
437.206	2178
437.279	3371
437.352	3324
437.425	2875
437.498	3641
437.570	4266
437.643	3877
437.716	2971
437.789	2493
437.861	3824
437.934	4975
438.007	2823
438.080	2666
438.152	3272
438.225	3780
438.298	13959
438.370	37092
438.443	18329
438.516	5793
438.588	4105
438.661	3099
438.734	3220
438.806	3236
438.879	3604
438.951	3094
439.024	4410
439.096	2761
439.169	3103
439.241	3597
439.314	2705
439.386	2822
439.459	3726
439.531	3641
439.604	2955
439.676	3969
439.749	2956
439.821	3066
439.893	2862
439.966	2941
440.038	2718
440.110	3553
440.183	3120
440.255	3603
440.327	4110
440.400	7288
440.472	21790
440.544	18075
440.617	5117
440.689	5630
440.761	4440
440.833	5192
440.905	5263
440.978	3932
441.050	3316
441.122	3923
441.194	3142
441.266	3362
441.338	4636
441.411	5006
441.483	9114
441.555	12946
441.627	6033
441.699	5178
441.771	4842
441.843	5090
441.915	4582
441.987	5487
442.059	5540
442.131	6556
442.203	7990
442.275	10339
442.347	16794
442.419	34168
442.491	120000
442.563	244123
442.635	128371
442.706	37805
442.778	18611
442.850	12467
442.922	10394
442.994	10277
443.066	11919
443.137	14015
443.209	17916
443.281	26257
443.353	52667
443.425	142880
443.496	328485
443.568	361822
443.640	192819
443.711	60661
443.783	26852
443.855	16598
443.926	12763
443.998	10077
444.070	8806
444.141	8802
444.213	7908
444.285	8890
444.356	7105
444.428	7217
444.499	6310
444.571	7261
444.642	6929
444.714	6946
444.785	8370
444.857	10193
444.928	11383
445.000	13105
445.071	15075
445.143	20376
445.214	27602
445.285	45653
445.357	99351
445.428	247922
445.500	383111
445.571	355806
445.642	270637
445.714	118266
445.785	45806
445.856	23395
445.928	16076
445.999	12600
446.070	9273
446.141	8779
446.213	8603
446.284	6723
446.355	6166
446.426	6033
446.497	4982
446.569	5252
446.640	4869
446.711	5176
446.782	3976
446.853	3151
446.924	3854
446.995	3967
447.066	3367
447.138	4236
447.209	3626
447.280	1622
447.351	2507
447.422	2429
447.493	2849
447.564	2123
447.635	2405
447.706	3076
447.777	2494
447.847	2515
447.918	1186
447.989	2477
448.060	2684
448.131	3559
448.202	3573
448.273	3035
448.344	2519
448.414	2425
448.485	2165
448.556	2192
448.627	2263
448.698	3247
448.768	1004
448.839	1422
448.910	2536
448.981	3072
449.051	2124
449.122	2477
449.193	1669
449.263	2122
449.334	1586
449.405	2301
449.475	3433
449.546	3520
449.616	3922
449.687	4228
449.758	3087
449.828	1874
449.899	1785
449.969	2255
450.040	2143
450.110	2908
450.181	2093
450.251	2019
450.322	1865
450.392	2252
450.463	2558
450.533	1621
450.604	1847
450.674	2444
450.744	3958
450.815	2983
450.885	3846
450.955	4333
451.026	3936
451.096	3939
451.166	3018
451.237	5434
451.307	7888
451.377	5491
451.447	4548
451.518	3739
451.588	2082
451.658	2586
451.728	2819
451.799	5651
451.869	6704
451.939	3918
452.009	2460
452.079	2813
452.149	2966
452.219	4125
452.289	7148
452.360	6431
452.430	4709
452.500	5602
452.570	9402
452.640	18804
452.710	46528
452.780	58453
452.850	37732
452.920	20496
452.990	10607
453.060	7752
453.129	5650
453.199	5151
453.269	7691
453.339	14530
453.409	21413
453.479	18450
453.549	27320
453.619	27596
453.688	13633
453.758	4352
453.828	2470
453.898	2716
453.968	2621
454.037	2753
454.087	2063
454.107	1765
454.168	2398
454.177	2468
454.247	2177
454.249	2196
454.316	2291
454.330	2232
454.386	1938
454.411	2855
454.456	4285
454.492	4526
454.525	4761
454.574	3861
454.595	3448
454.655	1993
454.665	1741
454.734	2941
454.736	2973
454.804	3402
454.817	3831
454.873	5336
454.898	5667
454.943	6163
454.979	5054
455.013	4109
455.060	3317
455.082	2954
455.141	2877
455.152	2859
455.221	5429
455.222	5491
455.291	7774
455.303	7788
455.360	7515
455.384	9521
455.430	12424
455.465	10368
455.499	8636
455.546	6559
455.569	5539
455.627	5016
455.638	4928
455.707	2946
455.708	2966
455.777	2897
455.789	3103
455.846	3988
455.869	3543
455.916	2707
455.950	3171
455.985	3518
456.031	3444
456.054	3407
456.112	3716
456.124	3736
456.193	3442
456.193	3424
456.262	3604
456.274	3654
456.332	3765
456.355	4111
456.401	4540
456.436	4107
456.470	3731
456.516	3910
456.540	3974
456.597	3722
456.609	3610
456.678	3750
456.678	3729
456.747	4073
456.759	4064
456.817	3981
456.840	3951
456.886	3815
456.920	4066
456.955	4274
457.001	4419
457.024	4465
457.082	4932
457.093	5013
457.162	5336
457.163	5357
457.232	4968
457.243	4989
457.301	5096
457.324	5276
457.370	5557
457.405	5873
457.439	6249
457.485	6895
457.508	7309
457.566	8596
457.577	9154
457.646	12632
457.647	12727
457.715	26353
457.727	29598
457.784	51039
457.808	68135
457.853	90171
457.889	110489
457.922	115837
457.969	84385
457.991	83263
458.050	85951
458.060	87378
458.129	144023
458.130	145943
458.198	162604
458.211	150770
458.267	99829
458.292	72216
458.336	44777
458.372	39274
458.405	45607
458.453	63881
458.474	78776
458.533	138247
458.543	143035
458.611	227614
458.614	229335
458.680	172277
458.694	143278
458.749	75356
458.775	54240
458.818	30315
458.855	22969
458.887	18043
458.936	14685
458.955	13505
459.016	11329
459.024	11094
459.093	9732
459.097	9715
459.162	8808
459.177	8558
459.230	8093
459.257	8078
459.299	8099
459.338	8142
459.368	8005
459.418	8110
459.437	8089
459.499	7078
459.505	7014
459.574	7239
459.579	7262
459.643	6662
459.659	6502
459.711	6617
459.740	6905
459.780	7289
459.820	7328
459.849	7023
459.900	6595
459.917	6519
459.981	7269
459.986	7328
460.054	6495
460.061	6580
460.123	7167
460.141	7175
460.191	7450
460.222	7482
460.260	7731
460.302	8436
460.328	8531
460.382	8686
460.397	9078
460.462	10387
460.465	10741
460.534	19737
460.543	20925
460.602	52331
460.623	64745
460.671	100028
460.703	133622
460.739	122426
460.783	98333
460.808	85709
460.864	24557
460.876	18754
460.944	9513
460.945	9414
461.013	7998
461.024	7805
461.081	7736
461.104	7997
461.150	7905
461.184	7433
461.218	7219
461.264	7440
461.286	7442
461.345	7027
461.355	6979
461.423	7072
461.425	7071
461.491	7351
461.505	7447
461.559	7826
461.585	8055
461.628	9243
461.665	10466
461.696	10861
461.745	11699
461.764	11055
461.825	8122
461.832	8137
461.901	7609
461.905	7611
461.969	6729
461.985	6708
462.037	7891
462.065	8145
462.105	7305
462.145	6723
462.173	7211
462.225	8094
462.241	8370
462.305	10054
462.310	9993
462.378	8515
462.385	8312
462.446	8056
462.465	7985
462.514	7897
462.545	7863
462.582	7518
462.625	7184
462.650	7216
462.705	7239
462.718	7164
462.785	7119
462.786	7134
462.854	7474
462.865	7504
462.922	7705
462.945	8053
462.990	8199
463.025	7780
463.058	7419
463.104	7201
463.126	7134
463.184	7163
463.194	7221
463.262	7157
463.264	7162
463.330	7778
463.344	7869
463.398	8291
463.424	8399
463.466	7395
463.504	6773
463.533	7345
463.583	7960
463.601	7776
463.663	7510
463.669	7587
463.737	8207
463.743	8248
463.805	9197
463.823	9460
463.873	10143
463.903	10795
463.940	11445
463.982	12029
464.008	11228
464.062	9147
464.076	9008
464.142	8024
464.144	8041
464.211	8743
464.221	8837
464.279	8528
464.301	8460
464.347	8518
464.381	8540
464.414	8443
464.461	8220
464.482	8231
464.540	8330
464.550	8372
464.617	8328
464.620	8320
464.685	9562
464.699	9860
464.753	10256
464.779	10411
464.820	11430
464.859	12382
464.888	11818
464.938	10666
464.956	10848
465.018	11499
465.023	11437
465.091	10321
465.098	10215
465.158	9750
465.177	9569
465.226	10276
465.257	10689
465.293	10267
465.336	9753
465.361	10165
465.416	10949
465.428	11099
465.495	12038
465.496	12068
465.563	13864
465.575	14162
465.631	14738
465.654	15073
465.698	13043
465.734	11053
465.765	10689
465.813	10077
465.833	10044
465.893	10032
465.900	10050
465.968	10141
465.972	10133
466.035	9630
466.052	9460
466.102	9899
466.131	10124
466.170	9896
466.210	9554
466.237	9805
466.290	10366
466.304	10443
466.369	10625
466.372	10611
466.439	9668
466.449	9523
466.506	10091
466.528	10271
466.573	12042
466.607	13336
466.641	14659
466.687	16467
466.708	17390
466.766	19931
466.775	19130
466.842	12781
466.845	12457
466.909	10865
466.925	10488
466.977	11070
467.004	11379
467.044	12170
467.083	12924
467.111	13603
467.163	14803
467.178	15092
467.242	16172
467.245	16167
467.312	15488
467.321	15370
467.379	15024
467.400	14858
467.446	15015
467.480	15079
467.559	13920
467.638	13717
467.717	14133
467.796	15207
467.875	15386
467.955	15822
468.034	18051
468.113	24444
468.192	29852
468.271	24643
468.350	32867
468.429	42968
468.508	44473
468.588	30021
468.667	21222
468.746	17860
468.825	15501
468.904	15082
468.983	14535
469.062	15114
469.141	15989
469.220	11914
469.299	13911
469.378	13917
469.456	16176
469.535	16319
469.614	13317
469.693	13517
469.772	14432
469.851	15890
469.930	14444
470.009	14412
470.088	13367
470.166	13510
470.245	14998
470.324	13760
470.403	13880
470.482	13163
470.560	13558
470.639	13754
470.718	14125
470.797	12895
470.875	13337
470.954	13639
471.033	14859
471.111	12352
471.190	12572
471.269	12142
471.347	12428
471.426	12321
471.505	13451
471.583	14301
471.662	14223
471.740	12816
471.819	13307
471.898	12886
471.976	12460
472.055	12659
472.133	15198
472.212	18421
472.290	14910
472.369	13354
472.447	12420
472.526	11051
472.604	13519
472.683	12968
472.761	12868
472.839	12753
472.918	13447
472.996	12157
473.075	13192
473.153	13269
473.231	11763
473.310	13117
473.388	13568
473.466	13447
473.545	13400
473.623	14415
473.701	15280
473.780	13460
473.858	12126
473.936	15203
474.014	14225
474.093	15226
474.171	17813
474.249	17227
474.327	14685
474.405	11872
474.484	12955
474.562	12534
474.640	11911
474.718	11657
474.796	11565
474.874	12284
474.952	11372
475.030	10919
475.108	11249
475.187	11904
475.265	13413
475.343	13819
475.421	14469
475.499	11912
475.577	12551
475.655	13569
475.733	15183
475.811	16542
475.889	16266
475.966	14742
476.044	12497
476.122	12223
476.200	13142
476.278	11229
476.356	11685
476.434	11744
476.512	11959
476.590	13583
476.667	13453
476.745	11102
476.823	12423
476.901	11728
476.979	11312
477.056	12116
477.134	11567
477.212	12001
477.290	12646
477.367	11454
477.445	10549
477.523	11051
477.601	10505
477.678	10591
477.756	11391
477.834	11037
477.911	11360
477.989	10820
478.066	11896
478.144	11784
478.222	12544
478.299	13646
478.377	16119
478.454	13055
478.532	10774
478.609	11001
478.687	11698
478.764	11069
478.842	11235
478.919	11029
478.997	10668
479.074	9837
479.152	10490
479.229	10893
479.307	10567
479.384	11140
479.461	11198
479.539	10024
479.616	11861
479.694	10679
479.771	10129
479.848	10960
479.926	11322
480.003	12726
480.080	11553
480.157	10207
480.235	10130
480.312	10540
480.389	11799
480.467	12571
480.544	14182
480.621	12241
480.698	13371
480.775	13184
480.853	13033
480.930	11183
481.007	13180
481.084	16536
481.161	27421
481.238	18065
481.315	10465
481.392	10377
481.470	11807
481.547	12047
481.624	11611
481.701	11751
481.778	12293
481.855	13347
481.932	14366
482.009	15987
482.086	15332
482.163	15299
482.240	18014
482.317	19748
482.393	17434
482.470	14190
482.547	14270
482.624	13362
482.701	13254
482.778	11687
482.855	12458
482.932	14047
483.009	14825
483.085	17718
483.162	24378
483.239	22454
483.316	16716
483.393	17570
483.469	14886
483.546	13932
483.623	13115
483.699	11702
483.776	12359
483.853	12437
483.930	13439
484.006	18276
484.083	24477
484.160	25380
484.236	39322
484.313	31474
484.389	24432
484.466	26445
484.543	28448
484.619	32149
484.696	34438
484.772	27118
484.849	23947
484.925	22933
485.002	21610
485.078	20494
485.155	21294
485.231	18790
485.308	19453
485.384	19992
485.461	21695
485.537	22596
485.614	24035
485.690	19001
485.766	18616
485.843	18253
485.919	19258
485.995	20341
486.072	17754
486.148	17759
486.224	17634
486.301	17343
486.377	18501
486.453	17492
486.530	20166
486.606	25263
486.682	25966
486.758	24895
486.835	26109
486.911	24412
486.987	27049
487.063	28978
487.139	35137
487.215	38915
487.292	33859
487.368	31480
487.444	36198
487.520	49198
487.596	74895
487.672	155273
487.748	436259
487.824	670361
487.900	241969
487.976	74931
488.052	43494
488.128	33526
488.204	26203
488.280	24480
488.356	23868
488.432	25911
488.508	27508
488.584	20086
488.660	17870
488.736	18723
488.812	17919
488.888	19374
488.964	20955
489.039	25451
489.115	32231
489.191	27097
489.267	18293
489.343	16525
489.418	15571
489.494	15260
489.570	15398
489.646	17088
489.722	16043
489.797	16447
489.873	18414
489.949	21962
490.024	19968
490.100	14904
490.176	15436
490.251	15316
490.327	16551
490.403	15063
490.478	15511
490.554	13804
490.629	15054
490.705	13424
490.781	15323
490.856	13860
490.932	15102
491.007	14374
491.083	13278
491.158	13277
491.234	14593
491.309	18449
491.385	17925
491.460	12405
491.536	14530
491.611	12983
491.686	14047
491.762	15352
491.837	17774
491.913	22298
491.988	26775
492.063	29647
492.139	15399
492.214	13007
492.289	12071
492.365	11383
492.440	13011
492.515	11356
492.590	12302
492.666	11825
492.741	13392
492.816	13291
492.891	11161
492.967	11773
493.042	11508
493.117	10896
493.192	11993
493.267	15452
493.342	28750
493.418	33344
493.493	13097
493.568	10655
493.643	11069
493.718	11365
493.793	11431
493.868	12966
493.943	11914
494.018	11012
494.093	9854
494.168	10967
494.243	10605
494.318	10144
494.393	11438
494.468	9923
494.543	10364
494.618	9459
494.693	10417
494.768	10329
494.842	9614
494.917	9866
494.992	10304
495.067	9541
495.142	9681
495.217	10559
495.292	10065
495.366	10210
495.441	10322
495.516	12567
495.591	13175
495.665	23949
495.740	44854
495.815	21929
495.890	11317
495.964	9452
496.039	13795
496.114	15372
496.188	24956
496.263	20371
496.338	10624
496.412	10237
496.487	11355
496.561	11471
496.636	11507
496.710	12029
496.785	12459
496.860	11623
496.934	9902
497.009	9289
497.083	9433
497.158	9086
497.232	9903
497.307	10551
497.381	9733
497.455	10146
497.530	11088
497.604	10396
497.679	11602
497.753	11903
497.827	12900
497.902	10384
497.976	14752
498.050	26957
498.125	84030
498.199	79149
498.273	14650
498.348	11248
498.422	10892
498.496	11592
498.570	10499
498.645	10144
498.719	9134
498.793	10726
498.867	13204
498.941	15940
499.016	37531
499.090	86477
499.164	33057
499.238	10175
499.312	9316
499.386	11593
499.460	11904
499.534	9880
499.609	10895
499.683	12267
499.757	12982
499.831	21073
499.905	57717
499.979	51828
500.053	13929
500.127	13222
500.201	11127
500.275	9998
500.349	9956
500.422	10553
500.496	11650
500.570	17210
500.644	36001
500.718	57685
500.792	18141
500.866	11510
500.940	11999
501.013	10862
501.087	10853
501.161	13570
501.235	14806
501.309	23235
501.382	49566
501.456	42622
501.530	15562
501.603	20428
501.677	12592
501.751	8393
501.825	12119
501.898	13169
501.972	23522
502.046	16676
502.119	9130
502.193	14146
502.266	24246
502.340	15237
502.413	15365
502.487	21365
502.561	14624
502.634	10579
502.708	10059
502.781	9379
502.855	10388
502.928	8502
503.002	9528
503.075	8500
503.149	9435
503.222	10524
503.295	10070
503.369	11075
503.442	12317
503.516	21487
503.589	39697
503.662	30209
503.736	21583
503.809	31760
503.882	37010
503.956	56865
504.029	99265
504.102	247037
504.175	361363
504.249	147192
504.322	54102
504.395	30789
504.468	22165
504.542	16577
504.615	12697
504.688	12006
504.761	9875
504.834	11726
504.907	10914
504.980	12454
505.053	10063
505.127	8539
505.200	12448
505.273	9730
505.346	8830
505.419	7547
505.492	8793
505.565	7128
505.638	7983
505.711	6921
505.784	6406
505.857	6957
505.930	8371
506.003	6620
506.076	9071
506.149	6767
506.221	6878
506.294	9605
506.367	11126
506.440	28345
506.513	16786
506.586	7907
506.659	6545
506.731	7107
506.804	7806
506.877	6343
506.950	7879
507.022	7331
507.095	6769
507.168	8092
507.241	7912
507.313	6862
507.386	6162
507.459	8706
507.531	6346
507.604	6340
507.677	7506
507.749	5930
507.822	9012
507.894	12084
507.967	15963
508.040	10975
508.112	10621
508.185	10025
508.257	9072
508.330	11519
508.402	9629
508.475	8222
508.547	10112
508.620	9837
508.692	9716
508.765	9353
508.837	8031
508.909	8739
508.982	8220
509.054	9406
509.127	8832
509.199	8650
509.271	7844
509.344	7336
509.416	8230
509.488	7976
509.560	8805
509.633	7993
509.705	8513
509.777	8626
509.849	9895
509.922	7852
509.994	7930
510.066	9536
510.138	8201
510.210	16526
510.283	14686
510.355	11333
510.427	11066
510.499	10963
510.571	9737
510.643	10101
510.715	13005
510.787	9850
510.859	10944
510.931	10672
511.003	11912
511.076	11706
511.148	9647
511.219	10049
511.291	11827
511.363	10837
511.435	9122
511.507	8799
511.579	9972
511.651	9275
511.723	9053
511.795	8082
511.867	8570
511.939	9830
512.010	10404
512.082	10513
512.154	7952
512.226	10247
512.298	12836
512.369	14213
512.441	13139
512.513	11493
512.585	9182
512.656	10334
512.728	10455
512.800	9197
512.871	10047
512.943	10518
513.015	9325
513.086	9348
513.158	9769
513.230	8543
513.301	10084
513.373	10472
513.444	10143
513.516	9353
513.588	8832
513.659	9721
513.731	9392
513.802	8015
513.874	12301
513.945	13795
514.016	8454
514.088	9157
514.159	8981
514.231	11065
514.302	12796
514.374	12079
514.445	9189
514.516	15341
514.588	11262
514.659	9155
514.730	11575
514.802	11216
514.873	8596
514.944	11835
515.016	11078
515.087	9689
515.158	10668
515.229	13548
515.301	8619
515.372	9987
515.443	9256
515.514	9275
515.585	8507
515.656	10552
515.728	10112
515.799	8345
515.870	9731
515.941	9810
516.012	9138
516.083	12803
516.154	12027
516.225	12466
516.296	11214
516.367	10768
516.438	10047
516.509	11936
516.580	13688
516.651	23001
516.722	54693
516.793	31404
516.864	13100
516.935	13645
517.006	13084
517.077	14906
517.148	25436
517.219	52836
517.289	76849
517.360	35584
517.431	17797
517.502	11686
517.573	13295
517.643	11732
517.714	12315
517.785	13136
517.856	12819
517.926	15387
517.997	15345
518.068	15904
518.138	20122
518.209	22540
518.280	47063
518.350	127628
518.421	62403
518.492	32002
518.562	38980
518.633	50070
518.703	79565
518.774	179446
518.845	434575
518.915	403666
518.986	121285
519.056	53259
519.127	37777
519.197	33361
519.268	43481
519.338	30393
519.408	18339
519.479	16502
519.549	12915
519.620	14179
519.690	12343
519.760	11273
519.831	11389
519.901	10626
519.971	10465
520.042	10741
520.112	10966
520.182	13253
520.253	11875
520.323	10150
520.393	10903
520.463	14885
520.534	9061
520.604	15862
520.674	11759
520.744	11356
520.814	12754
520.885	14278
520.955	16300
521.025	37135
521.095	18418
521.165	11372
521.235	10081
521.305	9108
521.375	8886
521.445	9873
521.515	9876
521.585	11858
521.655	9662
521.725	10554
521.795	10156
521.865	7828
521.935	12348
522.005	9188
522.075	9147
522.145	11397
522.215	10488
522.285	11757
522.355	11218
522.424	13977
522.494	13818
522.564	12137
522.634	14152
522.704	28234
522.774	14732
522.843	10804
522.913	11142
522.983	10684
523.053	9486
523.122	10920
523.192	10133
523.262	15558
523.331	15070
523.401	9980
523.471	9168
523.540	10416
523.610	8177
523.680	9837
523.749	11178
523.819	12908
523.888	12351
523.958	9807
524.027	10791
524.097	10875
524.166	10417
524.236	9368
524.305	11805
524.375	10166
524.444	9160
524.514	11932
524.583	10972
524.653	10642
524.722	12003
524.791	9870
524.861	11902
524.930	10465
524.999	10244
525.069	12262
525.138	11639
525.207	11667
525.277	12708
525.346	13623
525.415	15232
525.484	15311
525.554	18409
525.623	22858
525.692	29714
525.761	30743
525.830	35402
525.900	46335
525.969	73998
526.038	144145
526.107	293328
526.176	786620
526.245	606437
526.314	191056
526.383	401346
526.452	537382
526.522	717346
526.591	642268
526.660	122204
526.729	69969
526.797	75490
526.867	121600
526.935	355255
527.004	1030425
527.073	648110
527.142	102332
527.211	44319
527.280	30730
527.349	24888
527.418	18513
527.487	17731
527.555	14377
527.624	13215
527.693	12076
527.762	13862
527.831	12352
527.899	12714
527.968	11543
528.037	10916
528.106	12406
528.174	12898
528.243	11913
528.312	12210
528.380	13162
528.449	9294
528.518	12239
528.586	9800
528.655	12831
528.723	9708
528.792	10100
528.861	10266
528.929	9828
528.998	12067
529.066	13705
529.135	17926
529.203	18505
529.272	21105
529.340	27839
529.409	25496
529.477	22635
529.545	22164
529.614	27180
529.682	26573
529.751	29957
529.819	33576
529.887	36202
529.956	33285
530.024	32077
530.092	29644
530.161	30095
530.229	31201
530.297	32482
530.365	32829
530.434	34344
530.502	35757
530.570	32671
530.638	27618
530.707	27900
530.775	27970
530.843	26699
530.911	30189
530.979	29582
531.047	33723
531.115	33020
531.183	29330
531.252	28551
531.320	27348
531.388	27647
531.456	31262
531.524	31305
531.592	35186
531.660	38588
531.728	34518
531.796	32326
531.864	32990
531.932	32139
532.000	33703
532.067	35198
532.135	37182
532.203	40215
532.271	40967
532.339	43507
532.407	45121
532.475	41242
532.542	38342
532.610	37923
532.678	41288
532.746	59412
532.814	86358
532.881	49205
532.949	41485
533.017	38723
533.084	36545
533.152	34882
533.220	34865
533.287	34848
533.355	37088
533.423	37135
533.490	38145
533.558	37750
533.625	36497
533.693	34866
533.761	35577
533.828	33659
533.896	34216
533.963	39063
534.031	39493
534.098	44598
534.166	44142
534.233	40310
534.300	42329
534.368	42289
534.435	39779
534.503	41599
534.570	43412
534.637	46521
534.705	50088
534.772	59823
534.840	98412
534.907	349082
534.974	416845
535.041	72696
535.109	41230
535.176	36319
535.243	36927
535.310	36474
535.378	35534
535.445	33860
535.512	33924
535.579	32300
535.646	30819
535.714	32967
535.781	34735
535.848	35343
535.915	35739
535.982	33762
536.049	34029
536.116	34182
536.183	31257
536.250	29499
536.317	30273
536.384	31068
536.451	31628
536.518	33664
536.585	31106
536.652	34056
536.719	34133
536.786	29728
536.853	30191
536.920	31855
536.987	33316
537.053	31728
537.120	52921
537.187	48357
537.254	32643
537.321	32038
537.388	32826
537.454	30699
537.521	29052
537.588	30235
537.654	30711
537.721	33056
537.788	32211
537.855	29985
537.921	30987
537.988	30555
538.055	29666
538.121	26796
538.188	27727
538.254	26436
538.321	27903
538.388	28290
538.454	32370
538.521	32225
538.587	31332
538.654	30645
538.720	30253
538.787	29797
538.853	29617
538.920	27766
538.986	26926
539.053	26923
539.119	27874
539.185	27860
539.252	29522
539.318	30394
539.385	33403
539.451	30972
539.517	30961
539.583	30699
539.650	34320
539.716	42900
539.782	29309
539.849	25541
539.915	28932
539.981	27184
540.047	27142
540.114	27849
540.180	29286
540.246	29275
540.312	31148
540.378	30695
540.444	31909
540.510	33510
540.576	45362
540.643	30988
540.709	27825
540.775	27746
540.841	27801
540.907	27398
540.973	29625
541.039	28490
541.105	29232
541.171	29791
541.237	29472
541.303	29771
541.369	31560
541.435	30273
541.500	30911
541.566	26229
541.632	25728
541.698	26803
541.764	29135
541.830	27961
541.896	27286
541.961	27156
542.027	26787
542.093	30441
542.159	31077
542.224	27480
542.290	30453
542.356	29247
542.421	29805
542.487	26819
542.553	25570
542.618	27082
542.684	27522
542.750	27901
542.815	29547
542.881	29511
542.947	42852
543.012	38485
543.078	27419
543.143	26630
543.209	26970
543.274	26421
543.340	27369
543.405	31821
543.471	35362
543.536	29311
543.602	28983
543.667	26627
543.732	29692
543.798	28308
543.863	30649
543.928	28242
543.994	28375
544.059	29015
544.124	29539
544.190	29089
544.255	30865
544.320	31049
544.386	29961
544.451	33126
544.516	31036
544.581	32858
544.646	39533
544.712	45516
544.777	33105
544.842	32329
544.907	32473
544.972	32708
545.037	33614
545.102	34629
545.168	34627
545.233	34377
545.298	35994
545.363	36124
545.428	38245
545.493	40722
545.558	46893
545.623	38946
545.688	36884
545.753	38200
545.818	39574
545.883	42591
545.947	43447
546.012	44309
546.077	44707
546.142	48612
546.207	49183
546.272	51702
546.337	53417
546.401	55431
546.466	56499
546.531	58672
546.596	63249
546.661	65597
546.725	68061
546.790	71399
546.855	78322
546.919	86072
546.984	95127
547.049	103757
547.113	116874
547.178	129185
547.243	143812
547.307	167559
547.372	185927
547.436	184957
547.501	197104
547.565	210799
547.630	193020
547.695	185395
547.759	186557
547.823	189518
547.888	193023
547.952	198605
548.017	205646
548.081	217528
548.146	210631
548.210	213578
548.274	230347
548.339	225855
548.403	204188
548.468	194147
548.532	193740
548.596	196264
548.660	198023
548.725	215855
548.789	231892
548.853	228057
548.917	217325
548.982	211508
549.046	190535
549.110	173417
549.174	178580
549.238	206694
549.303	227570
549.367	233558
549.431	221948
549.495	208415
549.559	208074
549.623	240900
549.687	265525
549.751	257938
549.815	304406
549.879	312384
549.943	299723
550.007	311276
550.071	310200
550.135	280157
550.199	266140
550.263	263100
550.327	246316
550.391	254748
550.455	283766
550.519	295454
550.582	313404
550.646	352847
550.710	354121
550.774	349184
550.838	353978
550.901	362897
550.965	381676
551.029	393784
551.093	419866
551.156	450192
551.220	481226
551.284	504195
551.347	422035
551.411	384096
551.475	371166
551.538	379654
551.602	360856
551.666	340288
551.729	324731
551.793	316270
551.856	312028
551.920	306808
551.983	305660
552.047	303581
552.110	309533
552.174	309274
552.237	316987
552.301	295378
552.364	283912
552.428	275948
552.491	282123
552.554	289598
552.618	284666
552.681	292071
552.745	280535
552.808	289510
552.871	300475
552.934	295737
552.998	289684
553.061	283286
553.124	274523
553.187	272042
553.251	281074
553.314	281917
553.377	285260
553.440	302219
553.503	329719
553.567	343568
553.630	308602
553.693	304201
553.756	306412
553.819	302451
553.882	294143
553.945	295194
554.008	296840
554.071	298774
554.134	301213
554.197	288006
554.260	282342
554.323	284256
554.386	287576
554.449	296265
554.512	298830
554.575	286602
554.638	281150
554.701	282172
554.764	280186
554.827	272383
554.889	263050
554.952	247244
555.015	243387
555.078	245292
555.141	247470
555.203	245175
555.266	246088
555.329	244436
555.391	233535
555.454	233825
555.517	222263
555.580	213202
555.642	207084
555.705	206105
555.768	203348
555.830	197429
555.893	187662
555.955	184448
556.018	180569
556.080	180506
556.143	184790
556.206	184029
556.268	178960
556.330	175224
556.393	168926
556.455	166124
556.518	164464
556.580	158082
556.643	151570
556.705	147654
556.767	144986
556.830	142739
556.892	141527
556.955	140185
557.017	136385
557.079	134404
557.142	130704
557.204	128381
557.266	126813
557.328	121384
557.391	114084
557.453	111006
557.515	110230
557.577	111236
557.639	112398
557.701	110086
557.764	108897
557.826	110020
557.888	111742
557.950	114650
558.012	123818
558.074	150798
558.136	273276
558.198	547115
558.260	228643
558.322	114497
558.384	114672
558.446	115137
558.508	120065
558.570	132614
558.632	148891
558.694	188420
558.756	292837
558.818	678205
558.880	1251284
558.942	605694
559.003	585650
559.065	299938
559.127	136991
559.189	130096
559.251	144942
559.312	196975
559.374	399518
559.436	973318
559.498	533476
559.559	157325
559.621	127375
559.683	146689
559.744	223167
559.806	570120
559.868	772526
559.929	216646
559.991	146068
560.052	216649
560.114	529081
560.176	357222
560.237	320452
560.299	476853
560.360	129859
560.422	64974
560.483	57375
560.545	53764
560.606	52558
560.667	51708
560.729	49322
560.790	47488
560.852	47195
560.913	46643
560.974	44547
561.036	44133
561.097	43704
561.158	43089
561.220	43287
561.281	42125
561.342	40180
561.403	41479
561.465	40775
561.526	43362
561.587	44517
561.648	37766
561.709	37945
561.771	37518
561.832	37464
561.893	36441
561.954	36086
562.015	35383
562.076	34582
562.137	34170
562.198	35243
562.259	35031
562.320	35299
562.381	34860
562.442	35109
562.503	33312
562.564	32670
562.625	31323
562.686	32027
562.747	32354
562.808	32024
562.869	31234
562.930	32592
562.991	31085
563.051	30671
563.112	30481
563.173	30370
563.234	29900
563.294	29840
563.355	29023
563.416	29423
563.477	29418
563.537	29340
563.598	29387
563.659	28705
563.720	28713
563.780	28248
563.841	29831
563.901	28216
563.962	27610
564.023	28257
564.083	27696
564.144	28019
564.204	28081
564.265	28008
564.325	27787
564.386	29511
564.446	28961
564.507	26695
564.567	26691
564.628	26321
564.688	26769
564.749	25997
564.809	26818
564.869	27925
564.930	27458
564.990	26619
565.050	25363
565.111	26779
565.171	25854
565.231	25487
565.292	26890
565.352	25644
565.412	26018
565.472	26781
565.532	25872
565.593	25886
565.653	25908
565.713	26014
565.773	27143
565.833	27006
565.893	27502
565.953	25316
566.013	25092
566.074	25208
566.134	24659
566.194	26132
566.254	26991
566.314	25667
566.374	24778
566.434	24805
566.494	25503
566.554	24686
566.614	25145
566.673	26100
566.733	26571
566.793	26087
566.853	25588
566.913	26322
566.973	25403
567.033	26718
567.092	26291
567.152	25588
567.212	27416
567.272	25837
567.331	27030
567.391	27060
567.451	27841
567.511	28246
567.570	27721
567.630	26786
567.690	26700
567.749	25012
567.809	25712
567.868	25936
567.928	25234
567.988	25969
568.047	26567
568.107	26256
568.166	26422
568.226	27091
568.285	28368
568.345	28244
568.404	28353
568.464	27019
568.523	26088
568.582	27962
568.642	28314
568.701	26860
568.761	26792
568.820	28674
568.879	28499
568.939	28307
568.998	27534
569.057	26205
569.116	26636
569.176	25562
569.235	26526
569.294	25095
569.353	25401
569.413	25454
569.472	24783
569.531	24666
569.590	24778
569.649	24286
569.708	24420
569.767	25225
569.827	24666
569.886	24027
569.945	25097
570.004	25186
570.063	25202
570.122	25402
570.181	25791
570.240	26067
570.299	25982
570.358	26582
570.417	26689
570.475	26764
570.534	26379
570.593	26407
570.652	26507
570.711	26396
570.770	26524
570.829	24893
570.887	25382
570.946	25899
571.005	26360
571.064	26657
571.122	25758
571.181	25499
571.240	25244
571.299	25146
571.357	25289
571.416	24415
571.475	25753
571.533	25991
571.592	27368
571.650	26787
571.709	27552
571.768	29138
571.826	29777
571.885	27982
571.943	27947
572.002	26713
572.060	25447
572.119	25712
572.177	24814
572.236	25413
572.294	25477
572.352	27141
572.411	26757
572.469	26133
572.528	24475
572.586	25720
572.644	25420
572.703	25351
572.761	23877
572.819	24124
572.877	23265
572.936	23386
572.994	23021
573.052	23268
573.110	23228
573.169	24756
573.227	24739
573.285	24236
573.343	24307
573.401	23393
573.459	24971
573.517	24240
573.576	24505
573.634	24865
573.692	23610
573.750	24464
573.808	23914
573.866	22587
573.924	23407
573.982	23056
574.040	23763
574.098	23366
574.155	22760
574.213	22421
574.271	22815
574.329	24397
574.387	22890
574.445	21117
574.503	21373
574.560	20652
574.618	20971
574.676	20684
574.734	21381
574.792	20427
574.849	19980
574.907	19190
574.965	19044
575.022	19351
575.080	18765
575.138	19473
575.195	18005
575.253	17626
575.311	19068
575.368	18945
575.426	18132
575.483	19296
575.541	19503
575.598	18707
575.656	18589
575.713	19390
575.771	20172
575.828	19664
575.886	18522
575.943	17793
576.001	17111
576.058	17602
576.115	18128
576.173	18253
576.230	19097
576.287	19313
576.345	18245
576.402	19289
576.459	18294
576.517	17511
576.574	18007
576.631	18306
576.688	18144
576.746	17306
576.803	17672
576.860	17425
576.917	17829
576.974	16835
577.031	18453
577.089	17261
577.146	17028
577.203	16513
577.260	16281
577.317	15750
577.374	17227
577.431	16814
577.488	16795
577.545	16053
577.602	16406
577.659	16636
577.716	17713
577.773	17956
577.830	16310
577.886	17028
577.943	15725
578.000	16557
578.057	16978
578.114	17251
578.171	17809
578.227	19607
578.284	19674
578.341	18254
578.398	17469
578.454	17238
578.511	16760
578.568	17992
578.625	17032
578.681	17423
578.738	17331
578.794	16636
578.851	16988
578.908	17759
578.964	17498
579.021	17076
579.077	16530
579.134	17583
579.190	16833
579.247	16883
579.303	16600
579.360	16610
579.416	16566
579.473	17567
579.529	16449
579.586	16951
579.642	17622
579.698	17278
579.755	16932
579.811	19313
579.867	18550
579.924	18347
579.980	18623
580.036	20276
580.093	20819
580.149	24660
580.205	25164
580.261	21976
580.317	20781
580.374	20817
580.430	20915
580.486	20625
580.542	19897
580.598	20183
580.619	20213
580.654	20277
580.692	19687
580.710	19413
580.765	20075
580.767	20104
580.823	21381
580.838	21476
580.879	21771
580.911	21028
580.935	20498
580.984	20577
580.991	20597
581.047	21765
581.057	21685
581.103	21331
581.130	21636
581.159	21987
581.203	22278
581.215	22348
581.270	22030
581.276	21859
581.326	20351
581.349	20548
581.382	20807
581.422	21494
581.438	21805
581.494	21590
581.494	21587
581.550	21295
581.567	21673
581.606	22478
581.640	21659
581.661	21189
581.713	22713
581.717	22832
581.773	22281
581.786	22305
581.829	22455
581.859	23047
581.885	23504
581.932	23197
581.940	23144
581.996	23368
582.004	23435
582.052	23778
582.077	23876
582.107	23963
582.150	24064
582.163	24091
582.219	23209
582.223	23200
582.274	22990
582.296	23141
582.330	23572
582.368	24126
582.386	24335
582.441	25488
582.441	25485
582.497	25393
582.514	25505
582.552	25726
582.587	25866
582.608	26039
582.659	26625
582.663	26651
582.719	28015
582.732	27959
582.774	27855
582.805	28155
582.830	28523
582.877	29490
582.885	29651
582.941	31962
582.950	32300
582.996	34408
583.023	35510
583.052	36552
583.095	38035
583.107	38292
583.162	37729
583.168	37693
583.218	36846
583.240	35668
583.273	33901
583.313	32537
583.328	32153
583.384	31448
583.385	31419
583.439	30319
583.458	30229
583.494	30196
583.531	29367
583.549	29059
583.603	29650
583.605	29666
583.660	29656
583.676	29670
583.715	29918
583.748	30174
583.770	30201
583.820	30077
583.825	30122
583.881	30468
583.893	30416
583.936	29907
583.965	30055
583.991	30254
584.038	30809
584.046	30925
584.101	31718
584.110	31705
584.156	31889
584.183	32360
584.211	32712
584.255	32713
584.266	32823
584.321	33456
584.328	33582
584.376	34551
584.400	34669
584.431	34855
584.472	35529
584.486	35853
584.541	36346
584.545	36423
584.596	37925
584.617	38136
584.651	38499
584.689	39393
584.706	39846
584.761	40907
584.762	40894
584.816	42247
584.834	42561
584.871	43147
584.906	44201
584.926	44838
584.978	45679
584.980	45766
585.035	48694
585.051	49585
585.090	52452
585.123	54401
585.145	55741
585.195	59539
585.200	60053
585.254	66245
585.267	67980
585.309	74709
585.340	80129
585.364	85228
585.412	99004
585.419	101400
585.473	122241
585.484	128182
585.528	163515
585.556	195506
585.583	256495
585.628	393654
585.637	443955
585.692	836726
585.700	902085
585.747	1153349
585.772	1074196
585.801	766935
585.845	358940
585.856	300148
585.910	153172
585.917	138509
585.965	106232
585.989	93354
586.019	85760
586.061	77233
586.074	75569
586.128	70248
586.133	69707
586.183	65910
586.205	64407
586.237	63242
586.277	61470
586.292	61032
586.346	60042
586.349	59882
586.401	58646
586.421	58393
586.455	58487
586.493	57933
586.509	58447
586.564	60484
586.565	60491
586.618	66356
586.637	67712
586.672	70639
586.709	74235
586.727	76783
586.781	84620
586.781	84729
586.835	73155
586.853	69717
586.889	63503
586.925	58863
586.944	58199
586.996	56849
586.998	56928
587.052	56084
587.068	55950
587.106	56815
587.140	57045
587.161	56974
587.212	56722
587.215	56872
587.269	58312
587.284	58484
587.323	59363
587.356	60102
587.377	60749
587.427	62313
587.431	62558
587.485	63612
587.499	63757
587.539	64622
587.571	65679
587.593	67215
587.643	69555
587.648	69743
587.702	70610
587.715	70566
587.755	71389
587.786	72035
587.810	72687
587.858	73048
587.864	73232
587.917	74288
587.930	74283
587.971	75425
588.001	76082
588.025	76567
588.073	76693
588.079	76949
588.133	78118
588.145	78199
588.187	79309
588.217	80203
588.241	82727
588.288	87148
588.295	87628
588.348	89483
588.360	89889
588.402	94426
588.431	96974
588.456	99411
588.503	104241
588.510	105739
588.564	116500
588.575	118662
588.617	128178
588.646	134591
588.671	143162
588.718	160816
588.725	166612
588.778	213898
588.789	224492
588.832	331633
588.861	410751
588.886	540980
588.932	808614
588.939	829751
588.993	950768
589.004	952466
589.047	667458
589.075	481873
589.100	379529
589.147	216377
589.154	210666
589.207	170119
589.218	161881
589.261	156811
589.290	154154
589.314	159456
589.361	170614
589.368	177501
589.421	235796
589.433	249222
589.475	395942
589.504	506536
589.528	626331
589.576	862087
589.582	844312
589.635	580848
589.647	523026
589.689	317825
589.718	187572
589.742	166556
589.790	127003
589.795	125920
589.849	114421
589.861	111505
589.902	108924
589.932	106600
589.955	103937
590.004	96778
590.009	96791
590.062	95193
590.075	94384
590.115	93018
590.146	91801
590.168	91971
590.218	91012
590.222	91386
590.275	93630
590.289	93904
590.328	94964
590.360	95131
590.381	95102
590.431	94209
590.435	94609
590.488	96965
590.503	97256
590.541	98164
590.574	98665
590.594	99597
590.645	100871
590.647	101257
590.700	103517
590.716	104036
590.753	107390
590.787	109478
590.806	110330
590.859	111730
590.859	112097
590.912	113945
590.930	114195
590.965	115680
591.001	116534
591.018	116503
591.071	115024
591.072	114658
591.124	113805
591.143	113012
591.177	114812
591.214	116130
591.230	116971
591.283	118631
591.285	118319
591.336	117779
591.356	117111
591.389	117153
591.427	116276
591.442	116605
591.495	116424
591.498	116058
591.547	117897
591.569	118217
591.600	119743
591.640	120792
591.653	121556
591.706	123090
591.711	122871
591.759	125601
591.782	126368
591.811	130322
591.853	135343
591.864	135579
591.917	134133
591.924	133497
591.969	133873
591.995	133435
592.022	134926
592.066	136289
592.075	137426
592.127	141623
592.137	141939
592.180	145211
592.208	146573
592.233	147729
592.279	148428
592.285	149319
592.338	152681
592.350	152935
592.390	153256
592.421	152546
592.443	154140
592.491	156061
592.495	156713
592.548	158425
592.562	158365
592.600	159523
592.633	159529
592.653	160026
592.704	159011
592.705	160009
592.775	164076
592.846	168352
592.916	171676
592.987	171279
593.058	173585
593.128	175569
593.199	175679
593.270	176721
593.341	180395
593.411	184582
593.482	192754
593.553	195043
593.623	197288
593.694	203820
593.764	207688
593.835	205874
593.906	207122
593.976	212247
594.047	218464
594.117	229269
594.188	236904
594.258	231506
594.329	231752
594.399	239038
594.470	246115
594.540	251067
594.611	256282
594.681	257625
594.751	256539
594.822	264058
594.892	276069
594.963	283377
595.033	289856
595.103	297100
595.174	300695
595.244	308094
595.314	321572
595.384	323654
595.455	330391
595.525	341753
595.595	353759
595.665	354441
595.736	343922
595.806	352904
595.876	361254
595.946	357648
596.016	374914
596.087	389779
596.157	386965
596.227	390960
596.297	408081
596.367	433506
596.437	455083
596.507	457008
596.577	456159
596.647	468845
596.717	489953
596.787	498048
596.857	499337
596.927	502307
596.997	505360
597.067	509309
597.137	521428
597.207	525628
597.277	529370
597.347	508003
597.417	494106
597.487	494756
597.557	506509
597.626	516829
597.696	525086
597.766	524692
597.836	499905
597.906	474365
597.975	467064
598.045	477557
598.115	490948
598.185	524254
598.254	577122
598.324	623321
598.394	637513
598.464	621618
598.533	612227
598.603	579728
598.672	564112
598.742	575100
598.812	576596
598.881	596375
598.951	591177
599.020	602252
599.090	617659
599.159	635731
599.229	610759
599.299	602057
599.368	621537
599.437	617995
599.507	578347
599.576	562042
599.646	559858
599.715	556934
599.785	551726
599.854	538429
599.924	536936
599.993	534876
600.062	548059
600.132	560943
600.201	587547
600.270	660747
600.340	698833
600.409	687979
600.478	686792
600.547	705128
600.617	661005
600.686	559238
600.755	522630
600.824	507280
600.894	500965
600.963	505604
601.032	505059
601.101	500255
601.170	487700
601.239	482603
601.308	484369
601.378	491781
601.447	494883
601.516	502042
601.585	507157
601.654	521681
601.723	525166
601.792	540948
601.861	557591
601.930	580476
601.999	593920
602.068	587029
602.137	592549
602.206	599996
602.275	606749
602.343	608577
602.412	613486
602.481	622376
602.550	623028
602.619	640332
602.688	640823
602.756	648352
602.825	647703
602.894	666321
602.963	663887
603.032	678337
603.100	678853
603.169	667824
603.238	688209
603.307	674085
603.375	678405
603.444	700076
603.513	680543
603.581	693718
603.650	721736
603.719	663012
603.787	656543
603.856	668240
603.924	684355
603.993	702979
604.061	725586
604.130	747508
604.198	764824
604.267	772510
604.335	788952
604.404	792474
604.472	809624
604.541	812342
604.609	825729
604.678	837621
604.746	843367
604.815	875112
604.883	868964
604.951	853231
605.020	871805
605.088	862793
605.156	852019
605.225	861833
605.293	859880
605.361	862936
605.429	862096
605.498	881406
605.566	889237
605.634	920613
605.702	941640
605.771	962840
605.839	973809
605.907	942324
605.975	933883
606.043	908794
606.111	901074
606.180	925251
606.248	892734
606.316	879307
606.384	904078
606.452	851944
606.520	823646
606.588	846879
606.656	853129
606.724	839252
606.792	799322
606.860	733599
606.928	674958
606.996	650074
607.064	635526
607.132	654173
607.200	688263
607.267	713505
607.335	720209
607.403	737626
607.471	718848
607.539	690065
607.607	702295
607.674	628696
607.742	622489
607.810	618635
607.878	621032
607.946	629148
608.013	656952
608.081	667635
608.149	672598
608.216	695224
608.284	712794
608.352	711888
608.419	706779
608.487	692368
608.555	680476
608.622	697323
608.690	734504
608.757	797771
608.825	816611
608.893	798083
608.960	758738
609.028	722016
609.095	721078
609.163	722996
609.230	658535
609.298	597244
609.365	628933
609.432	673993
609.500	722842
609.567	818603
609.635	918099
609.702	965392
609.769	926806
609.837	747074
609.904	647534
609.971	656682
610.039	699467
610.106	813738
610.173	1209453
610.241	2124981
610.308	1666215
610.375	883775
610.442	727060
610.509	682101
610.577	681420
610.644	684434
610.711	706572
610.778	719740
610.845	743968
610.912	787134
610.980	818459
611.047	822242
611.114	807921
611.181	780748
611.248	781904
611.315	812777
611.382	838715
611.449	862556
611.516	873986
611.583	863524
611.650	870860
611.717	876754
611.784	891208
611.851	912626
611.918	940204
611.984	1040788
612.051	1246474
612.118	1778786
612.185	2840172
612.252	2465188
612.319	1381501
612.386	1146064
612.452	1043540
612.519	989240
612.586	963924
612.653	974083
612.719	1002137
612.786	971218
612.853	912014
612.919	889770
612.986	904676
613.053	862411
613.120	815163
613.186	786370
613.253	790837
613.319	790496
613.386	796493
613.453	807872
613.519	815507
613.586	794798
613.652	806815
613.719	797102
613.785	815280
613.852	819444
613.918	816557
613.985	819649
614.051	851693
614.118	849665
614.184	823904
614.250	813042
614.317	831336
614.383	821751
614.449	837259
614.516	828485
614.582	831790
614.648	819264
614.715	813161
614.781	795847
614.847	796994
614.914	794649
614.980	774334
615.046	774079
615.112	797900
615.179	800159
615.245	811843
615.311	797869
615.377	809438
615.443	818033
615.509	823700
615.575	845308
615.642	845626
615.708	854887
615.774	884068
615.840	922181
615.906	955486
615.972	1058581
616.038	1331244
616.104	2026921
616.170	3029485
616.236	2898893
616.302	1752459
616.368	1412164
616.434	1118630
616.500	1006263
616.565	1051768
616.631	1254083
616.697	1133219
616.763	1095259
616.829	1392038
616.895	2121692
616.961	2175592
617.026	1301128
617.092	945768
617.158	872407
617.224	842551
617.289	786771
617.355	751108
617.421	742993
617.487	741150
617.552	705315
617.618	702267
617.684	701641
617.749	702931
617.815	677557
617.880	663808
617.946	662058
618.012	678623
618.077	690027
618.143	664343
618.208	663087
618.274	709926
618.339	717891
618.405	610276
618.470	602718
618.536	606733
618.601	597349
618.667	562572
618.732	535477
618.798	527868
618.863	526564
618.928	521782
618.994	526185
619.059	519409
619.124	529763
619.190	524201
619.255	521276
619.320	519608
619.386	520821
619.451	520965
619.516	502535
619.581	512354
619.647	528930
619.712	531618
619.777	506750
619.842	508322
619.907	519400
619.972	531933
620.038	525545
620.103	509113
620.168	514476
620.233	517612
620.298	521584
620.363	526350
620.428	539347
620.493	551232
620.558	556977
620.623	564089
620.688	565875
620.753	557370
620.818	571604
620.883	570510
620.948	566645
621.013	565832
621.078	557013
621.143	563604
621.207	567394
621.272	563313
621.337	543066
621.402	539984
621.467	537673
621.532	533542
621.596	540217
621.661	526158
621.726	518831
621.791	525983
621.855	526925
621.920	520297
621.985	532637
622.049	538841
622.114	541313
622.179	545758
622.243	554861
622.308	573556
622.373	584763
622.437	581433
622.502	555587
622.566	548218
622.631	545942
622.695	553199
622.760	549572
622.824	550875
622.889	552038
622.953	552913
623.018	577315
623.082	589814
623.147	581175
623.211	571599
623.276	569295
623.340	553419
623.404	537248
623.469	537745
623.533	545372
623.597	533232
623.662	528446
623.726	499814
623.790	472563
623.854	457741
623.919	466409
623.983	468974
624.047	478027
624.111	480693
624.176	486428
624.240	492622
624.304	505519
624.368	488480
624.432	485786
624.496	494855
624.560	515918
624.625	528403
624.689	518793
624.753	542601
624.817	519463
624.881	508711
624.945	464843
625.009	449103
625.073	456977
625.137	469137
625.201	488367
625.265	491742
625.329	469337
625.393	473206
625.456	476172
625.520	487779
625.584	498020
625.648	508612
625.712	523830
625.776	530813
625.839	510376
625.903	432551
625.967	399192
626.031	421502
626.095	495926
626.158	465072
626.222	373336
626.286	346855
626.349	337178
626.413	317113
626.477	312178
626.540	317529
626.604	313280
626.668	308684
626.731	304118
626.795	305206
626.858	306382
626.922	302199
626.986	296460
627.049	297843
627.113	310297
627.176	302126
627.240	290658
627.303	290068
627.366	286247
627.430	293257
627.493	289613
627.557	286143
627.620	288352
627.684	300708
627.747	301810
627.810	282346
627.874	255583
627.937	246524
628.000	253775
628.064	248385
628.127	223943
628.190	219427
628.253	213586
628.317	207106
628.380	196982
628.443	192262
628.506	193580
628.569	183053
628.632	176403
628.696	176014
628.759	175679
628.822	168100
628.885	164707
628.948	162721
629.011	161285
629.074	156390
629.137	151869
629.200	149871
629.263	145363
629.326	143209
629.389	146003
629.452	145451
629.515	141959
629.578	141539
629.641	141793
629.704	144210
629.767	140409
629.830	136137
629.892	133746
629.955	134038
630.018	136145
630.081	133921
630.144	134596
630.207	132072
630.269	133285
630.332	128425
630.395	128945
630.458	124720
630.520	122590
630.583	122517
630.646	123995
630.708	124807
630.771	126744
630.834	132635
630.896	131198
630.959	129121
631.021	127426
631.084	126540
631.146	127640
631.209	128807
631.272	128822
631.334	129128
631.397	131158
631.459	130490
631.522	134576
631.584	137882
631.646	144170
631.709	147900
631.771	147299
631.834	143914
631.896	137113
631.958	130541
632.021	129305
632.083	124200
632.145	125511
632.208	121705
632.270	122875
632.332	122080
632.395	121449
632.457	122635
632.519	119593
632.581	118916
632.643	117782
632.706	118239
632.768	115563
632.830	119055
632.892	121256
632.954	121077
633.016	124148
633.078	120769
633.141	120347
633.203	120077
633.265	119691
633.327	117991
633.389	118991
633.451	121642
633.513	120034
633.575	121801
633.637	121151
633.698	123918
633.760	128876
633.822	131697
633.884	134799
633.946	136300
634.008	138539
634.070	142023
634.132	148399
634.193	157156
634.255	165829
634.317	168131
634.379	167813
634.441	154990
634.502	144652
634.564	134210
634.626	126756
634.687	121055
634.749	117166
634.811	116000
634.873	114593
634.934	115579
634.996	115147
635.057	115741
635.119	118345
635.181	119325
635.242	120071
635.304	116041
635.365	123498
635.427	118995
635.488	119027
635.550	117774
635.611	117372
635.673	119071
635.734	125495
635.796	129658
635.857	140185
635.918	144952
635.980	156528
636.041	163838
636.102	172830
636.164	174655
636.225	167780
636.286	150886
636.348	137771
636.409	128549
636.470	123450
636.531	119139
636.593	116624
636.654	113107
636.715	109575
636.776	108865
636.838	106192
636.899	104443
636.960	104609
637.021	103341
637.082	101179
637.143	100311
637.204	98116
637.265	96908
637.326	100236
637.387	100832
637.448	99890
637.509	99162
637.570	98958
637.631	98129
637.692	95174
637.753	92770
637.814	94316
637.875	93881
637.936	94161
637.997	93860
638.058	93108
638.119	91914
638.179	92877
638.240	92959
638.301	93958
638.362	89718
638.423	89160
638.483	88057
638.544	86341
638.605	88154
638.666	89135
638.726	88921
638.787	88560
638.848	88649
638.908	86768
638.969	83068
639.030	82628
639.090	82715
639.151	83345
639.211	85328
639.272	84161
639.332	86143
639.393	87257
639.453	89784
639.514	93263
639.574	84724
639.635	78938
639.695	79686
639.756	78213
639.816	77178
639.877	76819
639.937	79869
639.997	79442
640.058	76295
640.118	77600
640.178	77687
640.239	77989
640.299	77981
640.359	77829
640.420	82398
640.480	87931
640.540	96831
640.600	100772
640.661	93907
640.721	91957
640.781	99480
640.841	100056
640.901	81846
640.961	79922
641.021	80950
641.082	85025
641.142	79591
641.202	77107
641.262	73411
641.322	74564
641.382	73193
641.442	73783
641.502	73286
641.562	74322
641.622	76170
641.682	80612
641.742	86944
641.802	83784
641.861	75529
641.921	73354
641.981	70191
642.041	68812
642.101	68981
642.161	66921
642.221	68708
642.280	68562
642.340	68627
642.400	70073
642.460	72288
642.519	70545
642.579	70819
642.639	72109
642.698	68885
642.758	75038
642.818	72823
642.877	71801
642.937	72670
642.997	72066
643.056	74295
643.116	71370
643.175	72902
643.235	75306
643.294	77580
643.354	79379
643.414	82584
643.473	90948
643.532	100509
643.592	122427
643.651	167303
643.711	256327
643.770	449891
643.830	924834
643.889	1568769
643.948	694801
644.008	214443
644.067	130123
644.126	102197
644.186	88656
644.245	81635
644.304	75185
644.363	74943
644.423	70728
644.482	70435
644.541	74375
644.600	77621
644.659	86829
644.719	102497
644.778	136548
644.837	205197
644.896	383289
644.955	808812
645.014	357640
645.073	115675
645.132	88479
645.191	80001
645.250	78276
645.309	80000
645.368	86410
645.427	107539
645.486	167159
645.545	289673
645.604	113366
645.663	73504
645.722	71375
645.781	75911
645.840	79474
645.898	88316
645.957	112404
646.016	152903
646.075	240689
646.134	427059
646.192	933110
646.251	1294309
646.310	404321
646.369	151345
646.427	121759
646.486	96320
646.545	78715
646.603	71470
646.662	67643
646.721	63134
646.779	63415
646.838	65620
646.896	75403
646.955	92340
647.014	134176
647.072	233886
647.131	576572
647.189	342378
647.248	82613
647.306	64200
647.365	58951
647.423	53688
647.481	54117
647.540	51011
647.598	52574
647.657	51884
647.715	53458
647.773	50802
647.832	49830
647.890	46970
647.948	47165
648.007	46650
648.065	43993
648.123	44052
648.181	44877
648.240	45102
648.298	44622
648.356	42798
648.414	43244
648.472	43677
648.531	42135
648.589	41691
648.647	41049
648.705	41362
648.763	40929
648.821	42603
648.879	43672
648.937	46080
648.995	52553
649.053	59843
649.111	79490
649.169	117541
649.227	197229
649.285	380105
649.343	916609
649.401	561428
649.459	122977
649.516	73020
649.574	58410
649.632	59336
649.690	66598
649.748	73356
649.806	100615
649.863	172196
649.921	428318
649.979	336206
650.037	66806
650.094	43165
650.152	41354
650.210	37754
650.268	38952
650.325	40942
650.383	46308
650.440	34197
650.498	33162
650.556	31838
650.613	32422
650.671	31158
650.728	32898
650.786	34666
650.843	46040
650.901	38884
650.958	30446
651.016	28917
651.073	28627
651.131	27991
651.188	27728
651.246	27242
651.303	27582
651.360	26828
651.418	26728
651.475	26047
651.532	25123
651.590	26953
651.647	25360
651.704	26312
651.762	25718
651.819	25223
651.876	24387
651.933	24391
651.990	25926
652.048	23393
652.105	23684
652.162	24457
652.219	23562
652.276	23590
652.333	24635
652.390	21784
652.448	24155
652.505	22428
652.562	23635
652.619	23449
652.676	26254
652.733	26862
652.790	23045
652.847	20992
652.904	23029
652.961	20830
653.017	21077
653.074	22554
653.131	21571
653.188	21476
653.245	22115
653.302	22205
653.359	22223
653.415	22020
653.472	20983
653.529	21971
653.586	20988
653.642	21087
653.699	22485
653.756	20136
653.813	20795
653.869	22661
653.926	22490
653.983	20804
654.039	21588
654.096	21743
654.152	21663
654.209	18190
654.266	20583
654.322	18620
654.379	20825
654.435	21648
654.492	21223
654.548	21001
654.605	21855
654.661	22202
654.717	21216
654.774	20635
654.830	20566
654.887	20551
654.943	22540
655.000	24505
655.056	22562
655.112	20319
655.168	20028
655.225	21130
655.281	21351
655.337	19984
655.394	21535
655.450	20409
655.506	20046
655.562	21676
655.618	21107
655.675	18740
655.731	18381
655.787	19011
655.843	20311
655.899	19158
655.955	20779
656.011	19907
656.067	18950
656.123	19734
656.179	19401
656.235	20558
656.291	19685
656.347	20844
656.403	19799
656.459	19733
656.515	19542
656.571	19655
656.627	18613
656.683	19199
656.739	19370
656.795	19470
656.850	19492
656.906	19813
656.962	20973
657.018	21005
657.074	23991
657.129	30130
657.185	45730
657.241	97569
657.297	65894
657.352	22330
657.408	19040
657.464	19215
657.519	18651
657.575	17658
657.630	17581
657.686	18449
657.742	16602
657.797	17279
657.853	17412
657.908	19356
657.964	16681
658.019	17452
658.075	18743
658.130	17380
658.186	16321
658.241	18072
658.297	16644
658.352	16978
658.407	17631
658.463	15355
658.518	16790
658.573	17755
658.629	15661
658.684	15424
658.739	16909
658.795	16573
658.850	16680
658.905	15873
658.960	17100
659.016	16271
659.071	15781
659.126	17083
659.181	16578
659.236	16807
659.291	16919
659.346	17058
659.401	17105
659.457	17662
659.512	17634
659.567	17740
659.622	15573
659.677	16944
659.732	16032
659.787	16173
659.842	15754
659.897	15741
659.952	16414
660.007	16381
660.061	15636
660.116	14765
660.171	14903
660.226	15510
660.281	16476
660.336	14648
660.391	16387
660.445	14903
660.500	15864
660.555	15633
660.610	14874
660.664	16050
660.719	14552
660.774	14952
660.828	15907
660.883	14689
660.938	15302
660.992	14715
661.047	14734
661.101	14314
661.156	14691
661.211	13762
661.265	14151
661.320	14708
661.374	14924
661.429	14117
661.483	16173
661.538	15106
661.592	15599
661.647	16422
661.701	20326
661.755	16507
661.810	15473
661.864	15047
661.919	13433
661.973	15179
662.027	14887
662.081	13164
662.136	14704
662.190	14641
662.244	15151
662.299	13951
662.353	15220
662.407	14797
662.461	13991
662.515	14000
662.569	13838
662.624	14087
662.678	14889
662.732	14823
662.786	13938
662.840	14640
662.894	14810
662.948	13077
663.002	14091
663.056	14466
663.110	13388
663.164	14323
663.218	15000
663.272	14836
663.326	13821
663.380	12963
663.434	13909
663.488	14202
663.542	14155
663.595	14019
663.649	13958
663.703	14481
663.757	14427
663.811	14047
663.864	13501
663.918	13902
663.972	13789
664.026	13920
664.079	13825
664.133	14786
664.187	15057
664.240	15259
664.294	14531
664.348	14881
664.401	13676
664.455	13989
664.508	13492
664.562	13466
664.615	13871
664.669	13340
664.722	14122
664.776	13963
664.829	13750
664.883	14109
664.936	14076
664.990	14524
665.043	14422
665.097	14050
665.150	15832
665.203	13874
665.257	14715
665.310	13908
665.363	14347
665.417	15009
665.470	15181
665.523	14975
665.576	14397
665.630	13705
665.683	14729
665.736	14393
665.789	15512
665.842	14201
665.895	14164
665.949	13945
666.002	14418
666.055	13990
666.108	15453
666.161	14793
666.214	14917
666.267	15375
666.320	15520
666.373	15747
666.426	15949
666.479	15579
666.532	15785
666.585	15587
666.638	16549
666.691	15923
666.744	15292
666.796	15545
666.849	15294
666.902	15353
666.955	14463
667.008	14861
667.060	14687
667.113	14634
667.166	16013
667.219	15709
667.271	16902
667.324	15870
667.377	15391
667.430	15323
667.482	16649
667.535	15273
667.587	15402
667.640	15120
667.693	14720
667.745	15689
667.798	16768
667.850	14997
667.903	15311
667.955	15155
668.008	15643
668.060	15304
668.113	15844
668.165	15452
668.218	15162
668.270	15212
668.322	15428
668.375	15609
668.427	14752
668.479	14422
668.532	15250
668.584	14454
668.636	14661
668.689	14101
668.741	14675
668.793	14492
668.845	15021
668.898	14266
668.950	14838
669.002	14954
669.054	14162
669.106	13936
669.158	14976
669.211	14564
669.263	14063
669.315	15242
669.367	15706
669.419	15439
669.471	14642
669.523	13532
669.575	14674
669.627	14339
669.679	14147
669.731	14133
669.783	14461
669.835	14504
669.886	14227
669.938	14230
669.990	14138
670.042	13334
670.094	14436
670.146	15452
670.197	15306
670.249	15751
670.301	15812
670.353	19245
670.404	22575
670.456	26979
670.508	36918
670.560	56365
670.611	88518
670.663	148759
670.715	320347
670.766	499098
670.818	189389
670.869	46138
670.921	28984
670.972	24852
671.024	21444
671.075	17476
671.127	18206
671.178	17360
671.230	17926
671.281	18289
671.333	20198
671.384	21536
671.436	25990
671.487	34712
671.538	47910
671.590	71624
671.641	114343
671.692	193913
671.744	351279
671.795	289036
671.846	122640
671.897	60899
671.949	41008
672.000	30534
672.051	24020
672.102	20646
672.153	18030
672.204	17219
672.256	16064
672.307	15765
672.358	15242
672.409	14634
672.460	13786
672.511	13167
672.562	12799
672.613	11881
672.664	11678
672.715	12495
672.766	11599
672.817	10694
672.868	11657
672.919	11306
672.970	10967
673.021	11035
673.071	10784
673.122	12021
673.173	10761
673.224	10941
673.275	10530
673.326	10242
673.376	10888
673.427	10248
673.478	10389
673.528	10621
673.579	10671
673.630	11282
673.680	11447
673.731	10592
673.782	10725
673.832	10799
673.883	10546
673.934	10529
673.984	10274
674.035	11396
674.085	10631
674.136	10963
674.186	11836
674.237	12205
674.287	11202
674.338	11172
674.388	11435
674.438	10618
674.489	12485
674.539	11211
674.589	11813
674.640	11600
674.690	12291
674.740	11560
674.791	11686
674.841	11016
674.891	10307
674.942	9695
674.992	9504
675.042	9409
675.092	9569
675.142	8923
675.193	9204
675.243	8986
675.293	10264
675.343	10217
675.393	9687
675.443	10529
675.493	8870
675.543	8911
675.593	9689
675.643	9113
675.693	9823
675.743	9416
675.793	8794
675.843	8570
675.893	8750
675.943	9380
675.993	9337
676.043	8264
676.093	8112
676.142	8573
676.192	9028
676.242	8256
676.292	9451
676.341	8080
676.391	9063
676.441	7940
676.491	8527
676.540	8210
676.590	8315
676.640	7295
676.689	8140
676.739	7214
676.789	7736
676.838	8228
676.888	8293
676.937	7346
676.987	7748
677.037	7775
677.086	7131
677.136	7247
677.185	7644
677.235	7825
677.284	7790
677.333	7789
677.383	7650
677.432	6941
677.482	6909
677.531	7552
677.580	7307
677.630	7482
677.679	7165
677.728	7621
677.778	8490
677.827	6404
677.876	7263
677.925	8017
677.975	8139
678.024	8059
678.073	8636
678.122	7831
678.171	8875
678.220	8650
678.269	9569
678.319	10693
678.368	10869
678.417	8444
678.466	9259
678.515	8124
678.564	7998
678.613	6967
678.662	6724
678.711	7662
678.760	7771
678.809	7903
678.857	7598
678.906	8318
678.955	8042
679.004	8404
679.053	8859
679.102	8795
679.151	8833
679.199	7099
679.248	7130
679.297	6737
679.346	7076
679.394	6489
679.443	6869
679.492	6952
679.540	7652
679.589	7586
679.638	8772
679.686	8047
679.735	7904
679.784	9371
679.832	10966
679.881	7988
679.929	7150
679.978	7374
680.026	7895
680.075	8019
680.123	7071
680.172	6076
680.220	6089
680.268	6949
680.317	6127
680.365	6529
680.414	6305
680.462	6042
680.510	7414
680.559	6569
680.607	6383
680.655	5946
680.703	7450
680.752	7234
680.800	7322
680.848	5596
680.896	6797
680.945	6579
680.993	6417
681.041	5795
681.089	5783
681.137	5848
681.185	6469
681.233	6090
681.258	6058
681.281	5985
681.329	5737
681.377	6107
681.380	6170
681.425	6525
681.473	7653
681.502	7562
681.521	7418
681.569	8272
681.617	6711
681.624	6797
681.665	7007
681.713	7401
681.745	7501
681.761	7481
681.809	6050
681.857	8341
681.867	8428
681.904	8553
681.952	7935
681.989	7963
682.000	7911
682.048	7522
682.096	7050
682.111	7372
682.143	7944
682.191	7628
682.233	9302
682.239	9511
682.286	7953
682.334	8887
682.354	8603
682.382	8128
682.430	8607
682.476	8445
682.477	8402
682.525	8085
682.572	7934
682.598	8099
682.620	8221
682.667	8828
682.715	8854
682.720	8917
682.763	9021
682.810	9715
682.841	9260
682.857	8969
682.905	8609
682.952	8445
682.963	8693
683.000	9444
683.047	9265
683.085	9981
683.095	10124
683.142	10165
683.190	9933
683.206	9843
683.237	9550
683.284	10085
683.328	9196
683.332	9091
683.379	9747
683.426	9256
683.449	9407
683.473	9547
683.521	9754
683.568	10757
683.571	10708
683.615	9490
683.662	10607
683.693	9905
683.709	9450
683.757	10294
683.804	9706
683.814	9852
683.851	10330
683.898	10152
683.936	11072
683.945	11258
683.992	10495
684.039	10393
684.057	10709
684.086	11113
684.133	10330
684.179	10060
684.180	10024
684.227	11084
684.274	11191
684.300	11143
684.321	11053
684.368	11553
684.415	11855
684.422	11751
684.462	11019
684.509	10947
684.543	11611
684.556	11859
684.603	12924
684.649	12388
684.665	12327
684.696	12041
684.743	12599
684.786	12645
684.790	12618
684.837	12137
684.883	12127
684.908	12617
684.930	13130
684.977	12710
685.023	13138
685.029	13172
685.070	13064
685.117	13169
685.150	12862
685.164	12728
685.210	13584
685.257	13644
685.272	13662
685.303	13693
685.350	14211
685.393	13643
685.396	13560
685.443	12881
685.490	12790
685.514	12675
685.536	12742
685.583	13026
685.629	14070
685.636	14059
685.675	13591
685.722	13623
685.757	13173
685.768	13084
685.815	13106
685.861	14123
685.878	14241
685.908	14463
685.954	13777
686.000	14685
686.000	14688
686.047	14729
686.093	15985
686.121	15913
686.139	15733
686.185	15555
686.232	15379
686.242	15418
686.278	15524
686.324	14739
686.363	14880
686.370	14903
686.416	14798
686.463	15174
686.484	15092
686.509	15125
686.555	15546
686.601	15249
686.606	15326
686.647	15585
686.693	15298
686.727	14939
686.739	14846
686.785	15128
686.831	15230
686.848	15135
686.877	14950
686.923	14701
686.969	15184
686.969	15187
687.015	15700
687.061	16408
687.090	16735
687.107	16777
687.153	16607
687.199	16529
687.211	16456
687.245	16197
687.291	16135
687.332	16463
687.336	16529
687.382	16403
687.428	16644
687.453	17009
687.474	17251
687.520	17130
687.565	17563
687.574	17499
687.611	18078
687.657	20415
687.695	21843
687.702	22367
687.748	26262
687.794	30777
687.816	31406
687.839	29213
687.885	24990
687.931	22317
687.937	21843
687.976	20455
688.022	19610
688.058	18606
688.067	18565
688.113	17659
688.158	17782
688.179	17707
688.204	17862
688.249	18030
688.295	18105
688.300	18129
688.340	18241
688.386	18849
688.421	17990
688.431	17776
688.477	18125
688.522	18394
688.542	18754
688.567	19437
688.613	19329
688.658	20169
688.663	20152
688.703	19513
688.749	19325
688.784	18788
688.794	18747
688.839	19287
688.884	19394
688.905	19605
688.930	19807
688.975	18957
689.020	19483
689.026	19454
689.065	19385
689.110	19589
689.146	19833
689.155	20023
689.201	21188
689.246	21248
689.267	21455
689.291	21107
689.336	20386
689.381	19846
689.388	19723
689.426	19801
689.471	20381
689.509	20413
689.516	20373
689.561	19840
689.606	19188
689.630	19189
689.651	19431
689.696	19016
689.741	19470
689.750	19571
689.785	20093
689.830	20374
689.871	19996
689.875	19955
689.920	20621
689.965	20356
689.992	20198
690.010	20188
690.054	20245
690.099	20434
690.112	20535
690.144	20892
690.189	20643
690.233	20243
690.233	20263
690.278	20228
690.323	20200
690.354	20374
690.367	20704
690.412	20719
690.457	20960
690.474	21298
690.501	21496
690.546	21536
690.590	21522
690.595	21476
690.635	21904
690.680	21738
690.716	22340
690.724	22607
690.769	23906
690.813	25124
690.836	25631
690.857	27405
690.902	31569
690.946	35889
690.957	36854
690.991	45011
691.035	56872
691.077	67901
691.080	68116
691.124	67134
691.168	66160
691.198	65693
691.213	61880
691.257	51750
691.301	40407
691.318	36363
691.346	34603
691.390	31054
691.434	27776
691.439	27352
691.478	26141
691.522	25190
691.559	24097
691.567	24158
691.611	24677
691.655	24767
691.680	24606
691.699	24128
691.743	23421
691.787	22810
691.800	22447
691.831	22560
691.875	23468
691.919	23369
691.921	23351
691.964	23635
692.008	23329
692.041	23451
692.052	23481
692.096	23272
692.139	23133
692.162	22973
692.183	22861
692.227	22576
692.271	22118
692.282	22009
692.315	22074
692.359	22371
692.402	22198
692.403	22234
692.447	21758
692.490	21834
692.523	21656
692.534	21784
692.578	22688
692.622	22613
692.643	22822
692.666	22844
692.709	22874
692.753	22591
692.763	22483
692.797	22649
692.840	23168
692.884	23313
692.884	23353
692.928	23387
692.971	23055
693.004	22896
693.015	23015
693.059	23538
693.102	23740
693.124	23819
693.146	23963
693.189	24346
693.233	24642
693.245	24640
693.276	24998
693.320	25632
693.363	26291
693.365	26256
693.407	27409
693.450	29059
693.485	29988
693.493	30678
693.537	34297
693.580	37671
693.605	39756
693.624	43105
693.667	50525
693.710	58907
693.725	61647
693.753	77849
693.797	103758
693.840	130756
693.845	133289
693.883	131564
693.926	129138
693.966	128156
693.970	126051
694.013	101368
694.056	77230
694.086	60480
694.099	58041
694.142	49831
694.185	41343
694.206	37463
694.229	36567
694.272	34371
694.315	32723
694.326	31976
694.358	30619
694.401	29459
694.444	27984
694.446	27864
694.487	27620
694.530	27098
694.566	26531
694.573	26483
694.616	25948
694.659	25648
694.686	25226
694.702	25247
694.745	25259
694.787	25198
694.806	25186
694.830	25219
694.873	25012
694.916	24711
694.926	24620
694.959	25168
695.002	25926
695.044	26395
695.046	26377
695.087	26694
695.130	26474
695.166	26367
695.172	26453
695.215	26575
695.258	26938
695.286	27016
695.301	27163
695.343	27518
695.386	27677
695.406	27766
695.428	28337
695.471	29168
695.514	30305
695.526	30572
695.556	32268
695.599	34597
695.641	36330
695.646	36478
695.684	35276
695.726	33760
695.766	32352
695.769	32383
695.811	31840
695.854	31269
695.886	30872
695.896	31047
695.938	31181
695.981	31334
696.005	31548
696.023	32189
696.065	33432
696.108	34771
696.125	35178
696.150	36025
696.192	37450
696.235	38689
696.245	38937
696.277	38702
696.319	38304
696.361	37890
696.365	37762
696.404	37601
696.446	37505
696.485	37168
696.488	37237
696.530	37007
696.572	36911
696.604	36730
696.614	36752
696.656	36579
696.698	36235
696.724	35955
696.740	36053
696.783	36299
696.825	36468
696.844	36404
696.867	36599
696.909	36799
696.951	37140
696.964	37130
696.992	37144
697.034	36985
697.076	36972
697.083	36877
697.118	37762
697.160	38793
697.202	39599
697.203	39534
697.244	39232
697.286	38798
697.323	38225
697.327	38362
697.369	38950
697.411	39363
697.442	39664
697.453	39724
697.494	39557
697.536	39445
697.562	39220
697.578	39319
697.620	39384
697.661	39460
697.682	39427
697.703	39767
697.744	40269
697.786	40651
697.801	40717
697.828	40977
697.869	41213
697.911	41450
697.921	41409
697.952	41174
697.994	40761
698.035	40298
698.040	40149
698.077	40773
698.118	41399
698.160	41987
698.160	41889
698.201	42210
698.243	42391
698.279	42498
698.284	42723
698.325	43809
698.367	44964
698.399	45723
698.408	45780
698.449	45577
698.491	45304
698.518	45033
698.532	45369
698.573	46103
698.614	46779
698.638	47065
698.656	47144
698.697	47075
698.738	46963
698.757	46816
698.779	46695
698.820	46228
698.862	45769
698.877	45487
698.903	45855
698.944	46264
698.985	46679
698.996	46682
699.026	46861
699.067	46951
699.116	46947
699.235	45683
699.354	45467
699.474	43876
699.593	43938
699.713	44353
699.832	43592
699.951	46533
700.070	44062
700.190	41284
700.309	40119
700.428	40777
700.547	40277
700.667	39200
700.786	40598
700.905	38726
701.024	39299
701.143	37829
701.262	40503
701.381	41020
701.500	41348
701.619	40028
701.738	40459
701.857	39530
701.976	37981
702.095	38615
702.214	40592
702.333	38094
702.452	40527
702.571	39693
702.690	40038
702.809	39868
702.928	38263
703.047	36623
703.165	36634
703.284	37183
703.403	36988
703.522	36757
703.640	35024
703.759	36141
703.878	35924
703.997	34855
704.115	36082
704.234	35107
704.353	37268
704.471	33238
704.590	32950
704.708	32792
704.827	31759
704.946	32561
705.064	33013
705.183	32183
705.301	34163
705.420	33949
705.538	34819
705.656	31369
705.775	32377
705.893	38994
706.012	44260
706.130	32615
706.249	33944
706.367	32313
706.485	32982
706.604	31579
706.722	32100
706.840	39531
706.958	63390
707.077	48390
707.195	31908
707.313	29418
707.431	27960
707.549	27365
707.668	27962
707.786	29228
707.904	28891
708.022	29436
708.140	28631
708.258	28148
708.376	30509
708.494	27419
708.612	30978
708.730	33180
708.848	32653
708.966	30389
709.084	31014
709.202	29787
709.320	28756
709.438	27387
709.556	30296
709.674	27408
709.791	28050
709.909	25718
710.027	26977
710.145	25803
710.263	26551
710.380	26568
710.498	26101
710.616	25044
710.733	24508
710.851	25403
710.969	25800
711.086	24432
711.204	26585
711.322	24667
711.439	24915
711.557	23573
711.674	25489
711.792	24426
711.909	25672
712.027	24893
712.144	24262
712.262	24984
712.379	25314
712.497	27096
712.614	27616
712.732	25823
712.849	24910
712.966	25561
713.084	27427
713.201	24515
713.318	26847
713.436	27226
713.553	27445
713.670	30850
713.787	30171
713.905	28455
714.022	29302
714.139	32230
714.256	41263
714.373	60067
714.490	110634
714.608	279000
714.725	1041233
714.842	1164270
714.959	161078
715.076	60870
715.193	42191
715.310	36369
715.427	28529
715.544	27443
715.661	27433
715.778	24685
715.895	25627
716.011	25165
716.128	24877
716.245	22977
716.362	23564
716.479	21716
716.596	22877
716.713	23095
716.829	21955
716.946	20405
717.063	20753
717.180	19347
717.296	20693
717.413	19894
717.530	19437
717.646	18061
717.763	19530
717.880	18539
717.996	19032
718.113	18384
718.229	18475
718.346	17814
718.462	17767
718.579	18632
718.695	21185
718.812	19760
718.928	20344
719.045	17961
719.161	18991
719.277	19583
719.394	20890
719.510	19798
719.626	23839
719.743	29378
719.859	48179
719.975	99821
720.092	377811
720.208	900368
720.324	150203
720.440	36530
720.557	26680
720.673	24092
720.789	24435
720.905	30360
721.021	21766
721.137	17159
721.253	17662
721.369	17343
721.486	17815
721.602	18270
721.718	16746
721.834	16429
721.950	16062
722.066	15195
722.181	15351
722.297	15736
722.413	16112
722.529	16242
722.645	15720
722.761	14577
722.877	16429
722.993	18107
723.108	25845
723.224	22665
723.340	17326
723.456	14490
723.571	14575
723.687	13318
723.803	15423
723.918	13647
724.034	14703
724.150	13602
724.265	14758
724.381	16990
724.497	19219
724.612	13445
724.728	13727
724.843	12974
724.959	14390
725.074	16159
725.190	18859
725.305	13501
725.421	14126
725.536	13277
725.651	13871
725.767	13196
725.882	13676
725.997	13239
726.113	14167
726.228	12996
726.343	13674
726.459	12124
726.574	13204
726.689	13061
726.804	13066
726.920	12653
727.035	13854
727.150	12993
727.265	12470
727.380	13027
727.495	12900
727.610	12542
727.725	12720
727.841	13615
727.956	17658
728.071	15964
728.186	12759
728.301	11270
728.416	13786
728.531	12338
728.645	12270
728.760	12664
728.875	12320
728.990	12763
729.105	12587
729.220	12887
729.335	13763
729.449	13187
729.564	12688
729.679	11451
729.794	13084
729.908	12505
730.023	12312
730.138	12586
730.253	13196
730.367	12417
730.482	12643
730.596	12702
730.711	15545
730.826	20810
730.940	27331
731.055	17307
731.169	16723
731.284	16126
731.398	18109
731.513	17493
731.627	20996
731.742	25761
731.856	32183
731.970	32762
732.085	44712
732.199	66610
732.313	124418
732.428	312031
732.542	836354
732.656	556034
732.771	119696
732.885	57499
732.999	44306
733.113	40522
733.227	36505
733.342	34033
733.456	32210
733.570	30376
733.684	29184
733.798	26687
733.912	27637
734.026	26400
734.140	27853
734.254	25902
734.368	27721
734.482	29156
734.596	25880
734.710	24217
734.824	24713
734.938	24099
735.052	24771
735.166	23988
735.280	23450
735.393	23271
735.507	23755
735.621	23262
735.735	24631
735.849	24325
735.962	22177
736.076	23629
736.190	22070
736.303	23011
736.417	24762
736.531	20350
736.644	22061
736.758	21429
736.872	21292
736.985	20745
737.099	20681
737.212	19914
737.326	21046
737.439	20839
737.553	19475
737.666	20833
737.780	19560
737.893	20954
738.007	19102
738.120	20464
738.233	19105
738.347	19894
738.460	18888
738.573	20736
738.687	19688
738.800	20022
738.913	20550
739.026	19024
739.140	19259
739.253	19669
739.366	18979
739.479	17710
739.592	19111
739.705	17264
739.818	20922
739.932	17236
740.045	18540
740.158	17921
740.271	18334
740.384	18681
740.497	16214
740.610	18942
740.723	17734
740.836	18240
740.949	18521
741.062	19065
741.174	17807
741.287	16988
741.400	18401
741.513	15146
741.626	18282
741.739	16747
741.851	16856
741.964	16953
742.077	17065
742.189	14797
742.302	17779
742.415	15733
742.527	17001
742.640	16217
742.753	15347
742.865	15651
742.978	15526
743.090	14808
743.203	16326
743.316	14484
743.428	14772
743.541	15801
743.653	14188
743.766	15209
743.878	16025
743.990	14837
744.103	17377
744.215	16256
744.327	14475
744.440	17165
744.552	15643
744.664	13843
744.777	16229
744.889	13622
745.001	15419
745.113	15186
745.226	14987
745.338	13570
745.450	15644
745.562	13427
745.674	13224
745.786	14938
745.898	14407
746.010	13995
746.122	14377
746.234	15223
746.347	14325
746.459	13813
746.570	12731
746.682	15167
746.794	17057
746.906	12534
747.018	13598
747.130	15144
747.242	12991
747.354	12839
747.466	13609
747.577	13007
747.689	14266
747.801	13509
747.913	12025
748.024	11822
748.136	13737
748.248	11104
748.359	11619
748.471	13401
748.583	11600
748.694	11826
748.806	13939
748.918	12438
749.029	12163
749.141	11990
749.252	12975
749.364	11485
749.475	12576
749.587	11889
749.698	11238
749.809	11427
749.921	12872
750.032	11000
750.144	11884
750.255	10434
750.366	12433
750.478	11270
750.589	11353
750.700	10263
750.811	12272
750.923	10368
751.034	11489
751.145	13289
751.256	11695
751.367	10226
751.479	10800
751.590	10303
751.701	10580
751.812	9374
751.923	10657
752.034	12554
752.145	12148
752.256	10551
752.367	10802
752.478	10440
752.589	11556
752.700	11322
752.811	10372
752.922	9888
753.032	11962
753.143	11204
753.254	11079
753.365	13597
753.476	13407
753.586	11163
753.697	10616
753.808	10123
753.919	10328
754.029	10760
754.140	10819
754.251	10334
754.361	11817
754.472	11616
754.582	11353
754.693	9940
754.804	12293
754.914	10244
755.025	9642
755.135	10632
755.246	11443
755.356	10604
755.466	9955
755.577	9238
755.687	10618
755.798	9523
755.908	9982
756.018	10734
756.129	10876
756.239	10832
756.349	11496
756.460	11712
756.570	14379
756.680	10636
756.790	11538
756.900	10653
757.011	10862
757.121	9965
757.231	10750
757.341	10545
757.451	9933
757.561	9525
757.671	11454
757.781	10324
757.891	10678
758.001	10241
758.111	11609
758.221	12038
758.331	13047
758.441	12002
758.551	12498
758.661	13278
758.771	14533
758.880	13000
758.990	12270
759.100	12012
759.210	13011
759.320	13240
759.429	13989
759.539	14693
759.649	15988
759.758	17687
759.868	18809
759.978	19509
760.087	20776
760.197	20521
760.307	20466
760.416	18687
760.526	17680
760.635	17540
760.745	19643
760.854	20503
760.964	25113
761.073	24945
761.182	22854
761.292	19898
761.401	19391
761.511	16315
761.620	15352
761.729	14552
761.839	14406
761.948	15248
762.057	15735
762.166	15724
762.276	14209
762.385	16361
762.494	15966
762.603	15092
762.712	15930
762.822	15149
762.931	15968
763.040	16006
763.149	17027
763.258	16079
763.367	18294
763.476	17144
763.585	18472
763.694	18839
763.803	20639
763.912	20367
764.021	21465
764.130	21781
764.238	25180
764.347	25438
764.456	29572
764.565	29240
764.674	31656
764.783	32908
764.891	36365
765.000	41419
765.109	45094
765.217	50011
765.326	58683
765.435	68124
765.543	82519
765.652	101157
765.761	129319
765.869	169447
765.978	235288
766.086	343995
766.195	517960
766.303	738211
766.412	697095
766.520	643250
766.629	657592
766.737	468765
766.846	322648
766.954	226060
767.062	169821
767.171	128448
767.279	103448
767.387	81725
767.496	70203
767.604	59504
767.712	52041
767.820	46820
767.928	44629
768.037	40156
768.145	38602
768.253	37022
768.361	36512
768.469	34554
768.577	36476
768.685	38021
768.793	41583
768.901	42836
769.009	49832
769.117	58818
769.225	76041
769.333	101386
769.441	150645
769.549	241688
769.657	419093
769.765	666906
769.873	617960
769.981	572448
770.088	377887
770.196	228139
770.304	152768
770.412	110185
770.519	85007
770.627	68429
770.735	56587
770.842	48004
770.950	43631
771.058	39015
771.165	37598
771.273	34682
771.380	32892
771.488	34405
771.595	34528
771.703	30748
771.810	29226
771.918	28823
772.025	30748
772.133	31623
772.240	30031
772.348	31685
772.455	29596
772.562	27325
772.670	26631
772.777	26590
772.884	27099
772.991	24447
773.099	25959
773.206	24029
773.313	23649
773.420	23470
773.528	23725
773.635	21769
773.742	23014
773.849	20313
773.956	23549
774.063	21986
774.170	22280
774.277	21029
774.384	20977
774.491	19613
774.598	20969
774.705	20029
774.812	20132
774.919	19872
775.026	19939
775.133	19632
775.239	20397
775.346	18740
775.453	18754
775.560	18426
775.667	18783
775.773	18169
775.880	17969
775.987	17674
776.093	18275
776.200	18408
776.307	15875
776.413	16302
776.520	19372
776.627	15730
776.733	15198
776.840	14767
776.946	21459
777.053	17758
777.159	18556
777.266	15907
777.372	18905
777.478	18638
777.585	17608
777.691	13801
777.798	15963
777.904	14747
778.010	15538
778.117	15597
778.223	15296
778.329	14375
778.435	13699
778.542	14583
778.648	14694
778.754	13913
778.860	15873
778.966	14429
779.072	14069
779.178	13477
779.284	11494
779.391	13274
779.497	14874
779.603	16452
779.708	18022
779.815	27520
779.920	82208
780.026	137288
780.132	32892
780.238	13863
780.344	13078
780.450	15424
780.556	11928
780.661	12217
780.767	15057
780.873	10633
780.979	11884
781.085	12668
781.190	11849
781.296	10819
781.402	12417
781.507	11406
781.613	9692
781.719	10865
781.824	12890
781.930	10518
782.035	12035
782.141	12166
782.246	10067
782.352	9670
782.457	11125
782.563	10831
782.668	11925
782.773	9072
782.879	9634
782.984	10701
783.090	10122
783.195	10759
783.300	12200
783.405	10033
783.511	9251
783.616	9097
783.721	11114
783.826	9807
783.932	9618
784.037	10480
784.142	10577
784.247	9704
784.352	9601
784.457	8398
784.562	9538
784.667	9663
784.772	9476
784.877	7042
784.982	10382
785.087	8851
785.192	8722
785.297	8136
785.402	9841
785.507	8935
785.611	10174
785.716	8519
785.821	10271
785.926	9143
786.031	8388
786.135	8832
786.240	9666
786.345	6748
786.450	8377
786.554	8058
786.659	7794
786.763	8291
786.868	8927
786.973	9152
787.077	8621
787.182	7542
787.286	8718
787.391	9049
787.495	7091
787.600	6240
787.704	7785
787.809	8683
787.913	7379
788.017	7674
788.122	9053
788.226	6325
788.330	5952
788.435	7327
788.539	8508
788.643	7264
788.747	6768
788.852	7952
788.956	7433
789.060	8112
789.164	8044
789.268	5876
789.372	8603
789.476	7507
789.580	5873
789.684	6236
789.788	8746
789.892	6798
789.996	6679
790.100	5146
790.204	7682
790.308	7497
790.412	6559
790.516	5178
790.620	7083
790.724	8268
790.828	7334
790.931	4312
791.035	7080
791.139	5788
791.242	6888
791.346	6416
791.450	7143
791.554	5975
791.657	4672
791.761	6207
791.864	7438
791.968	7543
792.072	7002
792.175	4841
792.279	6448
792.382	5068
792.486	6127
792.589	5492
792.693	6774
792.796	5032
792.899	7091
793.003	6427
793.106	5601
793.209	5603
793.313	6327
793.416	4480
793.519	5737
793.623	6672
793.726	7390
793.829	4379
793.932	4505
794.035	4094
794.138	7626
794.242	7733
794.345	6566
794.448	7863
794.551	14270
794.654	42886
794.757	79389
794.860	18614
794.963	7911
795.066	4679
795.169	7174
795.272	5477
795.375	6630
795.477	4232
795.580	5113
795.683	3675
795.786	6081
795.889	4753
795.991	6325
796.094	5194
796.197	4854
796.300	5966
796.402	6744
796.505	4488
796.608	4203
796.710	5477
796.813	7190
796.915	6210
797.018	6891
797.120	5468
797.223	4422
797.326	6180
797.428	4865
797.530	4050
797.633	5498
797.735	6072
797.838	7003
797.940	6349
798.042	6110
798.145	4806
798.247	5049
798.349	3037
798.452	5646
798.554	4779
798.656	6029
798.758	7098
798.860	6382
798.962	4893
799.065	4263
799.167	4413
799.269	6331
799.371	5396
799.473	8747
799.575	6965
799.677	5952
799.779	5770
799.881	4433
799.983	6777
800.085	5880
800.187	4125
800.289	3461
800.390	3935
800.492	6323
800.594	5795
800.696	4615
800.798	3848
800.899	5027
801.001	4826
801.103	5738
801.205	4316
801.306	4692
801.408	5049
801.509	5097
801.611	3727
801.713	4951
801.814	3434
801.916	3841
802.017	2883
802.119	3713
802.220	3831
802.322	3533
802.423	5302
802.525	2903
802.626	3885
802.727	5187
802.829	3806
802.930	2119
803.031	4217
803.133	4783
803.234	4167
803.335	4331
803.436	2519
803.538	4083
803.639	3019
803.740	4790
803.841	3825
803.942	5145
804.043	3227
804.144	4309
804.245	2684
804.346	3680
804.447	2292
804.548	4205
804.649	4449
804.750	3299
804.851	2846
804.952	3510
805.053	3525
805.154	3523
805.255	3486
805.355	3180
805.456	2808
805.557	3965
805.658	2306
805.758	3463
805.859	3268
805.960	4138
806.061	2476
806.161	3447
806.262	2741
806.362	2853
806.463	2883
806.564	4046
806.664	4299
806.765	3550
806.865	3163
806.966	3140
807.066	2277
807.166	4658
807.267	3608
807.367	3390
807.468	3308
807.568	1798
807.668	3075
807.769	3976
807.869	3764
807.969	3402
808.069	3181
808.170	3733
808.270	2611
808.370	4058
808.470	4221
808.570	3750
808.670	3286
808.770	3060
808.870	2338
808.970	2916
809.070	2065
809.170	2198
809.271	3271
809.370	4116
809.470	2754
809.570	3100
809.670	2016
809.770	3395
809.870	3461
809.970	3529
810.070	2208
810.169	3744
810.269	1143
810.369	3648
810.469	2985
810.568	3702
810.668	2472
810.768	3154
810.867	2592
810.967	2688
811.066	1786
811.166	2835
811.265	3361
811.365	3377
811.464	2215
811.564	3390
811.663	2404
811.763	2192
811.862	2832
811.962	3680
812.061	2645
812.160	2660
812.260	2831
812.359	3528
812.458	3514
812.557	6289
812.657	6839
812.756	5098
812.855	1816
812.954	3398
813.053	2694
813.153	3579
813.252	2670
813.351	3578
813.450	2491
813.549	2602
813.648	2590
813.747	3034
813.846	3431
813.945	3236
814.044	3232
814.143	4677
814.242	3079
814.341	3651
814.439	3301
814.538	4108
814.637	3808
814.736	4633
814.835	4121
814.933	3621
815.032	5507
815.131	7360
815.229	11276
815.328	16516
815.427	11610
815.525	10559
815.624	9092
815.722	10033
815.821	9822
815.919	11302
816.018	9703
816.116	11153
816.215	10596
816.313	11121
816.412	12693
816.510	13788
816.609	14706
816.707	16428
816.805	13439
816.904	14335
817.002	14601
817.100	15060
817.198	15614
817.296	14464
817.395	14465
817.493	14024
817.591	13456
817.689	14072
817.787	13546
817.885	13846
817.983	13947
818.081	18609
818.179	23974
818.277	50010
818.375	51100
818.473	23331
818.571	14392
818.669	14427
818.767	14275
818.865	13854
818.963	11207
819.061	14660
819.158	15713
819.256	26140
819.354	39755
819.452	84334
819.549	71867
819.647	29361
819.745	14122
819.842	13496
819.940	11828
820.038	11023
820.135	10471
820.233	12198
820.330	9996
820.428	10152
820.525	11265
820.623	9924
820.720	9130
820.818	10200
820.915	10174
821.012	10007
821.110	8434
821.207	10460
821.304	8271
821.402	10202
821.499	10813
821.596	9792
821.693	8841
821.791	10503
821.888	8522
821.985	11974
822.082	8211
822.179	10170
822.276	9767
822.373	8705
822.470	7625
822.567	9774
822.664	7801
822.761	8695
822.858	9296
822.955	8844
823.052	7306
823.149	9362
823.246	8660
823.343	7515
823.440	7990
823.536	9019
823.633	8641
823.730	8038
823.827	8723
823.923	8381
824.020	7880
824.117	9074
824.213	8356
824.310	8289
824.407	6393
824.503	8833
824.600	7371
824.696	7020
824.793	8672
824.889	8617
824.986	7208
825.082	5098
825.179	6861
825.275	8615
825.371	9368
825.468	7192
825.564	4708
825.660	8174
825.757	9398
825.853	8883
825.949	5322
826.045	6481
826.142	7188
826.238	8032
826.334	6387
826.430	7056
826.526	4801
826.622	4996
826.718	8062
826.814	8564
826.910	7231
827.006	4825
827.102	4450
827.198	8095
827.294	7998
827.390	8276
827.486	5802
827.582	4124
827.678	4945
827.774	8581
827.869	4868
827.965	7690
828.061	4446
828.157	7856
828.252	6763
828.348	6567
828.444	5132
828.539	6135
828.635	5839
828.731	6620
828.826	4766
828.922	7390
829.017	7019
829.113	9330
829.208	5458
829.304	6773
829.399	8673
829.495	7391
829.590	6167
829.685	7013
829.781	7661
829.876	7470
829.971	3430
830.066	4286
830.162	5487
830.257	9283
830.352	5499
830.447	5790
830.543	5788
830.638	6649
830.733	8260
830.828	6483
830.923	6617
831.018	6772
831.113	7305
831.208	4851
831.303	3526
831.398	4107
831.493	5389
831.588	9746
831.683	5150
831.778	4491
831.873	4554
831.967	7742
832.062	6761
832.157	6338
832.252	5269
832.346	5624
832.441	6929
832.536	5810
832.631	6421
832.725	5835
832.820	4492
832.914	5420
833.009	3454
833.104	4569
833.198	3796
833.293	4851
833.387	6414
833.482	6143
833.576	5370
833.670	6567
833.765	5895
833.859	7563
833.954	6408
834.048	5993
834.142	4256
834.237	3529
834.331	4335
834.425	5618
834.519	4319
834.613	4510
834.708	3841
834.802	4481
834.896	3876
834.990	5436
835.084	4259
835.178	3442
835.272	4410
835.366	5920
835.460	5563
835.554	5320
835.648	3547
835.742	3608
835.836	3432
835.930	3920
836.024	4585
836.117	4819
836.211	3819
836.305	4000
836.399	2826
836.493	3713
836.586	4720
836.680	3238
836.774	2999
836.867	3957
836.961	2808
837.055	3474
837.148	3138
837.242	4575
837.335	3152
837.429	4946
837.522	3483
837.616	3779
837.709	2509
837.803	4534
837.896	4380
837.989	4494
838.083	2957
838.176	3484
838.269	2307
838.363	3716
838.456	3519
838.549	4045
838.642	3688
838.735	5131
838.829	4172
838.922	4460
839.015	2930
839.108	2948
839.201	2481
839.294	3900
839.387	3024
839.480	2705
839.573	2166
839.666	3000
839.759	2321
839.852	3702
839.945	3467
840.038	2072
840.131	1687
840.223	2659
840.316	3385
840.409	4158
840.502	3237
840.594	5117
840.687	1238
840.780	2541
840.873	1861
840.965	3137
841.058	3893
841.150	4301
841.243	2203
841.336	3133
841.428	2388
841.521	2425
841.613	2716
841.706	4081
841.798	2360
841.890	3439
841.983	2471
842.075	3066
842.167	2307
842.260	3927
842.352	4077
842.444	3458
842.537	3248
842.629	4643
842.721	2198
842.813	2915
842.905	2334
842.997	2846
843.090	3598
843.182	3841
843.274	2498
843.366	4891
843.458	7659
843.550	6951
843.642	2833
843.734	3120
843.826	1939
843.918	2254
844.009	2242
844.101	1767
844.193	2036
844.285	3145
844.377	3723
844.469	3318
844.560	1277
844.652	3445
844.744	1770
844.835	3088
844.927	3375
845.019	3913
845.110	2119
845.202	3576
845.293	2518
845.385	1548
845.476	2398
845.568	3744
845.659	2166
845.751	2944
845.842	1860
845.934	2398
846.025	2400
846.116	2857
846.208	2462
846.299	1890
846.390	1458
846.482	2813
846.573	2802
846.664	3061
846.755	2118
846.846	3332
846.937	926
847.029	2752
847.120	2367
847.211	2410
847.302	3213
847.393	2234
847.484	2910
847.575	657
847.666	1040
847.757	2201
847.847	1946
847.938	4097
848.029	2112
848.120	2584
848.211	2538
848.302	2491
848.392	739
848.483	3490
848.574	1664
848.664	2796
848.755	2439
848.846	2203
848.936	2301
849.027	2855
849.118	2419
849.208	2993
849.299	4315
849.389	9284
849.480	15126
849.570	31421
849.661	56436
849.751	99732
849.841	46911
849.932	10198
850.022	3429
850.112	4043
850.203	3587
850.293	2710
850.383	2017
850.474	2571
850.564	2011
850.654	2728
850.744	1105
850.834	2546
850.924	2809
851.014	3387
851.104	2088
851.194	2281
851.284	1976
851.374	2628
851.464	2129
851.554	2801
851.644	1712
851.734	3749
851.824	3470
851.914	3531
852.004	4697
852.094	4099
852.183	2399
852.273	2450
852.363	2348
852.452	3337
852.542	2845
852.632	2526
852.721	2750
852.811	2562
852.901	3635
852.990	4659
853.080	3284
853.169	4207
853.259	4461
853.348	4799
853.438	5510
853.527	9136
853.617	10648
853.706	19667
853.795	32331
853.885	64478
853.974	114376
854.063	193996
854.152	272926
854.242	150196
854.331	46693
854.420	20465
854.509	13209
854.598	10963
854.687	9247
854.777	7704
854.866	4503
854.955	5374
855.044	3242
855.133	4297
855.222	3360
855.311	3232
855.400	3525
855.488	3074
855.577	2617
855.666	2670
855.755	2965
855.844	3485
855.933	2617
856.021	3706
856.110	2504
856.199	2557
856.288	1631
856.376	1630
856.465	1891
856.554	3443
856.642	1884
856.731	4496
856.819	2084
856.908	2802
856.996	1340
857.085	2669
857.173	1494
857.262	1459
857.350	1468
857.438	2005
857.527	1549
857.615	2358
857.703	2549
857.792	2539
857.880	981
857.968	2052
858.056	1197
858.145	2361
858.233	1509
858.321	1699
858.409	1324
858.497	2357
858.585	1034
858.673	2676
858.761	693
858.849	1497
858.937	1602
859.025	2222
859.113	2240
859.201	2030
859.289	2223
859.377	2216
859.465	1834
859.552	1177
859.640	1062
859.728	2909
859.816	1489
859.903	2414
859.991	534
860.079	2669
860.166	1357
860.254	1421
860.342	1271
860.429	1417
860.517	971
860.604	2177
860.692	1682
860.779	1540
860.867	1590
860.954	2074
861.042	1825
861.129	2569
861.216	2037
861.304	1907
861.391	1890
861.478	1279
861.565	1324
861.653	2894
861.740	502
861.827	2367
861.914	2225
862.001	2865
862.089	2193
862.176	2902
862.263	1742
862.350	2857
862.437	1360
862.524	2657
862.611	2369
862.698	2254
862.785	2113
862.871	3239
862.958	2999
863.045	2620
863.132	2547
863.219	3409
863.306	787
863.392	2553
863.479	1863
863.566	2807
863.652	2363
863.739	1836
863.826	2593
863.912	2560
863.999	2100
864.086	3436
864.172	2095
864.259	3297
864.345	2606
864.432	3828
864.518	3542
864.604	3643
864.691	3258
864.777	3955
864.863	5001
864.950	7312
865.036	8678
865.122	16197
865.209	16159
865.295	14927
865.381	13456
865.467	14311
865.553	15056
865.639	18860
865.726	24872
865.812	41664
865.898	69258
865.984	102334
866.070	164891
866.156	187710
866.242	79726
866.328	30256
866.414	18315
866.499	16452
866.585	13862
866.671	12432
866.757	12744
866.843	12083
866.928	10457
867.014	10771
867.100	11043
867.186	10990
867.271	10439
867.357	11737
867.442	9987
867.528	10599
867.614	9813
867.699	10199
867.785	9778
867.870	9799
867.956	10173
868.041	10139
868.127	8228
868.212	10392
868.297	8867
868.383	9283
868.468	9366
868.553	10954
868.639	9782
868.724	10974
868.809	11253
868.894	9950
868.979	8880
869.065	9316
869.150	7672
869.235	9645
869.320	8257
869.405	7305
869.490	8554
869.575	8613
869.660	6893
869.745	9671
869.830	8974
869.915	7104
870.000	7263
870.085	7396
870.169	9024
870.254	10166
870.339	5598
870.424	7068
870.509	8203
870.593	8835
870.678	8541
870.763	8201
870.847	6294
870.932	8580
871.016	7536
871.101	6370
871.186	7605
871.270	9948
871.355	6349
871.439	7269
871.523	8030
871.608	6824
871.692	5609
871.777	9084
871.861	7058
871.945	6727
872.030	6876
872.114	7972
872.198	5704
872.282	6879
872.367	5659
872.451	7318
872.535	5965
872.619	6777
872.703	5783
872.787	7826
872.871	7349
872.955	6167
873.039	4457
873.123	7083
873.207	7645
873.291	4951
873.375	5740
873.459	7616
873.543	6448
873.627	5891
873.711	5124
873.794	7449
873.878	5726
873.962	4917
874.045	4745
874.129	6664
874.137	6497
874.213	4826
874.245	5239
874.296	5908
874.352	4760
874.380	4203
874.460	5531
874.464	5585
874.547	4604
874.568	5002
874.631	6183
874.676	5635
874.714	5159
874.784	6832
874.798	7180
874.881	5037
874.892	4975
874.965	4520
874.999	4889
875.048	5386
875.107	5878
875.131	6070
875.215	3884
875.215	3884
875.298	3569
875.323	3875
875.381	4569
875.430	5995
875.465	7012
875.538	5957
875.548	5796
875.631	4540
875.646	4292
875.714	3216
875.753	3685
875.798	4261
875.861	5500
875.881	5848
875.964	4474
875.968	4429
876.047	3770
876.076	4290
876.130	5226
876.183	5038
876.213	4961
876.291	6714
876.296	6823
876.379	4362
876.398	4411
876.462	4482
876.506	3709
876.545	3106
876.613	4054
876.628	4278
876.711	4367
876.721	4566
876.794	6160
876.828	5817
876.877	5032
876.935	4097
876.960	3828
877.043	3778
877.043	3784
877.125	5059
877.150	5216
877.208	5457
877.258	5099
877.291	4845
877.365	3454
877.374	3302
877.456	4699
877.472	4461
877.539	3580
877.579	4438
877.622	5224
877.687	4564
877.704	4414
877.787	4798
877.794	4748
877.869	4260
877.901	4773
877.952	5365
878.008	4091
878.034	3512
878.115	3385
878.117	3390
878.199	3777
878.222	4000
878.282	4602
878.329	4749
878.364	4725
878.437	4668
878.447	4650
878.529	3528
878.544	3482
878.611	3331
878.651	3429
878.694	3789
878.758	4806
878.776	5026
878.858	4384
878.865	4409
878.941	4192
878.972	3606
879.023	3001
879.078	3316
879.105	3550
879.185	4235
879.187	4241
879.269	4717
879.292	4560
879.351	4125
879.399	3682
879.433	3369
879.506	3754
879.516	3848
879.598	4185
879.613	4030
879.680	3120
879.720	3763
879.762	4553
879.827	3861
879.844	3588
879.926	3798
879.933	3773
880.007	3994
880.040	4150
880.089	3928
880.147	3080
880.171	3073
880.253	4317
880.254	4315
880.335	3145
880.360	3513
880.417	4919
880.467	5191
880.499	5071
880.574	4589
880.580	4583
880.662	3967
880.680	3996
880.744	3697
880.787	3158
880.825	2787
880.893	3550
880.907	3669
880.989	2876
881.000	2891
881.070	3924
881.106	3966
881.152	3249
881.213	2822
881.233	2841
881.315	3128
881.319	3151
881.396	3818
881.426	3672
881.478	3380
881.532	4266
881.559	4698
881.639	4093
881.641	4060
881.722	3476
881.745	3241
881.803	3582
881.852	4316
881.885	4465
881.958	3693
881.966	3623
882.047	4062
882.064	3845
882.129	2839
882.171	2838
882.210	2861
882.277	2548
882.291	2618
882.372	3719
882.383	3799
882.454	4434
882.489	4596
882.535	4190
882.596	3864
882.616	3888
882.697	4113
882.702	4052
882.778	2700
882.808	2756
882.859	2867
882.914	2294
882.940	2306
883.020	3073
883.021	3080
883.102	3542
883.127	3859
883.183	4879
883.233	4961
883.264	4322
883.339	2842
883.345	2732
883.426	1548
883.445	1540
883.507	2675
883.551	3072
883.587	3388
883.657	4144
883.668	4255
883.749	4790
883.763	4786
883.830	3244
883.869	2348
883.910	2147
883.975	2794
883.991	3056
884.072	3426
884.081	3532
884.152	4504
884.187	4739
884.233	4808
884.292	4540
884.314	4152
884.394	2846
884.398	2811
884.475	2524
884.504	2300
884.555	2188
884.610	2046
884.636	2314
884.716	3215
884.716	3224
884.797	4766
884.821	4810
884.877	4231
884.927	4203
884.958	3850
885.033	2453
885.038	2408
885.118	2129
885.139	1992
885.199	2262
885.244	2830
885.279	3203
885.350	3467
885.359	3624
885.439	5395
885.456	5568
885.520	4143
885.561	3535
885.600	3123
885.667	2324
885.680	2429
885.760	3198
885.773	3248
885.840	2536
885.878	2373
885.920	2446
885.984	2539
886.000	2759
886.080	3584
886.089	3701
886.160	4112
886.195	4110
886.240	3910
886.300	3733
886.320	3631
886.400	3625
886.406	3575
886.480	2608
886.511	2445
886.560	2574
886.616	2488
886.640	2555
886.720	2930
886.722	2933
886.800	2475
886.827	2414
886.879	2920
886.932	3353
886.959	3568
887.038	4014
887.039	4017
887.119	3995
887.143	3939
887.198	3377
887.248	2883
887.278	2967
887.354	3135
887.358	3144
887.437	3253
887.459	3320
887.517	3471
887.564	3483
887.596	3243
887.669	2754
887.676	2684
887.755	1618
887.774	1420
887.835	1838
887.880	2168
887.914	2256
887.985	2415
887.994	2560
888.073	3824
888.090	4059
888.153	4688
888.195	5107
888.232	4391
888.300	3035
888.311	2948
888.391	2382
888.405	2283
888.470	2382
888.510	2350
888.549	2001
888.615	1606
888.628	1880
888.708	3457
888.720	3699
888.787	3559
888.825	3427
888.866	2867
888.930	2028
888.945	2123
889.024	2684
889.035	2757
889.103	3983
889.140	4593
889.182	3695
889.245	2441
889.261	2553
889.340	3046
889.349	3104
889.419	3163
889.454	3179
889.498	2922
889.559	2593
889.577	2665
889.656	2969
889.664	3000
889.735	3048
889.768	3062
889.814	3158
889.873	3274
889.978	2707
890.083	2933
890.187	3349
890.292	4295
890.397	2767
890.501	2935
890.606	3067
890.710	2801
890.815	3923
890.919	2705
891.024	3591
891.128	2913
891.233	1864
891.337	3717
891.442	3303
891.546	2728
891.650	2087
891.755	1923
891.859	3406
891.963	3723
892.068	2950
892.172	2692
892.276	1870
892.380	2329
892.484	3240
892.589	3324
892.693	3063
892.797	850
892.901	1541
893.005	2106
893.109	4101
893.213	4536
893.317	3099
893.421	1976
893.525	1126
893.629	1784
893.733	3405
893.837	2724
893.941	2803
894.045	2066
894.148	1341
894.252	2380
894.356	3014
894.460	4338
894.564	2508
894.667	2289
894.771	1711
894.875	1278
894.978	2133
895.082	2370
895.186	2654
895.289	3007
895.393	2050
895.496	3559
895.600	2704
895.703	937
895.807	2355
895.910	2543
896.014	2622
896.117	1692
896.221	2784
896.324	3381
896.427	1984
896.531	1449
896.634	2141
896.737	2145
896.840	2915
896.944	3035
897.047	3850
897.150	1860
897.253	1615
897.356	1731
897.460	873
897.563	1676
897.666	2833
897.769	3297
897.872	552
897.975	1339
898.078	1207
898.181	2553
898.284	1388
898.387	3631
898.490	3440
898.593	1687
898.695	2761
898.798	1983
898.901	2391
899.004	2223
899.107	2467
899.209	1508
899.312	3368
899.415	2801
899.518	907
899.620	457
899.723	1518
899.826	2599
899.928	1847
900.031	1666
900.133	2499
900.236	1830
900.338	951
900.441	1537
900.543	2536
900.646	1602
900.748	2784
900.851	2783
900.953	2839
901.055	1563
901.158	1287
901.260	1582
901.362	1033
901.465	625
901.567	2050
901.669	3766
901.771	1698
901.873	2213
901.976	2908
902.078	2406
902.180	1521
902.282	1546
902.384	1911
902.486	3349
902.588	2374
902.690	1306
902.792	941
902.894	2163
902.996	3054
903.098	1721
903.200	1872
903.302	1423
903.404	359
903.505	2041
903.607	2815
903.709	3380
903.811	3157
903.913	2565
904.014	1758
904.116	1301
904.218	1693
904.319	1686
904.421	3529
904.523	2954
904.624	1684
904.726	1302
904.827	1403
904.929	815
905.030	1551
905.132	3217
905.233	2253
905.335	1730
905.436	878
905.537	1405
905.639	1717
905.740	1411
905.841	2817
905.943	1815
906.044	1633
906.145	1078
906.247	575
906.348	1694
906.449	1693
906.550	2758
906.651	1469
906.752	1503
906.854	1521
906.955	1419
907.056	1030
907.157	2627
907.258	2744
907.359	1618
907.460	1405
907.561	689
907.662	1518
907.762	1518
907.863	1778
907.964	3219
908.065	2719
908.166	1968
908.267	1423
908.367	1335
908.468	1123
908.569	2039
908.670	2582
908.770	2311
908.871	1826
908.971	2540
909.072	1158
909.173	1262
909.273	1702
909.374	2136
909.474	1642
909.575	1864
909.675	847
909.776	2043
909.876	1625
909.977	1597
910.077	2670
910.177	2457
910.278	2070
910.378	1344
910.478	845
910.579	2318
910.679	2358
910.779	2138
910.879	2522
910.980	2490
911.080	2324
911.180	2000
911.280	1062
911.380	1440
911.480	843
911.580	1546
911.680	2093
911.780	1888
911.880	2946
911.980	1507
912.080	1668
912.180	1750
912.280	1420
912.380	2780
912.480	1278
912.580	896
912.679	1807
912.779	1654
912.879	1963
912.979	1995
913.078	1391
913.178	1748
913.278	701
913.377	1150
913.477	1771
913.577	1462
913.676	2626
913.776	3524
913.875	1376
913.975	1949
914.074	1813
914.174	2052
914.273	1083
914.373	2292
914.472	1286
914.572	1496
914.671	741
914.770	1386
914.870	1858
914.969	1678
915.068	1622
915.167	2952
915.267	954
915.366	1703
915.465	2249
915.564	1849
915.663	2544
915.763	2133
915.862	3149
915.961	3157
916.060	589
916.159	1037
916.258	1358
916.357	1386
916.456	2057
916.555	2101
916.654	2065
916.752	2597
916.851	2182
916.950	1180
917.049	1501
917.148	1909
917.247	1507
917.345	1068
917.444	1503
917.543	1837
917.642	1854
917.740	2273
917.839	2128
917.937	3600
918.036	2745
918.135	2401
918.233	1765
918.332	1106
918.430	1342
918.529	2047
918.627	2257
918.726	3303
918.824	2320
918.923	1860
919.021	2102
919.119	1411
919.218	1195
919.316	2751
919.414	2308
919.512	1795
919.611	2755
919.709	2152
919.807	2897
919.905	3282
920.003	3452
920.102	3410
920.200	2985
920.298	3379
920.396	3466
920.494	2863
920.592	2928
920.690	3108
920.788	1442
920.886	3025
920.984	3008
921.082	3691
921.180	3024
921.277	4467
921.375	5054
921.473	6075
921.571	5498
921.669	5426
921.766	4553
921.864	5572
921.962	4977
922.060	4917
922.157	4643
922.255	5671
922.352	5668
922.450	6559
922.548	5859
922.645	6938
922.743	9072
922.840	13836
922.938	16838
923.035	14653
923.133	14073
923.230	15881
923.327	19028
923.425	18293
923.522	16950
923.619	16365
923.717	14022
923.814	13368
923.911	13309
924.008	14528
924.106	14170
924.203	13246
924.300	14776
924.397	13950
924.494	14510
924.591	12988
924.688	12629
924.786	13844
924.883	14174
924.979	13651
925.077	13715
925.173	12555
925.270	12992
925.367	13791
925.464	14328
925.561	14172
925.658	14498
925.755	11591
925.852	14162
925.948	12642
926.045	13541
926.142	13578
926.239	14477
926.335	11579
926.432	13481
926.529	14474
926.625	14585
926.722	13024
926.818	10696
926.915	13672
927.011	12473
927.108	11948
927.204	11740
927.301	10595
927.397	13478
927.494	15122
927.590	9850
927.687	10502
927.783	13616
927.879	13679
927.976	11003
928.072	10534
928.168	12399
928.264	11776
928.361	10832
928.457	12898
928.553	10904
928.649	10777
928.745	11717
928.841	9477
928.937	11213
929.033	11919
929.129	10422
929.225	12818
929.321	10931
929.417	9542
929.513	12795
929.609	9874
929.705	10056
929.801	11670
929.897	9939
929.993	9547
930.089	10572
930.184	9768
930.280	11219
930.376	12991
930.471	9963
930.567	7675
930.663	10121
930.758	8819
930.854	10214
930.950	9683
931.045	8959
931.141	9712
931.236	12632
931.332	10715
931.427	8901
931.523	11206
931.618	10762
931.714	7349
931.809	8389
931.905	11039
932.000	8936
932.095	6599
932.191	10985
932.286	12197
932.381	9463
932.476	6579
932.572	9444
932.667	7134
932.762	7911
932.857	9510
932.952	10770
933.047	9360
933.142	7431
933.237	9414
933.332	9918
933.427	11126
933.522	9618
933.617	7648
933.712	8230
933.807	10700
933.902	11516
933.997	10895
934.092	7328
934.187	8398
934.282	9553
934.376	9521
934.471	10357
934.566	7692
934.661	7452
934.755	8665
934.850	10323
934.945	8370
935.039	6645
935.134	6261
935.228	7780
935.323	11912
935.417	7169
935.512	5351
935.606	6209
935.701	9174
935.795	9775
935.890	8246
935.984	7049
936.079	5767
936.173	7629
936.267	6988
936.362	5723
936.456	8157
936.550	10616
936.644	7861
936.738	6278
936.833	6172
936.927	4444
937.021	6662
937.115	7035
937.209	8462
937.303	7129
937.397	6803
937.491	5985
937.585	7745
937.679	7224
937.773	5367
937.867	5293
937.961	5905
938.055	9064
938.149	8904
938.243	4794
938.337	4949
938.430	6279
938.524	8884
938.618	6789
938.712	5662
938.805	5860
938.899	7994
938.993	9516
939.086	6332
939.180	4060
939.274	5822
939.367	6610
939.461	9292
939.554	6032
939.648	5566
939.741	4730
939.835	6040
939.928	9439
940.022	7457
940.115	6650
940.208	7193
940.302	8268
940.395	9579
940.488	5412
940.582	5696
940.675	4671
940.768	4799
940.861	6525
940.954	8133
941.048	3763
941.141	3498
941.234	5145
941.327	6210
941.420	7073
941.513	7202
941.606	5137
941.699	5142
941.792	6311
941.885	6032
941.978	6142
942.071	6207
942.164	4217
942.257	3734
942.349	4694
942.442	5717
942.535	4582
942.628	4600
942.721	5455
942.813	5111
942.906	5082
942.999	5034
943.091	2891
943.184	5359
943.277	4401
943.369	4007
943.462	2672
943.554	4851
943.647	4768
943.739	6427
943.832	6384
943.924	3243
944.017	3589
944.109	3886
944.201	4758
944.294	4532
944.386	4624
944.478	4108
944.571	3491
944.663	4490
944.755	4721
944.847	4651
944.940	4787
945.032	3255
945.124	3575
945.216	4677
945.308	4618
945.400	5110
945.492	4370
945.584	5456
945.676	6606
945.768	5489
945.860	4432
945.952	6543
946.044	4933
946.136	4380
946.228	4474
946.320	3751
946.412	4653
946.503	5798
946.595	6108
946.687	3702
946.779	2928
946.870	3666
946.962	4580
947.054	3102
947.145	5307
947.237	3956
947.329	3952
947.420	4975
947.512	2734
947.603	2534
947.695	3291
947.786	3673
947.878	3069
947.969	4321
948.061	5091
948.152	3886
948.243	2930
948.335	2456
948.426	2680
948.517	4034
948.609	4822
948.700	4365
948.791	4563
948.882	2772
948.973	2983
949.065	3214
949.156	4204
949.247	2944
949.338	3111
949.429	2436
949.520	2223
949.611	3160
949.702	5133
949.793	2733
949.884	3440
949.975	2770
950.066	1871
950.157	2519
950.247	3168
950.338	2713
950.429	2017
950.520	3744
950.611	2743
950.701	3897
950.792	4910
950.883	5210
950.973	3161
951.064	3541
951.155	4169
951.245	4391
951.336	3606
951.427	4546
951.517	5950
951.608	4219
951.698	3214
951.788	3010
951.879	2405
951.969	2287
952.060	3097
952.150	3337
952.240	4635
952.331	3610
952.421	5031
952.511	2476
952.602	1415
952.692	1952
952.782	1335
952.872	2423
952.962	4009
953.052	2689
953.143	1904
953.233	3658
953.323	3094
953.413	2933
953.503	3988
953.593	3619
953.683	2961
953.773	2370
953.863	2349
953.953	1715
954.042	2618
954.132	2950
954.222	3017
954.312	2705
954.402	3057
954.492	2443
954.581	4094
954.671	3583
954.761	2184
954.850	4298
954.940	2084
955.030	2614
955.119	1854
955.209	1453
955.298	1814
955.388	3091
955.477	3577
955.567	1999
955.656	2667
955.746	2694
955.835	2169
955.925	1942
956.014	2899
956.103	3605
956.193	5017
956.282	3897
956.371	2734
956.461	2770
956.550	3026
956.639	2776
956.728	1782
956.817	2974
956.906	2502
956.995	4416
957.085	2527
957.174	2135
957.263	2377
957.352	2489
957.441	2953
957.530	2575
957.619	2261
957.708	2931
957.796	2679
957.885	2559
957.974	1834
958.063	2084
958.152	1662
958.241	1668
958.329	1752
958.418	2291
958.507	1840
958.596	3446
958.684	2259
958.773	2760
958.861	2223
958.950	1932
959.039	2200
959.127	2233
959.216	2474
959.304	1982
959.393	1993
959.481	3706
959.570	1265
959.658	2222
959.746	1345
959.835	2272
959.923	1904
960.011	1705
960.100	2314
960.188	3664
960.276	1679
960.365	1577
960.453	1781
960.541	1172
960.629	2121
960.717	1810
960.805	1638
960.893	2201
960.981	2135
961.069	3476
961.158	4025
961.245	4622
961.333	3955
961.421	3248
961.509	2804
961.597	2135
961.685	2088
961.773	2083
961.861	2925
961.949	2856
962.036	2007
962.124	2520
962.212	1801
962.299	1417
962.387	1090
962.475	1869
962.562	1047
962.650	2489
962.738	1975
962.825	1456
962.913	1356
963.000	1604
963.088	2847
963.175	2245
963.263	2152
963.350	1791
963.438	1659
963.525	1216
963.612	2185
963.700	2129
963.787	2967
963.874	2390
963.962	1903
964.049	1015
964.136	2138
964.223	1416
964.310	1665
964.398	1514
964.485	1485
964.572	2287
964.659	2715
964.746	1647
964.833	1234
964.920	1327
965.007	1460
965.094	1191
965.181	879
965.268	2466
965.355	2179
965.441	1426
965.528	1041
965.615	2600
965.702	2088
965.789	1499
965.875	1349
965.962	2674
966.049	2437
966.136	3533
966.222	2389
966.309	3080
966.395	2396
966.482	2764
966.569	1928
966.655	2540
966.742	1724
966.828	1568
966.915	1250
967.001	1149
967.087	639
967.174	672
967.260	2101
967.347	1855
967.433	1428
967.519	1957
967.605	1589
967.692	1198
967.778	1480
967.864	842
967.950	1063
968.036	1308
968.123	2492
968.209	1835
968.295	52
968.381	2809
968.467	1553
968.553	228
968.639	2419
968.725	990
968.811	1833
968.897	2693
968.983	1962
969.069	556
969.154	937
969.240	1326
969.326	763
969.412	616
969.497	943
969.583	970
969.669	2622
969.755	1971
969.840	1648
969.926	3358
970.012	4205
970.097	5272
970.183	4763
970.268	2441
970.354	1439
970.439	2016
970.525	2005
970.610	535
970.696	2274
970.781	1958
970.866	-191
970.952	1717
971.037	237
971.122	2000
971.208	1760
971.293	1489
971.378	1072
971.463	1705
971.549	1033
971.634	1256
971.719	1737
971.804	1844
971.889	2365
971.974	1026
972.059	1268
972.144	1434
972.229	1384
972.314	1815
972.399	1541
972.484	668
972.569	1759
972.654	749
972.739	2223
972.824	1453
972.908	1620
972.993	1417
973.078	1462
973.163	1788
973.247	1513
973.332	367
973.417	2289
973.501	612
973.586	1335
973.671	1427
973.755	620
973.840	1417
973.924	2531
974.009	3561
974.093	2305
974.178	3055
974.262	2542
974.346	1464
974.431	1637
974.515	1544
974.600	1920
974.684	1994
974.768	1312
974.852	2458
974.937	1682
975.021	1844
975.105	1559
975.189	1641
975.273	1800
975.358	755
975.442	507
975.526	1308
975.610	783
975.694	904
975.778	1889
975.862	1079
975.946	-1215
976.030	2816
976.114	1342
976.198	1551
976.281	645
976.365	1386
976.449	697
976.533	1845
976.617	149
976.700	1508
976.784	1203
976.868	1236
976.951	1540
977.035	1479
977.119	1537
977.202	1052
977.286	2645
977.369	1874
977.453	4255
977.536	3515
977.620	3218
977.703	3280
977.787	1098
977.870	2855
977.953	1974
978.037	940
978.120	1776
978.203	1736
978.287	1153
978.370	2060
978.453	1192
978.536	871
978.620	2065
978.703	2007
978.786	1563
978.869	840
978.952	1472
979.035	2104
979.118	2193
979.201	1587
979.284	1714
979.367	1458
979.450	1615
979.533	1299
979.616	1142
979.699	1535
979.782	1647
979.865	1670
979.948	906
980.030	1078
980.113	1494
980.196	1258
980.279	1817
980.361	1380
980.444	2372
980.526	3333
980.609	3195
980.692	4795
980.774	3606
980.857	1823
980.939	3586
981.022	1987
981.104	2215
981.187	1665
981.269	2881
981.352	1805
981.434	721
981.516	1876
981.599	2583
981.681	1836
981.763	1972
981.846	1731
981.928	1693
982.010	1582
982.092	1444
982.174	2714
982.256	2653
982.339	1818
982.421	1970
982.503	1005
982.585	1658
982.667	2204
982.749	2204
982.831	1523
982.913	845
982.995	2167
983.077	1237
983.158	3378
983.240	1521
983.322	4063
983.404	4709
983.486	4295
983.568	4265
983.649	3620
983.731	3606
983.813	3168
983.894	3372
983.976	2725
984.058	2266
984.139	3188
984.221	1633
984.302	2888
984.384	1755
984.465	2416
984.547	3230
984.628	2671
984.710	2868
984.791	2849
984.872	3019
984.954	2877
985.035	2147
985.116	2834
985.198	2350
985.279	3848
985.360	3063
985.441	2715
985.522	2736
985.604	2981
985.685	1865
985.766	4081
985.847	4203
985.928	2206
986.009	2315
986.090	2138
986.171	3764
986.252	2769
986.333	3819
986.414	2802
986.495	2779
986.576	2923
986.656	2775
986.737	3737
986.818	3391
986.899	2733
986.980	2870
987.060	4265
987.141	3444
987.222	4645
987.302	4613
987.383	5082
987.464	4215
987.544	4099
987.625	4283
987.705	5099
987.786	4577
987.866	4953
987.947	4187
988.027	4156
988.108	3038
988.188	4490
988.268	4695
988.349	3470
988.429	3870
988.509	3892
988.589	4017
988.670	2666
988.750	5186
988.830	3490
988.910	4152
988.990	2975
989.070	4033
989.151	3828
989.231	2975
989.311	3638
989.391	2988
989.471	3240
989.551	2779
989.631	2406
989.711	3997
989.791	3831
989.870	2818
989.950	3289
990.030	4228
990.110	3520
990.190	2501
990.269	2589
990.349	3462
990.429	2770
990.509	2763
990.588	2069
990.668	3487
990.747	4005
990.827	2232
990.907	3098
990.986	3407
991.066	3657
991.145	2929
991.225	3817
991.304	3044
991.383	3098
991.463	2182
991.542	3534
991.622	1465
991.701	2752
991.780	1600
991.859	2340
991.939	2407
992.018	2425
992.097	2687
992.176	2527
992.256	2517
992.335	2299
992.414	3464
992.493	2378
992.572	2308
992.651	3073
992.730	2683
992.809	2185
992.888	1938
992.967	2448
993.046	2954
993.125	2103
993.203	1912
993.282	2940
993.361	2466
993.440	2182
993.519	1453
993.597	1865
993.676	1892
993.755	2527
993.834	2222
993.912	1070
993.991	2985
994.069	2312
994.148	2632
994.226	1869
994.305	1856
994.384	1183
994.462	2812
994.540	1409
994.619	1092
994.697	1911
994.776	1674
994.854	2633
994.932	1073
995.011	1416
995.089	1822
995.167	1272
995.245	1816
995.324	1979
995.402	2403
995.480	1392
995.558	1630
995.636	830
995.714	1677
995.792	2988
995.870	969
995.948	1668
996.026	243
996.104	131
996.182	2390
996.260	1111
996.338	552
996.416	1145
996.494	1862
996.572	1515
996.649	1279
996.727	278
996.805	1562
996.883	1141
996.960	1405
997.038	1911
997.116	1726
997.193	768
997.271	136
997.348	359
997.426	452
997.504	1432
997.581	2464
997.658	1343
997.736	-4
997.813	-320
997.891	2297
997.968	332
998.046	592
998.123	341
998.200	1318
998.277	637
998.355	1087
998.432	-816
998.509	926
998.586	1172
998.663	614
998.741	1445
998.818	836
998.895	-221
998.972	1208
999.049	405
999.126	1125
999.203	728
999.280	964
999.357	-67
999.434	97
999.511	1066
999.587	1415
999.664	-348
999.741	1193
999.818	1056
999.895	179
999.971	693
1000.048	-89
1000.125	646
1000.202	694
1000.278	711
1000.355	717
1000.431	263
1000.508	-243
1000.584	551
1000.661	476
1000.738	41
1000.814	805
1000.890	976
1000.967	110
1001.043	218
1001.120	422
1001.196	472
1001.272	357
1001.349	267
1001.425	568
1001.501	251
1001.577	-170
1001.654	666
1001.730	80
1001.806	529
1001.882	-1102
1001.958	1068
1002.034	1366
1002.110	-305
1002.186	-71
1002.262	-414
1002.338	-200
1002.414	392
1002.490	749
1002.566	856
1002.642	-572
1002.718	765
1002.794	-501
1002.870	308
1002.945	-742
1003.021	55
1003.097	-365
1003.173	218
1003.248	270
1003.324	-162
1003.400	846
1003.475	-577
1003.551	-247
1003.626	8
1003.702	-1104
1003.777	-237
1003.853	-730
1003.928	-342
1004.004	170
1004.079	485
1004.155	60
1004.230	-984
1004.305	763
1004.381	-314
1004.456	26
1004.531	-584
1004.607	748
1004.682	498
1004.757	-720
1004.832	-268
1004.907	-560
1004.982	-1
1005.057	-365
1005.133	-49
1005.208	556
1005.283	-316
1005.358	-288
1005.433	-1582
1005.508	255
1005.583	-412
1005.657	-526
1005.732	-619
1005.807	-469
1005.882	-888
1005.957	-825
1006.032	-262
1006.106	-149
1006.181	233
1006.256	-205
1006.331	62
1006.405	-781
1006.480	-6
1006.554	-479
1006.629	133
1006.704	-410
1006.778	-951
1006.853	-246
1006.927	-701
1007.002	-1324
1007.076	-258
1007.150	-646
1007.225	244
1007.299	-379
1007.373	-854
1007.448	-238
1007.522	616
1007.596	-1809
1007.671	-1493
1007.745	-720
1007.819	-1414
1007.893	-762
1007.967	-851
1008.041	-1051
1008.115	-431
1008.190	-690
1008.264	-860
1008.338	-597
1008.412	-238
1008.486	-948
1008.560	-233
1008.633	-54
1008.707	-416
1008.781	-454
1008.855	-244
1008.929	-354
1009.003	-1362
1009.076	-1221
1009.150	-1135
1009.224	-632
1009.298	-567
1009.371	-605
1009.445	-471
1009.519	-1340
1009.592	-1227
1009.666	-228
1009.739	-571
1009.813	-1296
1009.886	-419
1009.960	-2039
1010.033	-384
1010.107	-861
1010.180	-2180
1010.253	-1403
1010.327	-1222
1010.400	-1166
1010.473	-838
1010.547	593
1010.620	-596
1010.693	-604
1010.766	-1275
1010.840	151
1010.913	-686
1010.986	-1391
1011.059	-959
1011.132	-900
1011.205	-400
1011.278	-1658
1011.351	-467
1011.424	-546
1011.497	-773
1011.570	-593
1011.643	-290
1011.716	-599
1011.789	-501
1011.862	-1044
1011.934	-439
1012.007	-1813
1012.080	-859
1012.153	-398
1012.225	-108
1012.298	-1305
1012.371	-1312
1012.443	-676
1012.516	-640
1012.588	-1331
1012.661	-606
1012.733	-1903
1012.806	-229
1012.879	-1508
1012.951	-659
1013.023	-1059
1013.096	-1121
1013.168	-1407
1013.241	-608
1013.313	-1209
1013.385	-1196
1013.458	-1201
1013.530	-786
1013.602	-1155
1013.674	-337
1013.746	-1036
1013.819	-707
1013.891	-167
1013.963	-536
1014.035	-571
1014.107	-411
1014.179	-842
1014.251	-1034
1014.323	-1020
1014.395	-1648
1014.467	-683
1014.539	192
1014.611	-839
1014.683	-141
1014.754	-1399
1014.826	-1003
1014.898	-839
1014.970	-1689
1015.042	-498
1015.113	-865
1015.185	-1038
1015.257	-1560
1015.328	-1559
1015.400	-1462
1015.471	-175
1015.543	-878
1015.615	-559
1015.686	-690
1015.757	-645
1015.829	-395
1015.901	-870
1015.972	-972
1016.043	-950
1016.115	-972
1016.186	-1274
1016.257	-1446
1016.328	-80
1016.400	-206
1016.471	-1305
1016.542	-844
1016.613	-936
1016.685	-694
1016.756	-498
1016.827	-846
1016.898	-1601
1016.969	-930
1017.040	-1868
1017.111	-1311
1017.182	-1660
1017.253	-1083
1017.324	-924
1017.395	-990
1017.466	-469
1017.537	-961
1017.608	-1606
1017.678	-738
1017.749	-645
1017.820	-1038
1017.891	-1745
1017.961	-716
1018.032	-702
1018.103	-844
1018.173	-431
1018.244	-1069
1018.315	-1629
1018.385	-310
1018.456	-1018
1018.526	-1194
1018.597	-1371
1018.667	-270
1018.738	-1095
1018.808	-153
1018.878	-1296
1018.949	-824
1019.019	-947
1019.089	-647
1019.160	-1165
1019.230	-967
1019.300	-549
1019.371	-1306
1019.441	-396
1019.511	-843
1019.581	-1369
1019.651	-1525
1019.721	-852
1019.791	-1721
1019.861	-146
1019.931	-521
1020.001	-1522
1020.071	-1041
1020.141	-944
1020.211	-1288
1020.281	-460
1020.351	-778
1020.421	-1319
1020.491	13
1020.560	-643
1020.630	-1341
1020.700	-430
1020.770	-1174
1020.839	-1197
1020.909	-1123
1020.979	-886
1021.048	-1472
1021.118	-1426
1021.187	-969
1021.257	-636
1021.326	-764
1021.396	-1088
1021.465	-925
1021.535	-798
1021.604	-1345
1021.674	-618
1021.743	-638
1021.812	-1484
1021.882	-1708
1021.951	-1534
1022.020	-967
1022.089	-2
1022.159	-784
1022.228	-1218
1022.297	-1641
1022.366	-547
1022.435	-311
1022.504	-873
1022.573	-1231
1022.642	-732
1022.711	-1103
1022.781	-415
1022.849	-946
1022.918	-1480
1022.987	-1021
1023.056	-1283
1023.125	-843
1023.194	-726
1023.263	-1480
1023.331	-1114
1023.400	-1612
1023.469	-929
1023.538	-779
1023.606	-1027
1023.675	-1298
1023.744	-1178
1023.812	-1469
1023.881	-1014
1023.949	-1229
1024.018	-231
1024.086	-608
1024.155	-640
1024.223	-1360
1024.292	-645
1024.360	-1168
1024.429	-842
1024.497	-1362
1024.565	-1752
1024.634	-1437
1024.702	-608
1024.770	-515
1024.838	-1510
1024.907	-532
1024.975	-422
1025.043	-1231
1025.111	-1090
1025.179	-531
1025.247	-1146
1025.315	-992
1025.383	-1401
1025.451	-833
1025.519	-543
1025.587	-1004
1025.655	-1280
1025.723	-907
1025.791	-1304
1025.859	-704
1025.927	-423
1025.995	-741
1026.062	-1307
1026.130	-1073
1026.198	-1153
1026.266	-1891
1026.333	-450
1026.401	-792
1026.469	-866
1026.536	-967
1026.604	-987
1026.671	-1131
1026.739	-368
1026.806	-826
1026.874	-1303
1026.941	-949
1027.009	-636
1027.076	-1627
1027.144	-368
1027.211	-1336
1027.278	-1619
1027.345	-1268
1027.413	-1117
1027.480	-747
1027.547	-1514
1027.614	-1240
1027.682	-671
1027.749	-1386
1027.816	-1016
1027.883	-1053
1027.950	-478
1028.017	-1165
1028.084	-476
1028.151	-2031
1028.218	-1840
1028.285	-653
1028.352	-947
1028.419	-1159
1028.486	-1721
1028.553	-990
1028.619	-2286
1028.686	-1114
1028.753	-1771
1028.820	-816
1028.886	-756
1028.953	-620
1029.020	-1213
1029.086	-1317
1029.153	-1051
1029.220	-758
1029.286	-2003
1029.353	-1840
1029.419	-1391
1029.486	-1233
1029.552	-1026
1029.619	-1497
1029.685	-1652
1029.751	-1849
1029.818	-1019
1029.884	-1019
1029.951	-937
1030.017	-1679
1030.083	-1234
1030.149	-1155
1030.216	-1344
1030.282	-1268
1030.348	-1341
1030.414	-1237
1030.480	-606
1030.546	-2155
1030.612	-1352
1030.678	-831
1030.744	-1415
1030.810	-893
1030.876	-1084
1030.942	-852
1031.008	-1039
1031.074	-920
1031.140	-1136
1031.206	-487
1031.272	-1043
1031.337	-1021
1031.403	-1309
1031.469	-1174
1031.534	-1108
1031.600	-1386
1031.666	-1420
1031.731	-1922
1031.797	-811
1031.863	-1503
1031.928	-1447
1031.994	-1978
1032.059	-1644
1032.125	-2041
1032.190	-1471
1032.256	-1303
1032.321	-1698
1032.386	-959
1032.452	-1085
1032.517	-1098
1032.582	-1585
1032.647	-948
1032.713	-1656
1032.778	-1127
1032.843	-1133
1032.908	-2011
1032.974	-1810
1033.039	-827
1033.104	-1259
1033.169	-1730
1033.234	-1660
1033.299	-1073
1033.364	-1164
1033.429	-1549
1033.494	-930
1033.559	-1646
1033.624	-1344
1033.688	-21
1033.753	-1870
1033.818	-1522
1033.883	-69
1033.948	-1010
1034.013	-103
1034.077	409
1034.142	391
1034.207	496
1034.271	1630
1034.336	2309
1034.400	1632
1034.465	648
1034.530	-949
1034.594	-868
1034.658	-1440
1034.723	-2152
1034.787	-1223
1034.852	-1497
1034.916	-1956
1034.981	-922
1035.045	-1418
1035.109	-1467
1035.173	-1307
1035.238	-1688
1035.302	-1411
1035.366	-1406
1035.430	-1338
1035.495	-574
1035.559	-1026
1035.623	-1101
1035.687	-1668
1035.751	-1296
1035.815	-1965
1035.879	-1512
1035.943	-1439
1036.007	-654
1036.071	-1239
1036.135	-1391
1036.198	-1424
1036.262	-1701
1036.326	-1343
1036.390	-1287
1036.454	-1226
1036.517	-1113
1036.581	-1064
1036.645	-1796
1036.709	-1287
1036.772	-1511
1036.836	-1629
1036.900	-1995
1036.963	-1239
1037.026	-387
1037.090	-1457
1037.154	-1732
1037.217	-2075
1037.280	-1062
1037.344	-1690
1037.407	-1785
1037.471	-1702
1037.534	-1390
1037.597	-1481
1037.661	-2040
1037.724	-1377
1037.787	-1765
1037.850	-1502
1037.913	-1248
1037.977	-606
1038.040	-2054
1038.103	-2295
1038.166	-1105
1038.229	-1384
1038.292	-1578
1038.355	-1827
1038.418	-1998
1038.481	-707
1038.544	-1007
1038.607	-1601
1038.670	-1611
1038.732	-2351
1038.795	-2646
1038.858	-1233
1038.921	-1402
1038.984	-1461
1039.046	-1470
1039.109	-1254
1039.172	-1488
1039.234	-2141
1039.297	-1789
1039.360	-1608
1039.422	-1584
1039.485	-1710
1039.547	-2035
1039.610	-2261
1039.672	-2309
1039.734	-1519
1039.797	-1634
1039.859	-1438
1039.922	-1164
1039.984	-1324
1040.046	-1990
1040.109	-1115
1040.171	-2407
1040.233	-1311
1040.295	-2045
1040.358	-1706
1040.420	-1725
1040.482	-1457
1040.544	-1461
1040.606	-2254
1040.668	-845
1040.730	-1649
1040.792	-1479
1040.854	-1784
1040.916	-1469
1040.978	-2522
1041.040	-773
1041.102	-1273
1041.164	-1813
1041.225	-2202
1041.287	-745
1041.349	-1017
1041.411	-1246
1041.472	-810
1041.534	-1193
1041.596	-2088
1041.657	-1552
1041.719	-1416
1041.781	-1594
1041.842	-2177
1041.904	-1621
1041.965	-1764
1042.027	-1294
1042.088	-1157
1042.150	-1809
1042.211	-1462
1042.272	-2114
1042.334	-1744
1042.395	-1749
1042.456	-1821
1042.518	-1517
1042.579	-1300
1042.640	-1238
1042.701	-1301
1042.763	-1462
1042.824	-2062
1042.885	-1642
1042.946	-1545
1043.007	-1420
1043.068	-1446
1043.129	-1252
1043.190	-2256
1043.251	-959
1043.312	-1813
1043.373	-1339
1043.434	-1719
1043.495	-1667
1043.556	-1213
1043.616	-1053
1043.677	-1130
1043.738	-1921
1043.799	-1766
1043.859	-935
1043.920	-2014
1043.981	-1313
1044.041	-1383
1044.102	-1594
1044.162	-1597
1044.223	-941
1044.284	-908
1044.344	-1046
1044.405	-1595
1044.465	-1959
1044.525	-1653
1044.586	-1489
1044.646	-1280
1044.707	-1309
1044.767	-1205
1044.827	-1682
1044.887	-2631
1044.948	-1494
1045.008	-734
1045.068	-804
1045.128	-1082
1045.188	-1383
1045.249	-1186
1045.309	-689
1045.369	-1375
1045.429	-1344
1045.489	-1543
1045.549	-1206
1045.609	-1577
1045.669	-1091
1045.729	-937
1045.789	-1341
1045.848	-1538
1045.908	-958
1045.968	-676
1046.028	-936
1046.088	-899
1046.147	-964
1046.207	-1009
1046.267	-1295
1046.326	-659
1046.386	-1179
1046.446	-67
1046.505	-413
1046.565	61
1046.624	-943
1046.684	405
1046.743	158
1046.803	-547
1046.862	361
1046.922	0
