'Start Wavelength	183.907
'End Wavelength	1046.922
'Gate Delay	5.000
'Gate Width (ms)	1.050
'Laser Output Level	0.000
'X Position	0.000
'Y Position	0.000
'Z Position	0.000
'Grid Point Number	1.000
'Shot Number	100.000
183.907	230.000
183.977	-682.000
184.047	544
184.116	-10
184.186	702
184.256	-374
184.325	-94
184.395	-554
184.465	412
184.534	-546
184.604	-36
184.674	-419
184.743	-471
184.813	164
184.883	-192
184.952	-421
185.022	-344
185.092	-629
185.161	-371
185.231	520
185.301	-603
185.370	463
185.440	-582
185.509	554
185.579	-818
185.649	-426
185.718	-117
185.788	618
185.857	73
185.927	-588
185.996	-437
186.066	-210
186.136	165
186.205	133
186.275	274
186.344	506
186.414	-364
186.483	-244
186.553	21
186.622	559
186.692	-137
186.761	126
186.831	-89
186.900	-442
186.970	313
187.039	-157
187.109	822
187.178	-68
187.248	358
187.317	-396
187.387	632
187.456	887
187.526	880
187.595	737
187.664	226
187.734	38
187.803	167
187.873	639
187.942	616
188.012	794
188.081	68
188.150	119
188.220	644
188.289	183
188.358	-87
188.428	229
188.497	-252
188.567	920
188.636	109
188.705	255
188.775	182
188.844	908
188.913	919
188.983	659
189.052	613
189.121	153
189.191	498
189.260	270
189.329	351
189.399	115
189.468	161
189.537	-35
189.606	-158
189.676	679
189.745	197
189.814	599
189.883	-351
189.953	445
190.022	222
190.091	1107
190.161	1801
190.230	519
190.299	399
190.368	609
190.437	-245
190.507	475
190.576	246
190.645	326
190.714	428
190.783	-19
190.853	819
190.922	815
190.991	476
191.060	80
191.129	468
191.198	504
191.268	-157
191.337	225
191.406	1197
191.475	1168
191.544	-476
191.613	1050
191.682	649
191.752	443
191.821	-303
191.890	952
191.959	385
192.028	696
192.097	762
192.166	689
192.235	262
192.304	741
192.373	-50
192.442	855
192.511	538
192.580	629
192.650	816
192.719	504
192.788	744
192.857	465
192.926	410
192.995	967
193.064	1156
193.133	1105
193.202	2172
193.271	1941
193.340	1678
193.409	1159
193.478	1461
193.547	1701
193.615	3947
193.684	2258
193.753	1773
193.822	1191
193.891	834
193.960	837
194.029	1484
194.098	487
194.167	830
194.236	680
194.305	280
194.374	713
194.443	439
194.512	759
194.580	596
194.649	659
194.718	950
194.787	521
194.856	152
194.925	393
194.994	651
195.062	655
195.131	875
195.200	1041
195.269	683
195.338	824
195.407	263
195.475	324
195.544	1006
195.613	757
195.682	1068
195.751	962
195.819	1346
195.888	443
195.957	1478
196.026	1369
196.094	1338
196.163	1080
196.232	1718
196.301	1523
196.369	-88
196.438	1117
196.507	63
196.576	1259
196.644	429
196.713	1248
196.782	639
196.850	1097
196.919	1309
196.988	1201
197.056	545
197.125	1206
197.194	819
197.262	604
197.331	704
197.400	1021
197.468	1047
197.537	601
197.606	818
197.674	1396
197.743	2224
197.812	565
197.880	2217
197.949	1707
198.017	1931
198.086	935
198.155	1599
198.223	1283
198.292	2261
198.360	1378
198.429	732
198.497	1518
198.566	1761
198.635	3043
198.703	2383
198.772	1809
198.840	2323
198.909	2514
198.977	1498
199.046	1031
199.114	1456
199.183	1353
199.251	1222
199.320	715
199.388	1474
199.457	1287
199.525	329
199.594	1814
199.662	221
199.731	1206
199.799	1449
199.867	1001
199.936	648
200.004	1899
200.073	778
200.141	1315
200.210	702
200.278	818
200.346	1003
200.415	1043
200.483	1908
200.552	1126
200.620	741
200.688	1411
200.757	958
200.825	1485
200.893	838
200.962	1517
201.030	877
201.098	1434
201.167	1941
201.235	1403
201.303	1006
201.372	1002
201.440	1495
201.508	1548
201.577	2172
201.645	1459
201.713	1574
201.781	1364
201.850	1255
201.918	933
201.986	1393
202.055	1581
202.123	1073
202.191	1027
202.259	567
202.327	1500
202.396	952
202.464	1267
202.532	1067
202.600	3662
202.669	2769
202.737	1450
202.805	1325
202.873	1623
202.941	1459
203.009	1196
203.078	165
203.146	1110
203.214	751
203.282	1214
203.350	1319
203.418	1025
203.487	1152
203.555	872
203.623	1193
203.691	1034
203.759	605
203.827	569
203.895	1798
203.963	1902
204.031	1296
204.099	1510
204.168	1529
204.236	2269
204.304	1008
204.372	1532
204.440	1356
204.508	1377
204.576	1517
204.644	1197
204.712	1286
204.780	1587
204.848	1146
204.916	1378
204.984	2143
205.052	1613
205.120	1997
205.188	1696
205.256	1482
205.324	1336
205.392	1773
205.460	1381
205.528	1638
205.596	2246
205.664	1138
205.732	1635
205.799	3703
205.867	5489
205.935	2284
206.003	1683
206.071	956
206.139	1601
206.207	2376
206.275	2036
206.343	906
206.411	2026
206.478	1647
206.546	1833
206.614	1422
206.682	1161
206.750	1618
206.818	2291
206.885	3078
206.953	759
207.021	2081
207.089	1865
207.157	1652
207.225	2223
207.292	1356
207.360	1825
207.428	2502
207.496	1738
207.563	1660
207.631	1771
207.699	1466
207.767	2180
207.834	1046
207.902	1666
207.970	1798
208.038	1999
208.105	1565
208.173	2360
208.241	3436
208.309	2355
208.376	2464
208.444	3819
208.512	3143
208.579	1637
208.647	2776
208.715	2832
208.782	1264
208.850	1637
208.918	2530
208.985	2140
209.053	2256
209.120	1899
209.188	2043
209.256	2738
209.323	1802
209.391	2254
209.459	2807
209.526	2335
209.594	2166
209.661	2408
209.729	2088
209.796	2860
209.864	1591
209.932	1309
209.999	3211
210.067	2739
210.134	3020
210.202	2811
210.269	3106
210.337	3033
210.404	2305
210.472	2472
210.539	2486
210.607	2079
210.674	2618
210.742	2798
210.809	2646
210.877	3461
210.944	3406
211.012	2013
211.079	4455
211.146	3439
211.214	2454
211.281	2106
211.349	2732
211.416	2717
211.484	3338
211.551	2314
211.618	2866
211.686	2822
211.753	1680
211.821	2659
211.888	1881
211.955	2646
212.023	2702
212.090	2404
212.157	2791
212.225	3102
212.292	5118
212.359	7333
212.427	13337
212.494	8087
212.561	4455
212.629	4023
212.696	3260
212.763	4289
212.831	2442
212.898	3729
212.965	2187
213.032	3226
213.100	3192
213.167	3290
213.234	3947
213.301	3611
213.369	3818
213.436	2842
213.503	2684
213.570	3631
213.638	2820
213.705	2660
213.772	2559
213.839	3336
213.906	3894
213.973	3947
214.041	2665
214.108	2978
214.175	3424
214.242	3556
214.309	2762
214.376	3797
214.444	2953
214.511	3884
214.578	3630
214.645	4207
214.712	4244
214.779	3897
214.846	3897
214.913	4077
214.980	4296
215.048	4539
215.115	5199
215.182	4272
215.249	3641
215.316	3504
215.383	3215
215.450	3506
215.517	3578
215.584	3030
215.651	2824
215.718	3103
215.785	2961
215.852	3115
215.919	3826
215.986	4040
216.053	3210
216.120	2314
216.187	3045
216.254	3839
216.321	3527
216.388	3451
216.455	2778
216.522	3878
216.589	3163
216.656	5454
216.722	6567
216.789	5447
216.856	6228
216.923	5651
216.990	4843
217.057	4499
217.124	5449
217.191	5193
217.258	6490
217.324	7687
217.391	8526
217.458	6879
217.525	5200
217.592	4880
217.659	3456
217.725	4343
217.792	4594
217.859	5084
217.926	3036
217.993	2133
218.059	3047
218.126	1824
218.193	2334
218.260	2236
218.327	1691
218.393	2292
218.460	1831
218.527	2673
218.594	2407
218.660	4186
218.727	4784
218.794	2618
218.860	2594
218.927	2677
218.994	2642
219.061	2248
219.127	2552
219.194	3641
219.261	2351
219.327	1900
219.394	2390
219.461	873
219.527	2254
219.594	3022
219.661	2600
219.727	1361
219.794	2462
219.860	2152
219.927	2888
219.994	3440
220.060	5358
220.127	4377
220.193	4028
220.260	3671
220.326	7127
220.393	11387
220.460	13331
220.526	9808
220.593	5984
220.659	7303
220.726	5984
220.792	10394
220.859	12652
220.925	16552
220.992	20055
221.058	17180
221.125	14764
221.191	10637
221.258	5709
221.324	5116
221.391	3336
221.457	3694
221.524	3395
221.590	4189
221.657	10257
221.723	7193
221.789	6875
221.856	6477
221.922	4275
221.989	3743
222.055	2912
222.121	2172
222.188	4151
222.254	2998
222.321	2202
222.387	1968
222.453	1866
222.520	2186
222.586	1155
222.652	2808
222.719	1640
222.785	2702
222.851	1650
222.918	939
222.984	2252
223.050	2785
223.116	1612
223.183	3274
223.249	1171
223.315	1464
223.382	1841
223.448	1870
223.514	1498
223.580	1395
223.647	865
223.713	1518
223.779	1655
223.845	1559
223.911	2257
223.978	1404
224.044	2418
224.110	1368
224.176	1683
224.242	1553
224.309	857
224.375	1659
224.441	2023
224.507	945
224.573	1800
224.639	1618
224.705	1091
224.772	1920
224.838	1192
224.904	1791
224.970	1961
225.036	1978
225.102	1054
225.168	2432
225.234	1471
225.300	1760
225.366	2150
225.432	1461
225.499	2438
225.565	2205
225.631	2128
225.697	2177
225.763	2922
225.829	4424
225.895	3931
225.961	5600
226.027	5044
226.093	4795
226.159	6829
226.225	9580
226.291	19077
226.357	28432
226.423	17628
226.489	9802
226.554	6732
226.620	6149
226.686	8496
226.752	11476
226.818	18377
226.884	30284
226.950	29303
227.016	16187
227.082	9030
227.148	6333
227.214	5542
227.279	5776
227.345	4485
227.411	4516
227.477	3651
227.543	5756
227.609	6136
227.674	5010
227.740	3223
227.806	4221
227.872	3519
227.938	3069
228.003	5229
228.069	2831
228.135	2111
228.201	2608
228.267	2263
228.332	2916
228.398	3224
228.464	3338
228.530	2565
228.595	2028
228.661	1518
228.727	4006
228.792	3773
228.858	2390
228.924	1024
228.990	4555
229.055	2651
229.121	3627
229.187	2546
229.252	3001
229.318	1802
229.384	3030
229.449	3149
229.515	1298
229.581	745
229.646	2931
229.712	2445
229.777	4639
229.843	5097
229.909	4707
229.974	4614
230.040	4538
230.105	3479
230.171	3695
230.236	5448
230.302	6790
230.368	5305
230.433	3608
230.499	3334
230.564	4391
230.630	2352
230.695	3052
230.761	3294
230.826	1658
230.892	4287
230.957	2410
231.023	1764
231.088	3054
231.154	2954
231.219	3466
231.284	3501
231.350	4432
231.415	2384
231.481	3071
231.546	1755
231.612	2565
231.677	1619
231.742	773
231.808	4021
231.873	1514
231.939	895
232.004	4206
232.069	3755
232.135	2942
232.200	2094
232.265	3390
232.331	1614
232.396	1670
232.461	1625
232.527	1413
232.592	1577
232.657	2228
232.723	3060
232.788	2664
232.853	2439
232.918	2124
232.984	1480
233.049	2605
233.114	2807
233.179	3256
233.245	4307
233.310	6505
233.375	895
233.440	2073
233.506	2310
233.571	2297
233.636	1745
233.701	1831
233.766	3627
233.832	4684
233.897	2458
233.962	1713
234.027	3408
234.092	2397
234.157	1630
234.222	2377
234.288	3182
234.353	10090
234.418	8969
234.483	6060
234.548	4508
234.613	3556
234.678	4581
234.743	3812
234.808	10078
234.873	7080
234.938	3918
235.004	3572
235.069	3611
235.134	2785
235.199	2861
235.264	2577
235.329	1688
235.394	3072
235.459	3511
235.524	3323
235.589	3082
235.654	2727
235.719	1252
235.784	2882
235.849	3323
235.913	5864
235.978	6735
236.043	7409
236.108	3792
236.173	3124
236.238	3449
236.303	3165
236.368	3233
236.433	6178
236.498	7788
236.563	7853
236.627	15464
236.692	40036
236.757	36624
236.822	17127
236.887	10919
236.952	9971
237.017	7369
237.081	9710
237.146	12472
237.211	26324
237.276	42167
237.341	52898
237.405	34110
237.470	16306
237.535	10659
237.600	7203
237.664	6319
237.729	4981
237.794	7002
237.859	17999
237.923	10322
237.988	5332
238.053	6155
238.118	6546
238.182	13498
238.247	13109
238.312	6146
238.376	5745
238.441	3207
238.506	4469
238.570	1942
238.635	3471
238.700	2648
238.764	2384
238.829	6193
238.893	7735
238.958	5220
239.023	4859
239.087	3244
239.152	3724
239.216	2480
239.281	3640
239.346	2760
239.410	2828
239.475	2821
239.539	12512
239.604	9503
239.668	4630
239.733	2351
239.797	3165
239.862	7285
239.926	11047
239.991	5210
240.055	2582
240.120	2560
240.184	2980
240.249	2167
240.313	1991
240.378	2667
240.442	7494
240.507	12628
240.571	4330
240.635	5252
240.700	8260
240.764	3501
240.829	2846
240.893	1540
240.957	2818
241.022	7740
241.086	12259
241.151	6150
241.215	2170
241.279	4098
241.344	6108
241.408	5306
241.472	2759
241.537	5034
241.601	4036
241.665	2836
241.730	3377
241.794	3528
241.858	2983
241.922	3676
241.987	3889
242.051	3531
242.115	3144
242.179	4068
242.244	2856
242.308	3931
242.372	3951
242.436	4883
242.501	3985
242.565	2401
242.629	3254
242.693	4458
242.757	2634
242.822	3043
242.886	4169
242.950	4115
243.014	2896
243.078	3650
243.142	3857
243.206	3669
243.271	4639
243.335	3772
243.399	6431
243.463	18723
243.527	48778
243.591	17250
243.655	7631
243.719	4632
243.783	6323
243.847	7948
243.911	10504
243.975	11145
244.040	8889
244.104	6674
244.168	4013
244.232	5996
244.296	8887
244.360	10054
244.424	4929
244.488	4372
244.552	4020
244.615	1416
244.679	3431
244.743	3506
244.807	4804
244.871	3083
244.935	2734
244.999	2170
245.063	2728
245.127	4605
245.191	6713
245.255	6372
245.319	6052
245.383	3635
245.446	5115
245.510	2693
245.574	3870
245.638	4702
245.702	2601
245.766	9754
245.829	6321
245.893	3814
245.957	4390
246.021	4474
246.085	3777
246.149	4657
246.212	11760
246.276	15405
246.340	7758
246.404	6177
246.467	6359
246.531	8424
246.595	6457
246.659	5745
246.722	4843
246.786	6195
246.850	7083
246.913	8740
246.977	3779
247.041	5046
247.104	5780
247.168	5323
247.232	11621
247.295	21716
247.359	11656
247.423	5642
247.486	9785
247.550	7316
247.614	5594
247.677	6683
247.741	4709
247.804	3956
247.868	5446
247.932	8881
247.995	20850
248.059	7879
248.122	3569
248.186	6863
248.249	10690
248.313	30806
248.376	34274
248.440	22460
248.503	8244
248.567	7845
248.630	10471
248.694	15297
248.757	19151
248.821	35004
248.884	22613
248.948	18635
249.011	27070
249.075	39471
249.138	35603
249.202	15517
249.265	9613
249.328	11507
249.392	8278
249.455	8640
249.519	6740
249.582	7492
249.645	13471
249.709	13020
249.772	10999
249.835	9127
249.899	7272
249.962	6852
250.025	6121
250.089	14186
250.152	19108
250.215	10512
250.279	7580
250.342	7411
250.405	7476
250.468	7143
250.532	9648
250.595	13666
250.658	43400
250.721	73727
250.785	28547
250.848	15562
250.911	9585
250.974	8405
251.038	10577
251.101	22991
251.164	11723
251.227	12791
251.290	13062
251.354	17984
251.417	62382
251.480	63961
251.543	44146
251.606	106372
251.669	85528
251.732	36470
251.795	33092
251.859	33062
251.922	70345
251.985	43601
252.048	18747
252.111	14034
252.174	13221
252.237	21379
252.300	42528
252.363	49019
252.426	89463
252.489	41489
252.552	21050
252.615	14531
252.678	15029
252.741	32090
252.804	43171
252.867	92778
252.930	57788
252.993	31381
253.056	18815
253.119	14401
253.182	10654
253.245	19663
253.308	15629
253.371	12924
253.434	12227
253.497	11574
253.559	20310
253.622	15615
253.685	17572
253.748	19045
253.811	9872
253.874	11414
253.937	10323
254.000	8813
254.062	13994
254.125	21987
254.188	21524
254.251	20082
254.314	8832
254.376	15131
254.439	18431
254.502	14454
254.565	14627
254.628	26109
254.690	16514
254.753	8403
254.816	7324
254.878	8080
254.941	14754
255.004	15437
255.067	7074
255.129	7458
255.192	5413
255.255	3825
255.317	5296
255.380	4598
255.443	3360
255.505	3055
255.568	3609
255.631	4419
255.693	5025
255.756	3270
255.819	4965
255.881	3343
255.944	3646
256.006	2801
256.069	3440
256.132	2881
256.194	4893
256.257	10505
256.319	8713
256.382	7218
256.444	6864
256.507	5101
256.569	4870
256.632	5730
256.694	9900
256.757	25596
256.819	72169
256.882	32790
256.944	13037
257.007	9484
257.069	9076
257.132	7388
257.194	7346
257.257	5483
257.319	6688
257.381	8225
257.444	21217
257.506	77136
257.569	89114
257.631	34458
257.693	19684
257.756	9586
257.818	9515
257.880	5923
257.943	6018
258.005	4685
258.067	4453
258.130	5091
258.192	6169
258.254	11371
258.317	6979
258.379	5590
258.441	11616
258.503	12094
258.566	13724
258.628	19486
258.690	5676
258.753	6554
258.815	11192
258.877	6695
258.939	5087
259.001	4676
259.064	4434
259.126	4703
259.188	7163
259.250	5164
259.312	4550
259.375	9065
259.437	7342
259.499	4554
259.561	3730
259.623	4693
259.685	5380
259.747	4012
259.809	13511
259.872	24236
259.934	35534
259.996	36585
260.058	11642
260.120	4949
260.182	4208
260.244	4084
260.306	2813
260.368	4071
260.430	3435
260.492	8645
260.554	15809
260.616	7387
260.678	18897
260.740	26503
260.802	7132
260.864	5621
260.926	4177
260.988	5784
261.050	4688
261.112	13691
261.174	31580
261.236	21601
261.298	7560
261.359	10747
261.421	17044
261.483	5782
261.545	5481
261.607	2153
261.669	4794
261.731	7476
261.793	18275
261.854	9159
261.916	5764
261.978	5419
262.040	5886
262.102	4267
262.164	5769
262.225	5675
262.287	4212
262.349	10625
262.411	9333
262.472	4589
262.534	7330
262.596	15414
262.658	5427
262.719	3122
262.781	5301
262.843	14419
262.904	8014
262.966	5566
263.028	7198
263.090	28576
263.151	80036
263.213	27818
263.275	16098
263.336	6575
263.398	4847
263.459	3790
263.521	4042
263.583	10388
263.644	8347
263.706	3725
263.767	2678
263.829	2822
263.891	2331
263.952	2440
264.014	2794
264.075	5965
264.137	16849
264.198	7385
264.260	2434
264.321	3152
264.383	9085
264.444	27287
264.506	8748
264.567	5263
264.629	9276
264.690	21938
264.752	8005
264.813	5547
264.875	3085
264.936	4772
264.998	3807
265.059	3254
265.120	4700
265.182	7780
265.243	43692
265.305	46163
265.366	12112
265.427	5555
265.489	5079
265.550	2468
265.611	4781
265.673	4134
265.734	3964
265.795	3564
265.857	3438
265.918	4783
265.979	11909
266.040	64243
266.102	56406
266.163	17214
266.224	11125
266.286	6722
266.347	4146
266.408	3932
266.469	4248
266.530	3396
266.592	3802
266.653	7412
266.714	12560
266.775	4310
266.836	3750
266.898	2361
266.959	6302
267.020	4992
267.081	3232
267.142	2398
267.203	2402
267.264	2090
267.326	3571
267.387	2268
267.448	1827
267.509	2456
267.570	3034
267.631	2417
267.692	2076
267.753	3276
267.814	2010
267.875	6479
267.936	15348
267.997	7409
268.058	5692
268.119	4241
268.180	3052
268.241	2228
268.302	2258
268.363	2711
268.424	2729
268.485	3375
268.546	2246
268.607	2011
268.668	1317
268.729	2187
268.790	3097
268.851	3326
268.912	8770
268.972	11707
269.033	5916
269.094	2329
269.155	2421
269.216	2326
269.277	3222
269.338	2074
269.398	2373
269.459	2968
269.520	5087
269.581	6739
269.642	8069
269.702	5070
269.763	4481
269.824	3166
269.885	4161
269.945	7961
270.006	3404
270.067	2894
270.128	2284
270.188	2030
270.249	1787
270.310	2035
270.370	2598
270.431	3406
270.492	2432
270.553	2601
270.613	7379
270.674	14666
270.734	6305
270.795	3379
270.856	4891
270.916	3311
270.977	3661
271.038	4444
271.098	5316
271.159	6376
271.219	7065
271.280	4017
271.340	2904
271.401	2534
271.462	8649
271.522	5543
271.583	3351
271.643	3194
271.704	2836
271.764	4346
271.825	10615
271.885	31046
271.946	42365
272.006	14113
272.066	18150
272.127	32333
272.187	10381
272.248	5823
272.308	6270
272.369	21616
272.429	12345
272.489	9474
272.550	10927
272.610	10446
272.671	8344
272.731	6632
272.791	10846
272.852	7374
272.912	6239
272.972	3344
273.033	3303
273.093	5510
273.153	6993
273.214	4693
273.274	4481
273.334	17769
273.394	35910
273.455	15113
273.515	13496
273.575	31738
273.635	12459
273.696	14420
273.756	29924
273.816	12595
273.876	7511
273.936	14058
273.997	26518
274.057	7872
274.117	5260
274.177	9335
274.237	40969
274.297	35055
274.358	22267
274.418	25606
274.478	20623
274.538	8851
274.598	5259
274.658	20483
274.718	26985
274.778	10721
274.838	6245
274.898	10309
274.958	33924
275.018	30987
275.078	20790
275.138	7681
275.198	4805
275.258	3887
275.318	5055
275.378	9514
275.438	11658
275.498	7418
275.558	16331
275.618	34480
275.678	23758
275.738	14944
275.798	12680
275.858	7579
275.918	3815
275.978	4899
276.038	4346
276.098	3693
276.157	8040
276.217	24915
276.277	11195
276.337	8497
276.397	3747
276.457	5726
276.517	4372
276.576	3278
276.636	2700
276.696	5620
276.756	14309
276.815	11434
276.875	4747
276.935	4997
276.995	6088
277.055	3014
277.114	2870
277.174	4348
277.234	19501
277.293	8590
277.353	5023
277.413	2915
277.472	4147
277.532	3830
277.592	5086
277.651	14802
277.711	30920
277.771	9898
277.830	35055
277.890	29040
277.950	17812
278.009	55707
278.069	20935
278.128	20187
278.188	29105
278.248	12405
278.307	30986
278.367	19668
278.426	6145
278.486	4937
278.545	2321
278.605	3745
278.664	2723
278.724	4061
278.783	11387
278.843	31430
278.902	9973
278.962	4658
279.021	5796
279.081	6565
279.140	6689
279.199	5563
279.259	4830
279.318	6799
279.378	8121
279.437	12168
279.496	38474
279.556	125309
279.615	106381
279.675	27214
279.734	16060
279.793	20252
279.853	28449
279.912	12547
279.971	7418
280.031	6877
280.090	11636
280.149	19876
280.208	17724
280.268	90710
280.327	97434
280.386	23283
280.445	18341
280.505	16728
280.564	7461
280.623	7213
280.682	10450
280.742	18129
280.801	6561
280.860	4405
280.919	3617
280.978	3149
281.037	2969
281.097	2650
281.156	3987
281.215	3176
281.274	4308
281.333	20559
281.392	16785
281.451	4221
281.510	3223
281.569	2427
281.628	2594
281.688	2530
281.747	3479
281.806	3047
281.865	2288
281.924	1495
281.983	2794
282.042	2151
282.101	2800
282.160	3008
282.219	2162
282.278	2729
282.337	12304
282.396	8384
282.454	3522
282.513	4772
282.572	18330
282.631	11835
282.690	3837
282.749	2960
282.808	3688
282.867	3987
282.926	4019
282.985	2412
283.043	1624
283.102	2434
283.161	2740
283.220	8643
283.279	21623
283.338	7086
283.396	4141
283.455	3747
283.514	3525
283.573	7210
283.631	4768
283.690	3163
283.749	3279
283.808	7949
283.866	10164
283.925	3408
283.984	3087
284.043	4799
284.101	5211
284.160	3301
284.219	6301
284.277	3937
284.336	7405
284.395	25254
284.453	21318
284.512	7524
284.570	10951
284.629	8687
284.688	7076
284.746	7971
284.805	8879
284.863	11950
284.922	14853
284.981	17321
285.039	23687
285.098	40262
285.156	92287
285.215	158736
285.273	153766
285.332	100478
285.390	52081
285.449	31857
285.507	21058
285.566	15573
285.624	12924
285.683	9790
285.741	8369
285.799	6522
285.858	6621
285.916	6248
285.975	4778
286.033	4071
286.091	3476
286.150	3735
286.208	3572
286.267	4559
286.325	4411
286.383	7906
286.442	6466
286.500	2476
286.558	2522
286.616	2662
286.675	3821
286.733	4132
286.791	3568
286.850	4997
286.908	6039
286.966	10225
287.024	4472
287.083	3429
287.141	1999
287.199	2460
287.257	5056
287.315	3215
287.374	4230
287.432	11634
287.490	7173
287.548	4770
287.606	3390
287.664	3073
287.723	5239
287.781	7158
287.839	4546
287.897	5569
287.955	8093
288.013	11017
288.071	23404
288.129	86109
288.187	224553
288.245	111052
288.303	35987
288.361	19235
288.419	14034
288.477	8887
288.535	7255
288.593	5951
288.651	4380
288.709	3981
288.767	3606
288.825	2773
288.883	2690
288.941	3751
288.999	2603
289.057	2409
289.115	1745
289.173	1909
289.231	2511
289.289	3342
289.346	2343
289.404	2901
289.462	5222
289.520	6579
289.578	3196
289.636	2191
289.694	1292
289.751	1873
289.809	2318
289.867	2688
289.925	3177
289.983	3373
290.040	1547
290.098	1468
290.156	2371
290.214	3344
290.271	1512
290.329	1244
290.387	1902
290.444	1477
290.502	1420
290.560	1886
290.617	2090
290.675	1973
290.733	1276
290.790	1727
290.848	2155
290.906	2446
290.963	2627
291.021	2486
291.078	1973
291.136	3267
291.194	11064
291.251	25064
291.309	7253
291.366	3112
291.424	2604
291.481	2400
291.539	2498
291.596	1956
291.654	738
291.711	1630
291.769	1694
291.826	6461
291.884	4169
291.941	1972
291.999	2220
292.056	2796
292.114	3332
292.171	1323
292.228	2138
292.286	3232
292.343	6685
292.401	7939
292.458	4860
292.515	2312
292.573	4100
292.630	3495
292.687	4202
292.745	3602
292.802	3830
292.859	13943
292.917	22994
292.974	13591
293.031	4174
293.089	2990
293.146	2189
293.203	1861
293.260	2251
293.318	2380
293.375	6668
293.432	3566
293.489	2728
293.546	2317
293.604	3584
293.661	11562
293.718	34102
293.775	17564
293.832	8631
293.889	6352
293.947	5150
294.004	3471
294.061	3835
294.118	9154
294.175	22864
294.232	31736
294.289	12979
294.346	6433
294.403	5928
294.460	4520
294.517	3903
294.574	3240
294.631	3439
294.688	3308
294.745	9974
294.802	39676
294.859	49084
294.916	16737
294.973	8571
295.030	7225
295.087	6151
295.144	4783
295.201	4626
295.258	3003
295.315	4545
295.372	13821
295.429	28101
295.486	13364
295.542	7971
295.599	20052
295.656	37132
295.713	22632
295.770	28404
295.827	11853
295.883	5775
295.940	5356
295.997	9274
296.054	8782
296.111	4652
296.167	3912
296.224	2659
296.281	2852
296.338	3344
296.394	2809
296.451	4203
296.508	12331
296.564	24174
296.621	15540
296.678	29190
296.734	44026
296.791	17558
296.848	9034
296.904	8410
296.961	19496
297.018	30480
297.074	23840
297.131	10349
297.187	6773
297.244	8759
297.301	27020
297.357	51006
297.414	18877
297.470	8765
297.527	5923
297.583	4564
297.640	4731
297.696	3805
297.753	3452
297.809	2877
297.866	2286
297.922	3237
297.979	2533
298.035	3346
298.092	6207
298.148	17600
298.204	18413
298.261	7806
298.317	13177
298.374	35709
298.430	22042
298.486	9435
298.543	7910
298.599	6829
298.656	8077
298.712	13127
298.768	34432
298.824	24963
298.881	8583
298.937	4880
298.993	4569
299.050	6308
299.106	4976
299.162	4501
299.218	5057
299.275	3380
299.331	4545
299.387	7547
299.443	30030
299.500	33483
299.556	11898
299.612	6132
299.668	5159
299.724	5756
299.780	5868
299.837	4035
299.893	7585
299.949	26289
300.005	32344
300.061	25966
300.117	45311
300.173	22572
300.229	9687
300.285	11687
300.341	13659
300.397	7596
300.453	5166
300.510	4194
300.566	4647
300.622	5144
300.678	11249
300.734	25502
300.790	25178
300.845	31358
300.901	18761
300.957	26942
301.013	22017
301.069	8186
301.125	5640
301.181	7261
301.237	5120
301.293	3405
301.349	3345
301.405	3268
301.461	4062
301.516	5608
301.572	5458
301.628	9503
301.684	7832
301.740	12685
301.796	20520
301.851	14020
301.907	22012
301.963	20483
302.019	31129
302.074	83511
302.130	84112
302.186	39898
302.242	17094
302.297	9317
302.353	9589
302.409	19994
302.464	17877
302.520	13781
302.576	32015
302.631	39464
302.687	22016
302.743	9397
302.798	6521
302.854	5831
302.910	5341
302.965	6861
303.021	12962
303.076	11788
303.132	14072
303.187	16477
303.243	8738
303.299	5751
303.354	4904
303.410	4929
303.465	4156
303.521	3975
303.576	4412
303.632	4800
303.687	9269
303.743	27548
303.798	24982
303.853	11095
303.909	6386
303.964	5536
304.020	8330
304.075	11781
304.130	11095
304.186	19820
304.241	21092
304.297	17039
304.352	9508
304.358	9141
304.407	6155
304.449	5689
304.463	5535
304.518	5343
304.539	5128
304.573	4773
304.629	4739
304.630	4799
304.684	7724
304.720	15953
304.739	20029
304.794	32234
304.811	27961
304.850	17600
304.902	8817
304.905	8272
304.960	6206
304.992	6636
305.015	6879
305.071	7267
305.083	6800
305.126	5023
305.173	4027
305.181	3895
305.236	3210
305.264	4037
305.292	4922
305.347	6359
305.354	6415
305.402	6726
305.445	7223
305.457	7340
305.512	9169
305.535	8997
305.567	8851
305.622	7792
305.626	8100
305.678	15453
305.716	31084
305.733	36483
305.788	39849
305.807	33976
305.843	24092
305.897	30123
305.898	30177
305.953	31333
305.988	21609
306.008	16341
306.063	10908
306.078	9780
306.118	7088
306.168	5080
306.173	4934
306.228	4618
306.259	4298
306.283	4165
306.338	5021
306.349	5169
306.393	5746
306.440	7503
306.448	7816
306.503	7634
306.530	7793
306.558	9847
306.613	20784
306.620	22174
306.668	29203
306.711	35108
306.723	35442
306.778	27520
306.801	21538
306.833	14873
306.888	8860
306.892	8536
306.943	6168
306.982	5880
306.997	5899
307.052	5333
307.072	5732
307.107	6998
307.162	9290
307.163	9328
307.217	14504
307.253	17007
307.272	17340
307.327	18066
307.343	16801
307.381	13948
307.434	11697
307.436	11988
307.491	23376
307.524	34299
307.546	37090
307.600	34214
307.614	30875
307.655	20140
307.704	12246
307.710	12119
307.765	14433
307.795	17422
307.819	20945
307.874	34607
307.885	35072
307.929	30261
307.975	24823
307.984	25730
308.038	36532
308.065	44227
308.093	67806
308.148	130096
308.156	142769
308.202	197107
308.246	226163
308.257	221414
308.312	145887
308.336	113943
308.366	88291
308.421	54090
308.426	51081
308.475	35258
308.517	25640
308.530	24029
308.585	20075
308.607	19041
308.639	19169
308.694	19905
308.697	20051
308.748	31281
308.787	43838
308.803	44344
308.857	36241
308.877	32253
308.912	29754
308.967	29795
308.967	29793
309.021	41200
309.058	49919
309.076	62145
309.130	105259
309.148	121767
309.185	172838
309.238	259679
309.239	260493
309.293	273313
309.328	260553
309.348	236941
309.402	151717
309.418	129173
309.457	94431
309.508	58027
309.511	57173
309.566	47072
309.598	42667
309.620	44383
309.674	51220
309.688	53142
309.729	50548
309.778	43522
309.783	42763
309.837	33045
309.868	27990
309.892	32195
309.946	44635
309.959	48631
310.001	61634
310.049	73202
310.055	70954
310.109	43651
310.139	28687
310.163	23940
310.218	15907
310.229	14570
310.272	12888
310.319	11179
310.326	11029
310.381	10376
310.409	9908
310.435	9603
310.489	8994
310.499	8929
310.543	9584
310.589	10235
310.598	10282
310.652	10386
310.679	10300
310.706	9577
310.760	7997
310.769	7782
310.814	7321
310.859	6629
310.868	6639
310.923	6744
310.948	6826
310.977	7550
311.031	9068
311.038	9224
311.085	8930
311.128	8553
311.139	8575
311.193	8753
311.218	8689
311.247	8366
311.301	7886
311.308	7797
311.356	8373
311.398	8884
311.410	8739
311.464	7877
311.488	7476
311.518	7495
311.572	7436
311.578	7418
311.626	10163
311.668	12625
311.680	12751
311.734	12897
311.758	12958
311.788	12862
311.842	12624
311.847	12558
311.896	16157
311.937	19318
311.950	19095
312.004	17782
312.027	17134
312.058	14715
312.112	10349
312.117	9888
312.165	10187
312.207	10402
312.297	16609
312.386	12495
312.476	10869
312.566	18588
312.656	10099
312.745	9417
312.835	10179
312.925	11363
313.015	10808
313.104	10161
313.194	9297
313.284	10223
313.374	12084
313.463	11821
313.553	9301
313.643	8876
313.732	9465
313.822	8894
313.912	9783
314.001	10748
314.091	12208
314.180	17626
314.270	13742
314.360	13359
314.449	11363
314.539	9677
314.628	9386
314.718	10614
314.808	13043
314.897	9058
314.987	9037
315.076	10534
315.166	13002
315.255	12231
315.345	11991
315.434	11538
315.524	11226
315.613	12632
315.703	13722
315.792	14907
315.881	19555
315.971	12913
316.060	19138
316.150	27513
316.239	27954
316.328	13703
316.418	9127
316.507	9259
316.597	11405
316.686	11109
316.775	14522
316.865	29048
316.954	9687
317.043	7279
317.133	8644
317.222	8782
317.311	7899
317.400	7162
317.490	11147
317.579	11145
317.668	7780
317.757	11677
317.847	16585
317.936	30897
318.025	25161
318.114	14258
318.203	14083
318.293	21443
318.382	42898
318.471	31627
318.560	45320
318.649	84864
318.738	19621
318.828	13713
318.917	13456
319.006	16027
319.095	37910
319.184	101237
319.273	53164
319.362	26754
319.451	12287
319.540	10028
319.629	21064
319.718	32778
319.807	17798
319.896	36393
319.985	118610
320.074	42427
320.163	14660
320.252	20566
320.341	20992
320.430	19730
320.519	19415
320.608	12948
320.697	11952
320.786	11309
320.875	13022
320.964	15066
321.053	23281
321.142	31469
321.230	32627
321.319	27944
321.408	61446
321.497	27282
321.586	24318
321.675	31959
321.764	32730
321.852	23847
321.941	36136
322.030	23965
322.119	28717
322.207	59286
322.296	43543
322.385	24914
322.474	25261
322.562	68708
322.651	37730
322.740	25360
322.829	33128
322.917	37500
323.006	22288
323.095	19603
323.183	16575
323.272	23681
323.361	39565
323.449	102181
323.538	36562
323.626	75555
323.715	42748
323.804	22465
323.892	68541
323.981	37445
324.069	15284
324.158	40072
324.246	36024
324.335	15301
324.424	22585
324.512	11271
324.601	15440
324.689	25585
324.778	44242
324.866	27664
324.954	10906
325.043	10271
325.131	19255
325.220	31961
325.308	34274
325.397	26636
325.485	17147
325.574	8044
325.662	8113
325.750	9783
325.839	8486
325.927	8583
326.015	10205
326.104	14875
326.192	18833
326.280	9157
326.369	8397
326.457	12255
326.545	20001
326.634	10876
326.722	7169
326.810	7836
326.898	8013
326.987	9095
327.075	18429
327.163	19019
327.251	11169
327.340	18801
327.428	25976
327.516	8576
327.604	8397
327.692	8936
327.781	9732
327.869	15534
327.957	11186
328.045	9763
328.133	7568
328.221	9782
328.309	8900
328.397	7654
328.485	9644
328.574	13231
328.662	36234
328.750	21609
328.838	10991
328.926	7138
329.014	7461
329.102	10816
329.190	30964
329.278	19512
329.366	6841
329.454	7131
329.542	7070
329.630	6338
329.718	7908
329.806	8871
329.893	10200
329.981	9465
330.069	8110
330.157	17724
330.245	43969
330.333	23506
330.421	9042
330.509	13549
330.597	44284
330.684	31597
330.772	14538
330.860	20972
330.948	30330
331.036	13541
331.123	6262
331.211	8249
331.299	10727
331.387	24255
331.475	42914
331.562	13037
331.650	7775
331.738	8429
331.825	11770
331.913	7773
332.001	6931
332.089	10512
332.176	19578
332.264	38790
332.352	30522
332.439	12824
332.527	9676
332.614	8601
332.702	10691
332.790	8254
332.877	19097
332.965	35157
333.052	11376
333.140	11755
333.228	22346
333.315	9379
333.403	9057
333.490	23274
333.578	19918
333.665	24103
333.753	14151
333.840	8552
333.928	10278
334.015	24118
334.103	38639
334.190	115097
334.278	31998
334.365	14088
334.452	10860
334.540	7799
334.627	10995
334.715	14138
334.802	26160
334.889	122310
334.977	108492
335.064	16260
335.151	12065
335.239	11163
335.326	16610
335.413	62126
335.501	82099
335.588	14114
335.675	10265
335.762	14778
335.850	25201
335.937	15169
336.024	36127
336.111	136305
336.199	54868
336.286	13061
336.373	8133
336.460	7079
336.547	8261
336.635	11230
336.722	9875
336.809	9101
336.896	13796
336.983	41524
337.070	98987
337.157	122669
337.245	85306
337.332	55571
337.419	10816
337.506	8312
337.593	10579
337.680	36139
337.767	105153
337.854	29866
337.941	34657
338.028	34050
338.115	14611
338.202	18434
338.289	27936
338.376	81561
338.463	28668
338.550	62977
338.637	63202
338.724	20218
338.811	28198
338.898	8081
338.984	8050
339.071	11751
339.158	11274
339.245	26346
339.332	17921
339.419	21258
339.506	19494
339.593	5591
339.679	7579
339.766	7415
339.853	9998
339.940	18059
340.027	7745
340.113	8869
340.200	11088
340.287	8446
340.374	10788
340.460	17607
340.547	10677
340.634	12500
340.720	41417
340.807	24159
340.894	7372
340.980	8107
341.067	6465
341.154	8858
341.240	13830
341.327	23324
341.414	11306
341.500	13500
341.587	8785
341.674	6993
341.760	16251
341.847	18898
341.933	8046
342.020	5041
342.106	5351
342.193	7889
342.279	12461
342.366	10811
342.452	15913
342.539	8976
342.625	20574
342.712	44242
342.798	19580
342.885	10084
342.971	5564
343.058	5108
343.144	5785
343.230	5893
343.317	7630
343.403	6700
343.490	5531
343.576	4751
343.662	6935
343.749	7911
343.835	9611
343.921	15282
344.008	72347
344.094	144723
344.180	34616
344.267	16572
344.353	48180
344.439	50839
344.525	28691
344.612	36161
344.698	43798
344.784	27390
344.870	12612
344.957	8888
345.043	12041
345.129	8775
345.215	16888
345.301	12683
345.387	10776
345.474	4783
345.560	5969
345.646	7626
345.732	8366
345.818	9957
345.904	8216
345.990	7994
346.076	8680
346.162	17363
346.249	9163
346.335	6507
346.421	6687
346.507	21725
346.593	59825
346.679	16609
346.765	9379
346.851	7034
346.937	6403
347.023	6575
347.108	8088
347.194	7752
347.280	7783
347.366	8675
347.452	20866
347.538	70976
347.624	55675
347.710	47030
347.796	10748
347.882	8114
347.967	7563
348.053	11947
348.139	8163
348.225	6151
348.311	6678
348.397	6156
348.482	8282
348.568	9850
348.654	5956
348.740	6485
348.825	7466
348.911	11074
348.997	37000
349.083	65381
349.168	13576
349.254	9735
349.340	10416
349.425	5809
349.511	8966
349.597	11422
349.682	16374
349.768	48119
349.854	24205
349.939	9011
350.025	6301
350.110	9368
350.196	7621
350.282	5987
350.367	5787
350.453	9762
350.538	10602
350.624	10649
350.709	9834
350.795	5396
350.880	5985
350.966	8977
351.051	11170
351.137	7715
351.222	7131
351.308	18699
351.393	45769
351.479	15152
351.564	8247
351.649	6803
351.735	5361
351.820	5325
351.906	6678
351.991	9515
352.076	29786
352.162	42196
352.247	10253
352.332	9071
352.418	17413
352.503	20674
352.588	65858
352.673	52522
352.759	13746
352.844	8081
352.929	9570
353.014	11136
353.100	7466
353.185	7821
353.270	15326
353.355	17593
353.441	7424
353.526	8248
353.611	14801
353.696	18016
353.781	11935
353.866	6406
353.952	7957
354.037	15958
354.122	32520
354.207	30095
354.292	13031
354.377	7011
354.462	6683
354.547	8875
354.632	9002
354.717	12247
354.802	9766
354.887	6616
354.972	6707
355.057	5749
355.142	5528
355.227	8013
355.312	11709
355.397	23502
355.482	50466
355.567	25902
355.652	19407
355.737	20571
355.822	54707
355.907	45099
355.991	9702
356.076	7290
356.161	7367
356.246	6549
356.331	8118
356.416	15108
356.501	79815
356.585	78666
356.670	16937
356.755	12404
356.840	14678
356.924	57807
357.009	178982
357.094	72714
357.179	20592
357.263	14984
357.348	15369
357.433	16319
357.517	14427
357.602	13187
357.687	10247
357.771	16110
357.856	54637
357.941	33981
358.025	50390
358.110	179589
358.195	88150
358.279	18261
358.364	15226
358.448	40946
358.533	106677
358.617	78311
358.702	74776
358.787	29630
358.871	19418
358.956	16818
359.040	8203
359.125	6578
359.209	7755
359.294	27693
359.378	48571
359.462	16046
359.547	10370
359.631	7927
359.716	6436
359.800	7578
359.885	13262
359.969	7006
360.053	7395
360.138	8535
360.222	10571
360.306	17734
360.391	14340
360.475	30805
360.559	62976
360.644	43473
360.728	30271
360.812	45952
360.896	114443
360.981	57886
361.065	36823
361.149	10824
361.233	10573
361.318	9193
361.402	9733
361.486	8896
361.570	7576
361.654	8736
361.739	20933
361.823	79842
361.907	114635
361.991	26633
362.075	16749
362.159	31439
362.243	23271
362.327	20336
362.411	21174
362.495	13903
362.580	10156
362.664	7550
362.748	8266
362.832	9417
362.916	12969
363.000	34033
363.084	93575
363.168	132578
363.252	36595
363.336	16629
363.420	22217
363.503	85323
363.587	101009
363.671	19246
363.755	13385
363.839	19570
363.923	11317
364.007	19566
364.091	23048
364.175	33129
364.258	131573
364.342	81892
364.426	59218
364.510	33338
364.594	24927
364.677	30989
364.761	102099
364.845	72965
364.929	30362
365.013	24681
365.096	20388
365.180	24614
365.264	37921
365.347	133346
365.431	62688
365.515	20075
365.598	9692
365.682	9853
365.766	20181
365.849	26525
365.933	10826
366.017	15566
366.100	15625
366.184	6782
366.267	7719
366.351	6531
366.435	7285
366.518	5563
366.602	5977
366.685	7196
366.769	7861
366.852	16114
366.936	27195
367.019	13226
367.103	13764
367.186	29928
367.270	9598
367.353	5218
367.436	6962
367.520	6189
367.603	7556
367.687	11493
367.770	19739
367.853	12351
367.937	34470
368.020	54376
368.104	15513
368.187	15666
368.270	23449
368.353	22294
368.437	25850
368.520	55805
368.603	35940
368.687	42209
368.770	76535
368.853	22055
368.936	23894
369.020	28173
369.103	10098
369.186	7874
369.269	8046
369.352	14461
369.436	20784
369.519	13947
369.602	7868
369.685	9485
369.768	8837
369.851	8405
369.934	6912
370.018	8794
370.101	17123
370.184	15497
370.267	12738
370.350	20388
370.433	29864
370.516	59365
370.599	62792
370.682	21647
370.765	46769
370.848	54146
370.931	88885
371.014	39768
371.097	11193
371.180	8615
371.263	6586
371.346	4739
371.429	6521
371.511	6697
371.594	13234
371.677	22217
371.760	30837
371.843	21025
371.926	76246
372.009	160065
372.091	59894
372.174	39805
372.257	81287
372.340	35191
372.423	35256
372.505	46309
372.588	19748
372.671	31078
372.754	85370
372.836	45065
372.919	44717
373.002	90732
373.085	28096
373.167	17994
373.250	40862
373.332	82531
373.415	108257
373.498	201014
373.580	83024
373.663	98357
373.746	129155
373.828	37066
373.911	19569
373.993	21705
374.076	82890
374.159	78867
374.241	30109
374.324	78028
374.406	53211
374.489	66524
374.571	167815
374.654	72251
374.736	38319
374.819	107520
374.901	148863
374.983	146343
375.066	30782
375.148	15743
375.231	64795
375.313	126506
375.395	51265
375.478	12684
375.560	9181
375.643	11022
375.725	35286
375.807	130370
375.890	107694
375.972	51708
376.054	31026
376.136	46680
376.219	21474
376.301	41625
376.383	109647
376.465	43856
376.548	29909
376.630	37859
376.712	95302
376.794	45236
376.877	8722
376.959	6382
377.041	9196
377.123	22740
377.205	29390
377.287	6349
377.369	6883
377.452	5927
377.534	6578
377.616	6073
377.698	5414
377.780	5086
377.862	7052
377.944	7264
378.026	5280
378.108	5517
378.190	5769
378.272	5484
378.354	5698
378.436	5196
378.518	11734
378.600	42429
378.682	34387
378.764	55790
378.846	45318
378.928	16120
379.010	22410
379.091	12223
379.173	7473
379.255	6167
379.337	8825
379.419	27486
379.501	75613
379.583	33194
379.664	9961
379.746	21354
379.828	57574
379.910	76269
379.991	62889
380.073	13396
380.155	9547
380.237	7413
380.318	6478
380.400	6657
380.482	14591
380.564	20308
380.645	17899
380.727	17199
380.809	11964
380.890	9699
380.972	7873
381.053	6969
381.135	9260
381.217	20853
381.298	59626
381.380	30771
381.461	24851
381.543	96537
381.624	114652
381.706	26104
381.787	15815
381.869	17714
381.951	45908
382.032	152294
382.113	100772
382.195	27600
382.276	18366
382.358	33430
382.439	88816
382.521	98168
382.602	143004
382.684	71808
382.765	129234
382.846	142363
382.928	177891
383.009	100660
383.090	78745
383.172	260577
383.253	371292
383.334	143113
383.416	135013
383.497	73383
383.578	39230
383.659	72004
383.741	239096
383.822	541279
383.903	281206
383.984	107732
384.066	172006
384.147	110332
384.228	26796
384.309	19710
384.390	16162
384.471	12890
384.553	13660
384.634	19079
384.715	18701
384.796	10982
384.877	13634
384.958	50344
385.039	63902
385.120	26010
385.201	12870
385.282	17191
385.363	18951
385.444	14925
385.525	26127
385.606	74421
385.687	60724
385.768	20898
385.849	26927
385.930	84484
386.011	134384
386.092	42152
386.173	13978
386.254	11632
386.335	13014
386.416	13591
386.496	38023
386.577	61540
386.658	26103
386.739	17015
386.820	18208
386.901	14344
386.981	12112
387.062	8417
387.143	14877
387.224	54265
387.304	52772
387.385	20524
387.466	15463
387.547	20693
387.627	14094
387.708	21702
387.789	91370
387.869	109499
387.950	31282
388.031	9560
388.111	10974
388.192	28971
388.273	41931
388.353	24080
388.434	12260
388.514	22316
388.595	82682
388.676	109029
388.756	58423
388.837	55007
388.917	35475
388.998	10177
389.078	9903
389.159	8487
389.239	7506
389.320	12507
389.400	11404
389.480	24817
389.561	58317
389.641	29995
389.722	12936
389.802	20562
389.883	27903
389.963	65351
390.043	45095
390.124	19110
390.204	23897
390.284	65651
390.365	44290
390.445	62389
390.525	140933
390.605	112333
390.686	38362
390.766	14594
390.846	9596
390.927	7108
391.007	8253
391.087	10648
391.167	9027
391.247	7407
391.328	13464
391.408	24901
391.488	20101
391.568	6699
391.648	9914
391.728	14889
391.808	13373
391.888	14311
391.969	33190
392.049	53596
392.129	28194
392.209	30010
392.289	64004
392.369	39597
392.449	45333
392.529	27887
392.609	16347
392.689	20890
392.769	59267
392.849	50922
392.929	42447
393.009	95738
393.089	62918
393.169	38002
393.248	116908
393.328	460333
393.408	497433
393.488	124382
393.568	36896
393.648	22875
393.728	17237
393.807	14691
393.887	15495
393.967	15840
394.047	21440
394.127	29149
394.206	53011
394.286	168225
394.366	491890
394.446	515413
394.525	196512
394.605	63935
394.685	43133
394.764	70351
394.844	107428
394.924	72445
395.003	24586
395.083	16881
395.163	15193
395.242	16172
395.322	15469
395.402	12716
395.481	17947
395.561	44159
395.640	109708
395.720	81695
395.799	120563
395.879	109532
395.958	91833
396.038	255871
396.117	613567
396.197	634482
396.276	323791
396.356	132183
396.435	82660
396.515	48671
396.594	38115
396.673	49024
396.753	144445
396.832	447313
396.912	344424
396.991	89390
397.070	26512
397.150	15939
397.229	14233
397.308	16168
397.388	23720
397.467	15902
397.546	10466
397.625	7482
397.705	12782
397.784	12498
397.863	7819
397.942	6053
398.022	9116
398.101	33432
398.180	100426
398.259	57504
398.338	15784
398.417	10032
398.497	7882
398.576	7876
398.655	6594
398.734	6535
398.813	7589
398.892	31759
398.971	103793
399.050	52562
399.129	7677
399.208	5545
399.287	6484
399.366	5810
399.445	6246
399.524	6390
399.603	4837
399.682	10973
399.761	31544
399.840	104363
399.919	83015
399.998	13130
400.077	5390
400.156	4620
400.235	8554
400.313	5620
400.392	8514
400.471	31921
400.550	51747
400.629	15425
400.708	8954
400.786	9253
400.865	29156
400.944	33584
401.023	14060
401.102	4255
401.180	5249
401.259	5746
401.338	8139
401.416	9689
401.495	8338
401.574	9054
401.652	7564
401.731	9892
401.810	7031
401.888	5317
401.967	4250
402.046	5768
402.124	9116
402.203	11419
402.281	7467
402.360	11221
402.438	35589
402.517	27264
402.596	8951
402.674	9630
402.753	6879
402.831	5055
402.910	6133
402.988	14698
403.066	40654
403.145	25388
403.223	16912
403.302	34481
403.380	25577
403.459	21200
403.537	12127
403.615	8069
403.694	4390
403.772	5737
403.850	4639
403.929	5935
404.007	6457
404.085	10615
404.164	10750
404.242	17397
404.320	54540
404.398	150475
404.477	167101
404.555	168616
404.633	140173
404.711	121699
404.789	98305
404.868	29649
404.946	12126
405.024	9091
405.102	6375
405.180	4986
405.258	5606
405.336	6530
405.415	6150
405.493	13342
405.571	10164
405.649	4773
405.727	5828
405.805	9888
405.883	8391
405.961	9058
406.039	12235
406.117	6227
406.195	8914
406.273	31592
406.351	110374
406.429	70532
406.507	17101
406.585	8606
406.663	7273
406.740	7916
406.818	7264
406.896	5656
406.974	6147
407.052	11629
407.130	66004
407.208	91898
407.285	20828
407.363	5469
407.441	6252
407.519	5758
407.596	6740
407.674	24724
407.752	95425
407.830	89504
407.907	26556
407.985	7373
408.063	6279
408.141	4632
408.218	9935
408.296	8946
408.373	5045
408.451	5819
408.529	5936
408.606	4053
408.684	3789
408.762	2505
408.839	2700
408.917	3425
408.994	3609
409.072	3239
409.149	4188
409.227	5518
409.304	7015
409.382	5252
409.459	4733
409.537	6606
409.614	6552
409.692	5042
409.769	4947
409.846	7246
409.924	10148
410.001	8977
410.079	6615
410.156	6652
410.233	5762
410.311	4956
410.388	3374
410.465	5659
410.543	6309
410.620	4572
410.697	4694
410.775	5177
410.852	2957
410.929	7179
411.006	8240
411.083	5188
411.161	13267
411.238	15501
411.315	9408
411.392	4607
411.469	8055
411.547	8878
411.624	4558
411.701	4308
411.778	5415
411.855	10576
411.932	7289
412.009	3811
412.086	5078
412.163	5601
412.240	7307
412.317	9340
412.394	8723
412.471	4106
412.548	3359
412.625	4127
412.702	5847
412.779	11445
412.856	9288
412.933	4363
413.010	3962
413.087	7612
413.164	31030
413.241	45078
413.318	11429
413.395	8227
413.471	11399
413.548	5698
413.625	4781
413.702	6532
413.779	5500
413.855	2930
413.932	3010
414.009	2390
414.086	3668
414.162	4123
414.239	7517
414.316	28462
414.393	63515
414.469	23172
414.546	4629
414.623	3650
414.699	4237
414.776	5312
414.853	3309
414.929	4546
415.006	4571
415.082	6985
415.159	5111
415.236	4721
415.312	5318
415.389	7215
415.465	9502
415.542	6019
415.618	3660
415.695	7704
415.771	5950
415.848	4935
415.924	6155
416.000	5584
416.077	4664
416.153	2631
416.230	2121
416.306	2193
416.383	2995
416.459	3085
416.535	3121
416.612	2955
416.688	3345
416.764	3270
416.841	3043
416.917	3366
416.993	3623
417.069	5098
417.146	10115
417.222	16639
417.298	8969
417.374	4296
417.451	5093
417.527	6149
417.603	5645
417.679	3626
417.755	4385
417.831	1910
417.908	3445
417.984	3399
418.060	2696
418.136	8988
418.212	11738
418.288	5230
418.364	3784
418.440	3981
418.516	6788
418.592	10883
418.668	16949
418.744	21477
418.820	16223
418.896	5954
418.972	3251
419.048	4385
419.124	9852
419.200	8364
419.276	3471
419.352	2019
419.428	2936
419.504	3461
419.579	5133
419.655	3360
419.731	4762
419.807	13563
419.883	22959
419.959	16168
420.034	6274
420.110	11739
420.186	41898
420.262	33011
420.337	8438
420.413	6381
420.489	3908
420.565	4201
420.640	4064
420.716	4790
420.792	3356
420.867	4673
420.943	4140
421.019	7191
421.094	6452
421.170	4258
421.245	3916
421.321	4708
421.397	5725
421.472	18300
421.548	55935
421.623	37390
421.699	9103
421.774	7690
421.850	6660
421.925	10303
422.001	9877
422.076	7067
422.152	10235
422.227	15191
422.302	17275
422.378	23164
422.453	41009
422.529	95551
422.604	265336
422.679	408579
422.755	287419
422.830	111208
422.905	44483
422.981	24636
423.056	17011
423.131	12400
423.207	10637
423.282	10587
423.357	15967
423.432	11487
423.508	10336
423.583	21042
423.658	17281
423.733	7711
423.808	8406
423.883	9538
423.959	7298
424.034	5431
424.109	5574
424.184	4304
424.259	3804
424.334	3630
424.409	3444
424.484	3808
424.559	4642
424.634	3933
424.709	5167
424.784	6757
424.859	4593
424.934	8118
425.009	27837
425.084	46332
425.159	18471
425.234	5331
425.309	4070
425.384	17185
425.459	32448
425.534	10655
425.609	5133
425.683	3655
425.758	3910
425.833	4054
425.908	5483
425.983	17198
426.058	47536
426.132	23636
426.207	7128
426.282	11083
426.357	10933
426.431	4441
426.506	4488
426.581	4031
426.655	4298
426.730	4531
426.805	2931
426.879	4750
426.954	4450
427.029	8558
427.103	42281
427.178	98741
427.253	44268
427.327	8765
427.402	13339
427.476	38095
427.551	20302
427.625	6900
427.700	6262
427.774	4703
427.849	6630
427.923	3457
427.998	3637
428.072	4889
428.147	10911
428.221	33002
428.296	84647
428.370	43839
428.444	9872
428.519	13624
428.593	28619
428.667	24029
428.742	28721
428.816	25091
428.890	65604
428.965	102426
429.039	40638
429.113	33271
429.188	13173
429.262	4433
429.336	9143
429.410	24385
429.485	17770
429.559	23333
429.633	19110
429.707	6229
429.781	16026
429.855	76431
429.930	105474
430.004	69078
430.078	116328
430.152	96103
430.226	113806
430.300	110977
430.374	19363
430.448	9742
430.522	36685
430.596	104731
430.670	60729
430.744	95827
430.818	134339
430.892	29653
430.966	6592
431.040	5314
431.114	3371
431.188	3308
431.262	3435
431.336	3537
431.410	12731
431.484	34129
431.557	20925
431.631	4480
431.705	4455
431.779	16045
431.853	68516
431.927	50095
432.000	6780
432.074	4492
432.148	6538
432.222	6012
432.295	4099
432.369	3374
432.443	7306
432.516	41208
432.590	97661
432.664	37001
432.737	6000
432.811	2892
432.885	2277
432.958	3238
433.032	2723
433.106	2286
433.179	3092
433.253	1901
433.326	2826
433.400	2234
433.473	2996
433.547	2078
433.620	2609
433.694	5986
433.767	7359
433.841	3342
433.914	3127
433.988	3030
434.061	3498
434.134	2889
434.208	1877
434.281	2061
434.355	2922
434.428	2967
434.501	2898
434.575	2604
434.648	3219
434.721	2279
434.795	1690
434.868	2508
434.941	1788
435.014	2160
435.088	2849
435.161	5074
435.234	7417
435.307	7520
435.381	4403
435.454	2911
435.527	3935
435.600	3691
435.673	4486
435.746	3614
435.819	3517
435.892	3027
435.966	2619
436.039	3380
436.112	3947
436.185	2224
436.258	2418
436.331	1249
436.404	1924
436.477	2383
436.550	1445
436.623	2890
436.696	2595
436.769	3254
436.842	3079
436.915	4115
436.987	5267
437.060	2462
437.133	2019
437.206	1760
437.279	3853
437.352	2637
437.425	2200
437.498	3095
437.570	8823
437.643	7789
437.716	2956
437.789	2035
437.861	7004
437.934	19026
438.007	8666
438.080	2977
438.152	3378
438.225	8070
438.298	48848
438.370	125141
438.443	53867
438.516	16130
438.588	4651
438.661	2189
438.734	2852
438.806	3331
438.879	4227
438.951	5708
439.024	9932
439.096	5004
439.169	2230
439.241	2059
439.314	2623
439.386	6530
439.459	8129
439.531	11068
439.604	4311
439.676	3111
439.749	2150
439.821	1560
439.893	2541
439.966	3109
440.038	3933
440.110	4288
440.183	2726
440.255	2506
440.327	5054
440.400	23554
440.472	86000
440.544	53808
440.617	8395
440.689	7243
440.761	9670
440.833	14877
440.905	10241
440.978	2842
441.050	1792
441.122	2703
441.194	2161
441.266	1680
441.338	2862
441.411	6359
441.483	30214
441.555	42017
441.627	10133
441.699	8109
441.771	8733
441.843	4415
441.915	2138
441.987	2114
442.059	2124
442.131	4072
442.203	6561
442.275	7141
442.347	6760
442.419	6878
442.491	28110
442.563	66310
442.635	32749
442.706	31708
442.778	25439
442.850	4772
442.922	3755
442.994	4466
443.066	7504
443.137	6061
443.209	5006
443.281	5491
443.353	12064
443.425	41528
443.496	126999
443.568	113547
443.640	37601
443.711	9938
443.783	6605
443.855	4215
443.926	3426
443.998	4595
444.070	6349
444.141	5766
444.213	7847
444.285	7426
444.356	6735
444.428	6651
444.499	2765
444.571	2105
444.642	2240
444.714	3366
444.785	6714
444.857	9259
444.928	23303
445.000	13098
445.071	14752
445.143	17117
445.214	8007
445.285	15055
445.357	42412
445.428	98068
445.500	207564
445.571	124134
445.642	55772
445.714	31178
445.785	36698
445.856	9999
445.928	7613
445.999	7402
446.070	5667
446.141	6204
446.213	7859
446.284	4273
446.355	7063
446.426	3457
446.497	3709
446.569	8110
446.640	10117
446.711	6448
446.782	3203
446.853	4661
446.924	4857
446.995	4351
447.066	5167
447.138	9242
447.209	5342
447.280	2088
447.351	2182
447.422	2217
447.493	4631
447.564	5230
447.635	5752
447.706	3117
447.777	1859
447.847	2030
447.918	2033
447.989	5600
448.060	7372
448.131	16815
448.202	13104
448.273	8321
448.344	4419
448.414	2852
448.485	2989
448.556	2508
448.627	2036
448.698	2723
448.768	1413
448.839	2505
448.910	8012
448.981	7491
449.051	3507
449.122	2486
449.193	2459
449.263	2910
449.334	2455
449.405	4076
449.475	9212
449.546	6371
449.616	10322
449.687	8376
449.758	3568
449.828	3029
449.899	2234
449.969	2222
450.040	3168
450.110	4141
450.181	4530
450.251	2456
450.322	2705
450.392	3773
450.463	2693
450.533	2618
450.604	3450
450.674	3098
450.744	3538
450.815	2551
450.885	2571
450.955	2951
451.026	2926
451.096	2508
451.166	3696
451.237	10806
451.307	26003
451.377	9677
451.447	3406
451.518	2352
451.588	3273
451.658	4015
451.728	7404
451.799	26994
451.869	28332
451.939	6679
452.009	3167
452.079	3237
452.149	3671
452.219	8527
452.289	31452
452.360	21337
452.430	5153
452.500	4603
452.570	4419
452.640	6473
452.710	17899
452.780	27958
452.850	15773
452.920	14019
452.990	5704
453.060	4845
453.129	6490
453.199	8603
453.269	30478
453.339	59243
453.409	88053
453.479	96109
453.549	141731
453.619	149269
453.688	52346
453.758	8668
453.828	5513
453.898	4998
453.968	3636
454.037	3839
454.087	4439
454.107	4681
454.168	3574
454.177	3407
454.247	3697
454.249	3673
454.316	2770
454.330	3279
454.386	5175
454.411	8945
454.456	15053
454.492	18187
454.525	21033
454.574	10986
454.595	6642
454.655	3861
454.665	3441
454.734	4717
454.736	4857
454.804	8790
454.817	12234
454.873	26013
454.898	26994
454.943	28469
454.979	18347
455.013	9321
455.060	6502
455.082	5518
455.141	6917
455.152	7103
455.221	20160
455.222	20433
455.291	37672
455.303	37411
455.360	34469
455.384	47659
455.430	69614
455.465	51753
455.499	35203
455.546	29540
455.569	26882
455.627	16611
455.638	14822
455.707	4787
455.708	4793
455.777	3995
455.789	4197
455.846	5061
455.869	4592
455.916	3704
455.950	3908
455.985	4099
456.031	3861
456.054	3705
456.112	3319
456.124	3258
456.193	3758
456.193	3748
456.262	4391
456.274	4652
456.332	5551
456.355	5533
456.401	5139
456.436	4736
456.470	4312
456.516	3378
456.540	3058
456.597	2517
456.609	2412
456.678	3069
456.678	3060
456.747	3036
456.759	2948
456.817	2799
456.840	2818
456.886	2673
456.920	2605
456.955	2621
457.001	2669
457.024	2797
457.082	3885
457.093	4044
457.162	4895
457.163	4917
457.232	6332
457.243	6006
457.301	3873
457.324	3271
457.370	2616
457.405	3000
457.439	3430
457.485	3373
457.508	3346
457.566	4090
457.577	4226
457.646	3914
457.647	3939
457.715	6057
457.727	6117
457.784	6482
457.808	7483
457.853	8948
457.889	10069
457.922	10607
457.969	8768
457.991	8374
458.050	8410
458.060	8463
458.129	11800
458.130	11922
458.198	13740
458.211	12637
458.267	7945
458.292	6540
458.336	5225
458.372	5097
458.405	5700
458.453	6867
458.474	7638
458.533	11821
458.543	12341
458.611	19738
458.614	19842
458.680	15250
458.694	13046
458.749	7749
458.775	6581
458.818	4776
458.855	4141
458.887	4033
458.936	3656
458.955	3458
459.016	3782
459.024	3846
459.093	4889
459.097	4867
459.162	4092
459.177	4262
459.230	4957
459.257	5279
459.299	5686
459.338	5534
459.368	5535
459.418	6498
459.437	6450
459.499	4777
459.505	4740
459.574	4400
459.579	4448
459.643	4236
459.659	4165
459.711	4467
459.740	4633
459.780	4842
459.820	5285
459.849	5488
459.900	5691
459.917	5740
459.981	5755
459.986	5728
460.054	5030
460.061	5055
460.123	5549
460.141	5558
460.191	6257
460.222	6663
460.260	6610
460.302	7180
460.328	7271
460.382	6799
460.397	6881
460.462	6743
460.465	6880
460.534	11255
460.543	11811
460.602	28474
460.623	35740
460.671	51969
460.703	74104
460.739	80659
460.783	72860
460.808	65300
460.864	18175
460.876	12262
460.944	6959
460.945	6894
461.013	5710
461.024	5605
461.081	5658
461.104	5978
461.150	5966
461.184	5300
461.218	5049
461.264	5071
461.286	4989
461.345	4896
461.355	4918
461.423	5432
461.425	5431
461.491	6072
461.505	6228
461.559	9549
461.585	11350
461.628	16416
461.665	21906
461.696	25004
461.745	33481
461.764	30910
461.825	11412
461.832	10818
461.901	6675
461.905	6636
461.969	5638
461.985	5498
462.037	5779
462.065	5854
462.105	6150
462.145	6635
462.173	8785
462.225	12790
462.241	13856
462.305	20317
462.310	19940
462.378	13312
462.385	11914
462.446	6494
462.465	5889
462.514	5694
462.545	5638
462.582	5601
462.625	5544
462.650	5562
462.705	5535
462.718	5617
462.785	5979
462.786	6008
462.854	7915
462.865	8342
462.922	10913
462.945	11969
462.990	10037
463.025	7364
463.058	6332
463.104	5332
463.126	5039
463.184	4927
463.194	5022
463.262	5251
463.264	5271
463.330	5653
463.344	5719
463.398	6702
463.424	7116
463.466	6923
463.504	6957
463.533	6889
463.583	6515
463.601	6586
463.663	6388
463.669	6533
463.737	8783
463.743	9016
463.805	15226
463.823	16928
463.873	23276
463.903	27744
463.940	30098
463.982	33661
464.008	28512
464.062	13011
464.076	11862
464.142	6807
464.144	6730
464.211	5535
464.221	5452
464.279	6213
464.301	6416
464.347	6868
464.381	7192
464.414	7665
464.461	8358
464.482	9024
464.540	11203
464.550	10911
464.617	8087
464.620	7984
464.685	8820
464.699	9008
464.753	10614
464.779	11578
464.820	13400
464.859	15155
464.888	14553
464.938	13081
464.956	13303
465.018	13963
465.023	13779
465.091	11293
465.098	11011
465.158	10546
465.177	10477
465.226	10651
465.257	10733
465.293	10801
465.336	10732
465.361	11254
465.416	12539
465.428	13556
465.495	19047
465.496	19127
465.563	27766
465.575	29377
465.631	37359
465.654	41031
465.698	27218
465.734	13879
465.765	12061
465.813	10034
465.833	9893
465.893	10202
465.900	10137
465.968	9442
465.972	9380
466.035	9022
466.052	8905
466.102	8946
466.131	9040
466.170	9170
466.210	9140
466.237	9652
466.290	10743
466.304	10598
466.369	9856
466.372	9866
466.439	9828
466.449	9803
466.506	10517
466.528	10771
466.573	15790
466.607	19527
466.641	27332
466.687	38225
466.708	42738
466.766	55546
466.775	51451
466.842	19598
466.845	18050
466.909	12746
466.925	11642
466.977	10601
467.004	10094
467.044	11662
467.083	13191
467.111	14198
467.163	16051
467.178	16983
467.242	20780
467.245	20659
467.312	17534
467.321	17097
467.379	17125
467.400	17095
467.446	17455
467.480	17670
467.559	16631
467.638	14349
467.717	15274
467.796	15579
467.875	16767
467.955	16010
468.034	23962
468.113	48113
468.192	70937
468.271	22224
468.350	14477
468.429	14172
468.508	15109
468.588	13090
468.667	14335
468.746	16208
468.825	16264
468.904	13251
468.983	15682
469.062	21026
469.141	27337
469.220	13429
469.299	13291
469.378	14418
469.456	18891
469.535	17256
469.614	15757
469.693	15870
469.772	20612
469.851	24592
469.930	20422
470.009	14386
470.088	14085
470.166	15887
470.245	19112
470.324	20303
470.403	17262
470.482	14547
470.560	14183
470.639	14422
470.718	16491
470.797	14732
470.875	16569
470.954	21681
471.033	23932
471.111	12537
471.190	13369
471.269	12313
471.347	12354
471.426	12813
471.505	16501
471.583	15599
471.662	15749
471.740	13864
471.819	13886
471.898	13645
471.976	13149
472.055	13948
472.133	14606
472.212	19393
472.290	19499
472.369	14788
472.447	12695
472.526	12139
472.604	13722
472.683	12914
472.761	14319
472.839	13728
472.918	12967
472.996	13255
473.075	15544
473.153	14382
473.231	12949
473.310	14437
473.388	14171
473.466	13641
473.545	15048
473.623	18470
473.701	17168
473.780	12358
473.858	12234
473.936	15690
474.014	13370
474.093	14370
474.171	19931
474.249	24572
474.327	19997
474.405	12041
474.484	11457
474.562	11326
474.640	12040
474.718	12192
474.796	11051
474.874	11077
474.952	9985
475.030	11113
475.108	10346
475.187	10816
475.265	11422
475.343	12607
475.421	13814
475.499	12986
475.577	12675
475.655	16718
475.733	30277
475.811	50352
475.889	44946
475.966	34388
476.044	11594
476.122	12048
476.200	13714
476.278	12561
476.356	11786
476.434	12975
476.512	12400
476.590	12943
476.667	14312
476.745	10660
476.823	12002
476.901	11323
476.979	12900
477.056	12305
477.134	13125
477.212	14004
477.290	12493
477.367	11224
477.445	9926
477.523	10931
477.601	11135
477.678	10709
477.756	13281
477.834	14892
477.911	11489
477.989	10497
478.066	10593
478.144	12583
478.222	12328
478.299	11393
478.377	13226
478.454	11742
478.532	10526
478.609	11323
478.687	11601
478.764	10317
478.842	12001
478.919	12328
478.997	11499
479.074	9767
479.152	12859
479.229	14526
479.307	12096
479.384	9589
479.461	9873
479.539	11741
479.616	12073
479.694	9932
479.771	11438
479.848	12150
479.926	15832
480.003	18058
480.080	11172
480.157	9590
480.235	9238
480.312	9931
480.389	11448
480.467	18085
480.544	22809
480.621	12485
480.698	11871
480.775	12686
480.853	13848
480.930	11143
481.007	12052
481.084	13686
481.161	16598
481.238	15317
481.315	10099
481.392	9713
481.470	10636
481.547	11483
481.624	11321
481.701	9408
481.778	10543
481.855	11084
481.932	17679
482.009	26805
482.086	22973
482.163	10481
482.240	11401
482.317	11883
482.393	12907
482.470	10987
482.547	11348
482.624	10044
482.701	11503
482.778	10884
482.855	9500
482.932	9385
483.009	9380
483.085	10005
483.162	13672
483.239	13026
483.316	10453
483.393	10088
483.469	8883
483.546	11983
483.623	12490
483.699	9898
483.776	9932
483.853	11648
483.930	18021
484.006	43480
484.083	75767
484.160	48356
484.236	62882
484.313	52099
484.389	37973
484.466	33244
484.543	31471
484.619	31272
484.696	33057
484.772	34883
484.849	35234
484.925	30346
485.002	30281
485.078	31080
485.155	31124
485.231	29190
485.308	28357
485.384	28881
485.461	34526
485.537	50874
485.614	63020
485.690	30240
485.766	28354
485.843	28421
485.919	33803
485.995	34950
486.072	25994
486.148	24982
486.224	25761
486.301	26795
486.377	29248
486.453	28946
486.530	29597
486.606	38347
486.682	44403
486.758	48430
486.835	56603
486.911	43971
486.987	62154
487.063	66309
487.139	69233
487.215	53945
487.292	34796
487.368	29302
487.444	30371
487.520	33587
487.596	33480
487.672	38186
487.748	58278
487.824	80411
487.900	47622
487.976	29309
488.052	30395
488.128	33483
488.204	29547
488.280	28023
488.356	31690
488.432	58073
488.508	87097
488.584	37720
488.660	24653
488.736	25300
488.812	24021
488.888	31019
488.964	36446
489.039	61371
489.115	91679
489.191	66063
489.267	27727
489.343	25441
489.418	23150
489.494	22203
489.570	20097
489.646	23437
489.722	22059
489.797	22635
489.873	32879
489.949	63226
490.024	63888
490.100	21274
490.176	21843
490.251	23136
490.327	27687
490.403	21033
490.478	19768
490.554	17900
490.629	19509
490.705	18026
490.781	19653
490.856	19049
490.932	22437
491.007	20418
491.083	20908
491.158	20156
491.234	24735
491.309	47503
491.385	56803
491.460	22238
491.536	21501
491.611	19435
491.686	18324
491.762	23345
491.837	38292
491.913	66878
491.988	87922
492.063	114302
492.139	43571
492.214	29581
492.289	17503
492.365	15522
492.440	19138
492.515	18632
492.590	18910
492.666	16235
492.741	20748
492.816	31037
492.891	22188
492.967	17673
493.042	14712
493.117	17023
493.192	18757
493.267	33608
493.342	105501
493.418	166498
493.493	33956
493.568	14346
493.643	14566
493.718	18824
493.793	24400
493.868	28157
493.943	17494
494.018	15027
494.093	14634
494.168	15659
494.243	13875
494.318	12707
494.393	13719
494.468	12649
494.543	13268
494.618	13721
494.693	14064
494.768	12505
494.842	15029
494.917	10948
494.992	12627
495.067	12309
495.142	12605
495.217	12751
495.292	12583
495.366	14766
495.441	16757
495.516	19783
495.591	26559
495.665	75745
495.740	176398
495.815	99849
495.890	21383
495.964	14809
496.039	18039
496.114	16600
496.188	19902
496.263	21110
496.338	15190
496.412	16615
496.487	21283
496.561	18138
496.636	21185
496.710	17142
496.785	18202
496.860	21928
496.934	16359
497.009	15873
497.083	15223
497.158	15134
497.232	17560
497.307	21876
497.381	17770
497.455	19870
497.530	28587
497.604	21249
497.679	18771
497.753	28269
497.827	36260
497.902	25001
497.976	32297
498.050	90041
498.125	348526
498.199	435156
498.273	54985
498.348	27405
498.422	23161
498.496	21581
498.570	23046
498.645	16865
498.719	18194
498.793	23381
498.867	34370
498.941	53929
499.016	149835
499.090	407748
499.164	198452
499.238	19867
499.312	17734
499.386	19552
499.460	20496
499.534	17758
499.609	22259
499.683	31449
499.757	32150
499.831	65943
499.905	261445
499.979	312963
500.053	47826
500.127	43352
500.201	27840
500.275	19976
500.349	17320
500.422	19027
500.496	26582
500.570	54495
500.644	150331
500.718	305294
500.792	94010
500.866	21504
500.940	24573
501.013	22086
501.087	19576
501.161	29912
501.235	41870
501.309	88481
501.382	254941
501.456	276074
501.530	56123
501.603	86319
501.677	45618
501.751	14981
501.825	19184
501.898	35562
501.972	101315
502.046	85693
502.119	20469
502.193	44751
502.266	113485
502.340	72770
502.413	49076
502.487	104597
502.561	66176
502.634	24318
502.708	15083
502.781	14289
502.855	13511
502.928	10209
503.002	11124
503.075	11828
503.149	12229
503.222	12986
503.295	14279
503.369	15548
503.442	22970
503.516	74928
503.589	202569
503.662	157139
503.736	44596
503.809	86470
503.882	88109
503.956	101043
504.029	114190
504.102	42084
504.175	46983
504.249	25264
504.322	19091
504.395	17623
504.468	13434
504.542	12348
504.615	11196
504.688	9587
504.761	9649
504.834	13868
504.907	15142
504.980	21839
505.053	15099
505.127	14229
505.200	20382
505.273	19155
505.346	14199
505.419	11335
505.492	10799
505.565	9491
505.638	9211
505.711	9291
505.784	9311
505.857	8428
505.930	11622
506.003	9352
506.076	11769
506.149	13311
506.221	17222
506.294	17155
506.367	39034
506.440	138118
506.513	101076
506.586	20334
506.659	13706
506.731	10181
506.804	12018
506.877	16272
506.950	14489
507.022	10305
507.095	12351
507.168	18080
507.241	12341
507.313	9320
507.386	9701
507.459	14023
507.531	10846
507.604	9157
507.677	10430
507.749	7661
507.822	13191
507.894	22738
507.967	33568
508.040	20106
508.112	17338
508.185	15916
508.257	14291
508.330	20453
508.402	16231
508.475	15374
508.547	17005
508.620	15791
508.692	23212
508.765	18753
508.837	12645
508.909	13569
508.982	12836
509.054	13848
509.127	12691
509.199	12258
509.271	12310
509.344	11169
509.416	12575
509.488	12644
509.560	13104
509.633	12539
509.705	16721
509.777	15514
509.849	19198
509.922	16173
509.994	16082
510.066	15643
510.138	16611
510.210	30652
510.283	30579
510.355	24056
510.427	20119
510.499	18133
510.571	18142
510.643	17655
510.715	24227
510.787	22412
510.859	18711
510.931	20178
511.003	23368
511.076	23392
511.148	16658
511.219	17538
511.291	26856
511.363	32310
511.435	19616
511.507	15202
511.579	16265
511.651	16001
511.723	15711
511.795	14258
511.867	15985
511.939	18547
512.010	31810
512.082	31298
512.154	16239
512.226	16188
512.298	22505
512.369	33244
512.441	27143
512.513	24885
512.585	20035
512.656	19459
512.728	22235
512.800	18146
512.871	17309
512.943	16614
513.015	14333
513.086	16034
513.158	17674
513.230	17097
513.301	22458
513.373	25895
513.444	18289
513.516	15414
513.588	15723
513.659	16703
513.731	19221
513.802	16730
513.874	27338
513.945	46063
514.016	23626
514.088	14766
514.159	15732
514.231	20722
514.302	29497
514.374	24007
514.445	22775
514.516	36679
514.588	34368
514.659	20259
514.730	32799
514.802	28868
514.873	16799
514.944	17519
515.016	16897
515.087	19936
515.158	24117
515.229	34760
515.301	17540
515.372	15995
515.443	15196
515.514	15236
515.585	13817
515.656	14998
515.728	15606
515.799	14248
515.870	15728
515.941	15471
516.012	15844
516.083	21888
516.154	24060
516.225	26552
516.296	25419
516.367	21980
516.438	21627
516.509	25158
516.580	34594
516.651	86843
516.722	295867
516.793	197701
516.864	39657
516.935	35752
517.006	35245
517.077	45538
517.148	94779
517.219	301226
517.289	585851
517.360	224249
517.431	90255
517.502	24695
517.573	23547
517.643	22718
517.714	25610
517.785	26536
517.856	24298
517.926	29568
517.997	30710
518.068	33313
518.138	41523
518.209	58486
518.280	206656
518.350	760589
518.421	428527
518.492	50225
518.562	29497
518.633	27063
518.703	25204
518.774	32825
518.845	53946
518.915	59704
518.986	31494
519.056	28016
519.127	42691
519.197	67691
519.268	160426
519.338	133827
519.408	31139
519.479	30012
519.549	26031
519.620	20151
519.690	15804
519.760	15570
519.831	16572
519.901	16728
519.971	15382
520.042	16757
520.112	19517
520.182	19240
520.253	21602
520.323	18460
520.393	22040
520.463	37490
520.534	24394
520.604	49346
520.674	29238
520.744	21907
520.814	48609
520.885	52394
520.955	53127
521.025	191714
521.095	107445
521.165	19152
521.235	17049
521.305	15203
521.375	13870
521.445	15430
521.515	18415
521.585	21529
521.655	20468
521.725	17694
521.795	17894
521.865	13101
521.935	22225
522.005	20848
522.075	13481
522.145	14938
522.215	16671
522.285	22857
522.355	30382
522.424	54736
522.494	53931
522.564	26435
522.634	35854
522.704	97941
522.774	53640
522.843	16406
522.913	14965
522.983	17579
523.053	15369
523.122	15361
523.192	17767
523.262	49637
523.331	62928
523.401	17681
523.471	11118
523.540	13166
523.610	11505
523.680	10851
523.749	12248
523.819	16346
523.888	17307
523.958	11479
524.027	12703
524.097	12971
524.166	13053
524.236	11688
524.305	14434
524.375	11888
524.444	11265
524.514	13757
524.583	13234
524.653	16356
524.722	19363
524.791	14000
524.861	13690
524.930	10604
524.999	10770
525.069	16640
525.138	14517
525.207	17583
525.277	13475
525.346	12579
525.415	13279
525.484	12399
525.554	13906
525.623	16042
525.692	14955
525.761	14209
525.830	12874
525.900	12417
525.969	17216
526.038	23855
526.107	34449
526.176	93225
526.245	94499
526.314	39774
526.383	55943
526.452	79989
526.522	112345
526.591	154850
526.660	63782
526.729	32083
526.797	30204
526.867	61538
526.935	252635
527.004	364000
527.073	218916
527.142	28143
527.211	15983
527.280	15379
527.349	16347
527.418	10582
527.487	13194
527.555	9293
527.624	10327
527.693	9339
527.762	10131
527.831	8727
527.899	10647
527.968	8784
528.037	9058
528.106	12715
528.174	19478
528.243	19168
528.312	22931
528.380	34554
528.449	13171
528.518	11570
528.586	7083
528.655	9256
528.723	9200
528.792	8483
528.861	9375
528.929	8947
528.998	10334
529.066	9622
529.135	9744
529.203	8953
529.272	9707
529.340	12404
529.409	12405
529.477	10161
529.545	13348
529.614	17502
529.682	15731
529.751	20564
529.819	21205
529.887	16590
529.956	11812
530.024	14283
530.092	10762
530.161	13911
530.229	17967
530.297	13906
530.365	12336
530.434	12599
530.502	11880
530.570	11369
530.638	9750
530.707	11739
530.775	13644
530.843	10316
530.911	11591
530.979	11672
531.047	11923
531.115	13685
531.183	11229
531.252	12194
531.320	11124
531.388	10827
531.456	12613
531.524	10408
531.592	12485
531.660	14733
531.728	12219
531.796	12036
531.864	12528
531.932	12454
532.000	12749
532.067	13281
532.135	15182
532.203	15029
532.271	17152
532.339	25482
532.407	50503
532.475	38648
532.542	20416
532.610	19184
532.678	24144
532.746	72015
532.814	206278
532.881	70748
532.949	18440
533.017	15496
533.084	13129
533.152	13214
533.220	12992
533.287	14071
533.355	13994
533.423	13459
533.490	13372
533.558	13029
533.625	14567
533.693	16070
533.761	15190
533.828	15372
533.896	15347
533.963	26346
534.031	33747
534.098	37921
534.166	25961
534.233	18311
534.300	18285
534.368	19086
534.435	17472
534.503	15650
534.570	17172
534.637	15474
534.705	14865
534.772	15358
534.840	19127
534.907	48355
534.974	74388
535.041	19243
535.109	17891
535.176	13766
535.243	13216
535.310	12643
535.378	11814
535.445	11410
535.512	11034
535.579	11468
535.646	11796
535.714	12230
535.781	16847
535.848	16401
535.915	18416
535.982	19929
536.049	20425
536.116	20794
536.183	17122
536.250	16548
536.317	16060
536.384	16638
536.451	20765
536.518	20412
536.585	15609
536.652	19476
536.719	23734
536.786	19980
536.853	16703
536.920	21066
536.987	32434
537.053	30564
537.120	93797
537.187	105542
537.254	15918
537.321	11269
537.388	13147
537.454	11232
537.521	10655
537.588	10758
537.654	13180
537.721	15819
537.788	15555
537.855	11932
537.921	12570
537.988	11852
538.055	12826
538.121	11363
538.188	12783
538.254	16753
538.321	30540
538.388	23912
538.454	13175
538.521	12693
538.587	11874
538.654	10570
538.720	10977
538.787	11420
538.853	11716
538.920	14650
538.986	15627
539.053	13169
539.119	12921
539.185	12230
539.252	14210
539.318	18668
539.385	17690
539.451	15577
539.517	16345
539.583	17165
539.650	30520
539.716	82651
539.782	33590
539.849	12597
539.915	13595
539.981	13011
540.047	14365
540.114	14195
540.180	15231
540.246	13142
540.312	16885
540.378	28885
540.444	33806
540.510	31875
540.576	87586
540.643	39439
540.709	13028
540.775	12525
540.841	13039
540.907	17291
540.973	29156
541.039	23545
541.105	23402
541.171	15130
541.237	12396
541.303	14225
541.369	16655
541.435	17817
541.500	28139
541.566	20022
541.632	12727
541.698	11367
541.764	12103
541.830	11462
541.896	11145
541.961	12930
542.027	12648
542.093	12067
542.159	13120
542.224	13545
542.290	21243
542.356	28813
542.421	34248
542.487	19404
542.553	13554
542.618	15976
542.684	14620
542.750	12841
542.815	16128
542.881	22321
542.947	72935
543.012	69129
543.078	14607
543.143	12890
543.209	13346
543.274	12409
543.340	16199
543.405	28617
543.471	52885
543.536	17672
543.602	12683
543.667	12049
543.732	13219
543.798	11285
543.863	13372
543.928	11237
543.994	10888
544.059	11914
544.124	11765
544.190	11309
544.255	13157
544.320	11813
544.386	12661
544.451	16389
544.516	19281
544.581	18969
544.646	45110
544.712	85474
544.777	24040
544.842	17149
544.907	17613
544.972	15465
545.037	15531
545.102	16694
545.168	15634
545.233	17542
545.298	17602
545.363	20706
545.428	22334
545.493	30746
545.558	65541
545.623	36265
545.688	16564
545.753	16862
545.818	16275
545.883	16422
545.947	16787
546.012	16986
546.077	18554
546.142	17097
546.207	16382
546.272	21269
546.337	20914
546.401	18471
546.466	17699
546.531	17459
546.596	18064
546.661	18191
546.725	17507
546.790	15450
546.855	15467
546.919	14778
546.984	17662
547.049	18807
547.113	20835
547.178	18911
547.243	20957
547.307	23022
547.372	27074
547.436	28677
547.501	22381
547.565	22676
547.630	25277
547.695	26499
547.759	27646
547.823	26147
547.888	20585
547.952	21263
548.017	23500
548.081	28864
548.146	34379
548.210	30460
548.274	22951
548.339	22475
548.403	21565
548.468	19738
548.532	20514
548.596	20285
548.660	20285
548.725	21987
548.789	26058
548.853	29142
548.917	24702
548.982	30078
549.046	33317
549.110	20794
549.174	19605
549.238	21062
549.303	21151
549.367	23317
549.431	22000
549.495	20257
549.559	21787
549.623	22526
549.687	25302
549.751	31838
549.815	28834
549.879	27545
549.943	24846
550.007	26748
550.071	26942
550.135	30589
550.199	27262
550.263	25389
550.327	26240
550.391	35796
550.455	30540
550.519	25954
550.582	28346
550.646	33407
550.710	36744
550.774	29870
550.838	28773
550.901	29160
550.965	31497
551.029	32610
551.093	37812
551.156	43791
551.220	72925
551.284	88267
551.347	49309
551.411	77652
551.475	100162
551.538	37007
551.602	28687
551.666	28009
551.729	27352
551.793	25812
551.856	26644
551.920	27320
551.983	26893
552.047	26073
552.110	25555
552.174	26838
552.237	26681
552.301	24414
552.364	24006
552.428	23727
552.491	22943
552.554	24922
552.618	25796
552.681	25219
552.745	26495
552.808	35847
552.871	47170
552.934	33884
552.998	27158
553.061	27905
553.124	27668
553.187	25295
553.251	28278
553.314	30546
553.377	32282
553.440	44893
553.503	111094
553.567	216767
553.630	56783
553.693	27579
553.756	25921
553.819	25210
553.882	24000
553.945	24460
554.008	24098
554.071	23618
554.134	24110
554.197	22641
554.260	21810
554.323	24391
554.386	24806
554.449	23967
554.512	24477
554.575	22025
554.638	23606
554.701	23002
554.764	22618
554.827	22171
554.889	20869
554.952	19501
555.015	20139
555.078	19215
555.141	20353
555.203	20715
555.266	20744
555.329	21241
555.391	20469
555.454	19708
555.517	20351
555.580	19853
555.642	19051
555.705	19029
555.768	20020
555.830	18837
555.893	19015
555.955	18431
556.018	18606
556.080	19331
556.143	17820
556.206	17811
556.268	19288
556.330	19349
556.393	20041
556.455	18644
556.518	26067
556.580	28980
556.643	17404
556.705	16640
556.767	16459
556.830	17986
556.892	19183
556.955	25298
557.017	23182
557.079	17274
557.142	16520
557.204	18400
557.266	32097
557.328	29897
557.391	17012
557.453	15600
557.515	15670
557.577	17145
557.639	20496
557.701	16607
557.764	15443
557.826	16288
557.888	17765
557.950	17407
558.012	18659
558.074	21221
558.136	36130
558.198	85944
558.260	45886
558.322	19929
558.384	19747
558.446	21575
558.508	24005
558.570	29528
558.632	43170
558.694	66185
558.756	64751
558.818	159269
558.880	456814
558.942	180481
559.003	91031
559.065	57189
559.127	25463
559.189	23992
559.251	25951
559.312	35814
559.374	74062
559.436	253764
559.498	167852
559.559	28501
559.621	23604
559.683	27383
559.744	42626
559.806	115135
559.868	202461
559.929	51937
559.991	27124
560.052	34144
560.114	81234
560.176	65573
560.237	48016
560.299	87242
560.360	31351
560.422	18383
560.483	17449
560.545	16239
560.606	15781
560.667	15409
560.729	15799
560.790	15509
560.852	14815
560.913	14659
560.974	15389
561.036	13987
561.097	15388
561.158	15185
561.220	15637
561.281	14563
561.342	15932
561.403	17267
561.465	21714
561.526	39435
561.587	59539
561.648	21896
561.709	15223
561.771	15861
561.832	15012
561.893	15580
561.954	14963
562.015	13568
562.076	14711
562.137	14452
562.198	14199
562.259	15178
562.320	15269
562.381	15734
562.442	20944
562.503	18490
562.564	15119
562.625	14809
562.686	13968
562.747	14220
562.808	15656
562.869	14675
562.930	19209
562.991	17912
563.051	16721
563.112	15182
563.173	15063
563.234	14507
563.294	14467
563.355	13892
563.416	16020
563.477	14873
563.537	15608
563.598	16711
563.659	15882
563.720	15395
563.780	15933
563.841	16465
563.901	15788
563.962	15623
564.023	15285
564.083	15961
564.144	14884
564.204	15715
564.265	16432
564.325	18474
564.386	34499
564.446	34667
564.507	16390
564.567	14348
564.628	14568
564.688	14609
564.749	15256
564.809	17074
564.869	20801
564.930	15359
564.990	14778
565.050	14425
565.111	14623
565.171	14607
565.231	14312
565.292	14340
565.352	14357
565.412	13955
565.472	14950
565.532	16632
565.593	14128
565.653	13388
565.713	14855
565.773	15575
565.833	16707
565.893	20965
565.953	15696
566.013	14473
566.074	14459
566.134	20350
566.194	31033
566.254	33061
566.314	22853
566.374	15420
566.434	16009
566.494	14513
566.554	14140
566.614	14647
566.673	14709
566.733	15687
566.793	15711
566.853	15239
566.913	15030
566.973	14894
567.033	16940
567.092	15881
567.152	14952
567.212	15726
567.272	15632
567.331	16552
567.391	15761
567.451	16848
567.511	22925
567.570	24508
567.630	15692
567.690	14719
567.749	14553
567.809	14962
567.868	14651
567.928	15758
567.988	17489
568.047	15871
568.107	15551
568.166	15054
568.226	16472
568.285	17987
568.345	18962
568.404	17661
568.464	17153
568.523	16528
568.582	16120
568.642	18026
568.701	18120
568.761	20110
568.820	21928
568.879	25019
568.939	27549
568.998	22580
569.057	17842
569.116	16388
569.176	14989
569.235	14761
569.294	14146
569.353	14376
569.413	14964
569.472	14173
569.531	13580
569.590	13466
569.649	12943
569.708	12737
569.767	14309
569.827	16462
569.886	15330
569.945	12997
570.004	13835
570.063	13142
570.122	14413
570.181	15599
570.240	16354
570.299	17064
570.358	16056
570.417	13933
570.475	12708
570.534	13323
570.593	14689
570.652	13963
570.711	14990
570.770	14291
570.829	15273
570.887	14932
570.946	15783
571.005	13025
571.064	12928
571.122	13557
571.181	15866
571.240	13870
571.299	12484
571.357	13358
571.416	15171
571.475	16238
571.533	17397
571.592	13617
571.650	15218
571.709	12665
571.768	12503
571.826	12011
571.885	11605
571.943	11731
572.002	12796
572.060	13670
572.119	11543
572.177	11632
572.236	11417
572.294	10718
572.352	12563
572.411	11350
572.469	11712
572.528	10902
572.586	11508
572.644	12640
572.703	16200
572.761	12932
572.819	12116
572.877	12204
572.936	11905
572.994	11984
573.052	11741
573.110	11089
573.169	11557
573.227	10692
573.285	11288
573.343	11285
573.401	10949
573.459	11198
573.517	11096
573.576	11047
573.634	12272
573.692	12159
573.750	11635
573.808	11021
573.866	12825
573.924	15464
573.982	16007
574.040	12018
574.098	11189
574.155	10378
574.213	10634
574.271	10002
574.329	11538
574.387	9762
574.445	10428
574.503	9655
574.560	10234
574.618	10324
574.676	9990
574.734	9182
574.792	10280
574.849	10098
574.907	9217
574.965	10295
575.022	9109
575.080	9795
575.138	10069
575.195	10981
575.253	10109
575.311	11007
575.368	10430
575.426	9269
575.483	10281
575.541	10413
575.598	9397
575.656	9876
575.713	10099
575.771	9637
575.828	10245
575.886	9976
575.943	10964
576.001	10546
576.058	11769
576.115	10704
576.173	13054
576.230	14497
576.287	15384
576.345	13580
576.402	10865
576.459	11664
576.517	11629
576.574	12232
576.631	13070
576.688	11798
576.746	11241
576.803	10899
576.860	10743
576.917	10257
576.974	11171
577.031	10828
577.089	10956
577.146	10527
577.203	11534
577.260	12629
577.317	12652
577.374	13616
577.431	13505
577.488	11910
577.545	10641
577.602	11932
577.659	12357
577.716	12902
577.773	15192
577.830	12637
577.886	11921
577.943	12021
578.000	12756
578.057	13529
578.114	15148
578.171	18782
578.227	24267
578.284	26593
578.341	22938
578.398	18390
578.454	16233
578.511	15857
578.568	17450
578.625	14364
578.681	12931
578.738	11048
578.794	11978
578.851	11507
578.908	10836
578.964	11691
579.021	11709
579.077	10646
579.134	11358
579.190	10703
579.247	11108
579.303	10392
579.360	10194
579.416	9594
579.473	10621
579.529	9423
579.586	11353
579.642	11179
579.698	11841
579.755	12529
579.811	12925
579.867	12837
579.924	13927
579.980	14736
580.036	19169
580.093	23204
580.149	34897
580.205	44021
580.261	35493
580.317	27714
580.374	22276
580.430	21222
580.486	17863
580.542	14982
580.598	13628
580.619	13260
580.654	12614
580.692	12585
580.710	12564
580.765	13156
580.767	13170
580.823	12610
580.838	12643
580.879	12697
580.911	13174
580.935	13531
580.984	11451
580.991	11163
581.047	13589
581.057	13524
581.103	13232
581.130	14943
581.159	16737
581.203	17690
581.215	17891
581.270	19785
581.276	19486
581.326	16503
581.349	16122
581.382	15575
581.422	14746
581.438	14373
581.494	15212
581.494	15203
581.550	13292
581.567	13490
581.606	13860
581.640	13626
581.661	13518
581.713	14172
581.717	14209
581.773	13275
581.786	13256
581.829	13212
581.859	13266
581.885	13305
581.932	13414
581.940	13405
581.996	13924
582.004	13952
582.052	14047
582.077	13486
582.107	12944
582.150	14424
582.163	14797
582.219	14014
582.223	14033
582.274	14246
582.296	14521
582.330	14986
582.368	15453
582.386	15662
582.441	15175
582.441	15165
582.497	14650
582.514	15009
582.552	16124
582.587	17778
582.608	18506
582.659	16687
582.663	16545
582.719	16516
582.732	16393
582.774	16209
582.805	16660
582.830	17017
582.877	16800
582.885	16791
582.941	17837
582.950	18203
582.996	20273
583.023	21395
583.052	22864
583.095	24786
583.107	25546
583.162	30910
583.168	31518
583.218	35515
583.240	34875
583.273	32759
583.313	30059
583.328	29012
583.384	25614
583.385	25519
583.439	23092
583.458	22710
583.494	22166
583.531	21118
583.549	20750
583.603	20937
583.605	20938
583.660	19205
583.676	18986
583.715	18679
583.748	19040
583.770	19509
583.820	19982
583.825	20015
583.881	19580
583.893	19750
583.936	20094
583.965	19475
583.991	19009
584.038	19441
584.046	19592
584.101	19935
584.110	19955
584.156	19928
584.183	19898
584.211	19802
584.255	19915
584.266	19990
584.321	19819
584.328	19837
584.376	20278
584.400	20199
584.431	20136
584.472	20248
584.486	20257
584.541	20674
584.545	20663
584.596	20928
584.617	20868
584.651	21221
584.689	22486
584.706	22938
584.761	22726
584.762	22706
584.816	23364
584.834	23541
584.871	23978
584.906	24200
584.926	24414
584.978	23903
584.980	23917
585.035	25459
585.051	25509
585.090	26109
585.123	26971
585.145	27275
585.195	27758
585.200	27972
585.254	29615
585.267	30445
585.309	33664
585.340	36327
585.364	37696
585.412	36301
585.419	36013
585.473	34202
585.484	34259
585.528	37665
585.556	41222
585.583	48418
585.628	63501
585.637	70189
585.692	120468
585.700	130551
585.747	173914
585.772	165393
585.801	120362
585.845	60640
585.856	53424
585.910	38527
585.917	36844
585.965	34461
585.989	33492
586.019	33125
586.061	32592
586.074	32672
586.128	33911
586.133	33814
586.183	33917
586.205	34536
586.237	35214
586.277	34788
586.292	34782
586.346	34920
586.349	34866
586.401	35292
586.421	35544
586.455	36723
586.493	38390
586.509	40853
586.564	49259
586.565	49501
586.618	71707
586.637	75406
586.672	64166
586.709	47986
586.727	43257
586.781	37981
586.781	38070
586.835	37184
586.853	36921
586.889	36529
586.925	35566
586.944	35597
586.996	36825
586.998	36951
587.052	37498
587.068	37669
587.106	38509
587.140	38201
587.161	38296
587.212	39573
587.215	39768
587.269	40734
587.284	41058
587.323	41509
587.356	41392
587.377	41726
587.427	42704
587.431	42887
587.485	43035
587.499	43179
587.539	44512
587.571	44996
587.593	45503
587.643	46383
587.648	46628
587.702	47887
587.715	48039
587.755	50046
587.786	51533
587.810	51812
587.858	51216
587.864	51649
587.917	55438
587.930	56216
587.971	59674
588.001	61436
588.025	62731
588.073	64751
588.079	65381
588.133	69330
588.145	70101
588.187	74380
588.217	77181
588.241	81043
588.288	88084
588.295	89639
588.348	100688
588.360	102862
588.402	113750
588.431	120440
588.456	127751
588.503	141971
588.510	145132
588.564	167236
588.575	171775
588.617	198367
588.646	216493
588.671	243889
588.718	297648
588.725	315568
588.778	456122
588.789	486540
588.832	769370
588.861	970327
588.886	1253051
588.932	1820894
588.939	1854827
588.993	2020947
589.004	2016276
589.047	1520241
589.075	1181908
589.100	927013
589.147	495702
589.154	478207
589.207	345467
589.218	318041
589.261	297810
589.290	284170
589.314	297941
589.361	326411
589.368	345403
589.421	500774
589.433	535056
589.475	894064
589.504	1156883
589.528	1402603
589.576	1881911
589.582	1846040
589.635	1331112
589.647	1213499
589.689	723093
589.718	399598
589.742	333409
589.790	206384
589.795	202857
589.849	165253
589.861	156529
589.902	149609
589.932	142094
589.955	129610
590.004	101088
590.009	100461
590.062	91589
590.075	89062
590.115	85273
590.146	81911
590.168	81010
590.218	78253
590.222	78432
590.275	76474
590.289	75777
590.328	75301
590.360	73916
590.381	72716
590.431	69473
590.435	69685
590.488	68501
590.503	67994
590.541	69142
590.574	69496
590.594	69023
590.645	66862
590.647	67118
590.700	66805
590.716	66468
590.753	66292
590.787	65598
590.806	65609
590.859	64890
590.859	65138
590.912	64160
590.930	63671
590.965	64045
591.001	63750
591.018	64405
591.071	66024
591.072	65771
591.124	65964
591.143	65813
591.177	66327
591.214	66316
591.230	67046
591.283	68692
591.285	68469
591.336	68146
591.356	67625
591.389	67105
591.427	65922
591.442	66279
591.495	66538
591.498	66281
591.547	65746
591.569	65146
591.600	65178
591.640	64424
591.653	64872
591.706	65818
591.711	65642
591.759	68616
591.782	69709
591.811	72769
591.853	76512
591.864	75696
591.917	69860
591.924	68704
591.969	69073
591.995	68955
592.022	69897
592.066	70564
592.075	71506
592.127	75500
592.137	75949
592.180	81592
592.208	84618
592.233	80725
592.279	72274
592.285	72374
592.338	70755
592.350	70081
592.390	68839
592.421	67418
592.443	68271
592.491	69168
592.495	69472
592.548	69563
592.562	69288
592.600	69824
592.633	69729
592.653	69855
592.704	69004
592.705	69406
592.775	69472
592.846	70344
592.916	70420
592.987	71748
593.058	71224
593.128	68463
593.199	69789
593.270	67457
593.341	68462
593.411	68244
593.482	68021
593.553	68932
593.623	67573
593.694	70078
593.764	73312
593.835	70460
593.906	67815
593.976	68957
594.047	72165
594.117	78237
594.188	81715
594.258	69646
594.329	68388
594.399	69269
594.470	69714
594.540	68185
594.611	69187
594.681	69346
594.751	70338
594.822	72202
594.892	74604
594.963	76896
595.033	76565
595.103	77729
595.174	78472
595.244	96280
595.314	113809
595.384	79980
595.455	76934
595.525	79514
595.595	79132
595.665	78841
595.736	78117
595.806	78098
595.876	77110
595.946	78573
596.016	78395
596.087	81012
596.157	80245
596.227	80777
596.297	83952
596.367	87092
596.437	90391
596.507	102541
596.577	117604
596.647	91294
596.717	88467
596.787	87520
596.857	89699
596.927	88863
596.997	89461
597.067	92698
597.137	103033
597.207	99350
597.277	93430
597.347	91739
597.417	90760
597.487	91725
597.557	94480
597.626	93783
597.696	98033
597.766	106203
597.836	120463
597.906	96724
597.975	88163
598.045	88124
598.115	89823
598.185	92398
598.254	98035
598.324	102485
598.394	101082
598.464	101857
598.533	100292
598.603	95776
598.672	96811
598.742	97850
598.812	98313
598.881	98581
598.951	98655
599.020	98288
599.090	99512
599.159	103004
599.229	100015
599.299	99138
599.368	102253
599.437	102054
599.507	100847
599.576	103138
599.646	108188
599.715	111174
599.785	101920
599.854	103225
599.924	106771
599.993	105679
600.062	105076
600.132	105365
600.201	108321
600.270	114567
600.340	116920
600.409	114571
600.478	116012
600.547	118430
600.617	117194
600.686	111312
600.755	109946
600.824	108427
600.894	109422
600.963	108596
601.032	107510
601.101	110320
601.170	112307
601.239	113024
601.308	113217
601.378	113862
601.447	115574
601.516	114900
601.585	117594
601.654	121839
601.723	124019
601.792	126502
601.861	134048
601.930	146553
601.999	141584
602.068	134789
602.137	135518
602.206	134791
602.275	136221
602.343	141028
602.412	143767
602.481	136919
602.550	138264
602.619	142507
602.688	141892
602.756	144531
602.825	139886
602.894	144238
602.963	144065
603.032	144384
603.100	145617
603.169	141750
603.238	147656
603.307	141253
603.375	140018
603.444	147661
603.513	138557
603.581	140640
603.650	149456
603.719	127932
603.787	123311
603.856	125179
603.924	128035
603.993	129023
604.061	131475
604.130	135147
604.198	137428
604.267	137976
604.335	139450
604.404	140595
604.472	143307
604.541	143135
604.609	147918
604.678	150750
604.746	152475
604.815	160853
604.883	154459
604.951	151280
605.020	156137
605.088	144597
605.156	137520
605.225	138274
605.293	136868
605.361	138798
605.429	135800
605.498	139087
605.566	138409
605.634	143087
605.702	142412
605.771	143078
605.839	147404
605.907	137128
605.975	142024
606.043	138774
606.111	133508
606.180	149150
606.248	148877
606.316	153558
606.384	145418
606.452	127148
606.520	110845
606.588	104019
606.656	98883
606.724	98542
606.792	93934
606.860	89085
606.928	82471
606.996	81808
607.064	80100
607.132	82306
607.200	84380
607.267	87056
607.335	87552
607.403	89123
607.471	88429
607.539	86467
607.607	86481
607.674	80445
607.742	80196
607.810	81197
607.878	78977
607.946	80294
608.013	82050
608.081	83650
608.149	83184
608.216	83796
608.284	86414
608.352	85137
608.419	87584
608.487	99805
608.555	88078
608.622	82616
608.690	85639
608.757	90153
608.825	91305
608.893	90736
608.960	92134
609.028	96142
609.095	101527
609.163	87387
609.230	80994
609.298	75265
609.365	75971
609.432	81169
609.500	86068
609.567	95332
609.635	103377
609.702	107033
609.769	106305
609.837	96170
609.904	86339
609.971	87198
610.039	99690
610.106	127939
610.173	219159
610.241	475574
610.308	466790
610.375	247168
610.442	118560
610.509	93064
610.577	86768
610.644	85604
610.711	84947
610.778	85843
610.845	87975
610.912	95096
610.980	106222
611.047	132072
611.114	110091
611.181	89082
611.248	87124
611.315	90406
611.382	91441
611.449	93270
611.516	95217
611.583	94161
611.650	95508
611.717	96699
611.784	98192
611.851	104064
611.918	113525
611.984	128657
612.051	179765
612.118	342905
612.185	819976
612.252	639694
612.319	172402
612.386	126698
612.452	112742
612.519	112126
612.586	123032
612.653	112303
612.719	108313
612.786	104008
612.853	97046
612.919	94019
612.986	96190
613.053	91549
613.120	87367
613.186	85869
613.253	87872
613.319	86287
613.386	86621
613.453	89026
613.519	93298
613.586	95225
613.652	108054
613.719	100262
613.785	98344
613.852	91863
613.918	89985
613.985	95457
614.051	114683
614.118	170348
614.184	176854
614.250	97101
614.317	89460
614.383	85941
614.449	88935
614.516	88048
614.582	90477
614.648	86712
614.715	85560
614.781	85707
614.847	88871
614.914	89777
614.980	87110
615.046	84883
615.112	86293
615.179	85487
615.245	88228
615.311	87800
615.377	89680
615.443	92472
615.509	90249
615.575	93156
615.642	93054
615.708	95187
615.774	102023
615.840	114494
615.906	125395
615.972	148781
616.038	218415
616.104	435426
616.170	1039307
616.236	1064731
616.302	272742
616.368	162838
616.434	132216
616.500	118615
616.565	122097
616.631	138146
616.697	126156
616.763	122578
616.829	155328
616.895	245067
616.961	260964
617.026	153247
617.092	108869
617.158	100603
617.224	98312
617.289	93669
617.355	93155
617.421	93031
617.487	92266
617.552	88934
617.618	86967
617.684	85995
617.749	86575
617.815	83540
617.880	82092
617.946	83308
618.012	84658
618.077	86901
618.143	83592
618.208	84106
618.274	89701
618.339	91514
618.405	81031
618.470	81864
618.536	84115
618.601	89494
618.667	85536
618.732	80853
618.798	78547
618.863	78342
618.928	78052
618.994	81580
619.059	83391
619.124	94490
619.190	85294
619.255	80142
619.320	79286
619.386	77780
619.451	76501
619.516	76410
619.581	77451
619.647	79187
619.712	79203
619.777	75649
619.842	78262
619.907	78970
619.972	79488
620.038	78074
620.103	77377
620.168	75219
620.233	77122
620.298	75719
620.363	76030
620.428	79034
620.493	79238
620.558	78455
620.623	78589
620.688	79974
620.753	79671
620.818	80641
620.883	80928
620.948	80383
621.013	79490
621.078	81499
621.143	81024
621.207	84769
621.272	82664
621.337	86262
621.402	89110
621.467	101895
621.532	105152
621.596	94898
621.661	88737
621.726	85039
621.791	86674
621.855	89511
621.920	88862
621.985	90424
622.049	96772
622.114	95663
622.179	92963
622.243	98573
622.308	97187
622.373	97627
622.437	97622
622.502	92328
622.566	92690
622.631	92938
622.695	94480
622.760	94489
622.824	91666
622.889	93084
622.953	97295
623.018	109385
623.082	110549
623.147	94886
623.211	92587
623.276	93917
623.340	89992
623.404	86751
623.469	87728
623.533	90030
623.597	88528
623.662	86154
623.726	84795
623.790	82467
623.854	82684
623.919	84252
623.983	82416
624.047	85019
624.111	82355
624.176	84818
624.240	87177
624.304	91957
624.368	85145
624.432	83048
624.496	84838
624.560	86204
624.625	90453
624.689	85453
624.753	84377
624.817	83007
624.881	81996
624.945	78549
625.009	79034
625.073	79147
625.137	83060
625.201	90258
625.265	88847
625.329	80532
625.393	81928
625.456	79428
625.520	80842
625.584	85973
625.648	95083
625.712	120815
625.776	213570
625.839	241572
625.903	123258
625.967	82728
626.031	109576
626.095	154238
626.158	87792
626.222	68877
626.286	65692
626.349	64645
626.413	63654
626.477	67198
626.540	62906
626.604	63403
626.668	62461
626.731	61255
626.795	65883
626.858	65446
626.922	63171
626.986	61214
627.049	60582
627.113	61640
627.176	60434
627.240	59054
627.303	58828
627.366	60833
627.430	60627
627.493	60723
627.557	61991
627.620	62910
627.684	60579
627.747	61364
627.810	58294
627.874	58955
627.937	55868
628.000	58642
628.064	58138
628.127	52042
628.190	53173
628.253	53772
628.317	52235
628.380	51746
628.443	52287
628.506	52638
628.569	51455
628.632	47907
628.696	49245
628.759	48604
628.822	46938
628.885	47042
628.948	48065
629.011	48052
629.074	47675
629.137	46280
629.200	45671
629.263	49945
629.326	45523
629.389	45389
629.452	46436
629.515	48269
629.578	46174
629.641	48127
629.704	48268
629.767	48030
629.830	46206
629.892	45526
629.955	44530
630.018	46833
630.081	46036
630.144	50072
630.207	44132
630.269	46986
630.332	47720
630.395	45711
630.458	42310
630.520	42150
630.583	42612
630.646	40761
630.708	40702
630.771	41877
630.834	42206
630.896	40653
630.959	40806
631.021	40154
631.084	41384
631.146	43331
631.209	45898
631.272	40821
631.334	40625
631.397	40268
631.459	38899
631.522	40459
631.584	40510
631.646	42159
631.709	41801
631.771	45300
631.834	43737
631.896	40319
631.958	37456
632.021	38888
632.083	38347
632.145	41312
632.208	38634
632.270	39084
632.332	38008
632.395	37357
632.457	39896
632.519	38194
632.581	37949
632.643	36778
632.706	37795
632.768	36101
632.830	37815
632.892	37173
632.954	37679
633.016	38759
633.078	36325
633.141	37117
633.203	36611
633.265	38027
633.327	36331
633.389	35186
633.451	38765
633.513	41829
633.575	42259
633.637	39710
633.698	38121
633.760	38016
633.822	36659
633.884	37439
633.946	36587
634.008	38435
634.070	40240
634.132	48663
634.193	43068
634.255	39427
634.317	37459
634.379	38599
634.441	37163
634.502	36809
634.564	34719
634.626	34289
634.687	34543
634.749	34958
634.811	35851
634.873	32193
634.934	32692
634.996	34294
635.057	33105
635.119	33230
635.181	33714
635.242	34349
635.304	31272
635.365	35487
635.427	33322
635.488	34111
635.550	32666
635.611	33652
635.673	31921
635.734	36556
635.796	34623
635.857	36929
635.918	34845
635.980	36783
636.041	35821
636.102	38728
636.164	37095
636.225	36693
636.286	34979
636.348	35366
636.409	33907
636.470	31887
636.531	33073
636.593	35809
636.654	35311
636.715	32218
636.776	30678
636.838	29276
636.899	32326
636.960	31281
637.021	30319
637.082	30151
637.143	30248
637.204	29355
637.265	28332
637.326	29565
637.387	29709
637.448	28742
637.509	29283
637.570	29465
637.631	29898
637.692	27408
637.753	26765
637.814	29165
637.875	28658
637.936	29523
637.997	28651
638.058	30390
638.119	30080
638.179	28588
638.240	28433
638.301	29730
638.362	27416
638.423	28696
638.483	30168
638.544	27267
638.605	28790
638.666	27664
638.726	29251
638.787	30421
638.848	28549
638.908	26889
638.969	27683
639.030	28356
639.090	25907
639.151	26632
639.211	27367
639.272	31149
639.332	39429
639.393	31765
639.453	27682
639.514	27262
639.574	25868
639.635	25565
639.695	26767
639.756	25862
639.816	27153
639.877	27712
639.937	33531
639.997	40479
640.058	27277
640.118	25520
640.178	26408
640.239	24943
640.299	24773
640.359	24878
640.420	25115
640.480	25498
640.540	25532
640.600	26909
640.661	27190
640.721	30783
640.781	41262
640.841	48482
640.901	30246
640.961	26832
641.021	26412
641.082	26889
641.142	30245
641.202	27586
641.262	22994
641.322	25657
641.382	23212
641.442	25180
641.502	24306
641.562	24879
641.622	23774
641.682	24813
641.742	25185
641.802	25972
641.861	25303
641.921	25297
641.981	26453
642.041	26148
642.101	28536
642.161	24799
642.221	23760
642.280	24231
642.340	22883
642.400	21462
642.460	23616
642.519	23627
642.579	23782
642.639	25751
642.698	21499
642.758	25729
642.818	24934
642.877	23372
642.937	25085
642.997	26060
643.056	31735
643.116	23957
643.175	25721
643.235	23431
643.294	24390
643.354	25926
643.414	26854
643.473	27991
643.532	29987
643.592	36454
643.651	50067
643.711	76845
643.770	134248
643.830	300207
643.889	683133
643.948	200372
644.008	44571
644.067	32468
644.126	27038
644.186	24674
644.245	25013
644.304	21335
644.363	24336
644.423	21703
644.482	23074
644.541	23203
644.600	22280
644.659	26990
644.719	26858
644.778	33500
644.837	43314
644.896	70899
644.955	155415
645.014	74463
645.073	35925
645.132	25719
645.191	25127
645.250	22553
645.309	24865
645.368	23680
645.427	26771
645.486	29936
645.545	43098
645.604	25552
645.663	23637
645.722	22817
645.781	24378
645.840	24496
645.898	27142
645.957	34931
646.016	43334
646.075	68373
646.134	123955
646.192	298092
646.251	492494
646.310	93122
646.369	34405
646.427	27457
646.486	24761
646.545	23983
646.603	22419
646.662	22108
646.721	21343
646.779	21496
646.838	20575
646.896	23456
646.955	26186
647.014	30714
647.072	43897
647.131	99664
647.189	61322
647.248	22410
647.306	20971
647.365	21332
647.423	18211
647.481	20493
647.540	17998
647.598	20182
647.657	18778
647.715	20124
647.773	18274
647.832	19353
647.890	19067
647.948	19582
648.007	20503
648.065	18870
648.123	20166
648.181	22892
648.240	28217
648.298	26030
648.356	20406
648.414	19823
648.472	19797
648.531	19242
648.589	19576
648.647	19617
648.705	19652
648.763	19313
648.821	19119
648.879	18674
648.937	20354
648.995	22497
649.053	23213
649.111	28588
649.169	37182
649.227	54001
649.285	98843
649.343	262888
649.401	158073
649.459	51834
649.516	41178
649.574	33579
649.632	58341
649.690	75049
649.748	41020
649.806	49139
649.863	76852
649.921	78735
649.979	59349
650.037	22762
650.094	18757
650.152	20023
650.210	18988
650.268	20999
650.325	23966
650.383	31403
650.440	19144
650.498	19235
650.556	17678
650.613	15725
650.671	16997
650.728	17558
650.786	18749
650.843	18331
650.901	15404
650.958	15698
651.016	15428
651.073	16813
651.131	15644
651.188	15646
651.246	16337
651.303	15443
651.360	15999
651.418	15979
651.475	15577
651.532	14813
651.590	15322
651.647	14112
651.704	15430
651.762	15034
651.819	15844
651.876	14974
651.933	15843
651.990	15183
652.048	14865
652.105	14741
652.162	15237
652.219	14270
652.276	15116
652.333	14886
652.390	14399
652.448	15541
652.505	16101
652.562	16776
652.619	19264
652.676	31657
652.733	33075
652.790	16341
652.847	12966
652.904	14948
652.961	12468
653.017	14053
653.074	14521
653.131	14899
653.188	13496
653.245	14292
653.302	13264
653.359	12933
653.415	14467
653.472	13808
653.529	13868
653.586	12994
653.642	12796
653.699	13732
653.756	12488
653.813	12988
653.869	14004
653.926	12407
653.983	13374
654.039	13672
654.096	13352
654.152	13724
654.209	12248
654.266	14158
654.322	14118
654.379	15414
654.435	15488
654.492	16858
654.548	19650
654.605	25290
654.661	19420
654.717	14243
654.774	14032
654.830	14902
654.887	15825
654.943	17281
655.000	19801
655.056	17483
655.112	16527
655.168	13528
655.225	14367
655.281	15581
655.337	18520
655.394	25921
655.450	21341
655.506	18741
655.562	26039
655.618	22969
655.675	14123
655.731	13411
655.787	13559
655.843	15233
655.899	12619
655.955	13768
656.011	14749
656.067	12607
656.123	14109
656.179	14402
656.235	15842
656.291	12949
656.347	14851
656.403	14514
656.459	14627
656.515	15417
656.571	16013
656.627	15683
656.683	14479
656.739	14960
656.795	14309
656.850	13349
656.906	16083
656.962	15469
657.018	12521
657.074	14449
657.129	15347
657.185	15954
657.241	19147
657.297	17661
657.352	14362
657.408	13420
657.464	14584
657.519	14121
657.575	12468
657.630	13715
657.686	12969
657.742	13811
657.797	14264
657.853	13705
657.908	15695
657.964	14068
658.019	13853
658.075	14079
658.130	14424
658.186	12901
658.241	13933
658.297	12305
658.352	13787
658.407	14038
658.463	12743
658.518	14197
658.573	12855
658.629	12440
658.684	13398
658.739	13224
658.795	12629
658.850	13062
658.905	12755
658.960	13586
659.016	13106
659.071	13339
659.126	13523
659.181	14571
659.236	18543
659.291	19171
659.346	16307
659.401	18119
659.457	20807
659.512	27466
659.567	18031
659.622	13908
659.677	13075
659.732	12949
659.787	15490
659.842	15534
659.897	17986
659.952	13870
660.007	13174
660.061	13579
660.116	13944
660.171	13124
660.226	14331
660.281	14305
660.336	13428
660.391	14264
660.445	13475
660.500	13423
660.555	13101
660.610	13835
660.664	15067
660.719	13120
660.774	13969
660.828	13590
660.883	13436
660.938	14035
660.992	12743
661.047	13078
661.101	13534
661.156	13847
661.211	13079
661.265	14030
661.320	13887
661.374	13621
661.429	12753
661.483	13788
661.538	13945
661.592	14496
661.647	16111
661.701	20226
661.755	15648
661.810	13685
661.864	13771
661.919	13726
661.973	14023
662.027	13694
662.081	13133
662.136	13563
662.190	14218
662.244	14291
662.299	13412
662.353	13425
662.407	13968
662.461	13605
662.515	14473
662.569	14517
662.624	15092
662.678	13602
662.732	13101
662.786	12852
662.840	13536
662.894	14326
662.948	13769
663.002	12699
663.056	13428
663.110	12327
663.164	13219
663.218	12454
663.272	12972
663.326	13039
663.380	13789
663.434	14131
663.488	13998
663.542	13710
663.595	13752
663.649	12680
663.703	13745
663.757	13104
663.811	12550
663.864	12356
663.918	12417
663.972	13347
664.026	12789
664.079	11890
664.133	12992
664.187	12874
664.240	13085
664.294	13021
664.348	14381
664.401	13885
664.455	12354
664.508	12767
664.562	13150
664.615	11820
664.669	12598
664.722	12882
664.776	12124
664.829	12927
664.883	13248
664.936	12845
664.990	13991
665.043	15096
665.097	15186
665.150	16690
665.203	13574
665.257	13684
665.310	13802
665.363	15292
665.417	14702
665.470	13698
665.523	13492
665.576	13907
665.630	13808
665.683	14619
665.736	14318
665.789	14925
665.842	13640
665.895	14861
665.949	13289
666.002	12652
666.055	14753
666.108	14934
666.161	13983
666.214	14167
666.267	14392
666.320	15206
666.373	13813
666.426	14097
666.479	13779
666.532	14689
666.585	15299
666.638	16025
666.691	15429
666.744	16406
666.796	15499
666.849	15484
666.902	14140
666.955	12860
667.008	13666
667.060	13120
667.113	12367
667.166	13421
667.219	12745
667.271	13804
667.324	13512
667.377	13873
667.430	14579
667.482	17792
667.535	16791
667.587	14578
667.640	14412
667.693	14659
667.745	17865
667.798	19087
667.850	14867
667.903	13392
667.955	13873
668.008	14576
668.060	16211
668.113	16362
668.165	14993
668.218	15245
668.270	15128
668.322	14350
668.375	14286
668.427	14992
668.479	13566
668.532	14111
668.584	14658
668.636	14533
668.689	14449
668.741	13546
668.793	14681
668.845	13955
668.898	14348
668.950	13546
669.002	15343
669.054	13564
669.106	14417
669.158	16050
669.211	15620
669.263	15906
669.315	18776
669.367	21113
669.419	16909
669.471	17722
669.523	16918
669.575	21275
669.627	18827
669.679	16610
669.731	16443
669.783	16760
669.835	18501
669.886	17413
669.938	16447
669.990	16239
670.042	16719
670.094	17426
670.146	18549
670.197	20155
670.249	22756
670.301	27460
670.353	33985
670.404	43302
670.456	60383
670.508	88788
670.560	136344
670.611	220833
670.663	371772
670.715	764113
670.766	1110326
670.818	519103
670.869	124675
670.921	61994
670.972	43140
671.024	33637
671.075	27380
671.127	23261
671.178	21729
671.230	20252
671.281	19383
671.333	18509
671.384	19117
671.436	18512
671.487	19489
671.538	19753
671.590	20962
671.641	25780
671.692	30301
671.744	43283
671.795	41063
671.846	26138
671.897	19428
671.949	18818
672.000	16177
672.051	16489
672.102	16234
672.153	15361
672.204	14999
672.256	15774
672.307	15387
672.358	15225
672.409	15271
672.460	14461
672.511	14384
672.562	13716
672.613	13269
672.664	13265
672.715	13769
672.766	13750
672.817	13439
672.868	13746
672.919	13518
672.970	13134
673.021	13556
673.071	13064
673.122	12568
673.173	13670
673.224	13657
673.275	13497
673.326	12609
673.376	12633
673.427	12265
673.478	13203
673.528	12368
673.579	12131
673.630	12580
673.680	14118
673.731	12261
673.782	11252
673.832	12760
673.883	13072
673.934	13187
673.984	12096
674.035	12523
674.085	13046
674.136	13043
674.186	14321
674.237	15263
674.287	18323
674.338	14396
674.388	12528
674.438	12086
674.489	12339
674.539	12553
674.589	13071
674.640	12362
674.690	13073
674.740	13820
674.791	13919
674.841	13499
674.891	13237
674.942	12373
674.992	12278
675.042	11870
675.092	10975
675.142	10980
675.193	12306
675.243	10414
675.293	12013
675.343	12612
675.393	12757
675.443	12118
675.493	11330
675.543	11964
675.593	12350
675.643	12036
675.693	11576
675.743	12104
675.793	12273
675.843	11546
675.893	11832
675.943	11711
675.993	11332
676.043	11927
676.093	11890
676.142	10850
676.192	11881
676.242	11175
676.292	10491
676.341	12318
676.391	11488
676.441	11117
676.491	10712
676.540	11138
676.590	10733
676.640	10136
676.689	10273
676.739	10491
676.789	10275
676.838	10707
676.888	10370
676.937	10939
676.987	10449
677.037	9333
677.086	9713
677.136	9822
677.185	10096
677.235	9419
677.284	10065
677.333	10104
677.383	9646
677.432	9340
677.482	10026
677.531	10069
677.580	9463
677.630	9879
677.679	9077
677.728	9839
677.778	10200
677.827	9347
677.876	9192
677.925	9183
677.975	10170
678.024	9967
678.073	10103
678.122	11152
678.171	10857
678.220	10392
678.269	12002
678.319	11311
678.368	10874
678.417	11561
678.466	10646
678.515	12096
678.564	10783
678.613	11174
678.662	11502
678.711	11602
678.760	10319
678.809	10789
678.857	11316
678.906	11533
678.955	11428
679.004	11472
679.053	12420
679.102	12910
679.151	10859
679.199	10289
679.248	10095
679.297	10322
679.346	10997
679.394	9839
679.443	9803
679.492	10202
679.540	10848
679.589	9955
679.638	10755
679.686	10057
679.735	8851
679.784	10302
679.832	10142
679.881	9514
679.929	9283
679.978	9557
680.026	9060
680.075	10087
680.123	9288
680.172	8735
680.220	8854
680.268	8550
680.317	8614
680.365	9360
680.414	9459
680.462	8913
680.510	9366
680.559	8844
680.607	8934
680.655	9253
680.703	9510
680.752	9074
680.800	8597
680.848	8464
680.896	8118
680.945	8914
680.993	9586
681.041	8588
681.089	8177
681.137	8801
681.185	7836
681.233	8940
681.258	8911
681.281	8856
681.329	8068
681.377	8997
681.380	9029
681.425	9138
681.473	9986
681.502	10220
681.521	10327
681.569	9781
681.617	8916
681.624	8968
681.665	9130
681.713	8879
681.745	9323
681.761	9487
681.809	8554
681.857	9675
681.867	9570
681.904	9105
681.952	9621
681.989	9621
682.000	9590
682.048	9280
682.096	9761
682.111	9532
682.143	8944
682.191	9144
682.233	10391
682.239	10548
682.286	8558
682.334	9451
682.354	9750
682.382	10112
682.430	9660
682.476	9749
682.477	9725
682.525	9640
682.572	8986
682.598	8967
682.620	8902
682.667	9150
682.715	10683
682.720	10633
682.763	9965
682.810	10206
682.841	9772
682.857	9494
682.905	9103
682.952	10331
682.963	10256
683.000	9908
683.047	10302
683.085	10271
683.095	10228
683.142	8880
683.190	9744
683.206	9481
683.237	8967
683.284	10068
683.328	10016
683.332	9988
683.379	10031
683.426	9895
683.449	10240
683.473	10525
683.521	10059
683.568	10476
683.571	10497
683.615	10561
683.662	10521
683.693	10418
683.709	10321
683.757	10146
683.804	10328
683.814	10365
683.851	10431
683.898	9944
683.936	10464
683.945	10568
683.992	10551
684.039	11368
684.057	10834
684.086	9900
684.133	10635
684.179	11034
684.180	11030
684.227	10706
684.274	10540
684.300	10655
684.321	10727
684.368	11001
684.415	11108
684.422	11031
684.462	10472
684.509	11093
684.543	11221
684.556	11222
684.603	10657
684.649	10722
684.665	10817
684.696	11074
684.743	11062
684.786	11871
684.790	11933
684.837	11779
684.883	12054
684.908	12216
684.930	12306
684.977	13935
685.023	12965
685.029	12932
685.070	12279
685.117	12346
685.150	12583
685.164	12748
685.210	13456
685.257	13751
685.272	13556
685.303	12940
685.350	13018
685.393	12852
685.396	12838
685.443	13142
685.490	13449
685.514	13401
685.536	13347
685.583	13161
685.629	13364
685.636	13325
685.675	12769
685.722	13181
685.757	13100
685.768	13164
685.815	12987
685.861	13602
685.878	13849
685.908	14157
685.954	13426
686.000	14650
686.000	14664
686.047	14873
686.093	14694
686.121	15161
686.139	15315
686.185	14025
686.232	14058
686.242	14033
686.278	13990
686.324	14039
686.363	13777
686.370	13725
686.416	13284
686.463	14216
686.484	14193
686.509	14251
686.555	14034
686.601	14520
686.606	14458
686.647	13559
686.693	13908
686.727	13519
686.739	13470
686.785	13596
686.831	14411
686.848	14323
686.877	14048
686.923	13286
686.969	13896
686.969	13899
687.015	13189
687.061	14256
687.090	13863
687.107	13507
687.153	14184
687.199	13315
687.211	13184
687.245	13190
687.291	13518
687.332	14112
687.336	14162
687.382	14809
687.428	14492
687.453	14338
687.474	14109
687.520	14290
687.565	14809
687.574	14730
687.611	14783
687.657	15024
687.695	15876
687.702	16120
687.748	18250
687.794	20955
687.816	20772
687.839	19667
687.885	16559
687.931	15233
687.937	15123
687.976	15176
688.022	15037
688.058	15060
688.067	15091
688.113	14634
688.158	15061
688.179	14933
688.204	14883
688.249	14933
688.295	15693
688.300	15695
688.340	15687
688.386	15811
688.421	15493
688.431	15397
688.477	15399
688.522	15068
688.542	15267
688.567	15649
688.613	15764
688.658	15444
688.663	15450
688.703	15417
688.749	15649
688.784	15698
688.794	15684
688.839	15729
688.884	15571
688.905	15264
688.930	15084
688.975	15565
689.020	15744
689.026	15742
689.065	15890
689.110	16173
689.146	16160
689.155	16125
689.201	16517
689.246	16205
689.267	16284
689.291	16419
689.336	16612
689.381	16228
689.388	16246
689.426	16398
689.471	16244
689.509	16179
689.516	16162
689.561	16014
689.606	16058
689.630	15773
689.651	15683
689.696	16065
689.741	16620
689.750	16636
689.785	16620
689.830	16374
689.871	16260
689.875	16264
689.920	16219
689.965	16531
689.992	16357
690.010	16393
690.054	17135
690.099	17477
690.112	17504
690.144	17451
690.189	17226
690.233	17133
690.233	17151
690.278	17534
690.323	17546
690.354	17786
690.367	18146
690.412	19139
690.457	19800
690.474	20213
690.501	20582
690.546	20408
690.590	21115
690.595	21145
690.635	22564
690.680	24317
690.716	25899
690.724	26726
690.769	30929
690.813	36215
690.836	38349
690.857	43485
690.902	56063
690.946	69825
690.957	73540
690.991	100964
691.035	141460
691.077	181326
691.080	181941
691.124	174071
691.168	158170
691.198	150495
691.213	138259
691.257	104642
691.301	72794
691.318	60344
691.346	53632
691.390	43589
691.434	33990
691.439	32935
691.478	30755
691.522	27962
691.559	25569
691.567	25386
691.611	24159
691.655	23172
691.680	22553
691.699	22415
691.743	22220
691.787	21788
691.800	21580
691.831	21497
691.875	21806
691.919	21648
691.921	21629
691.964	21716
692.008	21233
692.041	21280
692.052	21331
692.096	21295
692.139	20747
692.162	20428
692.183	20179
692.227	20463
692.271	20340
692.282	20283
692.315	20462
692.359	20224
692.402	20448
692.403	20481
692.447	20338
692.490	20589
692.523	21014
692.534	21203
692.578	21408
692.622	21450
692.643	21474
692.666	21481
692.709	21363
692.753	21051
692.763	21112
692.797	21604
692.840	21554
692.884	21440
692.884	21477
692.928	22201
692.971	22728
693.004	22761
693.015	22876
693.059	23603
693.102	24025
693.124	24238
693.146	24583
693.189	25509
693.233	26151
693.245	26340
693.276	28139
693.320	30139
693.363	32958
693.365	32992
693.407	36676
693.450	40687
693.485	44046
693.493	46008
693.537	56011
693.580	66486
693.605	72780
693.624	84385
693.667	111565
693.710	140384
693.725	151255
693.753	202512
693.797	285638
693.840	372406
693.845	380642
693.883	366932
693.926	341367
693.966	320540
693.970	313567
694.013	238966
694.056	166130
694.086	116547
694.099	109698
694.142	88147
694.185	66291
694.206	56138
694.229	52854
694.272	46539
694.315	40281
694.326	38609
694.358	36574
694.401	33603
694.444	30857
694.446	30672
694.487	29893
694.530	28720
694.566	27842
694.573	27685
694.616	26171
694.659	25067
694.686	24135
694.702	23951
694.745	23341
694.787	22932
694.806	22662
694.830	22555
694.873	22208
694.916	21930
694.926	21815
694.959	21762
695.002	21530
695.044	21535
695.046	21488
695.087	21498
695.130	21603
695.166	21605
695.172	21678
695.215	21778
695.258	21867
695.286	21903
695.301	21855
695.343	21750
695.386	21432
695.406	21235
695.428	21147
695.471	21132
695.514	20765
695.526	20719
695.556	21249
695.599	21821
695.641	22424
695.646	22438
695.684	22126
695.726	21545
695.766	21202
695.769	21236
695.811	21093
695.854	20888
695.886	20590
695.896	20557
695.938	20359
695.981	20028
696.005	19848
696.023	20070
696.065	20572
696.108	21066
696.125	21199
696.150	21458
696.192	21927
696.235	22217
696.245	22251
696.277	22287
696.319	22318
696.361	22547
696.365	22498
696.404	23347
696.446	24287
696.485	25156
696.488	25146
696.530	24085
696.572	23235
696.604	22504
696.614	22375
696.656	21684
696.698	20747
696.724	20191
696.740	20286
696.783	20425
696.825	20757
696.844	20740
696.867	20820
696.909	21109
696.951	21250
696.964	21275
696.992	21147
697.034	20678
697.076	20438
697.083	20344
697.118	20579
697.160	20782
697.202	20928
697.203	20886
697.244	21008
697.286	21030
697.323	21032
697.327	21082
697.369	21025
697.411	21031
697.442	21041
697.453	21071
697.494	20872
697.536	20733
697.562	20583
697.578	20664
697.620	20814
697.661	20881
697.682	20873
697.703	21031
697.744	21252
697.786	21549
697.801	21594
697.828	21793
697.869	21979
697.911	22159
697.921	22154
697.952	21647
697.994	20967
698.035	20234
698.040	20102
698.077	20260
698.118	20353
698.160	20471
698.160	20425
698.201	20459
698.243	20444
698.279	20437
698.284	20531
698.325	20918
698.367	21359
698.399	21581
698.408	21525
698.449	21077
698.491	20606
698.518	20270
698.532	20476
698.573	20956
698.614	21391
698.638	21593
698.656	21585
698.697	21473
698.738	21348
698.757	21241
698.779	21465
698.820	21784
698.862	22103
698.877	22178
698.903	22401
698.944	22648
698.985	22915
698.996	22934
699.026	22856
699.067	22676
699.116	22410
699.235	21645
699.354	21820
699.474	22996
699.593	23233
699.713	22346
699.832	21544
699.951	21871
700.070	21319
700.190	20226
700.309	21225
700.428	21435
700.547	21120
700.667	21124
700.786	22671
700.905	21017
701.024	21383
701.143	20843
701.262	19257
701.381	20614
701.500	21082
701.619	21585
701.738	20337
701.857	20354
701.976	20273
702.095	19832
702.214	20410
702.333	20712
702.452	20760
702.571	19584
702.690	20109
702.809	19412
702.928	19020
703.047	20332
703.165	19972
703.284	19113
703.403	19980
703.522	19417
703.640	20545
703.759	20778
703.878	24586
703.997	20029
704.115	19761
704.234	17664
704.353	18955
704.471	18940
704.590	18644
704.708	18711
704.827	18178
704.946	18613
705.064	20162
705.183	19354
705.301	23115
705.420	31196
705.538	28072
705.656	26675
705.775	27976
705.893	48363
706.012	59372
706.130	25589
706.249	26086
706.367	25382
706.485	26577
706.604	24930
706.722	25965
706.840	29046
706.958	36958
707.077	29093
707.195	24326
707.313	23290
707.431	23630
707.549	23579
707.668	22587
707.786	23762
707.904	22656
708.022	22466
708.140	22720
708.258	22300
708.376	22968
708.494	22267
708.612	25349
708.730	34331
708.848	31029
708.966	28054
709.084	27504
709.202	27426
709.320	28041
709.438	28471
709.556	28424
709.674	27866
709.791	28024
709.909	27580
710.027	27745
710.145	26879
710.263	27093
710.380	26162
710.498	26167
710.616	26659
710.733	26520
710.851	26018
710.969	26954
711.086	26325
711.204	25269
711.322	26657
711.439	25934
711.557	24759
711.674	25429
711.792	25385
711.909	27799
712.027	30185
712.144	25518
712.262	25105
712.379	27551
712.497	37618
712.614	37685
712.732	31725
712.849	30877
712.966	30563
713.084	33656
713.201	31626
713.318	31510
713.436	31537
713.553	31189
713.670	32137
713.787	33889
713.905	32947
714.022	30975
714.139	29842
714.256	31304
714.373	31949
714.490	37988
714.608	57054
714.725	171543
714.842	162174
714.959	34562
715.076	31008
715.193	28824
715.310	28264
715.427	28281
715.544	26424
715.661	28147
715.778	27933
715.895	30097
716.011	28797
716.128	27669
716.245	27375
716.362	28646
716.479	28204
716.596	27654
716.713	27589
716.829	26715
716.946	26544
717.063	26204
717.180	25058
717.296	25448
717.413	25044
717.530	24442
717.646	24083
717.763	24774
717.880	24282
717.996	23979
718.113	24554
718.229	24517
718.346	22584
718.462	23607
718.579	25260
718.695	28152
718.812	28288
718.928	27497
719.045	23737
719.161	23283
719.277	23409
719.394	21999
719.510	24900
719.626	23585
719.743	28319
719.859	26632
719.975	29930
720.092	58670
720.208	98797
720.324	31216
720.440	24614
720.557	26576
720.673	26978
720.789	35649
720.905	58717
721.021	29889
721.137	22593
721.253	23796
721.369	23893
721.486	24905
721.602	27465
721.718	23379
721.834	21112
721.950	21646
722.066	20771
722.181	20426
722.297	21036
722.413	21344
722.529	21627
722.645	21027
722.761	20705
722.877	20154
722.993	19770
723.108	21621
723.224	20368
723.340	21753
723.456	19847
723.571	21349
723.687	19344
723.803	20293
723.918	18776
724.034	20152
724.150	20279
724.265	20650
724.381	30475
724.497	32615
724.612	19998
724.728	19188
724.843	19678
724.959	20133
725.074	28787
725.190	29617
725.305	20365
725.421	19217
725.536	18187
725.651	18670
725.767	18030
725.882	18213
725.997	18398
726.113	18273
726.228	17451
726.343	17954
726.459	16721
726.574	17950
726.689	17156
726.804	17362
726.920	17353
727.035	18456
727.150	18886
727.265	17455
727.380	18559
727.495	17905
727.610	17793
727.725	18843
727.841	20646
727.956	36278
728.071	28378
728.186	17817
728.301	15223
728.416	18184
728.531	16968
728.645	17107
728.760	16852
728.875	17426
728.990	16600
729.105	16781
729.220	16444
729.335	16473
729.449	16037
729.564	16128
729.679	15486
729.794	16566
729.908	16331
730.023	16981
730.138	14656
730.253	15910
730.367	15157
730.482	15405
730.596	15417
730.711	17035
730.826	18097
730.940	19656
731.055	16445
731.169	15822
731.284	14640
731.398	16102
731.513	17479
731.627	16271
731.742	17514
731.856	17843
731.970	15804
732.085	16234
732.199	16981
732.313	18537
732.428	27423
732.542	54713
732.656	34152
732.771	17575
732.885	16650
732.999	15881
733.113	16347
733.227	16412
733.342	15974
733.456	16579
733.570	14674
733.684	14845
733.798	15248
733.912	15887
734.026	15493
734.140	15405
734.254	15832
734.368	20756
734.482	21665
734.596	15258
734.710	15406
734.824	15213
734.938	14413
735.052	14450
735.166	15689
735.280	15412
735.393	14359
735.507	15069
735.621	18266
735.735	22414
735.849	15127
735.962	14968
736.076	15578
736.190	14841
736.303	17721
736.417	20199
736.531	15300
736.644	15067
736.758	14485
736.872	15549
736.985	13664
737.099	14550
737.212	13488
737.326	14586
737.439	13679
737.553	14824
737.666	14726
737.780	14791
737.893	13639
738.007	14892
738.120	13642
738.233	14429
738.347	13670
738.460	14624
738.573	13790
738.687	14546
738.800	14261
738.913	14819
739.026	14839
739.140	15434
739.253	14660
739.366	13767
739.479	13895
739.592	13781
739.705	13055
739.818	14056
739.932	13811
740.045	13790
740.158	14216
740.271	14840
740.384	13767
740.497	14852
740.610	14321
740.723	14730
740.836	14374
740.949	14088
741.062	15011
741.174	14860
741.287	14799
741.400	14227
741.513	13741
741.626	14661
741.739	14587
741.851	13324
741.964	13861
742.077	14161
742.189	13720
742.302	15525
742.415	14412
742.527	14235
742.640	13882
742.753	14265
742.865	12903
742.978	14102
743.090	13799
743.203	13505
743.316	13794
743.428	12887
743.541	13953
743.653	14594
743.766	14185
743.878	14434
743.990	15509
744.103	15996
744.215	15112
744.327	13905
744.440	14454
744.552	16460
744.664	13708
744.777	14024
744.889	13273
745.001	14059
745.113	13957
745.226	13981
745.338	14476
745.450	14190
745.562	14222
745.674	13770
745.786	13688
745.898	14306
746.010	14262
746.122	14052
746.234	13826
746.347	14717
746.459	15041
746.570	14103
746.682	14664
746.794	14676
746.906	13178
747.018	14358
747.130	14417
747.242	13516
747.354	14479
747.466	14911
747.577	14111
747.689	14334
747.801	14489
747.913	13307
748.024	13183
748.136	13736
748.248	13748
748.359	14582
748.471	14422
748.583	14038
748.694	15250
748.806	17197
748.918	16045
749.029	15111
749.141	14903
749.252	14765
749.364	15639
749.475	16940
749.587	16059
749.698	14982
749.809	15075
749.921	15630
750.032	14295
750.144	15213
750.255	13534
750.366	14272
750.478	15451
750.589	14569
750.700	14825
750.811	16177
750.923	15722
751.034	17660
751.145	17650
751.256	14599
751.367	14093
751.479	15849
751.590	15234
751.701	15266
751.812	15680
751.923	15637
752.034	15262
752.145	15659
752.256	16635
752.367	15331
752.478	15831
752.589	15404
752.700	15514
752.811	16139
752.922	16070
753.032	15969
753.143	16161
753.254	15950
753.365	16835
753.476	17033
753.586	15947
753.697	15267
753.808	16489
753.919	16077
754.029	16195
754.140	16645
754.251	16391
754.361	17029
754.472	17648
754.582	16997
754.693	16920
754.804	18879
754.914	17014
755.025	17501
755.135	17175
755.246	17648
755.356	17796
755.466	18733
755.577	18154
755.687	19232
755.798	17708
755.908	19014
756.018	18793
756.129	19430
756.239	19366
756.349	19986
756.460	20196
756.570	19288
756.680	19996
756.790	20526
756.900	20957
757.011	20628
757.121	20339
757.231	20265
757.341	21965
757.451	20233
757.561	21020
757.671	22628
757.781	21789
757.891	22720
758.001	22500
758.111	23648
758.221	23209
758.331	23888
758.441	24137
758.551	25266
758.661	24254
758.771	25579
758.880	25404
758.990	27544
759.100	26390
759.210	26794
759.320	27665
759.429	27494
759.539	28991
759.649	28878
759.758	28917
759.868	30164
759.978	30301
760.087	31921
760.197	30810
760.307	31526
760.416	31990
760.526	32473
760.635	33899
760.745	34654
760.854	35131
760.964	37887
761.073	37472
761.182	39076
761.292	39026
761.401	40742
761.511	40667
761.620	41564
761.729	43379
761.839	44790
761.948	46433
762.057	47107
762.166	49593
762.276	49755
762.385	51981
762.494	52876
762.603	55690
762.712	57541
762.822	60539
762.931	61977
763.040	65529
763.149	67174
763.258	70322
763.367	74926
763.476	78846
763.585	82023
763.694	87145
763.803	91496
763.912	97149
764.021	103326
764.130	110837
764.238	119021
764.347	125671
764.456	136290
764.565	147573
764.674	160504
764.783	176478
764.891	195581
765.000	219557
765.109	248288
765.217	284173
765.326	325899
765.435	385458
765.543	461077
765.652	561473
765.761	700353
765.869	878048
765.978	1125909
766.086	1421939
766.195	1678542
766.303	1607310
766.412	988913
766.520	1226533
766.629	1716132
766.737	1605229
766.846	1296665
766.954	1011466
767.062	792923
767.171	626954
767.279	504320
767.387	413949
767.496	349006
767.604	300254
767.712	264080
767.820	235124
767.928	215214
768.037	198804
768.145	189581
768.253	181715
768.361	177046
768.469	177716
768.577	181706
768.685	191605
768.793	206976
768.901	226813
769.009	262536
769.117	317790
769.225	400942
769.333	531398
769.441	740588
769.549	1061689
769.657	1451484
769.765	1447146
769.873	1076458
769.981	1504438
770.088	1359791
770.196	990086
770.304	720240
770.412	541522
770.519	425953
770.627	345685
770.735	284064
770.842	240729
770.950	210541
771.058	182019
771.165	164198
771.273	147227
771.380	134139
771.488	121376
771.595	111331
771.703	100712
771.810	96850
771.918	88779
772.025	83908
772.133	79158
772.240	73919
772.348	71672
772.455	67617
772.562	63754
772.670	61868
772.777	59111
772.884	56175
772.991	54049
773.099	52440
773.206	48998
773.313	48896
773.420	46691
773.528	44669
773.635	43916
773.742	42810
773.849	40980
773.956	39858
774.063	39589
774.170	37906
774.277	37642
774.384	36116
774.491	36216
774.598	35032
774.705	34232
774.812	33909
774.919	33165
775.026	31590
775.133	31586
775.239	30179
775.346	29905
775.453	30447
775.560	28823
775.667	29483
775.773	27975
775.880	29267
775.987	27456
776.093	26971
776.200	26873
776.307	25618
776.413	25251
776.520	24402
776.627	24414
776.733	24549
776.840	21696
776.946	24426
777.053	23970
777.159	24805
777.266	21649
777.372	23510
777.478	23033
777.585	22014
777.691	20357
777.798	21303
777.904	21158
778.010	23442
778.117	21572
778.223	20334
778.329	19375
778.435	18770
778.542	19244
778.648	18452
778.754	17488
778.860	18553
778.966	18778
779.072	18638
779.178	18058
779.284	19114
779.391	18727
779.497	20687
779.603	29273
779.708	42750
779.815	94012
779.920	308507
780.026	419549
780.132	85186
780.238	29410
780.344	22719
780.450	20671
780.556	19044
780.661	17413
780.767	15834
780.873	16116
780.979	15613
781.085	15468
781.190	15671
781.296	14164
781.402	14820
781.507	13595
781.613	14164
781.719	13033
781.824	13639
781.930	13863
782.035	14135
782.141	13551
782.246	13064
782.352	13427
782.457	13538
782.563	12087
782.668	12668
782.773	12195
782.879	12320
782.984	12522
783.090	13925
783.195	13486
783.300	12670
783.405	12116
783.511	12059
783.616	11987
783.721	12660
783.826	10898
783.932	11890
784.037	10911
784.142	12596
784.247	11699
784.352	11906
784.457	11230
784.562	11305
784.667	11598
784.772	11155
784.877	10051
784.982	11151
785.087	9527
785.192	10787
785.297	10878
785.402	10596
785.507	10768
785.611	9526
785.716	10565
785.821	10625
785.926	9437
786.031	9912
786.135	9707
786.240	10239
786.345	8657
786.450	10154
786.554	9911
786.659	9637
786.763	8390
786.868	10192
786.973	10436
787.077	9911
787.182	9148
787.286	9449
787.391	9928
787.495	8334
787.600	8369
787.704	8837
787.809	9393
787.913	8874
788.017	8881
788.122	9381
788.226	8557
788.330	8799
788.435	8108
788.539	8524
788.643	8049
788.747	8099
788.852	9004
788.956	7748
789.060	8910
789.164	8339
789.268	7515
789.372	8963
789.476	8190
789.580	8199
789.684	7455
789.788	8724
789.892	8106
789.996	8967
790.100	8387
790.204	8231
790.308	7406
790.412	8312
790.516	9321
790.620	8662
790.724	8787
790.828	7397
790.931	7790
791.035	9373
791.139	8116
791.242	7821
791.346	8777
791.450	7675
791.554	7389
791.657	7089
791.761	8499
791.864	7712
791.968	8016
792.072	8400
792.175	7507
792.279	7824
792.382	7801
792.486	8451
792.589	6945
792.693	7261
792.796	6886
792.899	7740
793.003	7835
793.106	5828
793.209	7590
793.313	8670
793.416	6645
793.519	8299
793.623	8996
793.726	9083
793.829	6938
793.932	9072
794.035	7864
794.138	9579
794.242	9725
794.345	13901
794.448	23213
794.551	51582
794.654	173741
794.757	260194
794.860	49637
794.963	14074
795.066	10015
795.169	10533
795.272	7956
795.375	7782
795.477	7370
795.580	7341
795.683	6333
795.786	7685
795.889	5514
795.991	7558
796.094	7511
796.197	6012
796.300	7261
796.402	6755
796.505	5925
796.608	6227
796.710	6752
796.813	5687
796.915	5824
797.018	6687
797.120	5695
797.223	5597
797.326	7161
797.428	5786
797.530	5356
797.633	6041
797.735	7457
797.838	7725
797.940	8083
798.042	5771
798.145	5005
798.247	6237
798.349	4504
798.452	6556
798.554	5103
798.656	5270
798.758	6027
798.860	5266
798.962	5113
799.065	5246
799.167	4475
799.269	5849
799.371	5822
799.473	5839
799.575	4470
799.677	6559
799.779	5857
799.881	5460
799.983	5467
800.085	5199
800.187	5136
800.289	4600
800.390	5642
800.492	6134
800.594	6171
800.696	5345
800.798	4680
800.899	4862
801.001	4407
801.103	5067
801.205	4795
801.306	5651
801.408	4363
801.509	4710
801.611	5702
801.713	5328
801.814	4215
801.916	5293
802.017	5274
802.119	5270
802.220	5504
802.322	4018
802.423	6252
802.525	4873
802.626	4223
802.727	4844
802.829	4879
802.930	3431
803.031	5696
803.133	4257
803.234	4336
803.335	5231
803.436	4089
803.538	4802
803.639	3656
803.740	4445
803.841	3621
803.942	4473
804.043	4115
804.144	4349
804.245	4126
804.346	3667
804.447	3927
804.548	4476
804.649	5574
804.750	4357
804.851	4715
804.952	4032
805.053	4936
805.154	3450
805.255	4002
805.355	4586
805.456	4299
805.557	3817
805.658	3318
805.758	4632
805.859	4159
805.960	4136
806.061	3819
806.161	3987
806.262	4504
806.362	3920
806.463	3903
806.564	4150
806.664	3788
806.765	4416
806.865	5129
806.966	5436
807.066	3673
807.166	4132
807.267	4111
807.367	3931
807.468	4364
807.568	3098
807.668	4743
807.769	5113
807.869	3336
807.969	5419
808.069	4000
808.170	3806
808.270	3519
808.370	3850
808.470	4732
808.570	3015
808.670	3120
808.770	3750
808.870	3344
808.970	4357
809.070	3675
809.170	3652
809.271	3463
809.370	3789
809.470	3681
809.570	3958
809.670	3078
809.770	3835
809.870	4014
809.970	3219
810.070	3416
810.169	3944
810.269	1973
810.369	4812
810.469	3490
810.568	3492
810.668	3106
810.768	2548
810.867	3188
810.967	3850
811.066	2801
811.166	3315
811.265	4181
811.365	2576
811.464	3104
811.564	3686
811.663	3849
811.763	2701
811.862	3705
811.962	4364
812.061	2996
812.160	3349
812.260	3785
812.359	4342
812.458	4406
812.557	8334
812.657	9734
812.756	5293
812.855	3290
812.954	3584
813.053	3496
813.153	3718
813.252	2461
813.351	4055
813.450	3011
813.549	1961
813.648	3205
813.747	3393
813.846	3895
813.945	2695
814.044	2971
814.143	3151
814.242	3191
814.341	2860
814.439	3539
814.538	3822
814.637	2665
814.736	3001
814.835	3708
814.933	2999
815.032	3492
815.131	3380
815.229	3215
815.328	3850
815.427	3049
815.525	4109
815.624	3899
815.722	3454
815.821	2982
815.919	3282
816.018	3126
816.116	4042
816.215	3388
816.313	3498
816.412	3688
816.510	3889
816.609	4690
816.707	4149
816.805	3645
816.904	3184
817.002	2720
817.100	4528
817.198	3513
817.296	3544
817.395	3632
817.493	4698
817.591	3129
817.689	4354
817.787	4073
817.885	5393
817.983	7453
818.081	11867
818.179	24414
818.277	56478
818.375	47764
818.473	14358
818.571	7286
818.669	6783
818.767	6268
818.865	5485
818.963	5110
819.061	7580
819.158	11581
819.256	23137
819.354	49151
819.452	109878
819.549	71300
819.647	20273
819.745	8869
819.842	6470
819.940	5255
820.038	4852
820.135	4165
820.233	5732
820.330	3901
820.428	3667
820.525	3887
820.623	3776
820.720	2104
820.818	3529
820.915	3070
821.012	4161
821.110	1637
821.207	4658
821.304	3154
821.402	3107
821.499	3963
821.596	3311
821.693	4303
821.791	3988
821.888	3321
821.985	4884
822.082	2828
822.179	3943
822.276	2611
822.373	3549
822.470	2527
822.567	3362
822.664	2599
822.761	4123
822.858	2063
822.955	2268
823.052	3254
823.149	3485
823.246	2632
823.343	2786
823.440	3535
823.536	2770
823.633	2871
823.730	3211
823.827	2728
823.923	3027
824.020	3786
824.117	3323
824.213	2310
824.310	3530
824.407	1833
824.503	3083
824.600	3284
824.696	2793
824.793	3588
824.889	3286
824.986	2117
825.082	2255
825.179	2829
825.275	3418
825.371	2308
825.468	3296
825.564	2030
825.660	2944
825.757	2525
825.853	3642
825.949	2354
826.045	2596
826.142	2385
826.238	2707
826.334	2709
826.430	1810
826.526	2088
826.622	2725
826.718	2280
826.814	1892
826.910	3259
827.006	2964
827.102	2066
827.198	3907
827.294	2619
827.390	2757
827.486	2963
827.582	1963
827.678	1770
827.774	2994
827.869	1831
827.965	3582
828.061	1352
828.157	1547
828.252	1533
828.348	1863
828.444	3001
828.539	2569
828.635	1945
828.731	3100
828.826	2582
828.922	2654
829.017	2114
829.113	2646
829.208	1734
829.304	2006
829.399	3213
829.495	1607
829.590	2382
829.685	1578
829.781	2603
829.876	2395
829.971	2720
830.066	1842
830.162	2282
830.257	2004
830.352	2585
830.447	3685
830.543	2636
830.638	1964
830.733	2928
830.828	1691
830.923	3105
831.018	2349
831.113	1818
831.208	1076
831.303	1650
831.398	2852
831.493	1529
831.588	3013
831.683	1784
831.778	2205
831.873	2354
831.967	3115
832.062	1584
832.157	2477
832.252	3217
832.346	1684
832.441	2441
832.536	2851
832.631	5064
832.725	4603
832.820	2055
832.914	2271
833.009	1595
833.104	1977
833.198	2431
833.293	1775
833.387	2343
833.482	2228
833.576	2497
833.670	2257
833.765	1478
833.859	1796
833.954	2553
834.048	2119
834.142	1713
834.237	1699
834.331	2564
834.425	2218
834.519	1416
834.613	2436
834.708	1796
834.802	2430
834.896	1206
834.990	1421
835.084	2478
835.178	2552
835.272	1882
835.366	1466
835.460	2038
835.554	1985
835.648	1348
835.742	1884
835.836	1860
835.930	943
836.024	2228
836.117	2477
836.211	1993
836.305	3076
836.399	3307
836.493	1937
836.586	2213
836.680	1292
836.774	1680
836.867	2266
836.961	1432
837.055	2083
837.148	1628
837.242	2142
837.335	2047
837.429	1958
837.522	1944
837.616	2197
837.709	3328
837.803	2906
837.896	2017
837.989	2243
838.083	3938
838.176	4875
838.269	3094
838.363	2378
838.456	2144
838.549	2992
838.642	3235
838.735	5571
838.829	3457
838.922	1357
839.015	2662
839.108	1701
839.201	1344
839.294	1720
839.387	3014
839.480	1116
839.573	3144
839.666	2820
839.759	1900
839.852	1216
839.945	1578
840.038	2009
840.131	1868
840.223	3186
840.316	2429
840.409	1958
840.502	983
840.594	2740
840.687	1035
840.780	2813
840.873	2119
840.965	2516
841.058	2023
841.150	3834
841.243	2841
841.336	3382
841.428	2075
841.521	2248
841.613	1612
841.706	1924
841.798	1534
841.890	2034
841.983	744
842.075	1947
842.167	1956
842.260	2198
842.352	3456
842.444	3018
842.537	4759
842.629	6489
842.721	2201
842.813	1646
842.905	1099
842.997	2351
843.090	1860
843.182	2791
843.274	4941
843.366	9165
843.458	15675
843.550	11637
843.642	2970
843.734	1717
843.826	1184
843.918	2680
844.009	2598
844.101	1597
844.193	1662
844.285	1512
844.377	2047
844.469	2720
844.560	1615
844.652	1773
844.744	1897
844.835	1929
844.927	2696
845.019	1972
845.110	1528
845.202	2530
845.293	1166
845.385	1081
845.476	1144
845.568	2532
845.659	1493
845.751	2558
845.842	1567
845.934	1550
846.025	1725
846.116	1891
846.208	1544
846.299	2046
846.390	1288
846.482	2152
846.573	2439
846.664	2482
846.755	2303
846.846	2574
846.937	1229
847.029	1701
847.120	1041
847.211	1300
847.302	2286
847.393	2205
847.484	2162
847.575	1204
847.666	1192
847.757	1800
847.847	1343
847.938	1269
848.029	1377
848.120	2010
848.211	1646
848.302	1127
848.392	1687
848.483	2082
848.574	1949
848.664	1412
848.755	1741
848.846	2115
848.936	657
849.027	2140
849.118	1389
849.208	1943
849.299	1405
849.389	1892
849.480	2928
849.570	3894
849.661	4973
849.751	6230
849.841	3077
849.932	1953
850.022	1189
850.112	2003
850.203	1351
850.293	1520
850.383	1753
850.474	1790
850.564	1470
850.654	2617
850.744	2029
850.834	1516
850.924	1573
851.014	2483
851.104	1260
851.194	1644
851.284	2043
851.374	2303
851.464	1553
851.554	1943
851.644	1817
851.734	3806
851.824	3391
851.914	5576
852.004	9679
852.094	8718
852.183	2468
852.273	1553
852.363	814
852.452	1143
852.542	1822
852.632	700
852.721	1087
852.811	1774
852.901	2052
852.990	1042
853.080	756
853.169	1169
853.259	1368
853.348	2129
853.438	1093
853.527	1560
853.617	922
853.706	2695
853.795	3080
853.885	8285
853.974	14315
854.063	24301
854.152	36978
854.242	13246
854.331	2440
854.420	1949
854.509	2087
854.598	2536
854.687	1730
854.777	2190
854.866	1296
854.955	1887
855.044	804
855.133	1291
855.222	910
855.311	1273
855.400	1786
855.488	2394
855.577	1391
855.666	1974
855.755	1684
855.844	2411
855.933	2246
856.021	2067
856.110	1565
856.199	1341
856.288	743
856.376	1283
856.465	329
856.554	1556
856.642	1347
856.731	1863
856.819	1440
856.908	461
856.996	1622
857.085	1111
857.173	1025
857.262	1097
857.350	1717
857.438	648
857.527	1292
857.615	1184
857.703	1314
857.792	1146
857.880	664
857.968	471
858.056	732
858.145	1857
858.233	684
858.321	1722
858.409	1026
858.497	1291
858.585	582
858.673	664
858.761	918
858.849	1070
858.937	509
859.025	627
859.113	1404
859.201	955
859.289	2444
859.377	1325
859.465	1101
859.552	941
859.640	418
859.728	1306
859.816	852
859.903	1143
859.991	316
860.079	1493
860.166	789
860.254	1114
860.342	1545
860.429	857
860.517	440
860.604	1628
860.692	1729
860.779	568
860.867	791
860.954	1105
861.042	1338
861.129	1078
861.216	1145
861.304	1005
861.391	1194
861.478	1083
861.565	1027
861.653	1403
861.740	825
861.827	973
861.914	1042
862.001	1131
862.089	-16
862.176	1488
862.263	264
862.350	1018
862.437	1312
862.524	1169
862.611	788
862.698	1570
862.785	731
862.871	1994
862.958	-310
863.045	997
863.132	330
863.219	785
863.306	-182
863.392	1840
863.479	1436
863.566	861
863.652	1018
863.739	1692
863.826	1563
863.912	1086
863.999	269
864.086	868
864.172	691
864.259	1380
864.345	532
864.432	763
864.518	940
864.604	942
864.691	674
864.777	964
864.863	748
864.950	1048
865.036	16
865.122	1911
865.209	1883
865.295	1388
865.381	1455
865.467	825
865.553	1856
865.639	876
865.726	1352
865.812	4008
865.898	7405
865.984	9399
866.070	18473
866.156	18179
866.242	4990
866.328	1874
866.414	1182
866.499	1272
866.585	965
866.671	1714
866.757	1422
866.843	1600
866.928	1062
867.014	1837
867.100	2055
867.186	1606
867.271	2368
867.357	1820
867.442	1544
867.528	2103
867.614	663
867.699	720
867.785	821
867.870	927
867.956	925
868.041	2016
868.127	1871
868.212	2373
868.297	1527
868.383	1674
868.468	2233
868.553	2626
868.639	2380
868.724	4269
868.809	4530
868.894	1785
868.979	863
869.065	1766
869.150	627
869.235	1237
869.320	1056
869.405	385
869.490	265
869.575	1354
869.660	968
869.745	1792
869.830	319
869.915	1249
870.000	910
870.085	390
870.169	1071
870.254	1075
870.339	554
870.424	-7
870.509	948
870.593	1264
870.678	876
870.763	549
870.847	1436
870.932	776
871.016	706
871.101	140
871.186	1042
871.270	1106
871.355	1214
871.439	1276
871.523	669
871.608	1003
871.692	1189
871.777	1179
871.861	1322
871.945	859
872.030	838
872.114	1303
872.198	82
872.282	876
872.367	711
872.451	1512
872.535	681
872.619	607
872.703	294
872.787	918
872.871	1237
872.955	1822
873.039	784
873.123	1320
873.207	1450
873.291	378
873.375	435
873.459	883
873.543	1251
873.627	912
873.711	935
873.794	564
873.878	951
873.962	1213
874.045	909
874.129	860
874.137	797
874.213	164
874.245	362
874.296	685
874.352	248
874.380	37
874.460	455
874.464	470
874.547	955
874.568	950
874.631	931
874.676	885
874.714	846
874.784	1544
874.798	1688
874.881	2072
874.892	1856
874.965	335
874.999	463
875.048	640
875.107	660
875.131	668
875.215	150
875.215	150
875.298	-41
875.323	46
875.381	220
875.430	684
875.465	1028
875.538	896
875.548	875
875.631	995
875.646	926
875.714	638
875.753	977
875.798	1282
875.861	352
875.881	108
875.964	570
875.968	586
876.047	734
876.076	699
876.130	700
876.183	787
876.213	805
876.291	1637
876.296	1701
876.379	340
876.398	511
876.462	1052
876.506	967
876.545	847
876.613	1150
876.628	1226
876.711	274
876.721	344
876.794	868
876.828	734
876.877	541
876.935	782
876.960	913
877.043	814
877.043	818
877.125	1761
877.150	1714
877.208	1570
877.258	1634
877.291	1689
877.365	1243
877.374	1209
877.456	1437
877.472	1289
877.539	490
877.579	1115
877.622	1743
877.687	1568
877.704	1524
877.787	1474
877.794	1431
877.869	1133
877.901	1428
877.952	1668
878.008	1247
878.034	1242
878.115	856
878.117	839
878.199	893
878.222	939
878.282	1100
878.329	918
878.364	818
878.437	991
878.447	1044
878.529	914
878.544	957
878.611	986
878.651	1094
878.694	1279
878.758	1598
878.776	1576
878.858	929
878.865	895
878.941	844
878.972	698
879.023	484
879.078	664
879.105	762
879.185	821
879.187	819
879.269	765
879.292	643
879.351	514
879.399	785
879.433	813
879.506	934
879.516	952
879.598	556
879.613	453
879.680	191
879.720	375
879.762	705
879.827	346
879.844	136
879.926	186
879.933	240
880.007	1176
880.040	1062
880.089	709
880.147	513
880.171	520
880.253	1756
880.254	1758
880.335	1895
880.360	2261
880.417	3284
880.467	3647
880.499	3953
880.574	4893
880.580	4820
880.662	2280
880.680	1853
880.744	1018
880.787	563
880.825	326
880.893	357
880.907	403
880.989	597
881.000	650
881.070	874
881.106	854
881.152	688
881.213	532
881.233	537
881.315	346
881.319	378
881.396	880
881.426	574
881.478	-50
881.532	597
881.559	1009
881.639	452
881.641	441
881.722	1338
881.745	1343
881.803	1162
881.852	1032
881.885	955
881.958	486
881.966	439
882.047	1206
882.064	1170
882.129	1109
882.171	1082
882.210	1021
882.277	1488
882.291	1594
882.372	1460
882.383	1428
882.454	854
882.489	722
882.535	679
882.596	352
882.616	265
882.697	646
882.702	613
882.778	584
882.808	812
882.859	708
882.914	507
882.940	458
883.020	440
883.021	440
883.102	441
883.127	543
883.183	931
883.233	751
883.264	338
883.339	148
883.345	210
883.426	515
883.445	739
883.507	978
883.551	821
883.587	576
883.657	487
883.668	521
883.749	283
883.763	297
883.830	576
883.869	712
883.910	765
883.975	992
883.991	950
884.072	299
884.081	269
884.152	572
884.187	608
884.233	545
884.292	559
884.314	470
884.394	319
884.398	303
884.475	328
884.504	271
884.555	245
884.610	544
884.636	614
884.716	431
884.716	428
884.797	103
884.821	98
884.877	123
884.927	-140
884.958	-147
885.033	378
885.038	383
885.118	331
885.139	252
885.199	189
885.244	329
885.279	659
885.350	922
885.359	887
885.439	1022
885.456	974
885.520	835
885.561	914
885.600	674
885.667	-159
885.680	-123
885.760	801
885.773	869
885.840	707
885.878	684
885.920	806
885.984	986
886.000	885
886.080	348
886.089	276
886.160	676
886.195	908
886.240	723
886.300	564
886.320	529
886.400	396
886.406	380
886.480	197
886.511	145
886.560	650
886.616	1250
886.640	1191
886.720	961
886.722	952
886.800	534
886.827	487
886.879	659
886.932	675
886.959	710
887.038	891
887.039	891
887.119	850
887.143	849
887.198	743
887.248	655
887.278	594
887.354	524
887.358	538
887.437	703
887.459	799
887.517	898
887.564	834
887.596	761
887.669	851
887.676	816
887.755	242
887.774	121
887.835	561
887.880	849
887.914	647
887.985	322
887.994	401
888.073	1006
888.090	1159
888.153	582
888.195	201
888.232	508
888.300	1021
888.311	1013
888.391	944
888.405	944
888.470	937
888.510	905
888.549	840
888.615	823
888.628	760
888.708	312
888.720	253
888.787	584
888.825	743
888.866	655
888.930	579
888.945	515
889.024	164
889.035	121
889.103	460
889.140	649
889.182	764
889.245	967
889.261	1002
889.340	1140
889.349	1159
889.419	561
889.454	273
889.498	404
889.559	594
889.577	623
889.656	781
889.664	802
889.735	1107
889.768	1257
889.814	1181
889.873	1079
889.978	644
890.083	-65
890.187	808
890.292	1507
890.397	546
890.501	1193
890.606	1141
890.710	497
890.815	1090
890.919	181
891.024	77
891.128	1116
891.233	1021
891.337	216
891.442	831
891.546	423
891.650	68
891.755	-44
891.859	2194
891.963	443
892.068	836
892.172	-138
892.276	1184
892.380	1248
892.484	484
892.589	806
892.693	-16
892.797	-134
892.901	1221
893.005	380
893.109	502
893.213	1169
893.317	1215
893.421	757
893.525	89
893.629	-698
893.733	240
893.837	339
893.941	659
894.045	970
894.148	1526
894.252	2078
894.356	915
894.460	829
894.564	262
894.667	405
894.771	877
894.875	255
894.978	755
895.082	395
895.186	332
895.289	419
895.393	889
895.496	709
895.600	854
895.703	402
895.807	-63
895.910	184
896.014	248
896.117	507
896.221	664
896.324	645
896.427	526
896.531	98
896.634	1204
896.737	792
896.840	485
896.944	549
897.047	249
897.150	930
897.253	645
897.356	1143
897.460	-220
897.563	863
897.666	561
897.769	574
897.872	-130
897.975	-78
898.078	317
898.181	305
898.284	1335
898.387	1303
898.490	813
898.593	-144
898.695	438
898.798	91
898.901	1122
899.004	553
899.107	94
899.209	490
899.312	382
899.415	-100
899.518	813
899.620	497
899.723	479
899.826	711
899.928	761
900.031	677
900.133	-32
900.236	1192
900.338	194
900.441	154
900.543	272
900.646	651
900.748	1015
900.851	-26
900.953	-340
901.055	201
901.158	809
901.260	478
901.362	1150
901.465	213
901.567	162
901.669	61
901.771	474
901.873	280
901.976	590
902.078	327
902.180	829
902.282	-11
902.384	98
902.486	-162
902.588	302
902.690	553
902.792	245
902.894	732
902.996	274
903.098	-243
903.200	256
903.302	243
903.404	530
903.505	523
903.607	420
903.709	419
903.811	289
903.913	190
904.014	232
904.116	347
904.218	-224
904.319	122
904.421	986
904.523	282
904.624	412
904.726	-66
904.827	-222
904.929	-332
905.030	192
905.132	387
905.233	278
905.335	829
905.436	139
905.537	-142
905.639	402
905.740	-508
905.841	520
905.943	602
906.044	315
906.145	413
906.247	284
906.348	-125
906.449	633
906.550	253
906.651	758
906.752	119
906.854	15
906.955	-129
907.056	9
907.157	-135
907.258	1173
907.359	138
907.460	209
907.561	478
907.662	629
907.762	83
907.863	336
907.964	-386
908.065	-365
908.166	-13
908.267	294
908.367	138
908.468	587
908.569	359
908.670	653
908.770	818
908.871	886
908.971	737
909.072	817
909.173	208
909.273	-243
909.374	-147
909.474	579
909.575	212
909.675	255
909.776	24
909.876	-254
909.977	437
910.077	629
910.177	-652
910.278	625
910.378	444
910.478	135
910.579	304
910.679	151
910.779	22
910.879	190
910.980	6
911.080	216
911.180	-583
911.280	-234
911.380	-29
911.480	703
911.580	-23
911.680	214
911.780	-596
911.880	299
911.980	-280
912.080	151
912.180	475
912.280	384
912.380	-117
912.480	-411
912.580	774
912.679	290
912.779	42
912.879	-88
912.979	-348
913.078	-331
913.178	314
913.278	363
913.377	-388
913.477	305
913.577	74
913.676	289
913.776	372
913.875	910
913.975	28
914.074	109
914.174	-207
914.273	-182
914.373	155
914.472	-651
914.572	-641
914.671	-341
914.770	-495
914.870	-182
914.969	-568
915.068	-219
915.167	339
915.267	-510
915.366	-19
915.465	-12
915.564	406
915.663	102
915.763	66
915.862	798
915.961	-132
916.060	147
916.159	176
916.258	-392
916.357	232
916.456	-141
916.555	3
916.654	-631
916.752	68
916.851	63
916.950	-151
917.049	-358
917.148	56
917.247	387
917.345	174
917.444	-1047
917.543	-537
917.642	158
917.740	-645
917.839	-758
917.937	147
918.036	331
918.135	-37
918.233	-2
918.332	-355
918.430	-347
918.529	-384
918.627	-608
918.726	574
918.824	110
918.923	222
919.021	225
919.119	-597
919.218	277
919.316	122
919.414	-31
919.512	-19
919.611	-140
919.709	-315
919.807	583
919.905	45
920.003	-400
920.102	-814
920.200	-45
920.298	-350
920.396	-28
920.494	-9
920.592	161
920.690	329
920.788	662
920.886	-1272
920.984	-75
921.082	-461
921.180	834
921.277	-276
921.375	714
921.473	-338
921.571	445
921.669	71
921.766	87
921.864	649
921.962	523
922.060	-50
922.157	164
922.255	-38
922.352	213
922.450	631
922.548	-317
922.645	-95
922.743	1130
922.840	706
922.938	392
923.035	260
923.133	531
923.230	712
923.327	901
923.425	76
923.522	906
923.619	-127
923.717	278
923.814	-318
923.911	-240
924.008	493
924.106	363
924.203	-6
924.300	-44
924.397	-224
924.494	964
924.591	872
924.688	284
924.786	121
924.883	120
924.979	-232
925.077	388
925.173	569
925.270	402
925.367	-243
925.464	1146
925.561	-150
925.658	205
925.755	753
925.852	1423
925.948	-119
926.045	284
926.142	298
926.239	666
926.335	453
926.432	208
926.529	-210
926.625	1143
926.722	41
926.818	461
926.915	320
927.011	367
927.108	-645
927.204	-314
927.301	508
927.397	215
927.494	-402
927.590	602
927.687	-465
927.783	353
927.879	620
927.976	-804
928.072	-201
928.168	574
928.264	876
928.361	314
928.457	406
928.553	-251
928.649	13
928.745	329
928.841	-326
928.937	450
929.033	646
929.129	201
929.225	279
929.321	-123
929.417	370
929.513	-643
929.609	-433
929.705	-99
929.801	541
929.897	-582
929.993	-57
930.089	32
930.184	489
930.280	-193
930.376	487
930.471	-406
930.567	-235
930.663	406
930.758	-364
930.854	-464
930.950	-14
931.045	392
931.141	-502
931.236	698
931.332	156
931.427	-282
931.523	-488
931.618	817
931.714	-465
931.809	-158
931.905	147
932.000	676
932.095	-695
932.191	144
932.286	-688
932.381	285
932.476	240
932.572	-552
932.667	-15
932.762	-210
932.857	295
932.952	-1082
933.047	-161
933.142	709
933.237	-545
933.332	-361
933.427	367
933.522	27
933.617	239
933.712	28
933.807	-80
933.902	283
933.997	339
934.092	260
934.187	-172
934.282	-322
934.376	131
934.471	1123
934.566	-101
934.661	-139
934.755	-179
934.850	443
934.945	86
935.039	-144
935.134	-184
935.228	-83
935.323	48
935.417	-129
935.512	-615
935.606	-191
935.701	-151
935.795	226
935.890	-168
935.984	299
936.079	-860
936.173	305
936.267	-612
936.362	-56
936.456	664
936.550	712
936.644	-108
936.738	525
936.833	257
936.927	135
937.021	-176
937.115	586
937.209	-226
937.303	588
937.397	493
937.491	-274
937.585	379
937.679	60
937.773	-451
937.867	-178
937.961	194
938.055	985
938.149	433
938.243	758
938.337	-36
938.430	-751
938.524	-84
938.618	545
938.712	409
938.805	656
938.899	392
938.993	278
939.086	428
939.180	124
939.274	286
939.367	-245
939.461	442
939.554	491
939.648	478
939.741	458
939.835	-20
939.928	942
940.022	191
940.115	231
940.208	-34
940.302	429
940.395	18
940.488	-1373
940.582	809
940.675	-280
940.768	175
940.861	927
940.954	244
941.048	-364
941.141	193
941.234	-311
941.327	-145
941.420	886
941.513	295
941.606	-230
941.699	-498
941.792	167
941.885	94
941.978	-555
942.071	-478
942.164	310
942.257	481
942.349	-185
942.442	552
942.535	634
942.628	-237
942.721	245
942.813	-1833
942.906	1299
942.999	-509
943.091	-374
943.184	-905
943.277	-412
943.369	324
943.462	-556
943.554	33
943.647	-388
943.739	-105
943.832	-85
943.924	-829
944.017	458
944.109	-836
944.201	343
944.294	351
944.386	270
944.478	-601
944.571	250
944.663	-303
944.755	-68
944.847	608
944.940	367
945.032	-701
945.124	904
945.216	331
945.308	-78
945.400	-87
945.492	292
945.584	-330
945.676	531
945.768	66
945.860	503
945.952	-394
946.044	398
946.136	-42
946.228	67
946.320	-546
946.412	-499
946.503	373
946.595	1076
946.687	-730
946.779	-674
946.870	-269
946.962	257
947.054	676
947.145	267
947.237	-725
947.329	-216
947.420	10
947.512	-258
947.603	-1285
947.695	49
947.786	-1325
947.878	-292
947.969	704
948.061	1005
948.152	-508
948.243	168
948.335	-741
948.426	356
948.517	85
948.609	-185
948.700	172
948.791	132
948.882	-308
948.973	112
949.065	189
949.156	143
949.247	-399
949.338	-533
949.429	-132
949.520	180
949.611	-1060
949.702	116
949.793	-248
949.884	-40
949.975	-126
950.066	-399
950.157	167
950.247	-359
950.338	-571
950.429	289
950.520	764
950.611	-469
950.701	-187
950.792	-220
950.883	430
950.973	111
951.064	302
951.155	62
951.245	206
951.336	23
951.427	-840
951.517	786
951.608	2
951.698	-573
951.788	-233
951.879	-85
951.969	269
952.060	-76
952.150	-54
952.240	290
952.331	-795
952.421	707
952.511	-1002
952.602	-451
952.692	-631
952.782	203
952.872	-270
952.962	-53
953.052	-1009
953.143	-1375
953.233	-334
953.323	266
953.413	-1067
953.503	365
953.593	44
953.683	392
953.773	-1008
953.863	606
953.953	-897
954.042	-2
954.132	-916
954.222	44
954.312	-84
954.402	-442
954.492	-171
954.581	883
954.671	-663
954.761	226
954.850	300
954.940	-743
955.030	-153
955.119	-386
955.209	122
955.298	156
955.388	-1003
955.477	246
955.567	-565
955.656	208
955.746	162
955.835	-155
955.925	-474
956.014	-757
956.103	-403
956.193	-1044
956.282	205
956.371	853
956.461	-602
956.550	-24
956.639	-50
956.728	-320
956.817	-650
956.906	195
956.995	400
957.085	-297
957.174	128
957.263	-856
957.352	-642
957.441	-201
957.530	56
957.619	-332
957.708	45
957.796	-101
957.885	-335
957.974	-546
958.063	269
958.152	-193
958.241	171
958.329	-925
958.418	-227
958.507	24
958.596	1420
958.684	-339
958.773	449
958.861	410
958.950	231
959.039	630
959.127	-180
959.216	743
959.304	-164
959.393	646
959.481	199
959.570	817
959.658	513
959.746	1200
959.835	1398
959.923	1130
960.011	545
960.100	557
960.188	374
960.276	619
960.365	385
960.453	184
960.541	-162
960.629	49
960.717	-332
960.805	-259
960.893	-115
960.981	-1060
961.069	567
961.158	-441
961.245	139
961.333	-301
961.421	-981
961.509	258
961.597	-372
961.685	394
961.773	-1090
961.861	122
961.949	378
962.036	-696
962.124	561
962.212	-3
962.299	-953
962.387	-179
962.475	-302
962.562	-551
962.650	-103
962.738	106
962.825	-279
962.913	-187
963.000	95
963.088	17
963.175	-622
963.263	-75
963.350	223
963.438	-746
963.525	292
963.612	1366
963.700	3387
963.787	5777
963.874	665
963.962	-295
964.049	-272
964.136	-702
964.223	-10
964.310	-189
964.398	-384
964.485	-663
964.572	427
964.659	387
964.746	249
964.833	-327
964.920	-488
965.007	-201
965.094	-216
965.181	-899
965.268	-1227
965.355	309
965.441	-1460
965.528	-436
965.615	-604
965.702	-426
965.789	-978
965.875	-399
965.962	-200
966.049	-974
966.136	-798
966.222	-132
966.309	-107
966.395	62
966.482	-393
966.569	-1046
966.655	-761
966.742	-961
966.828	-800
966.915	-691
967.001	-18
967.087	56
967.174	-15
967.260	1078
967.347	448
967.433	494
967.519	2710
967.605	667
967.692	-611
967.778	-722
967.864	-955
967.950	-715
968.036	-1420
968.123	-391
968.209	-768
968.295	-845
968.381	260
968.467	-262
968.553	-1910
968.639	901
968.725	-875
968.811	-355
968.897	156
968.983	-61
969.069	-1219
969.154	153
969.240	-421
969.326	-238
969.412	-629
969.497	-664
969.583	-1098
969.669	-85
969.755	-1199
969.840	-1029
969.926	-1033
970.012	-99
970.097	42
970.183	-840
970.268	-766
970.354	67
970.439	118
970.525	2340
970.610	-834
970.696	-160
970.781	238
970.866	-139
970.952	-309
971.037	-462
971.122	-403
971.208	50
971.293	-513
971.378	-1728
971.463	-893
971.549	-147
971.634	-592
971.719	-260
971.804	-261
971.889	-345
971.974	-1018
972.059	-646
972.144	-734
972.229	-640
972.314	-1033
972.399	-611
972.484	-1236
972.569	-81
972.654	-545
972.739	1192
972.824	-560
972.908	179
972.993	-1167
973.078	-314
973.163	-508
973.247	-156
973.332	-1886
973.417	629
973.501	-2027
973.586	-526
973.671	-1159
973.755	-806
973.840	-223
973.924	134
974.009	-952
974.093	-1433
974.178	-70
974.262	160
974.346	-679
974.431	-1079
974.515	-753
974.600	-287
974.684	-836
974.768	-1659
974.852	-622
974.937	-1353
975.021	-1180
975.105	-650
975.189	-791
975.273	-554
975.358	-1566
975.442	-997
975.526	-713
975.610	-1362
975.694	-1150
975.778	50
975.862	-243
975.946	-2419
976.030	481
976.114	-635
976.198	-1461
976.281	-1204
976.365	196
976.449	-1399
976.533	114
976.617	-1293
976.700	-440
976.784	128
976.868	-1116
976.951	-89
977.035	-553
977.119	-1037
977.202	-1347
977.286	49
977.369	-1046
977.453	-883
977.536	-1168
977.620	-1142
977.703	-98
977.787	-1854
977.870	-62
977.953	161
978.037	-2417
978.120	890
978.203	-898
978.287	183
978.370	-769
978.453	-320
978.536	-312
978.620	-61
978.703	-448
978.786	-262
978.869	-1368
978.952	-1754
979.035	19
979.118	-333
979.201	-1182
979.284	-699
979.367	-1626
979.450	-891
979.533	-1422
979.616	-353
979.699	-1185
979.782	-1066
979.865	-1438
979.948	75
980.030	-1276
980.113	-1129
980.196	-1470
980.279	-779
980.361	-1056
980.444	-579
980.526	-815
980.609	-737
980.692	-1254
980.774	-335
980.857	-1952
980.939	-630
981.022	-1327
981.104	-801
981.187	-1478
981.269	-386
981.352	-880
981.434	-1562
981.516	-1953
981.599	-173
981.681	-1004
981.763	-2055
981.846	-1673
981.928	-304
982.010	-1298
982.092	-1504
982.174	-1028
982.256	-1748
982.339	-771
982.421	-1312
982.503	-1060
982.585	-1325
982.667	-920
982.749	-941
982.831	-1181
982.913	-1462
982.995	-221
983.077	-1590
983.158	-616
983.240	-1193
983.322	-1590
983.404	26
983.486	-1403
983.568	-15
983.649	-1677
983.731	-433
983.813	-856
983.894	-468
983.976	-1557
984.058	-1361
984.139	-90
984.221	-1813
984.302	-685
984.384	-1019
984.465	-1347
984.547	-1190
984.628	-1803
984.710	-425
984.791	-1373
984.872	-982
984.954	-1709
985.035	-521
985.116	-969
985.198	-887
985.279	-289
985.360	-1302
985.441	-1122
985.522	-757
985.604	-1148
985.685	-918
985.766	-693
985.847	-128
985.928	-1851
986.009	-1285
986.090	-887
986.171	348
986.252	-1955
986.333	-900
986.414	-1793
986.495	-1039
986.576	-1626
986.656	-922
986.737	-1225
986.818	-1185
986.899	-1104
986.980	-527
987.060	-1163
987.141	-1208
987.222	-908
987.302	-811
987.383	-823
987.464	-1011
987.544	-891
987.625	-1201
987.705	-1148
987.786	-1077
987.866	-694
987.947	-464
988.027	-1613
988.108	-920
988.188	-1134
988.268	-841
988.349	-1577
988.429	-1108
988.509	-1061
988.589	-1744
988.670	-3511
988.750	-231
988.830	-1627
988.910	-1207
988.990	-1012
989.070	-1261
989.151	-1408
989.231	-886
989.311	-1489
989.391	-905
989.471	-892
989.551	-1503
989.631	-1416
989.711	-1025
989.791	-1875
989.870	-1733
989.950	-665
990.030	-1285
990.110	-1582
990.190	-1257
990.269	-909
990.349	-1242
990.429	-796
990.509	-397
990.588	-1674
990.668	-549
990.747	-1400
990.827	-1131
990.907	-994
990.986	-1507
991.066	-941
991.145	-1804
991.225	-1075
991.304	-1823
991.383	-1080
991.463	-1342
991.542	-1151
991.622	-1948
991.701	-1731
991.780	-979
991.859	-1506
991.939	-1433
992.018	-1495
992.097	-861
992.176	-1378
992.256	-1339
992.335	-1621
992.414	-956
992.493	-1888
992.572	-1764
992.651	-902
992.730	-1094
992.809	-1655
992.888	-957
992.967	-1641
993.046	-755
993.125	-1709
993.203	-786
993.282	-1353
993.361	-1525
993.440	-1228
993.519	-1833
993.597	-797
993.676	-2319
993.755	297
993.834	-1176
993.912	-2252
993.991	-413
994.069	-2113
994.148	-1583
994.226	-1394
994.305	-736
994.384	-1733
994.462	-463
994.540	-1510
994.619	-974
994.697	-1278
994.776	-1891
994.854	-1501
994.932	-1046
995.011	-947
995.089	-1279
995.167	-1293
995.245	-1077
995.324	-1759
995.402	-538
995.480	-1001
995.558	-1208
995.636	-2462
995.714	-1805
995.792	-600
995.870	-1682
995.948	-1112
996.026	-1080
996.104	-2381
996.182	-146
996.260	-1277
996.338	-530
996.416	-1660
996.494	-2088
996.572	-372
996.649	-1729
996.727	-2195
996.805	-1005
996.883	-1616
996.960	-1515
997.038	-2171
997.116	-2040
997.193	-2167
997.271	-1312
997.348	-1461
997.426	-1109
997.504	-1787
997.581	-2023
997.658	-776
997.736	-1913
997.813	-1172
997.891	-523
997.968	-1816
998.046	-1592
998.123	-2039
998.200	-744
998.277	-2203
998.355	-888
998.432	-2340
998.509	-1324
998.586	-1164
998.663	-1501
998.741	-1231
998.818	-1079
998.895	-1937
998.972	-716
999.049	-1116
999.126	-1449
999.203	-1776
999.280	-1057
999.357	-1358
999.434	-1783
999.511	-1636
999.587	-1032
999.664	-1906
999.741	-757
999.818	-1499
999.895	-2289
999.971	-2398
1000.048	-1714
1000.125	-1139
1000.202	-2038
1000.278	-1887
1000.355	-906
1000.431	-1780
1000.508	-1804
1000.584	-1749
1000.661	-1314
1000.738	-2310
1000.814	-1749
1000.890	-1323
1000.967	-2174
1001.043	-2008
1001.120	-2296
1001.196	-1770
1001.272	-1665
1001.349	-1412
1001.425	-838
1001.501	-2100
1001.577	-1570
1001.654	-1508
1001.730	-1412
1001.806	-1939
1001.882	-1925
1001.958	-1710
1002.034	-1368
1002.110	-1369
1002.186	-1756
1002.262	-1694
1002.338	-1825
1002.414	-1833
1002.490	-471
1002.566	-2070
1002.642	-1899
1002.718	-1596
1002.794	-1970
1002.870	-1771
1002.945	-1084
1003.021	-1739
1003.097	-1643
1003.173	-850
1003.248	-1381
1003.324	-2093
1003.400	-2187
1003.475	-2770
1003.551	-1544
1003.626	-1581
1003.702	-1516
1003.777	-1987
1003.853	-1971
1003.928	-2097
1004.004	-2055
1004.079	-1908
1004.155	-1918
1004.230	-2074
1004.305	-705
1004.381	-2336
1004.456	-1595
1004.531	-1805
1004.607	-1813
1004.682	-1014
1004.757	-1465
1004.832	-1825
1004.907	-1461
1004.982	-1761
1005.057	-1788
1005.133	-2068
1005.208	-1568
1005.283	-1803
1005.358	-951
1005.433	-1878
1005.508	-1121
1005.583	-2508
1005.657	-1751
1005.732	-1098
1005.807	-1978
1005.882	-2204
1005.957	-1414
1006.032	-1665
1006.106	-1526
1006.181	-1779
1006.256	-1394
1006.331	-2484
1006.405	-1905
1006.480	-1257
1006.554	-1918
1006.629	-1549
1006.704	-1872
1006.778	-1690
1006.853	-1004
1006.927	-2518
1007.002	-1514
1007.076	-2031
1007.150	-2411
1007.225	-1400
1007.299	-1528
1007.373	-2450
1007.448	-1371
1007.522	-1108
1007.596	-1165
1007.671	-2254
1007.745	-1365
1007.819	-2056
1007.893	-1504
1007.967	-2377
1008.041	-2379
1008.115	-1654
1008.190	-2103
1008.264	-1589
1008.338	-2704
1008.412	-1841
1008.486	-1882
1008.560	-1553
1008.633	-2593
1008.707	-1686
1008.781	-614
1008.855	-2925
1008.929	-1992
1009.003	-1742
1009.076	-2310
1009.150	-1963
1009.224	-1910
1009.298	-1404
1009.371	-2286
1009.445	-2136
1009.519	-2903
1009.592	-2155
1009.666	-1078
1009.739	-1429
1009.813	-2387
1009.886	-673
1009.960	-2723
1010.033	-1683
1010.107	-1342
1010.180	-2662
1010.253	-1451
1010.327	-2115
1010.400	-1740
1010.473	-1829
1010.547	-907
1010.620	-1829
1010.693	-1746
1010.766	-2768
1010.840	-1401
1010.913	-2017
1010.986	-1494
1011.059	-1671
1011.132	-1938
1011.205	-866
1011.278	-1729
1011.351	-2001
1011.424	-1721
1011.497	-2338
1011.570	-1401
1011.643	-1853
1011.716	-1582
1011.789	-2584
1011.862	-1057
1011.934	-1334
1012.007	-2367
1012.080	-1507
1012.153	-1503
1012.225	-992
1012.298	-1988
1012.371	-2186
1012.443	-991
1012.516	-2214
1012.588	-1813
1012.661	-1671
1012.733	-1564
1012.806	-1265
1012.879	-2259
1012.951	-1520
1013.023	-1614
1013.096	-1694
1013.168	-1815
1013.241	-969
1013.313	-1307
1013.385	-2368
1013.458	-903
1013.530	-1687
1013.602	-2458
1013.674	-1543
1013.746	-2464
1013.819	-1794
1013.891	-780
1013.963	-2314
1014.035	-1734
1014.107	-1315
1014.179	-538
1014.251	-1723
1014.323	-1263
1014.395	-2309
1014.467	-2289
1014.539	-1415
1014.611	-2354
1014.683	-1452
1014.754	-1396
1014.826	-1418
1014.898	-1946
1014.970	-1836
1015.042	-669
1015.113	-2093
1015.185	-1805
1015.257	-2765
1015.328	-784
1015.400	-2039
1015.471	-906
1015.543	-2387
1015.615	-1927
1015.686	-2144
1015.757	-1133
1015.829	-1498
1015.901	-1773
1015.972	-1524
1016.043	-1285
1016.115	-1435
1016.186	-1958
1016.257	-1410
1016.328	-1758
1016.400	-1283
1016.471	-2425
1016.542	-1581
1016.613	-1732
1016.685	-1344
1016.756	-688
1016.827	-2601
1016.898	-1482
1016.969	-1767
1017.040	-1884
1017.111	-1674
1017.182	-1063
1017.253	-1343
1017.324	-1853
1017.395	-1832
1017.466	-1230
1017.537	-2660
1017.608	-784
1017.678	-2439
1017.749	-1495
1017.820	-1636
1017.891	-1558
1017.961	-2096
1018.032	-1580
1018.103	-1936
1018.173	-1168
1018.244	-1712
1018.315	-1410
1018.385	-2508
1018.456	-1635
1018.526	-1414
1018.597	-1462
1018.667	-1765
1018.738	-2107
1018.808	-2168
1018.878	-2342
1018.949	-1644
1019.019	-572
1019.089	-1364
1019.160	-1891
1019.230	-2552
1019.300	-1566
1019.371	-1897
1019.441	-1406
1019.511	-2040
1019.581	-1573
1019.651	-2437
1019.721	-841
1019.791	-1681
1019.861	-1423
1019.931	-1663
1020.001	-1568
1020.071	-2283
1020.141	-1691
1020.211	-2165
1020.281	-1640
1020.351	-1927
1020.421	-1082
1020.491	-524
1020.560	-1443
1020.630	-2019
1020.700	-1932
1020.770	-2183
1020.839	-1881
1020.909	-2239
1020.979	-2433
1021.048	-2301
1021.118	-1609
1021.187	-1952
1021.257	-1964
1021.326	-1371
1021.396	-1299
1021.465	-1719
1021.535	-2156
1021.604	-2433
1021.674	-1135
1021.743	-1546
1021.812	-2118
1021.882	-1729
1021.951	-1844
1022.020	-2007
1022.089	-829
1022.159	-1836
1022.228	-1567
1022.297	-1527
1022.366	-1489
1022.435	-1294
1022.504	-1673
1022.573	-2277
1022.642	-1901
1022.711	-2016
1022.781	-2066
1022.849	-1939
1022.918	-1364
1022.987	-1394
1023.056	-1812
1023.125	-1161
1023.194	-1429
1023.263	-1583
1023.331	-536
1023.400	-1623
1023.469	-1581
1023.538	-1198
1023.606	-1379
1023.675	-1555
1023.744	-1985
1023.812	-2391
1023.881	-1976
1023.949	-1922
1024.018	-1919
1024.086	-2133
1024.155	-1904
1024.223	-1980
1024.292	-1968
1024.360	-1765
1024.429	-1391
1024.497	-1991
1024.565	-1864
1024.634	-2056
1024.702	-1140
1024.770	-2112
1024.838	-1532
1024.907	-1369
1024.975	-1959
1025.043	-1255
1025.111	-1431
1025.179	-1691
1025.247	-1958
1025.315	-1921
1025.383	-2178
1025.451	-1640
1025.519	-1279
1025.587	-2204
1025.655	-1233
1025.723	-2246
1025.791	-1276
1025.859	-1762
1025.927	-776
1025.995	-2042
1026.062	-990
1026.130	-1576
1026.198	-1852
1026.266	-2019
1026.333	-1563
1026.401	-658
1026.469	-1130
1026.536	-1984
1026.604	-1977
1026.671	-2407
1026.739	-2082
1026.806	-2279
1026.874	-1680
1026.941	-1459
1027.009	-1851
1027.076	-2403
1027.144	-760
1027.211	-2402
1027.278	-2615
1027.345	-1528
1027.413	-1119
1027.480	-2459
1027.547	-2057
1027.614	-2099
1027.682	-675
1027.749	-1948
1027.816	-1484
1027.883	-1445
1027.950	-1398
1028.017	-1940
1028.084	-1474
1028.151	-1904
1028.218	-1743
1028.285	-1831
1028.352	-1280
1028.419	-2380
1028.486	-1529
1028.553	-2044
1028.619	-1540
1028.686	-2000
1028.753	-1209
1028.820	-2027
1028.886	-2722
1028.953	-1101
1029.020	-1730
1029.086	-2395
1029.153	-1635
1029.220	-1452
1029.286	-1488
1029.353	-1825
1029.419	-1243
1029.486	-1859
1029.552	-2500
1029.619	-1933
1029.685	-2498
1029.751	-2114
1029.818	-1273
1029.884	-1708
1029.951	-171
1030.017	-1809
1030.083	-2003
1030.149	-1964
1030.216	-1628
1030.282	-1606
1030.348	-1549
1030.414	-1623
1030.480	-1484
1030.546	-2088
1030.612	-807
1030.678	-2003
1030.744	-2396
1030.810	-2249
1030.876	-2070
1030.942	-2328
1031.008	-1830
1031.074	-1971
1031.140	-1374
1031.206	-1351
1031.272	-2273
1031.337	-1525
1031.403	-1508
1031.469	-1597
1031.534	-1930
1031.600	-2174
1031.666	-1612
1031.731	-2734
1031.797	-2066
1031.863	-2244
1031.928	-1883
1031.994	-2040
1032.059	-1703
1032.125	-1676
1032.190	-1999
1032.256	-2463
1032.321	-1746
1032.386	-2077
1032.452	-1428
1032.517	-2802
1032.582	-1193
1032.647	-2642
1032.713	-1619
1032.778	-2250
1032.843	-2200
1032.908	-2351
1032.974	-2074
1033.039	-2311
1033.104	-1750
1033.169	-1945
1033.234	-1595
1033.299	-2041
1033.364	-1168
1033.429	-1709
1033.494	-1694
1033.559	-2680
1033.624	-1548
1033.688	-2675
1033.753	-2047
1033.818	-2461
1033.883	-2270
1033.948	-2035
1034.013	-1721
1034.077	-2973
1034.142	-1046
1034.207	-2398
1034.271	-553
1034.336	-553
1034.400	-1873
1034.465	-1800
1034.530	-1834
1034.594	-1994
1034.658	-2109
1034.723	-2430
1034.787	-2482
1034.852	-2247
1034.916	-1980
1034.981	-1909
1035.045	-2170
1035.109	-2000
1035.173	-1890
1035.238	-3070
1035.302	-1932
1035.366	-2393
1035.430	-1779
1035.495	-2520
1035.559	-1734
1035.623	-1284
1035.687	-2057
1035.751	-2270
1035.815	-2154
1035.879	-2452
1035.943	-2190
1036.007	-2252
1036.071	-2236
1036.135	-2363
1036.198	-1751
1036.262	-2137
1036.326	-1555
1036.390	-1292
1036.454	-2088
1036.517	-2233
1036.581	-2202
1036.645	-1123
1036.709	-2047
1036.772	-2820
1036.836	-2006
1036.900	-2805
1036.963	-2370
1037.026	-1322
1037.090	-2376
1037.154	-2321
1037.217	-1949
1037.280	-2850
1037.344	-2163
1037.407	-2093
1037.471	-1695
1037.534	-2112
1037.597	-2350
1037.661	-1846
1037.724	-1989
1037.787	-2528
1037.850	-2176
1037.913	-2589
1037.977	-2475
1038.040	-2658
1038.103	-2207
1038.166	-2705
1038.229	-2370
1038.292	-1725
1038.355	-1547
1038.418	-2589
1038.481	-2984
1038.544	-2894
1038.607	-1786
1038.670	-1951
1038.732	-2191
1038.795	-2975
1038.858	-2398
1038.921	-1938
1038.984	-2104
1039.046	-2540
1039.109	-1882
1039.172	-2353
1039.234	-2729
1039.297	-2057
1039.360	-1640
1039.422	-2389
1039.485	-1927
1039.547	-3107
1039.610	-1641
1039.672	-2139
1039.734	-2021
1039.797	-2092
1039.859	-1972
1039.922	-2764
1039.984	-2000
1040.046	-2264
1040.109	-2206
1040.171	-2970
1040.233	-1992
1040.295	-2844
1040.358	-2028
1040.420	-2455
1040.482	-2407
1040.544	-2024
1040.606	-2422
1040.668	-2526
1040.730	-2236
1040.792	-2951
1040.854	-2617
1040.916	-2080
1040.978	-2869
1041.040	-1541
1041.102	-1445
1041.164	-2524
1041.225	-2926
1041.287	-3374
1041.349	-2329
1041.411	-1807
1041.472	-1785
1041.534	-2053
1041.596	-2837
1041.657	-2655
1041.719	-2873
1041.781	-2300
1041.842	-2732
1041.904	-2445
1041.965	-2136
1042.027	-2452
1042.088	-2593
1042.150	-1446
1042.211	-2946
1042.272	-2339
1042.334	-2481
1042.395	-2951
1042.456	-2194
1042.518	-2698
1042.579	-2358
1042.640	-2424
1042.701	-2220
1042.763	-2548
1042.824	-1828
1042.885	-2429
1042.946	-1683
1043.007	-3077
1043.068	-2505
1043.129	-3024
1043.190	-2084
1043.251	-2207
1043.312	-1869
1043.373	-2633
1043.434	-2197
1043.495	-2651
1043.556	-1579
1043.616	-2061
1043.677	-2032
1043.738	-2922
1043.799	-1496
1043.859	-2680
1043.920	-2858
1043.981	-2427
1044.041	-2175
1044.102	-2633
1044.162	-2973
1044.223	-2914
1044.284	-2470
1044.344	-2356
1044.405	-2339
1044.465	-2926
1044.525	-1954
1044.586	-2913
1044.646	-2956
1044.707	-2248
1044.767	-2021
1044.827	-2479
1044.887	-1609
1044.948	-2039
1045.008	-2430
1045.068	-2614
1045.128	-1848
1045.188	-2353
1045.249	-1925
1045.309	-1904
1045.369	-1746
1045.429	-2088
1045.489	-2655
1045.549	-2674
1045.609	-1780
1045.669	-2534
1045.729	-1786
1045.789	-1863
1045.848	-2319
1045.908	-2165
1045.968	-1303
1046.028	-1555
1046.088	-2115
1046.147	-1816
1046.207	-1586
1046.267	-1653
1046.326	-1444
1046.386	-1924
1046.446	-2138
1046.505	-1806
1046.565	-1464
1046.624	-2233
1046.684	-890
1046.743	-608
1046.803	-970
1046.862	-311
1046.922	0
