'Start Wavelength	183.907
'End Wavelength	1046.922
'Gate Delay	5.000
'Gate Width (ms)	1.050
'Laser Output Level	0.000
'X Position	0.000
'Y Position	0.000
'Z Position	0.000
'Grid Point Number	1.000
'Shot Number	100.000
183.907	-130.000
183.977	-459.000
184.047	-571
184.116	745
184.186	-426
184.256	-564
184.325	-258
184.395	-701
184.465	811
184.534	147
184.604	-631
184.674	327
184.743	144
184.813	-543
184.883	-17
184.952	-199
185.022	-467
185.092	357
185.161	-619
185.231	-494
185.301	70
185.370	444
185.440	-1058
185.509	-469
185.579	-368
185.649	-2
185.718	841
185.788	876
185.857	-1005
185.927	-530
185.996	727
186.066	-112
186.136	-614
186.205	-13
186.275	777
186.344	-37
186.414	-148
186.483	-950
186.553	758
186.622	469
186.692	102
186.761	296
186.831	169
186.900	-516
186.970	74
187.039	26
187.109	582
187.178	-959
187.248	-160
187.317	165
187.387	-117
187.456	136
187.526	243
187.595	138
187.664	-140
187.734	-45
187.803	305
187.873	114
187.942	227
188.012	376
188.081	623
188.150	-4
188.220	862
188.289	87
188.358	296
188.428	-521
188.497	-632
188.567	-4
188.636	-466
188.705	-352
188.775	364
188.844	-232
188.913	668
188.983	95
189.052	-170
189.121	-574
189.191	-470
189.260	43
189.329	-57
189.399	487
189.468	-150
189.537	130
189.606	47
189.676	-106
189.745	658
189.814	225
189.883	60
189.953	-280
190.022	-25
190.091	-323
190.161	-219
190.230	185
190.299	644
190.368	-155
190.437	-254
190.507	332
190.576	-640
190.645	-219
190.714	-73
190.783	-352
190.853	491
190.922	278
190.991	-427
191.060	-470
191.129	-1172
191.198	-449
191.268	144
191.337	-545
191.406	606
191.475	99
191.544	-62
191.613	-376
191.682	645
191.752	-155
191.821	-167
191.890	-713
191.959	441
192.028	-571
192.097	963
192.166	-344
192.235	-799
192.304	769
192.373	-138
192.442	-428
192.511	79
192.580	-224
192.650	-52
192.719	-337
192.788	488
192.857	18
192.926	131
192.995	-432
193.064	-43
193.133	367
193.202	-226
193.271	-92
193.340	-163
193.409	295
193.478	-210
193.547	153
193.615	-340
193.684	42
193.753	-954
193.822	91
193.891	-1128
193.960	-146
194.029	100
194.098	-525
194.167	-442
194.236	531
194.305	-346
194.374	-431
194.443	128
194.512	-543
194.580	85
194.649	115
194.718	-424
194.787	286
194.856	-12
194.925	-76
194.994	60
195.062	13
195.131	-53
195.200	-977
195.269	-41
195.338	-664
195.407	84
195.475	-701
195.544	135
195.613	-156
195.682	38
195.751	-704
195.819	-199
195.888	-558
195.957	743
196.026	-560
196.094	80
196.163	-182
196.232	-335
196.301	-796
196.369	-1267
196.438	-237
196.507	-388
196.576	-1008
196.644	-89
196.713	156
196.782	-642
196.850	374
196.919	-451
196.988	-183
197.056	-675
197.125	-15
197.194	-363
197.262	188
197.331	-535
197.400	-291
197.468	213
197.537	492
197.606	198
197.674	-738
197.743	-937
197.812	-581
197.880	-197
197.949	-1001
198.017	938
198.086	-156
198.155	-260
198.223	-203
198.292	232
198.360	-278
198.429	-697
198.497	278
198.566	-765
198.635	387
198.703	274
198.772	-148
198.840	-14
198.909	99
198.977	-19
199.046	-734
199.114	471
199.183	-278
199.251	-475
199.320	-194
199.388	-453
199.457	-959
199.525	913
199.594	-440
199.662	285
199.731	60
199.799	-240
199.867	427
199.936	-590
200.004	-55
200.073	15
200.141	-437
200.210	-718
200.278	-838
200.346	417
200.415	96
200.483	-419
200.552	283
200.620	-16
200.688	246
200.757	-307
200.825	370
200.893	-775
200.962	-191
201.030	-39
201.098	-204
201.167	-596
201.235	-146
201.303	-12
201.372	-123
201.440	190
201.508	70
201.577	326
201.645	226
201.713	43
201.781	-112
201.850	482
201.918	-581
201.986	-215
202.055	633
202.123	-494
202.191	180
202.259	192
202.327	237
202.396	243
202.464	351
202.532	-429
202.600	996
202.669	-449
202.737	42
202.805	-84
202.873	46
202.941	972
203.009	-269
203.078	307
203.146	209
203.214	297
203.282	-725
203.350	66
203.418	389
203.487	75
203.555	-656
203.623	-213
203.691	130
203.759	107
203.827	-614
203.895	-801
203.963	-196
204.031	-656
204.099	282
204.168	6
204.236	24
204.304	-256
204.372	-112
204.440	-14
204.508	-300
204.576	-457
204.644	-770
204.712	-660
204.780	-177
204.848	-811
204.916	-493
204.984	-848
205.052	-25
205.120	358
205.188	-568
205.256	-933
205.324	98
205.392	-397
205.460	-504
205.528	-350
205.596	-90
205.664	-310
205.732	-1217
205.799	322
205.867	-359
205.935	-232
206.003	357
206.071	-677
206.139	-567
206.207	-34
206.275	-777
206.343	-355
206.411	16
206.478	61
206.546	471
206.614	157
206.682	-673
206.750	202
206.818	75
206.885	291
206.953	-548
207.021	-220
207.089	-38
207.157	-272
207.225	136
207.292	-70
207.360	-684
207.428	-649
207.496	-536
207.563	-26
207.631	-72
207.699	147
207.767	373
207.834	-682
207.902	-817
207.970	-532
208.038	-1065
208.105	89
208.173	-331
208.241	-861
208.309	-149
208.376	-192
208.444	-415
208.512	-549
208.579	-578
208.647	-178
208.715	195
208.782	-682
208.850	-747
208.918	-137
208.985	-315
209.053	198
209.120	302
209.188	-731
209.256	-608
209.323	-762
209.391	-753
209.459	643
209.526	540
209.594	-324
209.661	468
209.729	-406
209.796	-467
209.864	-461
209.932	-1449
209.999	442
210.067	97
210.134	-173
210.202	-469
210.269	-20
210.337	276
210.404	-614
210.472	-900
210.539	-397
210.607	-630
210.674	-460
210.742	-91
210.809	172
210.877	-627
210.944	191
211.012	-1217
211.079	353
211.146	134
211.214	-374
211.281	-646
211.349	-169
211.416	-60
211.484	247
211.551	-691
211.618	-138
211.686	476
211.753	-885
211.821	10
211.888	247
211.955	-211
212.023	-15
212.090	-571
212.157	26
212.225	-329
212.292	-230
212.359	-512
212.427	202
212.494	116
212.561	150
212.629	-722
212.696	-159
212.763	-470
212.831	-483
212.898	449
212.965	-867
213.032	-1085
213.100	-188
213.167	-224
213.234	444
213.301	-79
213.369	-529
213.436	303
213.503	-435
213.570	-189
213.638	-407
213.705	-743
213.772	-59
213.839	-901
213.906	181
213.973	-189
214.041	-630
214.108	719
214.175	187
214.242	-589
214.309	-229
214.376	-371
214.444	-1029
214.511	129
214.578	-147
214.645	52
214.712	251
214.779	-42
214.846	-521
214.913	-438
214.980	-196
215.048	-129
215.115	-58
215.182	179
215.249	-572
215.316	-1063
215.383	96
215.450	-269
215.517	-1413
215.584	123
215.651	-280
215.718	270
215.785	140
215.852	-55
215.919	-816
215.986	751
216.053	90
216.120	-548
216.187	526
216.254	176
216.321	-607
216.388	-680
216.455	-594
216.522	-327
216.589	112
216.656	460
216.722	-399
216.789	-38
216.856	455
216.923	-416
216.990	-250
217.057	-662
217.124	89
217.191	-786
217.258	325
217.324	672
217.391	344
217.458	540
217.525	-679
217.592	-63
217.659	-1113
217.725	479
217.792	-73
217.859	-117
217.926	-700
217.993	-797
218.059	524
218.126	319
218.193	-172
218.260	99
218.327	-913
218.393	-784
218.460	-590
218.527	-490
218.594	-195
218.660	-941
218.727	-151
218.794	-772
218.860	420
218.927	-320
218.994	-137
219.061	-970
219.127	-91
219.194	-717
219.261	-36
219.327	-811
219.394	351
219.461	-1113
219.527	125
219.594	-182
219.661	-519
219.727	-612
219.794	66
219.860	-1027
219.927	-101
219.994	490
220.060	247
220.127	792
220.193	195
220.260	-272
220.326	-327
220.393	944
220.460	175
220.526	-371
220.593	-629
220.659	1009
220.726	18
220.792	-51
220.859	392
220.925	902
220.992	1042
221.058	1388
221.125	554
221.191	138
221.258	-372
221.324	175
221.391	-193
221.457	-749
221.524	-368
221.590	-658
221.657	-203
221.723	-620
221.789	-775
221.856	-250
221.922	-455
221.989	131
222.055	-667
222.121	-1321
222.188	1141
222.254	-95
222.321	-789
222.387	-609
222.453	-363
222.520	-1193
222.586	-530
222.652	-1251
222.719	-1118
222.785	-492
222.851	-247
222.918	-102
222.984	-5
223.050	-974
223.116	-1630
223.183	657
223.249	-791
223.315	-722
223.382	-429
223.448	-841
223.514	-577
223.580	-963
223.647	-906
223.713	-1047
223.779	-768
223.845	39
223.911	388
223.978	-1197
224.044	-625
224.110	-739
224.176	-755
224.242	-719
224.309	-1384
224.375	-509
224.441	-501
224.507	-496
224.573	-1758
224.639	-169
224.705	-815
224.772	-363
224.838	-1140
224.904	11
224.970	-61
225.036	-893
225.102	-1151
225.168	-137
225.234	-441
225.300	-586
225.366	-97
225.432	-354
225.499	-976
225.565	-480
225.631	-1094
225.697	-463
225.763	-401
225.829	111
225.895	-642
225.961	-481
226.027	-713
226.093	-429
226.159	521
226.225	398
226.291	1949
226.357	2627
226.423	698
226.489	524
226.554	-340
226.620	-119
226.686	-38
226.752	862
226.818	710
226.884	3616
226.950	2476
227.016	704
227.082	616
227.148	214
227.214	33
227.279	-608
227.345	425
227.411	125
227.477	68
227.543	1080
227.609	682
227.674	908
227.740	-916
227.806	-13
227.872	-696
227.938	-414
228.003	-317
228.069	-476
228.135	-898
228.201	-813
228.267	-17
228.332	-451
228.398	-1004
228.464	313
228.530	-610
228.595	-243
228.661	-1455
228.727	-1511
228.792	157
228.858	-1609
228.924	-1992
228.990	1184
229.055	-1441
229.121	-497
229.187	-634
229.252	-788
229.318	-702
229.384	-563
229.449	-596
229.515	-1603
229.581	-1488
229.646	1131
229.712	-333
229.777	-582
229.843	-1085
229.909	45
229.974	-1045
230.040	-338
230.105	-302
230.171	-1082
230.236	-908
230.302	-509
230.368	-983
230.433	-378
230.499	260
230.564	536
230.630	-1354
230.695	-882
230.761	907
230.826	-2726
230.892	230
230.957	-880
231.023	-557
231.088	-546
231.154	-164
231.219	-327
231.284	-638
231.350	-329
231.415	-1463
231.481	38
231.546	-121
231.612	-246
231.677	-692
231.742	-1086
231.808	1269
231.873	-1129
231.939	-2331
232.004	182
232.069	-114
232.135	-1381
232.200	-1115
232.265	549
232.331	-984
232.396	-1118
232.461	-1279
232.527	-1007
232.592	-1006
232.657	-1239
232.723	-172
232.788	-1502
232.853	-172
232.918	-181
232.984	-828
233.049	-794
233.114	-840
233.179	-482
233.245	21
233.310	-592
233.375	-1185
233.440	-290
233.506	-543
233.571	-1371
233.636	-579
233.701	-576
233.766	-649
233.832	-274
233.897	-942
233.962	-2382
234.027	246
234.092	-429
234.157	-531
234.222	-1399
234.288	-583
234.353	-866
234.418	664
234.483	-267
234.548	-329
234.613	-841
234.678	-245
234.743	-837
234.808	-31
234.873	-2148
234.938	423
235.004	-733
235.069	-679
235.134	-568
235.199	-656
235.264	-520
235.329	-1710
235.394	-294
235.459	196
235.524	-1660
235.589	15
235.654	-1262
235.719	-958
235.784	50
235.849	-221
235.913	-245
235.978	-463
236.043	-196
236.108	-880
236.173	-1389
236.238	678
236.303	-1664
236.368	-676
236.433	-285
236.498	-1061
236.563	338
236.627	337
236.692	3488
236.757	3306
236.822	985
236.887	-136
236.952	889
237.017	-1213
237.081	-3
237.146	2
237.211	2066
237.276	3121
237.341	6148
237.405	2517
237.470	630
237.535	255
237.600	-97
237.664	332
237.729	-803
237.794	-125
237.859	1322
237.923	355
237.988	-463
238.053	388
238.118	-628
238.182	-974
238.247	1285
238.312	-1264
238.376	-608
238.441	-2336
238.506	332
238.570	-1513
238.635	362
238.700	-552
238.764	-1267
238.829	-565
238.893	-978
238.958	-291
239.023	-685
239.087	-384
239.152	-423
239.216	-1322
239.281	323
239.346	-880
239.410	-215
239.475	-614
239.539	-146
239.604	-1799
239.668	814
239.733	248
239.797	1387
239.862	2667
239.926	1727
239.991	631
240.055	499
240.120	-430
240.184	-789
240.249	-781
240.313	-1017
240.378	-638
240.442	-237
240.507	-344
240.571	-349
240.635	-1527
240.700	-606
240.764	-137
240.829	-446
240.893	-1559
240.957	-773
241.022	-366
241.086	371
241.151	-1326
241.215	-1065
241.279	61
241.344	-682
241.408	170
241.472	-517
241.537	737
241.601	807
241.665	-1244
241.730	-2056
241.794	569
241.858	-1193
241.922	-1249
241.987	-716
242.051	-438
242.115	-1487
242.179	-460
242.244	-1568
242.308	275
242.372	-639
242.436	-1774
242.501	-521
242.565	-1539
242.629	-760
242.693	-50
242.757	-1227
242.822	-141
242.886	-147
242.950	257
243.014	-1108
243.078	-1087
243.142	-800
243.206	-882
243.271	-778
243.335	-277
243.399	-422
243.463	679
243.527	3639
243.591	-162
243.655	299
243.719	-922
243.783	184
243.847	-210
243.911	-909
243.975	-1054
244.040	-1047
244.104	515
244.168	-209
244.232	-897
244.296	-312
244.360	456
244.424	-950
244.488	-486
244.552	90
244.615	-1700
244.679	-278
244.743	153
244.807	-1783
244.871	1013
244.935	91
244.999	-1362
245.063	41
245.127	585
245.191	-455
245.255	-993
245.319	312
245.383	-1542
245.446	286
245.510	-422
245.574	386
245.638	-1010
245.702	-2298
245.766	-67
245.829	478
245.893	-1306
245.957	-1141
246.021	-46
246.085	-981
246.149	-873
246.212	472
246.276	-407
246.340	-843
246.404	271
246.467	307
246.531	-1896
246.595	114
246.659	-222
246.722	-1244
246.786	-455
246.850	-202
246.913	-198
246.977	-1647
247.041	-314
247.104	-777
247.168	-227
247.232	-371
247.295	424
247.359	-3
247.423	-612
247.486	-476
247.550	244
247.614	-381
247.677	-804
247.741	-377
247.804	-175
247.868	207
247.932	-381
247.995	1590
248.059	-641
248.122	-937
248.186	687
248.249	-185
248.313	1770
248.376	1643
248.440	754
248.503	-806
248.567	1390
248.630	-232
248.694	533
248.757	1383
248.821	2319
248.884	2611
248.948	77
249.011	1470
249.075	1986
249.138	2328
249.202	416
249.265	-1134
249.328	764
249.392	-1136
249.455	-176
249.519	701
249.582	-443
249.645	623
249.709	365
249.772	-1013
249.835	129
249.899	-121
249.962	187
250.025	-1409
250.089	-219
250.152	956
250.215	-629
250.279	-405
250.342	-48
250.405	-392
250.468	155
250.532	52
250.595	576
250.658	2289
250.721	5630
250.785	963
250.848	882
250.911	-438
250.974	-145
251.038	-438
251.101	972
251.164	-169
251.227	394
251.290	-285
251.354	412
251.417	4165
251.480	4238
251.543	2024
251.606	9656
251.669	7287
251.732	1232
251.795	1396
251.859	2042
251.922	5749
251.985	3592
252.048	1253
252.111	560
252.174	62
252.237	973
252.300	2327
252.363	1890
252.426	7389
252.489	1728
252.552	1037
252.615	-1124
252.678	290
252.741	2265
252.804	1216
252.867	7501
252.930	4227
252.993	1119
253.056	1506
253.119	90
253.182	-323
253.245	489
253.308	378
253.371	24
253.434	-200
253.497	29
253.559	807
253.622	568
253.685	262
253.748	240
253.811	5
253.874	537
253.937	-638
254.000	-205
254.062	-205
254.125	582
254.188	1307
254.251	1131
254.314	-393
254.376	-303
254.439	914
254.502	351
254.565	-41
254.628	1539
254.690	495
254.753	-75
254.816	-1178
254.878	-55
254.941	308
255.004	522
255.067	-458
255.129	-1127
255.192	270
255.255	-1615
255.317	237
255.380	-244
255.443	-1115
255.505	-628
255.568	-941
255.631	-858
255.693	-376
255.756	-1278
255.819	442
255.881	-1018
255.944	435
256.006	-943
256.069	-711
256.132	-912
256.194	-878
256.257	-276
256.319	-622
256.382	-556
256.444	440
256.507	-407
256.569	-935
256.632	-829
256.694	-719
256.757	2144
256.819	7785
256.882	1889
256.944	254
257.007	537
257.069	-691
257.132	-339
257.194	895
257.257	-456
257.319	-1466
257.381	-433
257.444	1930
257.506	7613
257.569	8474
257.631	1823
257.693	411
257.756	74
257.818	-865
257.880	147
257.943	126
258.005	-985
258.067	-669
258.130	-433
258.192	-1201
258.254	-600
258.317	-461
258.379	-154
258.441	241
258.503	371
258.566	229
258.628	539
258.690	-810
258.753	-168
258.815	497
258.877	-1287
258.939	-110
259.001	-145
259.064	-659
259.126	-1344
259.188	-791
259.250	-8
259.312	-717
259.375	-214
259.437	-841
259.499	409
259.561	-535
259.623	-471
259.685	-1031
259.747	-13
259.809	410
259.872	-244
259.934	928
259.996	2584
260.058	266
260.120	-691
260.182	433
260.244	-819
260.306	-1485
260.368	-374
260.430	-923
260.492	346
260.554	1071
260.616	-783
260.678	248
260.740	693
260.802	-664
260.864	330
260.926	-1264
260.988	504
261.050	-759
261.112	158
261.174	2170
261.236	855
261.298	-704
261.359	-78
261.421	1123
261.483	-1749
261.545	768
261.607	-1637
261.669	157
261.731	-507
261.793	-11
261.854	-1143
261.916	-22
261.978	-454
262.040	-177
262.102	-172
262.164	-530
262.225	-28
262.287	338
262.349	-228
262.411	388
262.472	478
262.534	-441
262.596	-16
262.658	-703
262.719	-550
262.781	-273
262.843	-1165
262.904	-331
262.966	-436
263.028	-865
263.090	665
263.151	3057
263.213	1356
263.275	-794
263.336	-625
263.398	15
263.459	-1414
263.521	-1157
263.583	-377
263.644	-391
263.706	-906
263.767	-1481
263.829	564
263.891	-572
263.952	-370
264.014	-634
264.075	-843
264.137	178
264.198	392
264.260	-1084
264.321	-965
264.383	-689
264.444	1630
264.506	74
264.567	-135
264.629	460
264.690	624
264.752	-330
264.813	-382
264.875	-321
264.936	166
264.998	-520
265.059	-107
265.120	-385
265.182	-597
265.243	3239
265.305	4033
265.366	959
265.427	305
265.489	35
265.550	-1944
265.611	-596
265.673	-817
265.734	-1034
265.795	-818
265.857	-1510
265.918	-822
265.979	469
266.040	5824
266.102	4856
266.163	1862
266.224	-170
266.286	-262
266.347	-1071
266.408	-576
266.469	-708
266.530	-1605
266.592	-953
266.653	-880
266.714	-699
266.775	-1144
266.836	-947
266.898	-1547
266.959	-592
267.020	-284
267.081	393
267.142	-956
267.203	-1246
267.264	-1716
267.326	-146
267.387	-534
267.448	-903
267.509	-673
267.570	-815
267.631	-1682
267.692	-1808
267.753	-1474
267.814	-1767
267.875	-552
267.936	514
267.997	-1030
268.058	-645
268.119	-227
268.180	-848
268.241	-502
268.302	-253
268.363	-1333
268.424	-433
268.485	-796
268.546	-1805
268.607	-483
268.668	-1105
268.729	-1646
268.790	-508
268.851	-881
268.912	-128
268.972	99
269.033	-990
269.094	-1303
269.155	-1102
269.216	-1066
269.277	-563
269.338	-1171
269.398	-1420
269.459	-939
269.520	-849
269.581	-751
269.642	-1097
269.702	-1453
269.763	-1018
269.824	-1183
269.885	-507
269.945	-880
270.006	-536
270.067	91
270.128	-490
270.188	-1030
270.249	-1177
270.310	-477
270.370	-1338
270.431	-1341
270.492	-1050
270.553	-916
270.613	-411
270.674	765
270.734	-995
270.795	-480
270.856	-711
270.916	-1513
270.977	-1351
271.038	-240
271.098	-110
271.159	-548
271.219	-905
271.280	-1352
271.340	-460
271.401	-1780
271.462	-843
271.522	-496
271.583	-275
271.643	-751
271.704	-1099
271.764	-360
271.825	-800
271.885	1722
271.946	2745
272.006	679
272.066	556
272.127	1469
272.187	1743
272.248	128
272.308	-1084
272.369	1537
272.429	894
272.489	-405
272.550	-590
272.610	550
272.671	-105
272.731	47
272.791	-838
272.852	-938
272.912	-1240
272.972	6
273.033	-1280
273.093	-1035
273.153	-564
273.214	-943
273.274	-634
273.334	741
273.394	2843
273.455	-372
273.515	-83
273.575	2120
273.635	-140
273.696	100
273.756	1215
273.816	-11
273.876	64
273.936	-480
273.997	881
274.057	-597
274.117	-643
274.177	-677
274.237	2068
274.297	1970
274.358	163
274.418	1637
274.478	247
274.538	-811
274.598	-1112
274.658	65
274.718	277
274.778	14
274.838	-443
274.898	-1523
274.958	169
275.018	1571
275.078	64
275.138	-781
275.198	-349
275.258	-1295
275.318	-597
275.378	-363
275.438	-316
275.498	-194
275.558	-58
275.618	1861
275.678	875
275.738	225
275.798	-524
275.858	-1424
275.918	-1216
275.978	-1010
276.038	-599
276.098	-680
276.157	-913
276.217	870
276.277	326
276.337	-806
276.397	-588
276.457	-704
276.517	-311
276.576	-777
276.636	-899
276.696	-708
276.756	266
276.815	-41
276.875	-288
276.935	-1131
276.995	-866
277.055	-203
277.114	-956
277.174	-1163
277.234	988
277.293	216
277.353	-216
277.413	-644
277.472	-768
277.532	-837
277.592	-435
277.651	139
277.711	757
277.771	-510
277.830	1872
277.890	1277
277.950	336
278.009	4635
278.069	508
278.128	1304
278.188	1853
278.248	11
278.307	1976
278.367	941
278.426	-768
278.486	159
278.545	-782
278.605	-980
278.664	-608
278.724	-66
278.783	-445
278.843	1755
278.902	70
278.962	-111
279.021	-789
279.081	-333
279.140	-1078
279.199	-778
279.259	-825
279.318	-181
279.378	174
279.437	62
279.496	2833
279.556	10723
279.615	9421
279.675	1540
279.734	-234
279.793	509
279.853	2692
279.912	470
279.971	496
280.031	-1234
280.090	282
280.149	1921
280.208	315
280.268	6744
280.327	7721
280.386	897
280.445	420
280.505	701
280.564	-477
280.623	-661
280.682	-405
280.742	371
280.801	-753
280.860	-861
280.919	-458
280.978	67
281.037	-688
281.097	-1192
281.156	-601
281.215	-726
281.274	-718
281.333	1624
281.392	25
281.451	-645
281.510	108
281.569	-672
281.628	-385
281.688	-1238
281.747	-553
281.806	-568
281.865	133
281.924	-769
281.983	429
282.042	-808
282.101	-1005
282.160	-1676
282.219	-1288
282.278	-546
282.337	180
282.396	-470
282.454	-705
282.513	-788
282.572	387
282.631	-341
282.690	-120
282.749	-1321
282.808	-461
282.867	-697
282.926	-1077
282.985	-1086
283.043	-942
283.102	-439
283.161	-818
283.220	-330
283.279	1020
283.338	-63
283.396	-311
283.455	-257
283.514	-929
283.573	-883
283.631	-569
283.690	-652
283.749	-2022
283.808	-332
283.866	-132
283.925	-554
283.984	-65
284.043	-852
284.101	-265
284.160	-959
284.219	-681
284.277	97
284.336	-346
284.395	1730
284.453	1279
284.512	-584
284.570	-110
284.629	-221
284.688	-834
284.746	479
284.805	-443
284.863	80
284.922	615
284.981	775
285.039	1782
285.098	2645
285.156	9163
285.215	18608
285.273	18686
285.332	11178
285.390	5250
285.449	2848
285.507	1874
285.566	1018
285.624	-138
285.683	561
285.741	157
285.799	-80
285.858	-571
285.916	-354
285.975	75
286.033	49
286.091	-81
286.150	-426
286.208	247
286.267	40
286.325	-909
286.383	-886
286.442	-433
286.500	-700
286.558	-870
286.616	-205
286.675	-69
286.733	-182
286.791	-461
286.850	-48
286.908	-209
286.966	139
287.024	-424
287.083	-1092
287.141	-1125
287.199	-281
287.257	-392
287.315	330
287.374	86
287.432	19
287.490	739
287.548	-153
287.606	-786
287.664	-445
287.723	-842
287.781	-29
287.839	-389
287.897	-306
287.955	-86
288.013	310
288.071	699
288.129	6205
288.187	24862
288.245	11092
288.303	2365
288.361	1531
288.419	687
288.477	-539
288.535	-515
288.593	-65
288.651	-1020
288.709	-1087
288.767	-576
288.825	-919
288.883	-384
288.941	-344
288.999	-1450
289.057	-439
289.115	151
289.173	-814
289.231	-1018
289.289	-1033
289.346	-1034
289.404	-409
289.462	-667
289.520	-377
289.578	-705
289.636	-1125
289.694	-980
289.751	-112
289.809	-991
289.867	-704
289.925	-516
289.983	-820
290.040	-428
290.098	-625
290.156	-998
290.214	-244
290.271	-658
290.329	-83
290.387	-1230
290.444	-660
290.502	-268
290.560	-832
290.617	-649
290.675	247
290.733	-777
290.790	-75
290.848	167
290.906	-1138
290.963	-878
291.021	-217
291.078	227
291.136	-934
291.194	-143
291.251	1779
291.309	449
291.366	141
291.424	-1305
291.481	-914
291.539	-460
291.596	83
291.654	-1147
291.711	-180
291.769	-898
291.826	58
291.884	-566
291.941	-1433
291.999	-386
292.056	-420
292.114	-545
292.171	-543
292.228	-746
292.286	-272
292.343	-656
292.401	-616
292.458	-255
292.515	-978
292.573	-670
292.630	-230
292.687	-597
292.745	-285
292.802	-624
292.859	466
292.917	1596
292.974	208
293.031	-960
293.089	-539
293.146	-345
293.203	-783
293.260	-1133
293.318	-650
293.375	39
293.432	-755
293.489	-975
293.546	-227
293.604	-384
293.661	62
293.718	3026
293.775	1210
293.832	-397
293.889	7
293.947	-32
294.004	-517
294.061	115
294.118	-281
294.175	1392
294.232	3802
294.289	1245
294.346	-39
294.403	-248
294.460	101
294.517	-1161
294.574	-645
294.631	-783
294.688	-258
294.745	780
294.802	3970
294.859	5776
294.916	2129
294.973	716
295.030	-528
295.087	-858
295.144	-321
295.201	165
295.258	-604
295.315	-237
295.372	1003
295.429	1878
295.486	737
295.542	865
295.599	2187
295.656	4897
295.713	2138
295.770	2625
295.827	1083
295.883	145
295.940	-473
295.997	356
296.054	-499
296.111	117
296.167	-447
296.224	-23
296.281	-160
296.338	-664
296.394	-983
296.451	-640
296.508	20
296.564	2203
296.621	1592
296.678	2167
296.734	5088
296.791	1561
296.848	487
296.904	365
296.961	1357
297.018	2545
297.074	2186
297.131	128
297.187	686
297.244	444
297.301	1728
297.357	6015
297.414	1239
297.470	339
297.527	-569
297.583	-326
297.640	248
297.696	-171
297.753	-168
297.809	-487
297.866	-1748
297.922	-818
297.979	-471
298.035	-240
298.092	-276
298.148	1092
298.204	1942
298.261	745
298.317	1031
298.374	3294
298.430	1961
298.486	609
298.543	-460
298.599	-146
298.656	-755
298.712	492
298.768	2034
298.824	1034
298.881	-399
298.937	-357
298.993	-156
299.050	324
299.106	-987
299.162	369
299.218	696
299.275	-309
299.331	520
299.387	-20
299.443	3436
299.500	7242
299.556	5053
299.612	1303
299.668	1584
299.724	4317
299.780	5882
299.837	1836
299.893	2344
299.949	5001
300.005	8380
300.061	5314
300.117	9399
300.173	4074
300.229	998
300.285	1176
300.341	1358
300.397	592
300.453	-360
300.510	827
300.566	881
300.622	1393
300.678	7541
300.734	11851
300.790	5505
300.845	4766
300.901	5338
300.957	7855
301.013	4379
301.069	797
301.125	755
301.181	514
301.237	164
301.293	-975
301.349	-404
301.405	109
301.461	-310
301.516	224
301.572	-496
301.628	649
301.684	514
301.740	642
301.796	1891
301.851	1816
301.907	1602
301.963	2007
302.019	2596
302.074	9600
302.130	11155
302.186	5187
302.242	1793
302.297	766
302.353	342
302.409	748
302.464	1533
302.520	583
302.576	2198
302.631	3886
302.687	2007
302.743	325
302.798	371
302.854	-482
302.910	-64
302.965	-283
303.021	1326
303.076	181
303.132	624
303.187	2459
303.243	542
303.299	441
303.354	38
303.410	240
303.465	-125
303.521	-1088
303.576	-1035
303.632	142
303.687	471
303.743	3122
303.798	2842
303.853	812
303.909	168
303.964	-58
304.020	365
304.075	102
304.130	473
304.186	853
304.241	2304
304.297	1792
304.352	1147
304.358	956
304.407	-598
304.449	77
304.463	308
304.518	30
304.539	-123
304.573	-385
304.629	5
304.630	15
304.684	522
304.720	1430
304.739	1875
304.794	2715
304.811	2460
304.850	1832
304.902	328
304.905	233
304.960	35
304.992	-281
305.015	-543
305.071	271
305.083	180
305.126	-109
305.173	73
305.181	108
305.236	158
305.264	207
305.292	212
305.347	26
305.354	-14
305.402	-184
305.445	-166
305.457	-186
305.512	2
305.535	77
305.567	246
305.622	77
305.626	104
305.678	732
305.716	2506
305.733	3159
305.788	4544
305.807	3796
305.843	2458
305.897	2493
305.898	2490
305.953	3285
305.988	2376
306.008	1904
306.063	1069
306.078	987
306.118	745
306.168	363
306.173	330
306.228	-634
306.259	-359
306.283	-126
306.338	18
306.349	-32
306.393	-136
306.440	267
306.448	315
306.503	-449
306.530	-237
306.558	208
306.613	1134
306.620	1207
306.668	1580
306.711	2871
306.723	3075
306.778	2605
306.801	2251
306.833	2035
306.888	722
306.892	702
306.943	420
306.982	351
306.997	344
307.052	214
307.072	135
307.107	120
307.162	1094
307.163	1087
307.217	507
307.253	970
307.272	1088
307.327	512
307.343	592
307.381	991
307.434	877
307.436	884
307.491	971
307.524	1855
307.546	2244
307.600	3048
307.614	2650
307.655	1525
307.704	741
307.710	696
307.765	1012
307.795	1126
307.819	1059
307.874	2398
307.885	2419
307.929	2699
307.975	2282
307.984	2270
308.038	3382
308.065	4049
308.093	6803
308.148	15320
308.156	17403
308.202	28119
308.246	34119
308.257	33429
308.312	19187
308.336	13209
308.366	9471
308.421	5322
308.426	5053
308.475	3191
308.517	2379
308.530	2206
308.585	1812
308.607	1699
308.639	1622
308.694	1449
308.697	1451
308.748	1808
308.787	2405
308.803	2536
308.857	2519
308.877	2534
308.912	2544
308.967	2219
308.967	2227
309.021	3423
309.058	3930
309.076	4852
309.130	8851
309.148	10509
309.185	19790
309.238	36803
309.239	36913
309.293	40986
309.328	37627
309.348	32767
309.402	15921
309.418	11774
309.457	8230
309.508	5755
309.511	5628
309.566	4106
309.598	3698
309.620	3553
309.674	2994
309.688	3024
309.729	3071
309.778	2572
309.783	2544
309.837	2480
309.868	2322
309.892	2471
309.946	2988
309.959	3359
310.001	4648
310.049	5583
310.055	5437
310.109	3514
310.139	2272
310.163	1906
310.218	1715
310.229	1636
310.272	1461
310.319	1486
310.326	1392
310.381	673
310.409	313
310.435	494
310.489	775
310.499	838
310.543	681
310.589	700
310.598	775
310.652	1114
310.679	1104
310.706	916
310.760	845
310.769	812
310.814	839
310.859	945
310.868	922
310.923	619
310.948	529
310.977	665
311.031	885
311.038	923
311.085	678
311.128	300
311.139	358
311.193	695
311.218	849
311.247	1019
311.301	1336
311.308	1370
311.356	1066
311.398	860
311.410	806
311.464	341
311.488	207
311.518	517
311.572	998
311.578	1055
311.626	989
311.668	869
311.680	832
311.734	708
311.758	641
311.788	971
311.842	1567
311.847	1625
311.896	1766
311.937	1895
311.950	1794
312.004	1330
312.027	1121
312.058	1117
312.112	1121
312.117	1121
312.165	719
312.207	378
312.297	1057
312.386	528
312.476	510
312.566	1562
312.656	878
312.745	798
312.835	1846
312.925	1388
313.015	715
313.104	916
313.194	1209
313.284	902
313.374	1570
313.463	970
313.553	1016
313.643	1205
313.732	1231
313.822	641
313.912	1362
314.001	1344
314.091	1432
314.180	1843
314.270	1761
314.360	1589
314.449	2068
314.539	1213
314.628	1252
314.718	1216
314.808	1262
314.897	1658
314.987	1789
315.076	1582
315.166	1769
315.255	1615
315.345	1554
315.434	1077
315.524	1228
315.613	1361
315.703	2485
315.792	4071
315.881	11257
315.971	3767
316.060	2739
316.150	1831
316.239	2011
316.328	873
316.418	1069
316.507	1252
316.597	2673
316.686	1456
316.775	2259
316.865	2180
316.954	1365
317.043	1812
317.133	1445
317.222	1074
317.311	1514
317.400	396
317.490	2277
317.579	1743
317.668	1576
317.757	2219
317.847	6690
317.936	17156
318.025	6710
318.114	3894
318.203	3096
318.293	3010
318.382	3154
318.471	2805
318.560	4242
318.649	8001
318.738	2231
318.828	1375
318.917	1799
319.006	1427
319.095	2753
319.184	8993
319.273	3868
319.362	1495
319.451	515
319.540	717
319.629	1112
319.718	2438
319.807	1537
319.896	2658
319.985	11455
320.074	3550
320.163	1164
320.252	1824
320.341	2560
320.430	1749
320.519	2808
320.608	1197
320.697	2176
320.786	2245
320.875	2096
320.964	2388
321.053	3050
321.142	2424
321.230	3567
321.319	3376
321.408	5612
321.497	3437
321.586	3389
321.675	3453
321.764	3312
321.852	3570
321.941	3089
322.030	2311
322.119	3424
322.207	5687
322.296	4506
322.385	3721
322.474	5108
322.562	5851
322.651	4391
322.740	1965
322.829	3433
322.917	2990
323.006	2849
323.095	1876
323.183	2189
323.272	1484
323.361	3410
323.449	6182
323.538	2401
323.626	4905
323.715	3413
323.804	1941
323.892	4956
323.981	2331
324.069	1808
324.158	2366
324.246	2525
324.335	1765
324.424	2051
324.512	1657
324.601	1482
324.689	2005
324.778	3222
324.866	1213
324.954	1492
325.043	505
325.131	549
325.220	2855
325.308	1818
325.397	1607
325.485	1389
325.574	243
325.662	909
325.750	780
325.839	1635
325.927	598
326.015	1329
326.104	1272
326.192	1014
326.280	699
326.369	911
326.457	802
326.545	1339
326.634	1222
326.722	1811
326.810	347
326.898	1225
326.987	737
327.075	1404
327.163	1067
327.251	1071
327.340	1712
327.428	2726
327.516	1259
327.604	1550
327.692	1359
327.781	904
327.869	1173
327.957	493
328.045	731
328.133	1178
328.221	464
328.309	1019
328.397	502
328.485	844
328.574	1775
328.662	3235
328.750	2038
328.838	1409
328.926	1402
329.014	1271
329.102	546
329.190	1960
329.278	1110
329.366	1141
329.454	608
329.542	964
329.630	-173
329.718	813
329.806	941
329.893	796
329.981	-279
330.069	905
330.157	493
330.245	2228
330.333	866
330.421	794
330.509	1322
330.597	2487
330.684	1670
330.772	936
330.860	903
330.948	2043
331.036	861
331.123	742
331.211	687
331.299	603
331.387	1290
331.475	2040
331.562	790
331.650	755
331.738	841
331.825	1185
331.913	574
332.001	654
332.089	331
332.176	1919
332.264	1827
332.352	2075
332.439	1160
332.527	1185
332.614	480
332.702	1178
332.790	758
332.877	1277
332.965	1977
333.052	1595
333.140	270
333.228	1332
333.315	1390
333.403	1299
333.490	1415
333.578	1371
333.665	1387
333.753	1203
333.840	1133
333.928	1595
334.015	1742
334.103	4217
334.190	11227
334.278	4606
334.365	5037
334.452	4632
334.540	2745
334.627	2846
334.715	3577
334.802	6039
334.889	12277
334.977	16581
335.064	7963
335.151	3835
335.239	3321
335.326	2957
335.413	6895
335.501	8905
335.588	2126
335.675	1858
335.762	2460
335.850	5200
335.937	4925
336.024	10210
336.111	21180
336.199	16598
336.286	6604
336.373	3713
336.460	2505
336.547	2371
336.635	2229
336.722	1612
336.809	741
336.896	650
336.983	3538
337.070	8862
337.157	12768
337.245	6250
337.332	4024
337.419	1462
337.506	1083
337.593	2097
337.680	2387
337.767	8554
337.854	2871
337.941	2340
338.028	1658
338.115	457
338.202	2168
338.289	2749
338.376	4077
338.463	2491
338.550	4978
338.637	5557
338.724	2076
338.811	1469
338.898	866
338.984	595
339.071	972
339.158	1358
339.245	1648
339.332	1690
339.419	845
339.506	1747
339.593	87
339.679	1731
339.766	214
339.853	739
339.940	618
340.027	770
340.113	690
340.200	1285
340.287	726
340.374	755
340.460	1087
340.547	372
340.634	1277
340.720	3383
340.807	1267
340.894	1177
340.980	551
341.067	1102
341.154	1237
341.240	1016
341.327	1411
341.414	1743
341.500	839
341.587	1322
341.674	839
341.760	2150
341.847	1141
341.933	616
342.020	283
342.106	1147
342.193	600
342.279	1445
342.366	1042
342.452	1202
342.539	702
342.625	1362
342.712	1909
342.798	1756
342.885	1006
342.971	621
343.058	724
343.144	499
343.230	957
343.317	1044
343.403	411
343.490	229
343.576	360
343.662	759
343.749	23
343.835	1137
343.921	1401
344.008	7514
344.094	14816
344.180	3662
344.267	1357
344.353	3062
344.439	3385
344.525	1566
344.612	2155
344.698	1140
344.784	528
344.870	432
344.957	1034
345.043	1495
345.129	466
345.215	1138
345.301	702
345.387	690
345.474	930
345.560	674
345.646	942
345.732	1129
345.818	484
345.904	653
345.990	239
346.076	967
346.162	19
346.249	2214
346.335	823
346.421	1035
346.507	1769
346.593	6103
346.679	796
346.765	1627
346.851	1104
346.937	1259
347.023	2174
347.108	898
347.194	343
347.280	730
347.366	508
347.452	4678
347.538	8292
347.624	6923
347.710	4274
347.796	953
347.882	1352
347.967	1695
348.053	800
348.139	395
348.225	860
348.311	164
348.397	1029
348.482	1112
348.568	1091
348.654	1704
348.740	4703
348.825	3513
348.911	3311
348.997	3724
349.083	6598
349.168	992
349.254	1524
349.340	395
349.425	1318
349.511	1183
349.597	298
349.682	763
349.768	3903
349.854	2449
349.939	1481
350.025	749
350.110	173
350.196	674
350.282	700
350.367	1660
350.453	887
350.538	1151
350.624	653
350.709	1208
350.795	723
350.880	121
350.966	737
351.051	1515
351.137	520
351.222	1415
351.308	1438
351.393	3427
351.479	691
351.564	335
351.649	540
351.735	623
351.820	942
351.906	1264
351.991	86
352.076	2303
352.162	3279
352.247	453
352.332	573
352.418	1231
352.503	605
352.588	4999
352.673	1830
352.759	982
352.844	-19
352.929	594
353.014	-125
353.100	1184
353.185	1683
353.270	1275
353.355	1638
353.441	1123
353.526	-271
353.611	1268
353.696	719
353.781	1566
353.866	-337
353.952	1465
354.037	309
354.122	2059
354.207	1692
354.292	1246
354.377	1060
354.462	520
354.547	-73
354.632	1857
354.717	1080
354.802	78
354.887	733
354.972	859
355.057	683
355.142	384
355.227	802
355.312	1294
355.397	758
355.482	2218
355.567	682
355.652	1461
355.737	1779
355.822	4514
355.907	2957
355.991	1616
356.076	-35
356.161	1785
356.246	799
356.331	368
356.416	335
356.501	9697
356.585	6896
356.670	927
356.755	1434
356.840	1467
356.924	4905
357.009	17263
357.094	6153
357.179	1155
357.263	522
357.348	1920
357.433	1054
357.517	965
357.602	119
357.687	556
357.771	1266
357.856	2289
357.941	1085
358.025	4442
358.110	17721
358.195	8267
358.279	828
358.364	1466
358.448	2676
358.533	8030
358.617	5201
358.702	5557
358.787	1810
358.871	1299
358.956	696
359.040	380
359.125	751
359.209	1773
359.294	1775
359.378	3003
359.462	2287
359.547	1394
359.631	1345
359.716	398
359.800	851
359.885	1798
359.969	-8
360.053	1684
360.138	582
360.222	1037
360.306	831
360.391	1314
360.475	987
360.559	2633
360.644	3170
360.728	1146
360.812	4997
360.896	11622
360.981	4044
361.065	2043
361.149	2109
361.233	786
361.318	866
361.402	1645
361.486	1970
361.570	161
361.654	1387
361.739	1755
361.823	7168
361.907	13013
361.991	2072
362.075	2375
362.159	2315
362.243	4730
362.327	10264
362.411	18438
362.495	6102
362.580	2955
362.664	2716
362.748	2916
362.832	4202
362.916	8422
363.000	29775
363.084	48006
363.168	25827
363.252	6414
363.336	3924
363.420	3389
363.503	9032
363.587	9841
363.671	2567
363.755	1772
363.839	2171
363.923	1853
364.007	2986
364.091	4562
364.175	6361
364.258	24427
364.342	34928
364.426	66769
364.510	34400
364.594	11296
364.677	6183
364.761	11140
364.845	8873
364.929	2600
365.013	1823
365.096	2335
365.180	1108
365.264	3988
365.347	14958
365.431	6069
365.515	266
365.598	538
365.682	2082
365.766	1142
365.849	2394
365.933	715
366.017	1946
366.100	413
366.184	92
366.267	1988
366.351	859
366.435	658
366.518	394
366.602	970
366.685	669
366.769	1125
366.852	1643
366.936	2488
367.019	982
367.103	533
367.186	3267
367.270	1097
367.353	-416
367.436	1342
367.520	355
367.603	2038
367.687	-430
367.770	1931
367.853	2366
367.937	4913
368.020	4877
368.104	852
368.187	1694
368.270	1524
368.353	1526
368.437	1167
368.520	2499
368.603	2205
368.687	2593
368.770	6123
368.853	2057
368.936	2902
369.020	2339
369.103	817
369.186	689
369.269	265
369.352	1778
369.436	1434
369.519	934
369.602	-546
369.685	1606
369.768	-389
369.851	766
369.934	1026
370.018	237
370.101	499
370.184	3122
370.267	1939
370.350	1467
370.433	1719
370.516	5280
370.599	10052
370.682	1638
370.765	3753
370.848	4650
370.931	6862
371.014	3997
371.097	186
371.180	629
371.263	1787
371.346	-583
371.429	1036
371.511	62
371.594	699
371.677	1932
371.760	2776
371.843	1192
371.926	6979
372.009	13902
372.091	6750
372.174	2508
372.257	7255
372.340	2053
372.423	2547
372.505	4435
372.588	637
372.671	2636
372.754	6368
372.836	3148
372.919	3714
373.002	8289
373.085	1328
373.167	2081
373.250	3507
373.332	7031
373.415	11390
373.498	19990
373.580	8636
373.663	14897
373.746	16197
373.828	3418
373.911	2730
373.993	1815
374.076	8197
374.159	7171
374.241	2527
374.324	6284
374.406	5286
374.489	5849
374.571	17183
374.654	5355
374.736	4314
374.819	10089
374.901	16598
374.983	15481
375.066	3216
375.148	1471
375.231	6649
375.313	12217
375.395	3763
375.478	1513
375.560	1921
375.643	1618
375.725	4023
375.807	13022
375.890	11307
375.972	2413
376.054	2642
376.136	2751
376.219	1361
376.301	4102
376.383	10281
376.465	3969
376.548	1461
376.630	2776
376.712	9171
376.794	4527
376.877	1385
376.959	-655
377.041	1326
377.123	977
377.205	1804
377.287	-252
377.369	1042
377.452	745
377.534	584
377.616	567
377.698	1057
377.780	-24
377.862	494
377.944	1156
378.026	88
378.108	682
378.190	412
378.272	700
378.354	321
378.436	1
378.518	188
378.600	2308
378.682	1601
378.764	2852
378.846	4425
378.928	336
379.010	1265
379.091	1260
379.173	1165
379.255	-53
379.337	196
379.419	1561
379.501	6428
379.583	1510
379.664	855
379.746	487
379.828	5220
379.910	4516
379.991	5096
380.073	170
380.155	755
380.237	159
380.318	666
380.400	1181
380.482	1624
380.564	1026
380.645	579
380.727	1289
380.809	2233
380.890	183
380.972	-449
381.053	-6
381.135	1574
381.217	688
381.298	4127
381.380	1904
381.461	1896
381.543	8775
381.624	10286
381.706	1643
381.787	1313
381.869	2252
381.951	4093
382.032	14825
382.113	11954
382.195	698
382.276	2475
382.358	1664
382.439	7772
382.521	10091
382.602	15543
382.684	6120
382.765	9746
382.846	7793
382.928	9659
383.009	4671
383.090	3727
383.172	13442
383.253	20852
383.334	9124
383.416	12370
383.497	6481
383.578	1702
383.659	3574
383.741	12970
383.822	34304
383.903	16544
383.984	5893
384.066	14854
384.147	7956
384.228	2654
384.309	2074
384.390	1513
384.471	1004
384.553	1523
384.634	684
384.715	2119
384.796	745
384.877	394
384.958	4073
385.039	3273
385.120	991
385.201	1610
385.282	759
385.363	1826
385.444	564
385.525	2527
385.606	7058
385.687	5740
385.768	1645
385.849	1096
385.930	8358
386.011	13843
386.092	2862
386.173	2151
386.254	1144
386.335	2421
386.416	1351
386.496	3131
386.577	4888
386.658	2516
386.739	1324
386.820	2810
386.901	661
386.981	1851
387.062	1450
387.143	1761
387.224	5482
387.304	5942
387.385	4042
387.466	2192
387.547	4036
387.627	3066
387.708	3986
387.789	9388
387.869	9644
387.950	4949
388.031	1171
388.111	135
388.192	3616
388.273	3983
388.353	1849
388.434	1183
388.514	2275
388.595	7320
388.676	9553
388.756	5277
388.837	4252
388.917	2322
388.998	-337
389.078	1258
389.159	673
389.239	-260
389.320	2492
389.400	-32
389.480	2182
389.561	4756
389.641	2996
389.722	1627
389.802	819
389.883	2947
389.963	7275
390.043	3770
390.124	748
390.204	1811
390.284	4202
390.365	2389
390.445	3704
390.525	7152
390.605	6236
390.686	2115
390.766	2032
390.846	2262
390.927	-195
391.007	373
391.087	1980
391.167	643
391.247	146
391.328	1768
391.408	2518
391.488	1915
391.568	-217
391.648	719
391.728	2434
391.808	2463
391.888	1433
391.969	3776
392.049	4472
392.129	3951
392.209	3203
392.289	7570
392.369	4765
392.449	4739
392.529	3246
392.609	4620
392.689	4614
392.769	8607
392.849	8188
392.929	10324
393.009	15217
393.089	16388
393.169	26625
393.248	68721
393.328	172639
393.408	178619
393.488	74421
393.568	27622
393.648	13708
393.728	8676
393.807	5301
393.887	5786
393.967	4787
394.047	4052
394.127	2558
394.206	5116
394.286	13760
394.366	58495
394.446	63885
394.525	15411
394.605	4680
394.685	4544
394.764	6198
394.844	11188
394.924	9477
395.003	3480
395.083	1695
395.163	3218
395.242	1568
395.322	2055
395.402	253
395.481	3725
395.561	3923
395.640	14258
395.720	18803
395.799	15597
395.879	9886
395.958	6891
396.038	20752
396.117	76709
396.197	83555
396.276	25779
396.356	9841
396.435	7789
396.515	7805
396.594	9912
396.673	21865
396.753	66338
396.832	154831
396.912	117171
396.991	34766
397.070	14478
397.150	6473
397.229	6781
397.308	12628
397.388	22875
397.467	10320
397.546	3838
397.625	698
397.705	3444
397.784	1745
397.863	1761
397.942	1832
398.022	1487
398.101	2816
398.180	8862
398.259	4408
398.338	2297
398.417	1084
398.497	1085
398.576	1597
398.655	-34
398.734	1666
398.813	1843
398.892	2698
398.971	9667
399.050	4062
399.129	560
399.208	1807
399.287	1078
399.366	103
399.445	1010
399.524	1043
399.603	-659
399.682	872
399.761	3226
399.840	9985
399.919	8558
399.998	807
400.077	-225
400.156	-792
400.235	2495
400.313	150
400.392	96
400.471	2689
400.550	3494
400.629	-208
400.708	583
400.786	-29
400.865	2004
400.944	734
401.023	2702
401.102	-321
401.180	1075
401.259	257
401.338	46
401.416	378
401.495	147
401.574	912
401.652	518
401.731	1051
401.810	228
401.888	154
401.967	-80
402.046	127
402.124	328
402.203	-702
402.281	992
402.360	406
402.438	2466
402.517	-81
402.596	1058
402.674	373
402.753	387
402.831	593
402.910	1107
402.988	407
403.066	4569
403.145	2803
403.223	2964
403.302	3462
403.380	3422
403.459	3492
403.537	662
403.615	852
403.694	-349
403.772	823
403.850	296
403.929	88
404.007	-79
404.085	1772
404.164	842
404.242	511
404.320	2484
404.398	8369
404.477	7054
404.555	12607
404.633	10628
404.711	5762
404.789	4462
404.868	706
404.946	111
405.024	-219
405.102	467
405.180	-526
405.258	-882
405.336	636
405.415	-677
405.493	421
405.571	402
405.649	-23
405.727	-1086
405.805	658
405.883	610
405.961	962
406.039	230
406.117	15
406.195	547
406.273	1153
406.351	9193
406.429	5972
406.507	-137
406.585	-738
406.663	689
406.740	-231
406.818	-225
406.896	-1173
406.974	1053
407.052	-207
407.130	5523
407.208	6613
407.285	2048
407.363	-1372
407.441	-559
407.519	-638
407.596	661
407.674	3108
407.752	15684
407.830	13535
407.907	2673
407.985	-663
408.063	370
408.141	-363
408.218	672
408.296	-473
408.373	539
408.451	890
408.529	659
408.606	-694
408.684	262
408.762	528
408.839	420
408.917	48
408.994	673
409.072	-145
409.149	524
409.227	1982
409.304	2797
409.382	3263
409.459	4242
409.537	6758
409.614	5639
409.692	2935
409.769	3649
409.846	5706
409.924	8799
410.001	3721
410.079	3148
410.156	3728
410.233	2646
410.311	723
410.388	594
410.465	1427
410.543	782
410.620	1554
410.697	1261
410.775	-365
410.852	-508
410.929	905
411.006	1810
411.083	-325
411.161	606
411.238	713
411.315	1518
411.392	155
411.469	939
411.547	701
411.624	-714
411.701	-286
411.778	718
411.855	375
411.932	-89
412.009	83
412.086	978
412.163	833
412.240	-25
412.317	236
412.394	170
412.471	771
412.548	62
412.625	-224
412.702	251
412.779	533
412.856	361
412.933	-1071
413.010	539
413.087	-1
413.164	1440
413.241	2233
413.318	-191
413.395	823
413.471	1053
413.548	-213
413.625	67
413.702	-891
413.779	345
413.855	-146
413.932	-468
414.009	-900
414.086	-431
414.162	184
414.239	36
414.316	1574
414.393	4116
414.469	-101
414.546	-113
414.623	136
414.699	226
414.776	-794
414.853	-937
414.929	-164
415.006	-524
415.082	175
415.159	-40
415.236	-224
415.312	-804
415.389	208
415.465	-802
415.542	-439
415.618	-1137
415.695	29
415.771	-421
415.848	-52
415.924	-480
416.000	-583
416.077	370
416.153	-1171
416.230	-807
416.306	-106
416.383	-87
416.459	-125
416.535	-137
416.612	-402
416.688	230
416.764	-182
416.841	-608
416.917	-192
416.993	-523
417.069	-546
417.146	-766
417.222	485
417.298	-859
417.374	-729
417.451	-168
417.527	-165
417.603	-593
417.679	136
417.755	438
417.831	-753
417.908	-90
417.984	-454
418.060	-630
418.136	-232
418.212	-811
418.288	-727
418.364	743
418.440	-823
418.516	764
418.592	32
418.668	479
418.744	192
418.820	-118
418.896	-450
418.972	-107
419.048	-603
419.124	1747
419.200	-1024
419.276	202
419.352	-572
419.428	-253
419.504	-1202
419.579	-196
419.655	-230
419.731	641
419.807	-100
419.883	487
419.959	949
420.034	1219
420.110	576
420.186	2169
420.262	2279
420.337	78
420.413	-126
420.489	496
420.565	1583
420.640	133
420.716	837
420.792	-219
420.867	1377
420.943	-135
421.019	1219
421.094	1093
421.170	1844
421.245	696
421.321	1983
421.397	1379
421.472	5542
421.548	11141
421.623	8118
421.699	2893
421.774	3905
421.850	2902
421.925	5294
422.001	6464
422.076	7473
422.152	9299
422.227	12815
422.302	18597
422.378	26007
422.453	43112
422.529	73910
422.604	104794
422.679	100350
422.755	103574
422.830	80283
422.905	48171
422.981	30500
423.056	20197
423.131	15984
423.207	11034
423.282	8885
423.357	8171
423.432	4972
423.508	5730
423.583	4199
423.658	3681
423.733	3477
423.808	3393
423.883	2787
423.959	3234
424.034	2650
424.109	3827
424.184	1737
424.259	1785
424.334	1904
424.409	1054
424.484	1367
424.559	1645
424.634	434
424.709	988
424.784	897
424.859	720
424.934	1136
425.009	1879
425.084	2254
425.159	1553
425.234	836
425.309	105
425.384	589
425.459	1070
425.534	1058
425.609	-139
425.683	745
425.758	1118
425.833	1211
425.908	781
425.983	635
426.058	3423
426.132	704
426.207	87
426.282	1214
426.357	147
426.431	68
426.506	258
426.581	132
426.655	764
426.730	24
426.805	-363
426.879	1161
426.954	-307
427.029	252
427.103	2658
427.178	7161
427.253	2878
427.327	341
427.402	-354
427.476	814
427.551	-98
427.625	-479
427.700	208
427.774	-719
427.849	460
427.923	-253
427.998	-165
428.072	103
428.147	2428
428.221	10753
428.296	37566
428.370	21518
428.444	2071
428.519	365
428.593	1423
428.667	1613
428.742	1971
428.816	4506
428.890	22012
428.965	36923
429.039	9265
429.113	2032
429.188	921
429.262	-293
429.336	302
429.410	885
429.485	1093
429.559	1653
429.633	1164
429.707	729
429.781	3575
429.855	21628
429.930	33145
430.004	10294
430.078	10132
430.152	16801
430.226	48227
430.300	49522
430.374	9614
430.448	2149
430.522	3351
430.596	8708
430.670	9685
430.744	28656
430.818	35016
430.892	5928
430.966	600
431.040	182
431.114	-600
431.188	-435
431.262	11
431.336	-526
431.410	328
431.484	1096
431.557	1396
431.631	-839
431.705	860
431.779	8136
431.853	35449
431.927	24206
432.000	2813
432.074	52
432.148	9
432.222	-148
432.295	-486
432.369	-241
432.443	-266
432.516	2491
432.590	7906
432.664	3318
432.737	68
432.811	-825
432.885	-1279
432.958	-474
433.032	-1697
433.106	-973
433.179	-662
433.253	-399
433.326	-106
433.400	-1630
433.473	-124
433.547	-980
433.620	355
433.694	-451
433.767	-133
433.841	-1175
433.914	-478
433.988	-280
434.061	-442
434.134	-1121
434.208	-741
434.281	-528
434.355	-631
434.428	29
434.501	95
434.575	-1334
434.648	-892
434.721	-972
434.795	-486
434.868	-462
434.941	-185
435.014	-334
435.088	-511
435.161	-480
435.234	119
435.307	-547
435.381	569
435.454	1240
435.527	2561
435.600	2723
435.673	3077
435.746	1697
435.819	1149
435.892	1056
435.966	-158
436.039	-572
436.112	449
436.185	195
436.258	-239
436.331	-1511
436.404	-120
436.477	-602
436.550	-593
436.623	-540
436.696	-111
436.769	-481
436.842	-881
436.915	-512
436.987	-587
437.060	-449
437.133	-484
437.206	-848
437.279	663
437.352	-916
437.425	-816
437.498	-833
437.570	369
437.643	-3
437.716	-239
437.789	-1511
437.861	-399
437.934	-212
438.007	-191
438.080	-391
438.152	338
438.225	306
438.298	4265
438.370	12302
438.443	4945
438.516	51
438.588	-404
438.661	-572
438.734	-668
438.806	-1141
438.879	-632
438.951	-800
439.024	-196
439.096	-1172
439.169	-569
439.241	-1413
439.314	-602
439.386	-700
439.459	418
439.531	-699
439.604	-594
439.676	-402
439.749	-1080
439.821	-271
439.893	58
439.966	-1088
440.038	-265
440.110	-284
440.183	-712
440.255	-899
440.327	-287
440.400	1337
440.472	7144
440.544	4320
440.617	87
440.689	132
440.761	201
440.833	625
440.905	68
440.978	-485
441.050	-89
441.122	-713
441.194	-860
441.266	-506
441.338	-799
441.411	-815
441.483	1882
441.555	2746
441.627	230
441.699	48
441.771	-142
441.843	-566
441.915	-721
441.987	-729
442.059	-531
442.131	381
442.203	1054
442.275	606
442.347	2061
442.419	5390
442.491	27610
442.563	63848
442.635	30332
442.706	7235
442.778	3131
442.850	805
442.922	600
442.994	1621
443.066	962
443.137	2019
443.209	2309
443.281	3222
443.353	9308
443.425	31492
443.496	94197
443.568	99027
443.640	45249
443.711	11262
443.783	3927
443.855	2241
443.926	1232
443.998	740
444.070	942
444.141	-13
444.213	892
444.285	759
444.356	947
444.428	263
444.499	477
444.571	-192
444.642	853
444.714	121
444.785	1420
444.857	296
444.928	2253
445.000	2125
445.071	2597
445.143	2425
445.214	4417
445.285	7373
445.357	20172
445.428	61942
445.500	115536
445.571	92603
445.642	63919
445.714	24079
445.785	9240
445.856	3067
445.928	2112
445.999	889
446.070	726
446.141	411
446.213	1448
446.284	1058
446.355	340
446.426	-319
446.497	112
446.569	-437
446.640	7
446.711	-680
446.782	48
446.853	246
446.924	375
446.995	-683
447.066	-551
447.138	281
447.209	263
447.280	-1033
447.351	-163
447.422	-1188
447.493	985
447.564	-171
447.635	-183
447.706	-663
447.777	-195
447.847	-716
447.918	-355
447.989	-393
448.060	-200
448.131	217
448.202	242
448.273	-296
448.344	-291
448.414	-863
448.485	-263
448.556	181
448.627	-811
448.698	-68
448.768	172
448.839	-1536
448.910	-154
448.981	-37
449.051	-1080
449.122	-1522
449.193	-995
449.263	-744
449.334	-70
449.405	-473
449.475	26
449.546	178
449.616	-36
449.687	468
449.758	299
449.828	-1198
449.899	-198
449.969	-869
450.040	-629
450.110	-622
450.181	-598
450.251	-219
450.322	135
450.392	-511
450.463	216
450.533	-1359
450.604	-612
450.674	-640
450.744	-510
450.815	114
450.885	-464
450.955	472
451.026	-436
451.096	-186
451.166	189
451.237	52
451.307	2027
451.377	1016
451.447	-536
451.518	-658
451.588	235
451.658	-178
451.728	-183
451.799	1486
451.869	3035
451.939	-133
452.009	545
452.079	-74
452.149	37
452.219	110
452.289	1703
452.360	1810
452.430	886
452.500	576
452.570	976
452.640	2982
452.710	9473
452.780	13010
452.850	7053
452.920	3305
452.990	1648
453.060	581
453.129	-339
453.199	-184
453.269	2119
453.339	6200
453.409	10325
453.479	8406
453.549	14201
453.619	14147
453.688	5886
453.758	577
453.828	-147
453.898	-501
453.968	-586
454.037	69
454.087	365
454.107	481
454.168	-325
454.177	-457
454.247	-589
454.249	-570
454.316	-396
454.330	-283
454.386	105
454.411	337
454.456	622
454.492	1055
454.525	1426
454.574	792
454.595	524
454.655	-274
454.665	-415
454.734	-287
454.736	-269
454.804	-276
454.817	152
454.873	1706
454.898	2090
454.943	2686
454.979	1470
455.013	437
455.060	348
455.082	327
455.141	240
455.152	213
455.221	2107
455.222	2158
455.291	3442
455.303	3432
455.360	3132
455.384	4396
455.430	6092
455.465	4993
455.499	4072
455.546	2649
455.569	1921
455.627	1955
455.638	1994
455.707	157
455.708	169
455.777	-337
455.789	-242
455.846	138
455.869	227
455.916	445
455.950	398
455.985	284
456.031	682
456.054	870
456.112	361
456.124	270
456.193	1063
456.193	1056
456.262	580
456.274	643
456.332	723
456.355	554
456.401	174
456.436	67
456.470	-95
456.516	90
456.540	271
456.597	268
456.609	233
456.678	897
456.678	887
456.747	244
456.759	217
456.817	282
456.840	454
456.886	745
456.920	645
456.955	499
457.001	480
457.024	478
457.082	563
457.093	575
457.162	925
457.163	939
457.232	987
457.243	972
457.301	1120
457.324	1165
457.370	1138
457.405	1297
457.439	1415
457.485	1437
457.508	1521
457.566	2155
457.577	2351
457.646	3131
457.647	3169
457.715	8544
457.727	9547
457.784	16638
457.808	21473
457.853	25896
457.889	30464
457.922	30358
457.969	21704
457.991	22876
458.050	26572
458.060	27420
458.129	45659
458.130	46271
458.198	44276
458.211	40252
458.267	24661
458.292	16989
458.336	11233
458.372	10298
458.405	13913
458.453	21382
458.474	26928
458.533	47000
458.543	48272
458.611	70504
458.614	71036
458.680	45531
458.694	36113
458.749	18427
458.775	12899
458.818	6952
458.855	5418
458.887	4606
458.936	3452
458.955	3011
459.016	2368
459.024	2310
459.093	2797
459.097	2779
459.162	2179
459.177	2194
459.230	2522
459.257	2620
459.299	2374
459.338	2465
459.368	2670
459.418	2381
459.437	2219
459.499	2113
459.505	2116
459.574	1847
459.579	1885
459.643	2051
459.659	1855
459.711	1802
459.740	2177
459.780	2302
459.820	2134
459.849	2051
459.900	2086
459.917	2127
459.981	2213
459.986	2211
460.054	2396
460.061	2426
460.123	2691
460.141	2653
460.191	2504
460.222	2628
460.260	2969
460.302	3255
460.328	3288
460.382	3054
460.397	3057
460.462	3440
460.465	3576
460.534	7395
460.543	7850
460.602	22230
460.623	27609
460.671	41246
460.703	54036
460.739	47709
460.783	36024
460.808	30664
460.864	9004
460.876	7272
460.944	3018
460.945	2973
461.013	2780
461.024	2623
461.081	1727
461.104	1964
461.150	2592
461.184	2366
461.218	2426
461.264	2795
461.286	2712
461.345	2253
461.355	2245
461.423	2885
461.425	2892
461.491	2581
461.505	2541
461.559	3362
461.585	3678
461.628	4717
461.665	5934
461.696	6283
461.745	6703
461.764	5972
461.825	3209
461.832	3194
461.901	2830
461.905	2823
461.969	2189
461.985	2125
462.037	3089
462.065	3567
462.105	3382
462.145	3006
462.173	3306
462.225	4168
462.241	4351
462.305	5026
462.310	4949
462.378	3808
462.385	3627
462.446	2700
462.465	2422
462.514	2513
462.545	2685
462.582	2591
462.625	2514
462.650	2477
462.705	2476
462.718	2604
462.785	2827
462.786	2820
462.854	2618
462.865	2621
462.922	3565
462.945	3823
462.990	3075
463.025	2428
463.058	2491
463.104	2796
463.126	2754
463.184	2645
463.194	2666
463.262	2341
463.264	2348
463.330	2871
463.344	2913
463.398	3245
463.424	3416
463.466	2818
463.504	2385
463.533	2790
463.583	3113
463.601	2995
463.663	2991
463.669	3010
463.737	3009
463.743	3016
463.805	4571
463.823	5030
463.873	6184
463.903	6848
463.940	6893
463.982	7027
464.008	5996
464.062	3601
464.076	3586
464.142	3566
464.144	3557
464.211	2705
464.221	2609
464.279	2716
464.301	2822
464.347	3139
464.381	3400
464.414	3542
464.461	3659
464.482	3753
464.540	3989
464.550	3932
464.617	3489
464.620	3469
464.685	3980
464.699	4092
464.753	4196
464.779	4201
464.820	5003
464.859	5872
464.888	5216
464.938	3826
464.956	4288
465.018	6080
465.023	6014
465.091	5116
465.098	5000
465.158	5117
465.177	5204
465.226	4764
465.257	4361
465.293	4552
465.336	4860
465.361	4928
465.416	4977
465.428	5162
465.495	6220
465.496	6238
465.563	7416
465.575	7650
465.631	9194
465.654	9838
465.698	7067
465.734	4567
465.765	4243
465.813	3756
465.833	3918
465.893	4555
465.900	4528
465.968	4272
465.972	4239
466.035	4291
466.052	4302
466.102	3810
466.131	3576
466.170	4016
466.210	4410
466.237	4544
466.290	4822
466.304	4653
466.369	3754
466.372	3775
466.439	4268
466.449	4326
466.506	4107
466.528	4033
466.573	5869
466.607	7206
466.641	8322
466.687	9886
466.708	10815
466.766	13344
466.775	12526
466.842	6219
466.845	5908
466.909	5105
466.925	4916
466.977	5145
467.004	5282
467.044	5621
467.083	5953
467.111	6461
467.163	7361
467.178	7257
467.242	6772
467.245	6787
467.312	6903
467.321	6910
467.379	6665
467.400	6555
467.446	7001
467.480	7306
467.559	6272
467.638	5677
467.717	6268
467.796	6532
467.875	7278
467.955	6753
468.034	9814
468.113	13967
468.192	19426
468.271	11036
468.350	13449
468.429	16475
468.508	17240
468.588	11476
468.667	8349
468.746	6774
468.825	7078
468.904	6563
468.983	6845
469.062	7298
469.141	8501
469.220	5972
469.299	6356
469.378	5556
469.456	7951
469.535	6849
469.614	5800
469.693	5408
469.772	7741
469.851	7816
469.930	6020
470.009	5405
470.088	5761
470.166	6118
470.245	6525
470.324	6722
470.403	6183
470.482	4925
470.560	5341
470.639	4659
470.718	5662
470.797	4741
470.875	6023
470.954	5898
471.033	7465
471.111	5480
471.190	4758
471.269	4906
471.347	5315
471.426	5268
471.505	6175
471.583	6559
471.662	6243
471.740	5519
471.819	6658
471.898	5009
471.976	5759
472.055	5174
472.133	6236
472.212	8163
472.290	7288
472.369	5487
472.447	5878
472.526	4153
472.604	5899
472.683	5621
472.761	4631
472.839	5150
472.918	5473
472.996	5338
473.075	5972
473.153	5263
473.231	4768
473.310	4905
473.388	5342
473.466	5643
473.545	5610
473.623	6047
473.701	6487
473.780	6261
473.858	4388
473.936	7443
474.014	6351
474.093	6966
474.171	7690
474.249	8106
474.327	6327
474.405	5262
474.484	5211
474.562	5412
474.640	5023
474.718	5096
474.796	5265
474.874	5161
474.952	5141
475.030	5040
475.108	5278
475.187	5300
475.265	5420
475.343	6634
475.421	5955
475.499	5244
475.577	5464
475.655	6193
475.733	9065
475.811	11673
475.889	9994
475.966	8210
476.044	5144
476.122	5167
476.200	5416
476.278	4474
476.356	4312
476.434	4950
476.512	4998
476.590	5525
476.667	5672
476.745	4456
476.823	5366
476.901	4948
476.979	4315
477.056	4933
477.134	4868
477.212	4535
477.290	5013
477.367	4397
477.445	4746
477.523	3668
477.601	4600
477.678	4902
477.756	5078
477.834	5620
477.911	4763
477.989	4727
478.066	4538
478.144	4559
478.222	4573
478.299	5704
478.377	6223
478.454	5121
478.532	5344
478.609	4349
478.687	5348
478.764	3398
478.842	3929
478.919	3613
478.997	4849
479.074	4462
479.152	4484
479.229	5514
479.307	4482
479.384	3007
479.461	4873
479.539	4405
479.616	3864
479.694	4146
479.771	4369
479.848	4327
479.926	3701
480.003	7285
480.080	4249
480.157	4661
480.235	4557
480.312	4319
480.389	5256
480.467	5981
480.544	6471
480.621	4398
480.698	5348
480.775	5682
480.853	4500
480.930	4788
481.007	5029
481.084	6756
481.161	11206
481.238	6868
481.315	4364
481.392	4828
481.470	4159
481.547	4760
481.624	4660
481.701	4531
481.778	5919
481.855	4481
481.932	6073
482.009	7647
482.086	6458
482.163	6017
482.240	7343
482.317	7765
482.393	6436
482.470	5632
482.547	5803
482.624	5563
482.701	5586
482.778	4625
482.855	5121
482.932	6028
483.009	4825
483.085	6107
483.162	9320
483.239	8793
483.316	5381
483.393	6125
483.469	6168
483.546	6092
483.623	5835
483.699	4639
483.776	4262
483.853	4935
483.930	6219
484.006	10042
484.083	16798
484.160	12266
484.236	18793
484.313	14428
484.389	10793
484.466	11297
484.543	10795
484.619	13491
484.696	15073
484.772	11615
484.849	11359
484.925	9825
485.002	9011
485.078	9452
485.155	8536
485.231	8078
485.308	8807
485.384	8286
485.461	10691
485.537	11669
485.614	13221
485.690	7853
485.766	8516
485.843	8162
485.919	8202
485.995	9499
486.072	8104
486.148	7571
486.224	7076
486.301	7921
486.377	8423
486.453	8227
486.530	9463
486.606	11295
486.682	12039
486.758	12026
486.835	13046
486.911	11000
486.987	15848
487.063	14961
487.139	16738
487.215	17123
487.292	14464
487.368	13211
487.444	15442
487.520	19394
487.596	27750
487.672	57630
487.748	164975
487.824	242640
487.900	73234
487.976	23410
488.052	15159
488.128	13754
488.204	10311
488.280	10553
488.356	10643
488.432	14128
488.508	17044
488.584	8388
488.660	7931
488.736	8084
488.812	7303
488.888	8388
488.964	9484
489.039	13024
489.115	16866
489.191	12775
489.267	8254
489.343	7459
489.418	7360
489.494	5807
489.570	6029
489.646	8096
489.722	7414
489.797	6779
489.873	8838
489.949	13819
490.024	10774
490.100	7008
490.176	6268
490.251	6728
490.327	7804
490.403	6545
490.478	6132
490.554	6748
490.629	6127
490.705	6120
490.781	7123
490.856	4664
490.932	6079
491.007	5866
491.083	5184
491.158	5424
491.234	7427
491.309	10621
491.385	10838
491.460	4657
491.536	6949
491.611	5322
491.686	5720
491.762	6027
491.837	8368
491.913	12399
491.988	15279
492.063	16256
492.139	8465
492.214	5877
492.289	6111
492.365	4281
492.440	5254
492.515	5186
492.590	5056
492.666	4122
492.741	5581
492.816	7116
492.891	4916
492.967	5480
493.042	4369
493.117	4651
493.192	5859
493.267	7575
493.342	19922
493.418	23305
493.493	6493
493.568	4272
493.643	4617
493.718	5135
493.793	5551
493.868	6075
493.943	5064
494.018	4217
494.093	4166
494.168	4126
494.243	3942
494.318	4385
494.393	5234
494.468	4689
494.543	3939
494.618	3938
494.693	3392
494.768	4022
494.842	4054
494.917	4677
494.992	4538
495.067	4033
495.142	3757
495.217	3935
495.292	4149
495.366	4429
495.441	3892
495.516	5569
495.591	5962
495.665	13449
495.740	26454
495.815	10527
495.890	4130
495.964	3106
496.039	6445
496.114	6848
496.188	9621
496.263	7497
496.338	4326
496.412	3644
496.487	4623
496.561	4828
496.636	4653
496.710	4766
496.785	5223
496.860	4630
496.934	3641
497.009	4129
497.083	4978
497.158	4211
497.232	5232
497.307	4456
497.381	4542
497.455	4552
497.530	6082
497.604	4253
497.679	4575
497.753	6609
497.827	6242
497.902	5203
497.976	7989
498.050	21970
498.125	77279
498.199	65963
498.273	7868
498.348	5034
498.422	5042
498.496	5314
498.570	5534
498.645	3513
498.719	3707
498.793	5439
498.867	8032
498.941	11035
499.016	32518
499.090	79561
499.164	23559
499.238	5892
499.312	4272
499.386	5224
499.460	4440
499.534	5027
499.609	5431
499.683	6677
499.757	7159
499.831	15519
499.905	53913
499.979	43088
500.053	7922
500.127	7001
500.201	4743
500.275	5376
500.349	5240
500.422	4790
500.496	5756
500.570	10773
500.644	29280
500.718	50508
500.792	10737
500.866	5533
500.940	5638
501.013	4690
501.087	5249
501.161	7024
501.235	7772
501.309	17932
501.382	45917
501.456	34177
501.530	9361
501.603	14876
501.677	6816
501.751	3047
501.825	5698
501.898	8453
501.972	19626
502.046	10228
502.119	4957
502.193	9022
502.266	18859
502.340	9097
502.413	10227
502.487	16352
502.561	8867
502.634	4118
502.708	4699
502.781	3265
502.855	4603
502.928	2968
503.002	3404
503.075	3588
503.149	4102
503.222	3550
503.295	3954
503.369	4735
503.442	5631
503.516	15634
503.589	32920
503.662	20093
503.736	11087
503.809	20191
503.882	16880
503.956	29905
504.029	41728
504.102	90424
504.175	124503
504.249	43780
504.322	16804
504.395	9465
504.468	6424
504.542	5544
504.615	3320
504.688	4650
504.761	2479
504.834	4835
504.907	4269
504.980	4190
505.053	4738
505.127	2647
505.200	6012
505.273	3989
505.346	3486
505.419	1386
505.492	4178
505.565	2557
505.638	3634
505.711	2927
505.784	2199
505.857	2993
505.930	4523
506.003	1023
506.076	4879
506.149	2073
506.221	3162
506.294	4989
506.367	7556
506.440	25152
506.513	11702
506.586	4440
506.659	2620
506.731	2923
506.804	2417
506.877	2514
506.950	3470
507.022	3061
507.095	2142
507.168	3902
507.241	2651
507.313	1868
507.386	2417
507.459	3558
507.531	3005
507.604	1577
507.677	3013
507.749	2043
507.822	4056
507.894	4637
507.967	7412
508.040	3837
508.112	4360
508.185	4409
508.257	2755
508.330	4772
508.402	3562
508.475	3575
508.547	3348
508.620	3509
508.692	4623
508.765	3601
508.837	2947
508.909	3285
508.982	3466
509.054	3478
509.127	3000
509.199	3859
509.271	2324
509.344	2501
509.416	3372
509.488	2885
509.560	3930
509.633	2346
509.705	3636
509.777	3606
509.849	4649
509.922	2733
509.994	3026
510.066	4505
510.138	2973
510.210	7802
510.283	4971
510.355	4966
510.427	4565
510.499	4669
510.571	3536
510.643	3900
510.715	6602
510.787	3038
510.859	5151
510.931	3858
511.003	5782
511.076	5584
511.148	3380
511.219	3839
511.291	5310
511.363	6447
511.435	3332
511.507	3076
511.579	4355
511.651	3743
511.723	3939
511.795	3671
511.867	3003
511.939	3814
512.010	5540
512.082	5673
512.154	3845
512.226	3972
512.298	5818
512.369	6277
512.441	6388
512.513	4685
512.585	3801
512.656	4864
512.728	4253
512.800	4144
512.871	3985
512.943	4298
513.015	2550
513.086	3939
513.158	3525
513.230	3408
513.301	4102
513.373	4303
513.444	4081
513.516	3074
513.588	4314
513.659	4879
513.731	3896
513.802	3455
513.874	6206
513.945	6929
514.016	2537
514.088	4154
514.159	3247
514.231	4425
514.302	5819
514.374	5238
514.445	3112
514.516	8450
514.588	4245
514.659	3935
514.730	5736
514.802	5809
514.873	1468
514.944	5655
515.016	4480
515.087	3867
515.158	5522
515.229	6343
515.301	2771
515.372	5054
515.443	3286
515.514	3344
515.585	3491
515.656	4729
515.728	3893
515.799	2875
515.870	4234
515.941	3712
516.012	2758
516.083	5108
516.154	3798
516.225	4716
516.296	5853
516.367	4195
516.438	4230
516.509	4356
516.580	6628
516.651	16706
516.722	41666
516.793	18548
516.864	6409
516.935	6021
517.006	8746
517.077	8116
517.148	16480
517.219	49772
517.289	64722
517.360	26557
517.431	10990
517.502	4100
517.573	5384
517.643	4721
517.714	5077
517.785	5097
517.856	4632
517.926	6706
517.997	7089
518.068	6794
518.138	10674
518.209	11957
518.280	36861
518.350	115041
518.421	37320
518.492	12674
518.562	14343
518.633	17020
518.703	25512
518.774	62455
518.845	158679
518.915	132792
518.986	35909
519.056	16709
519.127	14228
519.197	15788
519.268	28594
519.338	19314
519.408	6576
519.479	5612
519.549	5291
519.620	6073
519.690	3821
519.760	4277
519.831	3770
519.901	4426
519.971	4430
520.042	3630
520.112	3403
520.182	4991
520.253	4845
520.323	4037
520.393	3298
520.463	7047
520.534	2005
520.604	8941
520.674	5429
520.744	3964
520.814	6098
520.885	7023
520.955	10845
521.025	31123
521.095	10794
521.165	5080
521.235	4132
521.305	3157
521.375	4344
521.445	3868
521.515	2960
521.585	4915
521.655	2664
521.725	4290
521.795	4252
521.865	1739
521.935	6584
522.005	3205
522.075	3413
522.145	5030
522.215	3045
522.285	5422
522.355	5960
522.424	9181
522.494	6980
522.564	5452
522.634	7254
522.704	15072
522.774	5720
522.843	4018
522.913	4183
522.983	4375
523.053	2662
523.122	4276
523.192	3391
523.262	7861
523.331	6806
523.401	3534
523.471	3217
523.540	3754
523.610	2623
523.680	4391
523.749	4073
523.819	5114
523.888	4491
523.958	3665
524.027	3543
524.097	3911
524.166	2938
524.236	1649
524.305	4643
524.375	2905
524.444	2786
524.514	5272
524.583	2875
524.653	2318
524.722	4393
524.791	2566
524.861	5061
524.930	3276
524.999	3691
525.069	4541
525.138	4216
525.207	3885
525.277	4812
525.346	3556
525.415	5265
525.484	6099
525.554	5394
525.623	7951
525.692	10168
525.761	10401
525.830	12445
525.900	16420
525.969	25952
526.038	49302
526.107	107609
526.176	289449
526.245	203726
526.314	63132
526.383	150164
526.452	186120
526.522	287268
526.591	228323
526.660	38793
526.729	23123
526.797	28388
526.867	45323
526.935	150839
527.004	434412
527.073	228173
527.142	29225
527.211	13876
527.280	10352
527.349	8373
527.418	5009
527.487	6220
527.555	4526
527.624	3968
527.693	2236
527.762	4801
527.831	3364
527.899	4164
527.968	3833
528.037	2771
528.106	4036
528.174	4594
528.243	4674
528.312	4980
528.380	4585
528.449	1831
528.518	4957
528.586	1811
528.655	4499
528.723	3023
528.792	2844
528.861	2695
528.929	2040
528.998	4325
529.066	3838
529.135	6928
529.203	5375
529.272	6878
529.340	8925
529.409	9621
529.477	6743
529.545	6720
529.614	9547
529.682	8456
529.751	10822
529.819	12801
529.887	12796
529.956	10832
530.024	11548
530.092	9747
530.161	10469
530.229	10507
530.297	10734
530.365	11947
530.434	11988
530.502	11558
530.570	10012
530.638	8713
530.707	8641
530.775	9577
530.843	8300
530.911	9409
530.979	9802
531.047	9978
531.115	10881
531.183	9946
531.252	9379
531.320	8967
531.388	8409
531.456	10657
531.524	8934
531.592	12144
531.660	13588
531.728	10324
531.796	9728
531.864	10851
531.932	9870
532.000	10127
532.067	10902
532.135	12418
532.203	13010
532.271	13304
532.339	14590
532.407	16561
532.475	13140
532.542	12809
532.610	13407
532.678	12733
532.746	25238
532.814	39249
532.881	16670
532.949	13183
533.017	12370
533.084	11338
533.152	11062
533.220	11391
533.287	10865
533.355	12222
533.423	12349
533.490	11492
533.558	11476
533.625	10951
533.693	11000
533.761	11211
533.828	11637
533.896	9952
533.963	13173
534.031	14482
534.098	15407
534.166	12912
534.233	11196
534.300	13989
534.368	13024
534.435	12114
534.503	12816
534.570	13067
534.637	14310
534.705	15812
534.772	19562
534.840	34075
534.907	134451
534.974	140174
535.041	20323
535.109	12185
535.176	10861
535.243	11278
535.310	10875
535.378	9885
535.445	10099
535.512	9362
535.579	9740
535.646	8760
535.714	10049
535.781	10907
535.848	9511
535.915	11059
535.982	10214
536.049	9912
536.116	11181
536.183	8533
536.250	8486
536.317	8404
536.384	9166
536.451	9595
536.518	9681
536.585	8263
536.652	11326
536.719	10748
536.786	8233
536.853	8231
536.920	10042
536.987	8884
537.053	8870
537.120	20538
537.187	17738
537.254	8528
537.321	8922
537.388	9993
537.454	7564
537.521	7824
537.588	7173
537.654	8174
537.721	8307
537.788	9304
537.855	7216
537.921	8698
537.988	7412
538.055	8896
538.121	6934
538.188	6858
538.254	7817
538.321	8728
538.388	7881
538.454	8658
538.521	7762
538.587	7493
538.654	7479
538.720	8285
538.787	7739
538.853	7748
538.920	7347
538.986	6293
539.053	5741
539.119	7549
539.185	6816
539.252	9248
539.318	8213
539.385	9606
539.451	7259
539.517	8425
539.583	8933
539.650	10323
539.716	14278
539.782	8479
539.849	6262
539.915	7722
539.981	6199
540.047	6623
540.114	7308
540.180	8298
540.246	6977
540.312	7624
540.378	8141
540.444	9965
540.510	10200
540.576	16813
540.643	7522
540.709	5458
540.775	6667
540.841	7493
540.907	8300
540.973	9055
541.039	7518
541.105	8501
541.171	7080
541.237	7611
541.303	8714
541.369	9617
541.435	7985
541.500	8924
541.566	6089
541.632	6836
541.698	6291
541.764	8949
541.830	6482
541.896	5669
541.961	7081
542.027	6671
542.093	6610
542.159	7239
542.224	5851
542.290	8298
542.356	7707
542.421	8641
542.487	7576
542.553	7222
542.618	7026
542.684	7254
542.750	6920
542.815	8566
542.881	7837
542.947	15579
543.012	11777
543.078	6766
543.143	5754
543.209	7067
543.274	6399
543.340	7123
543.405	8649
543.471	10706
543.536	7542
543.602	7513
543.667	5595
543.732	7919
543.798	5919
543.863	7905
543.928	6693
543.994	7092
544.059	6728
544.124	7347
544.190	6411
544.255	6861
544.320	7592
544.386	7394
544.451	9054
544.516	7900
544.581	7504
544.646	12201
544.712	14990
544.777	8792
544.842	7851
544.907	8312
544.972	8218
545.037	8917
545.102	9608
545.168	8208
545.233	8549
545.298	9813
545.363	9091
545.428	9830
545.493	12538
545.558	13243
545.623	10254
545.688	9448
545.753	9606
545.818	9220
545.883	11210
545.947	10307
546.012	11167
546.077	10630
546.142	12403
546.207	10705
546.272	12999
546.337	12877
546.401	12987
546.466	13465
546.531	13925
546.596	15001
546.661	15639
546.725	17588
546.790	16610
546.855	18572
546.919	19058
546.984	21129
547.049	22607
547.113	26575
547.178	28728
547.243	33475
547.307	39105
547.372	41616
547.436	40552
547.501	43783
547.565	46223
547.630	43193
547.695	41022
547.759	41993
547.823	42857
547.888	43201
547.952	44957
548.017	47073
548.081	50279
548.146	46664
548.210	50026
548.274	52186
548.339	50637
548.403	46722
548.468	42928
548.532	42412
548.596	44848
548.660	44927
548.725	48671
548.789	52067
548.853	51430
548.917	49401
548.982	48118
549.046	43700
549.110	39338
549.174	41273
549.238	45431
549.303	49956
549.367	52591
549.431	49399
549.495	47449
549.559	47852
549.623	55798
549.687	61318
549.751	60052
549.815	69449
549.879	71165
549.943	67996
550.007	71471
550.071	69820
550.135	64422
550.199	60146
550.263	59886
550.327	58975
550.391	60028
550.455	65251
550.519	68130
550.582	72424
550.646	81252
550.710	83231
550.774	79685
550.838	81697
550.901	83870
550.965	91168
551.029	93550
551.093	101672
551.156	112357
551.220	126414
551.284	135478
551.347	105109
551.411	95861
551.475	91062
551.538	91649
551.602	83216
551.666	79459
551.729	75444
551.793	75031
551.856	73400
551.920	71252
551.983	71469
552.047	72056
552.110	72062
552.174	74098
552.237	74274
552.301	69434
552.364	67372
552.428	64888
552.491	67445
552.554	67474
552.618	68861
552.681	70539
552.745	65057
552.808	69084
552.871	71933
552.934	71463
552.998	68722
553.061	67406
553.124	65426
553.187	65286
553.251	66754
553.314	67571
553.377	69741
553.440	75437
553.503	87717
553.567	93528
553.630	75411
553.693	73045
553.756	75487
553.819	73021
553.882	70774
553.945	71699
554.008	72908
554.071	73561
554.134	74468
554.197	70678
554.260	69791
554.323	72049
554.386	71617
554.449	73104
554.512	73964
554.575	70269
554.638	70269
554.701	69444
554.764	68884
554.827	65664
554.889	63545
554.952	60694
555.015	59983
555.078	59961
555.141	61112
555.203	59247
555.266	60784
555.329	59943
555.391	57824
555.454	57352
555.517	55686
555.580	53701
555.642	50745
555.705	51486
555.768	50714
555.830	48664
555.893	45590
555.955	46785
556.018	44950
556.080	44111
556.143	45808
556.206	44852
556.268	43002
556.330	42921
556.393	43014
556.455	40495
556.518	41069
556.580	39871
556.643	36976
556.705	35990
556.767	35924
556.830	35947
556.892	35226
556.955	34720
557.017	33310
557.079	33653
557.142	32438
557.204	31158
557.266	32911
557.328	30216
557.391	28047
557.453	27668
557.515	27612
557.577	28547
557.639	27990
557.701	27554
557.764	28297
557.826	28404
557.888	29763
557.950	29778
558.012	33606
558.074	43232
558.136	92424
558.198	182642
558.260	62289
558.322	31361
558.384	30278
558.446	33134
558.508	34239
558.570	38229
558.632	46177
558.694	59953
558.756	98344
558.818	260958
558.880	486271
558.942	188589
559.003	195041
559.065	85857
559.127	39297
559.189	37645
559.251	43180
559.312	64162
559.374	144185
559.436	373670
559.498	167487
559.559	42855
559.621	37002
559.683	46010
559.744	74739
559.806	214108
559.868	266335
559.929	59436
559.991	43074
560.052	71677
560.114	179762
560.176	105470
560.237	110397
560.299	152320
560.360	33354
560.422	17099
560.483	15443
560.545	14521
560.606	14008
560.667	13178
560.729	12923
560.790	12537
560.852	12846
560.913	12707
560.974	12291
561.036	11364
561.097	11223
561.158	11037
561.220	11666
561.281	10464
561.342	10737
561.403	11759
561.465	10031
561.526	13585
561.587	14153
561.648	10065
561.709	9599
561.771	10359
561.832	10240
561.893	9370
561.954	9482
562.015	9608
562.076	8573
562.137	10284
562.198	9093
562.259	8823
562.320	8879
562.381	9509
562.442	9917
562.503	9071
562.564	9233
562.625	8888
562.686	9775
562.747	8950
562.808	8686
562.869	8091
562.930	9311
562.991	8531
563.051	8251
563.112	7993
563.173	8896
563.234	8222
563.294	8562
563.355	7999
563.416	8052
563.477	7403
563.537	8034
563.598	7829
563.659	8464
563.720	7201
563.780	7419
563.841	7753
563.901	8609
563.962	7710
564.023	8183
564.083	8600
564.144	7139
564.204	7209
564.265	7956
564.325	8146
564.386	9927
564.446	9181
564.507	7398
564.567	7490
564.628	7034
564.688	7826
564.749	6487
564.809	7952
564.869	8446
564.930	6690
564.990	8192
565.050	6992
565.111	7371
565.171	6962
565.231	7129
565.292	7344
565.352	6087
565.412	7416
565.472	6568
565.532	6867
565.593	7105
565.653	6784
565.713	6665
565.773	6834
565.833	7323
565.893	8444
565.953	7342
566.013	6649
566.074	6620
566.134	7401
566.194	8363
566.254	8046
566.314	7993
566.374	5941
566.434	6296
566.494	7229
566.554	7322
566.614	6926
566.673	7176
566.733	7330
566.793	7373
566.853	7527
566.913	7534
566.973	7363
567.033	6831
567.092	7404
567.152	6786
567.212	8178
567.272	8325
567.331	8059
567.391	7871
567.451	8524
567.511	8327
567.570	7981
567.630	7701
567.690	7321
567.749	7517
567.809	7549
567.868	8652
567.928	7417
567.988	7354
568.047	7719
568.107	7812
568.166	7880
568.226	7735
568.285	8557
568.345	8141
568.404	8175
568.464	8034
568.523	6482
568.582	7448
568.642	7186
568.701	7892
568.761	7048
568.820	7885
568.879	7701
568.939	8638
568.998	8039
569.057	7533
569.116	8245
569.176	7650
569.235	7571
569.294	7160
569.353	7072
569.413	7234
569.472	6887
569.531	7069
569.590	6454
569.649	7058
569.708	7079
569.767	8114
569.827	7460
569.886	7474
569.945	6505
570.004	8275
570.063	7127
570.122	7538
570.181	7674
570.240	7533
570.299	7727
570.358	7659
570.417	7848
570.475	7564
570.534	7701
570.593	6734
570.652	7631
570.711	6902
570.770	6842
570.829	7246
570.887	7465
570.946	7894
571.005	7027
571.064	7375
571.122	7899
571.181	6572
571.240	6812
571.299	7878
571.357	6828
571.416	7904
571.475	8460
571.533	7209
571.592	7748
571.650	8526
571.709	7898
571.768	8660
571.826	8117
571.885	7601
571.943	7484
572.002	7034
572.060	7093
572.119	7568
572.177	6782
572.236	6987
572.294	7890
572.352	7925
572.411	7200
572.469	8098
572.528	7712
572.586	6678
572.644	7447
572.703	8599
572.761	7343
572.819	7662
572.877	7673
572.936	7043
572.994	7232
573.052	7119
573.110	6178
573.169	6702
573.227	7597
573.285	7110
573.343	6725
573.401	6625
573.459	6721
573.517	6651
573.576	6625
573.634	6452
573.692	6428
573.750	6849
573.808	6590
573.866	6955
573.924	7318
573.982	6676
574.040	6856
574.098	6668
574.155	6299
574.213	6309
574.271	6989
574.329	7453
574.387	5818
574.445	6251
574.503	6097
574.560	5787
574.618	5778
574.676	5989
574.734	5526
574.792	7109
574.849	6149
574.907	5736
574.965	5070
575.022	6107
575.080	5171
575.138	5864
575.195	5062
575.253	5405
575.311	4852
575.368	6045
575.426	5294
575.483	5272
575.541	6296
575.598	5837
575.656	5466
575.713	5449
575.771	6243
575.828	4898
575.886	5360
575.943	5803
576.001	5268
576.058	5264
576.115	5727
576.173	6001
576.230	6260
576.287	5869
576.345	5642
576.402	5515
576.459	5422
576.517	5099
576.574	5611
576.631	5968
576.688	5478
576.746	5561
576.803	6054
576.860	4536
576.917	5969
576.974	5098
577.031	5901
577.089	5637
577.146	4982
577.203	4763
577.260	5393
577.317	5657
577.374	5685
577.431	5418
577.488	5683
577.545	5489
577.602	5160
577.659	6672
577.716	5838
577.773	5244
577.830	5813
577.886	5383
577.943	5470
578.000	6643
578.057	5543
578.114	6169
578.171	6341
578.227	7395
578.284	6894
578.341	7125
578.398	5561
578.454	6321
578.511	5485
578.568	6004
578.625	5407
578.681	5600
578.738	5149
578.794	5427
578.851	5441
578.908	5000
578.964	6322
579.021	5107
579.077	5668
579.134	5928
579.190	5351
579.247	5657
579.303	5167
579.360	4054
579.416	4711
579.473	5833
579.529	5062
579.586	5371
579.642	5645
579.698	6172
579.755	5887
579.811	5792
579.867	6583
579.924	6100
579.980	5886
580.036	7299
580.093	7930
580.149	9966
580.205	10926
580.261	9363
580.317	7701
580.374	6689
580.430	7017
580.486	6732
580.542	6390
580.598	7548
580.619	7356
580.654	7031
580.692	6570
580.710	6352
580.765	5811
580.767	5799
580.823	6558
580.838	6675
580.879	7004
580.911	6454
580.935	6061
580.984	6284
580.991	6326
581.047	8013
581.057	7747
581.103	6561
581.130	7093
581.159	7677
581.203	7556
581.215	7525
581.270	7407
581.276	7350
581.326	6854
581.349	6763
581.382	6612
581.422	7040
581.438	7236
581.494	6601
581.494	6605
581.550	7621
581.567	7753
581.606	7980
581.640	7489
581.661	7222
581.713	7422
581.717	7441
581.773	7543
581.786	7550
581.829	7551
581.859	7516
581.885	7512
581.932	7153
581.940	7107
581.996	8559
582.004	8515
582.052	8177
582.077	8168
582.107	8178
582.150	7705
582.163	7545
582.219	7427
582.223	7458
582.274	8028
582.296	7884
582.330	7677
582.368	8212
582.386	8433
582.441	8487
582.441	8488
582.497	8425
582.514	8411
582.552	8487
582.587	8888
582.608	9096
582.659	8591
582.663	8560
582.719	9292
582.732	9183
582.774	8775
582.805	8911
582.830	9134
582.877	9966
582.885	10072
582.941	10265
582.950	10364
582.996	10923
583.023	11634
583.052	12492
583.095	12692
583.107	12724
583.162	12428
583.168	12464
583.218	12618
583.240	11929
583.273	10893
583.313	10549
583.328	10477
583.384	9848
583.385	9816
583.439	8640
583.458	8741
583.494	9047
583.531	8844
583.549	8837
583.603	9251
583.605	9252
583.660	8594
583.676	8674
583.715	9019
583.748	9352
583.770	9531
583.820	8587
583.825	8486
583.881	9085
583.893	8874
583.936	8378
583.965	8573
583.991	8684
584.038	9380
584.046	9496
584.101	8857
584.110	8937
584.156	9368
584.183	8993
584.211	8547
584.255	9081
584.266	9249
584.321	9932
584.328	9917
584.376	9743
584.400	9748
584.431	9779
584.472	10003
584.486	10024
584.541	10617
584.545	10587
584.596	10427
584.617	10413
584.651	10212
584.689	10955
584.706	11285
584.761	10991
584.762	10993
584.816	11234
584.834	11539
584.871	12037
584.906	11720
584.926	11600
584.978	12210
584.980	12238
585.035	12870
585.051	13009
585.090	13380
585.123	14187
585.145	14588
585.195	14889
585.200	14973
585.254	15823
585.267	16354
585.309	18386
585.340	20120
585.364	21077
585.412	23547
585.419	24062
585.473	28162
585.484	29634
585.528	36845
585.556	44700
585.583	57476
585.628	88972
585.637	99447
585.692	194622
585.700	209804
585.747	267033
585.772	226322
585.801	144580
585.845	58532
585.856	46449
585.910	26437
585.917	24704
585.965	20148
585.989	18349
586.019	16928
586.061	16163
586.074	16001
586.128	14934
586.133	14843
586.183	14230
586.205	14353
586.237	14404
586.277	13827
586.292	13599
586.346	12978
586.349	12946
586.401	12682
586.421	12836
586.455	13084
586.493	12978
586.509	13090
586.564	13779
586.565	13813
586.618	15803
586.637	16014
586.672	15919
586.709	15990
586.727	15990
586.781	16638
586.781	16640
586.835	14325
586.853	13837
586.889	13133
586.925	12487
586.944	12217
586.996	12131
586.998	12143
587.052	12284
587.068	12334
587.106	12091
587.140	11628
587.161	11581
587.212	11910
587.215	11943
587.269	12148
587.284	12347
587.323	12624
587.356	12705
587.377	12811
587.427	12952
587.431	12956
587.485	13325
587.499	13256
587.539	13444
587.571	13539
587.593	13542
587.643	14212
587.648	14265
587.702	14164
587.715	14307
587.755	14871
587.786	14615
587.810	14298
587.858	14282
587.864	14340
587.917	14563
587.930	14732
587.971	15266
588.001	15329
588.025	15420
588.073	15612
588.079	15606
588.133	15107
588.145	15210
588.187	16003
588.217	16274
588.241	16605
588.288	17016
588.295	17139
588.348	18690
588.360	18897
588.402	18808
588.431	19127
588.456	19680
588.503	20156
588.510	20310
588.564	21920
588.575	22295
588.617	23985
588.646	25017
588.671	26123
588.718	29650
588.725	30552
588.778	38454
588.789	40583
588.832	60892
588.861	77107
588.886	109223
588.932	180014
588.939	186921
588.993	230658
589.004	229936
589.047	132503
589.075	75052
589.100	56684
589.147	33192
589.154	32269
589.207	27298
589.218	26294
589.261	26933
589.290	28040
589.314	29064
589.361	31782
589.368	32990
589.421	44024
589.433	46841
589.475	78713
589.504	104726
589.528	136916
589.576	203017
589.582	197717
589.635	111522
589.647	94390
589.689	52559
589.718	28702
589.742	26109
589.790	21434
589.795	21235
589.849	19867
589.861	19663
589.902	19691
589.932	19394
589.955	18902
590.004	17648
590.009	17626
590.062	17700
590.075	17638
590.115	17030
590.146	16609
590.168	16612
590.218	16649
590.222	16709
590.275	17191
590.289	17342
590.328	17663
590.360	17721
590.381	17741
590.431	17919
590.435	17944
590.488	17698
590.503	17716
590.541	17433
590.574	17119
590.594	17466
590.645	18453
590.647	18496
590.700	18871
590.716	19028
590.753	19251
590.787	19285
590.806	19361
590.859	19729
590.859	19759
590.912	20211
590.930	20338
590.965	20417
591.001	20489
591.018	20567
591.071	20646
591.072	20621
591.124	20003
591.143	19812
591.177	20208
591.214	20586
591.230	20762
591.283	21193
591.285	21180
591.336	21710
591.356	21936
591.389	21930
591.427	21645
591.442	21457
591.495	20942
591.498	20863
591.547	20957
591.569	21011
591.600	21416
591.640	21777
591.653	21783
591.706	21773
591.711	21752
591.759	22988
591.782	23496
591.811	23834
591.853	24294
591.864	24307
591.917	24169
591.924	24107
591.969	23563
591.995	23274
592.022	23394
592.066	23420
592.075	23614
592.127	24696
592.137	24868
592.180	25787
592.208	26321
592.233	25989
592.279	25244
592.285	25399
592.338	26470
592.350	26682
592.390	26477
592.421	26269
592.443	26214
592.491	25987
592.495	26034
592.548	26369
592.562	26432
592.600	26872
592.633	27217
592.653	27147
592.704	26735
592.705	26896
592.775	27331
592.846	27046
592.916	28911
592.987	28454
593.058	28382
593.128	29840
593.199	29942
593.270	29436
593.341	29905
593.411	30297
593.482	32164
593.553	32467
593.623	32053
593.694	33452
593.764	33762
593.835	34022
593.906	34660
593.976	35100
594.047	35665
594.117	38243
594.188	38679
594.258	37819
594.329	38145
594.399	39270
594.470	39179
594.540	40584
594.611	41506
594.681	41292
594.751	41924
594.822	43801
594.892	45253
594.963	46928
595.033	47650
595.103	47915
595.174	48688
595.244	50453
595.314	52693
595.384	52290
595.455	53850
595.525	55005
595.595	56989
595.665	57542
595.736	56023
595.806	57603
595.876	57996
595.946	58728
596.016	61040
596.087	61850
596.157	63256
596.227	62742
596.297	66768
596.367	69788
596.437	72927
596.507	74359
596.577	75039
596.647	76209
596.717	78324
596.787	80274
596.857	80380
596.927	81285
596.997	81341
597.067	82739
597.137	83611
597.207	84491
597.277	85210
597.347	82511
597.417	80226
597.487	81322
597.557	81481
597.626	84595
597.696	85890
597.766	85291
597.836	82232
597.906	77269
597.975	76721
598.045	77552
598.115	81135
598.185	85371
598.254	93073
598.324	100986
598.394	102699
598.464	100338
598.533	98147
598.603	93178
598.672	91824
598.742	93843
598.812	93667
598.881	96965
598.951	96205
599.020	98835
599.090	101896
599.159	102898
599.229	100816
599.299	98069
599.368	101011
599.437	100028
599.507	94976
599.576	93025
599.646	91410
599.715	92169
599.785	91369
599.854	89424
599.924	90430
599.993	89532
600.062	91269
600.132	93648
600.201	97868
600.270	110553
600.340	116125
600.409	114278
600.478	115152
600.547	117289
600.617	109059
600.686	93610
600.755	88247
600.824	85366
600.894	85223
600.963	86045
601.032	86733
601.101	86231
601.170	85680
601.239	84618
601.308	84718
601.378	87185
601.447	88475
601.516	88262
601.585	90783
601.654	91035
601.723	93164
601.792	94409
601.861	97815
601.930	101387
601.999	103899
602.068	102799
602.137	104145
602.206	105145
602.275	107182
602.343	107848
602.412	107599
602.481	108659
602.550	111789
602.619	112885
602.688	113085
602.756	114198
602.825	113807
602.894	117404
602.963	117025
603.032	119427
603.100	120580
603.169	118375
603.238	122390
603.307	117309
603.375	119602
603.444	122272
603.513	118032
603.581	119785
603.650	123674
603.719	112005
603.787	110587
603.856	113652
603.924	115242
603.993	119318
604.061	122333
604.130	125319
604.198	129952
604.267	131240
604.335	133542
604.404	133062
604.472	135929
604.541	137487
604.609	140942
604.678	142655
604.746	143721
604.815	150130
604.883	146779
604.951	144815
605.020	146901
605.088	144046
605.156	143126
605.225	143262
605.293	144462
605.361	144513
605.429	143935
605.498	147688
605.566	149963
605.634	156804
605.702	157648
605.771	162408
605.839	162769
605.907	158555
605.975	158479
606.043	152880
606.111	151728
606.180	156333
606.248	148260
606.316	147477
606.384	151224
606.452	141073
606.520	134523
606.588	137828
606.656	138341
606.724	136030
606.792	129292
606.860	117916
606.928	108643
606.996	104963
607.064	102464
607.132	106014
607.200	112064
607.267	115362
607.335	117239
607.403	119562
607.471	114971
607.539	113000
607.607	112369
607.674	102099
607.742	101130
607.810	99404
607.878	101213
607.946	101288
608.013	107090
608.081	106175
608.149	107940
608.216	111706
608.284	117050
608.352	115230
608.419	111863
608.487	114064
608.555	109438
608.622	113126
608.690	118015
608.757	129141
608.825	132287
608.893	128773
608.960	123913
609.028	117848
609.095	119235
609.163	116581
609.230	105246
609.298	95890
609.365	102594
609.432	111135
609.500	118096
609.567	135749
609.635	150886
609.702	159105
609.769	152923
609.837	122319
609.904	105025
609.971	106675
610.039	115556
610.106	136478
610.173	215137
610.241	409730
610.308	269193
610.375	134651
610.442	114734
610.509	110154
610.577	110876
610.644	112613
610.711	114326
610.778	117350
610.845	121499
610.912	128456
610.980	134850
611.047	133912
611.114	133071
611.181	128678
611.248	128174
611.315	136238
611.382	137548
611.449	143849
611.516	145395
611.583	142514
611.650	143668
611.717	145975
611.784	146863
611.851	149579
611.918	157220
611.984	172646
612.051	214917
612.118	336006
612.185	642332
612.252	463221
612.319	208968
612.386	181667
612.452	169494
612.519	163174
612.586	160131
612.653	163775
612.719	168122
612.786	161154
612.853	152094
612.919	149394
612.986	151051
613.053	143745
613.120	137307
613.186	131019
613.253	134667
613.319	134702
613.386	135681
613.453	136288
613.519	138172
613.586	134419
613.652	138508
613.719	135747
613.785	137066
613.852	138992
613.918	138251
613.985	141053
614.051	145188
614.118	147102
614.184	143296
614.250	137612
614.317	141113
614.383	139337
614.449	143035
614.516	142850
614.582	141257
614.648	141479
614.715	139764
614.781	137346
614.847	136538
614.914	136758
614.980	132172
615.046	132723
615.112	136306
615.179	137826
615.245	139111
615.311	137915
615.377	139094
615.443	141536
615.509	141854
615.575	144784
615.642	143445
615.708	146653
615.774	151877
615.840	158878
615.906	162447
615.972	180864
616.038	231582
616.104	387559
616.170	711204
616.236	620714
616.302	268267
616.368	217589
616.434	177090
616.500	165598
616.565	174950
616.631	203575
616.697	181114
616.763	181178
616.829	234740
616.895	361528
616.961	348823
617.026	193713
617.092	152847
617.158	148574
617.224	144993
617.289	137662
617.355	134612
617.421	131104
617.487	131856
617.552	126135
617.618	126636
617.684	126171
617.749	128996
617.815	123866
617.880	121752
617.946	120516
618.012	123051
618.077	126512
618.143	122022
618.208	124057
618.274	130105
618.339	130365
618.405	112183
618.470	114754
618.536	114331
618.601	111576
618.667	107414
618.732	102514
618.798	101982
618.863	101422
618.928	102506
618.994	102104
619.059	102968
619.124	102048
619.190	100841
619.255	102009
619.320	102019
619.386	102559
619.451	101597
619.516	99481
619.581	101166
619.647	104943
619.712	103961
619.777	101764
619.842	100958
619.907	102648
619.972	103700
620.038	103488
620.103	102506
620.168	102150
620.233	104792
620.298	103531
620.363	105338
620.428	105433
620.493	109952
620.558	109621
620.623	111783
620.688	111104
620.753	110409
620.818	110775
620.883	111998
620.948	111191
621.013	110959
621.078	111341
621.143	109694
621.207	113413
621.272	112185
621.337	108828
621.402	108964
621.467	108793
621.532	108858
621.596	109007
621.661	106604
621.726	105538
621.791	105244
621.855	107760
621.920	106469
621.985	106706
622.049	110882
622.114	109005
622.179	110118
622.243	112837
622.308	113376
622.373	115889
622.437	115194
622.502	110406
622.566	109469
622.631	109317
622.695	112368
622.760	110499
622.824	110543
622.889	109069
622.953	109732
623.018	115872
623.082	114347
623.147	114465
623.211	113203
623.276	112997
623.340	109065
623.404	107917
623.469	108744
623.533	107507
623.597	106030
623.662	105742
623.726	100897
623.790	96864
623.854	94789
623.919	95777
623.983	97504
624.047	97218
624.111	98802
624.176	97841
624.240	99800
624.304	101782
624.368	97661
624.432	98532
624.496	98644
624.560	103458
624.625	103333
624.689	102397
624.753	106070
624.817	101483
624.881	99911
624.945	93313
625.009	91607
625.073	92233
625.137	92356
625.201	96085
625.265	96073
625.329	92637
625.393	91812
625.456	92834
625.520	94809
625.584	95534
625.648	97852
625.712	99679
625.776	102846
625.839	100525
625.903	83820
625.967	77158
626.031	83285
626.095	94366
626.158	86256
626.222	71901
626.286	69352
626.349	66500
626.413	63028
626.477	63365
626.540	61799
626.604	60833
626.668	61132
626.731	60150
626.795	58779
626.858	58210
626.922	56418
626.986	57345
627.049	55918
627.113	59325
627.176	57646
627.240	55454
627.303	54739
627.366	54003
627.430	55014
627.493	53959
627.557	51550
627.620	54663
627.684	54170
627.747	55273
627.810	49669
627.874	46578
627.937	44969
628.000	48420
628.064	46559
628.127	40232
628.190	41788
628.253	40329
628.317	38926
628.380	37853
628.443	37158
628.506	35878
628.569	34777
628.632	33445
628.696	33454
628.759	33718
628.822	31482
628.885	30247
628.948	30669
629.011	30914
629.074	29815
629.137	27014
629.200	27690
629.263	28211
629.326	26604
629.389	27716
629.452	26495
629.515	25410
629.578	25564
629.641	25501
629.704	25790
629.767	25972
629.830	25059
629.892	24351
629.955	23782
630.018	24926
630.081	23166
630.144	23314
630.207	22887
630.269	24488
630.332	23211
630.395	22383
630.458	22388
630.520	21212
630.583	22490
630.646	22013
630.708	22094
630.771	21621
630.834	22738
630.896	21689
630.959	22540
631.021	21237
631.084	20558
631.146	21029
631.209	21388
631.272	21446
631.334	21430
631.397	20120
631.459	20523
631.522	22299
631.584	22239
631.646	23741
631.709	23425
631.771	23265
631.834	23286
631.896	22662
631.958	19861
632.021	20930
632.083	20318
632.145	20230
632.208	19073
632.270	20104
632.332	18875
632.395	18188
632.457	19945
632.519	18900
632.581	20823
632.643	17907
632.706	19055
632.768	18861
632.830	19073
632.892	19828
632.954	18995
633.016	20927
633.078	19136
633.141	19777
633.203	18579
633.265	18614
633.327	19116
633.389	18933
633.451	19570
633.513	18034
633.575	19865
633.637	18419
633.698	19143
633.760	20448
633.822	20929
633.884	20878
633.946	21853
634.008	21357
634.070	22155
634.132	21713
634.193	23266
634.255	24130
634.317	24710
634.379	24333
634.441	21892
634.502	20895
634.564	20126
634.626	18545
634.687	18997
634.749	18479
634.811	19018
634.873	17611
634.934	18886
634.996	18208
635.057	18037
635.119	17914
635.181	18626
635.242	18878
635.304	17149
635.365	20549
635.427	18283
635.488	18503
635.550	17341
635.611	17840
635.673	17031
635.734	20222
635.796	20054
635.857	21944
635.918	21389
635.980	23890
636.041	23690
636.102	24884
636.164	24687
636.225	25241
636.286	21233
636.348	20955
636.409	18728
636.470	18177
636.531	18566
636.593	17742
636.654	18853
636.715	17720
636.776	17465
636.838	16585
636.899	17980
636.960	16516
637.021	17316
637.082	16914
637.143	16416
637.204	15586
637.265	16401
637.326	16509
637.387	17906
637.448	15756
637.509	16495
637.570	16416
637.631	17309
637.692	15107
637.753	13961
637.814	15519
637.875	15875
637.936	15711
637.997	16268
638.058	15835
638.119	16223
638.179	16199
638.240	15752
638.301	15324
638.362	14803
638.423	16079
638.483	16918
638.544	13803
638.605	15435
638.666	14636
638.726	16162
638.787	16234
638.848	14650
638.908	14505
638.969	15053
639.030	15345
639.090	14025
639.151	14049
639.211	14922
639.272	15395
639.332	15925
639.393	14789
639.453	14496
639.514	15114
639.574	14355
639.635	14100
639.695	15016
639.756	12614
639.816	13456
639.877	13161
639.937	15614
639.997	15023
640.058	12699
640.118	13196
640.178	14706
640.239	12974
640.299	14169
640.359	13714
640.420	15316
640.480	15447
640.540	16101
640.600	16627
640.661	15986
640.721	15240
640.781	18483
640.841	15292
640.901	15040
640.961	14553
641.021	15058
641.082	14332
641.142	14432
641.202	13922
641.262	11960
641.322	13730
641.382	12880
641.442	14061
641.502	13311
641.562	13914
641.622	13625
641.682	13473
641.742	14296
641.802	15075
641.861	13853
641.921	12696
641.981	13051
642.041	12260
642.101	12514
642.161	11381
642.221	12374
642.280	13195
642.340	12160
642.400	12011
642.460	14083
642.519	12167
642.579	13634
642.639	13849
642.698	11132
642.758	15176
642.818	13693
642.877	12615
642.937	13084
642.997	12883
643.056	12850
643.116	11987
643.175	14388
643.235	13363
643.294	12730
643.354	13830
643.414	15002
643.473	15937
643.532	18380
643.592	21038
643.651	30951
643.711	48670
643.770	86826
643.830	192506
643.889	364147
643.948	110215
644.008	29679
644.067	19183
644.126	14592
644.186	14092
644.245	13952
644.304	10927
644.363	14891
644.423	10882
644.482	12879
644.541	13802
644.600	11645
644.659	15193
644.719	16889
644.778	24404
644.837	35126
644.896	69499
644.955	149232
645.014	54007
645.073	17714
645.132	14182
645.191	13623
645.250	12596
645.309	15637
645.368	14711
645.427	17815
645.486	25224
645.545	41907
645.604	16572
645.663	12241
645.722	11593
645.781	13222
645.840	13192
645.898	15761
645.957	20497
646.016	26465
646.075	45686
646.134	82813
646.192	202565
646.251	286002
646.310	58404
646.369	21813
646.427	18589
646.486	14012
646.545	13297
646.603	12543
646.662	11443
646.721	11113
646.779	10360
646.838	10784
646.896	13412
646.955	15589
647.014	23523
647.072	39966
647.131	102428
647.189	51354
647.248	12942
647.306	10969
647.365	10590
647.423	7712
647.481	9611
647.540	7780
647.598	9006
647.657	8764
647.715	8702
647.773	7498
647.832	9807
647.890	7696
647.948	7656
648.007	8260
648.065	6652
648.123	6905
648.181	8788
648.240	8625
648.298	6284
648.356	7182
648.414	7982
648.472	7823
648.531	6717
648.589	6517
648.647	6169
648.705	7160
648.763	7737
648.821	6564
648.879	7265
648.937	7399
648.995	8575
649.053	9388
649.111	13140
649.169	21680
649.227	36775
649.285	73949
649.343	197131
649.401	97131
649.459	17769
649.516	11451
649.574	7872
649.632	11494
649.690	11084
649.748	12107
649.806	15724
649.863	28643
649.921	72993
649.979	49863
650.037	9807
650.094	6037
650.152	5514
650.210	5570
650.268	5780
650.325	5675
650.383	7118
650.440	4265
650.498	5410
650.556	5385
650.613	4602
650.671	5776
650.728	5101
650.786	4526
650.843	6462
650.901	3385
650.958	4142
651.016	4263
651.073	3995
651.131	3191
651.188	2883
651.246	4409
651.303	2175
651.360	4378
651.418	3918
651.475	3759
651.532	2698
651.590	4123
651.647	2659
651.704	2711
651.762	3140
651.819	3753
651.876	3314
651.933	2870
651.990	4055
652.048	1750
652.105	2819
652.162	3528
652.219	2447
652.276	3621
652.333	2997
652.390	2159
652.448	3061
652.505	2636
652.562	2825
652.619	3337
652.676	3828
652.733	4676
652.790	3247
652.847	1867
652.904	3333
652.961	1561
653.017	2072
653.074	4098
653.131	2470
653.188	1642
653.245	2221
653.302	2262
653.359	2720
653.415	3127
653.472	2216
653.529	3714
653.586	1202
653.642	1624
653.699	2937
653.756	1821
653.813	1993
653.869	3426
653.926	1833
653.983	1137
654.039	2965
654.096	2041
654.152	4310
654.209	1206
654.266	2528
654.322	1267
654.379	1832
654.435	3066
654.492	2406
654.548	2356
654.605	1761
654.661	3542
654.717	2529
654.774	2028
654.830	1966
654.887	1930
654.943	2388
655.000	3837
655.056	2390
655.112	1887
655.168	1621
655.225	1594
655.281	2012
655.337	2944
655.394	1874
655.450	2717
655.506	2290
655.562	2461
655.618	3649
655.675	1424
655.731	2514
655.787	1228
655.843	2230
655.899	1330
655.955	1802
656.011	2619
656.067	1083
656.123	2329
656.179	1363
656.235	2985
656.291	607
656.347	2693
656.403	1491
656.459	1262
656.515	1998
656.571	1399
656.627	2423
656.683	2063
656.739	2243
656.795	2133
656.850	1859
656.906	1752
656.962	2160
657.018	1563
657.074	2513
657.129	3754
657.185	5853
657.241	13391
657.297	6632
657.352	2405
657.408	1161
657.464	2544
657.519	1349
657.575	2426
657.630	1811
657.686	1837
657.742	1022
657.797	1400
657.853	1262
657.908	2733
657.964	1153
658.019	2754
658.075	2165
658.130	2497
658.186	872
658.241	2022
658.297	692
658.352	1430
658.407	2165
658.463	2232
658.518	1637
658.573	2674
658.629	1391
658.684	1660
658.739	2321
658.795	671
658.850	1630
658.905	790
658.960	1135
659.016	613
659.071	1388
659.126	1231
659.181	1220
659.236	2912
659.291	2667
659.346	1372
659.401	1653
659.457	2085
659.512	928
659.567	2742
659.622	1446
659.677	1732
659.732	900
659.787	1649
659.842	466
659.897	1871
659.952	1922
660.007	2512
660.061	1499
660.116	1089
660.171	831
660.226	1673
660.281	2281
660.336	922
660.391	2164
660.445	644
660.500	849
660.555	1982
660.610	982
660.664	1474
660.719	939
660.774	1423
660.828	1506
660.883	2114
660.938	2037
660.992	589
661.047	1967
661.101	1009
661.156	650
661.211	990
661.265	1579
661.320	903
661.374	1400
661.429	1088
661.483	2093
661.538	575
661.592	1110
661.647	1301
661.701	2054
661.755	1698
661.810	1465
661.864	263
661.919	748
661.973	1951
662.027	1633
662.081	675
662.136	827
662.190	1627
662.244	1342
662.299	1576
662.353	1396
662.407	1523
662.461	977
662.515	1813
662.569	1071
662.624	1399
662.678	559
662.732	431
662.786	1275
662.840	606
662.894	1058
662.948	1154
663.002	1103
663.056	1413
663.110	-103
663.164	1888
663.218	1629
663.272	2005
663.326	1453
663.380	890
663.434	1106
663.488	495
663.542	840
663.595	1427
663.649	606
663.703	1547
663.757	967
663.811	468
663.864	495
663.918	764
663.972	661
664.026	1425
664.079	624
664.133	1377
664.187	1502
664.240	1253
664.294	942
664.348	1523
664.401	1427
664.455	572
664.508	774
664.562	1315
664.615	1600
664.669	916
664.722	-45
664.776	199
664.829	1042
664.883	289
664.936	913
664.990	148
665.043	1729
665.097	-23
665.150	2266
665.203	866
665.257	981
665.310	1274
665.363	968
665.417	697
665.470	1174
665.523	1207
665.576	1293
665.630	1220
665.683	1400
665.736	1492
665.789	1053
665.842	356
665.895	833
665.949	1351
666.002	1149
666.055	1226
666.108	1951
666.161	584
666.214	1181
666.267	1548
666.320	1711
666.373	885
666.426	1333
666.479	1442
666.532	1107
666.585	816
666.638	1747
666.691	1209
666.744	1683
666.796	786
666.849	418
666.902	1259
666.955	1278
667.008	1266
667.060	418
667.113	1282
667.166	1412
667.219	1751
667.271	1175
667.324	1527
667.377	876
667.430	1499
667.482	842
667.535	874
667.587	968
667.640	1477
667.693	1213
667.745	831
667.798	1890
667.850	1036
667.903	532
667.955	653
668.008	1218
668.060	1502
668.113	601
668.165	1728
668.218	1416
668.270	148
668.322	571
668.375	403
668.427	1298
668.479	1105
668.532	1352
668.584	1532
668.636	1164
668.689	990
668.741	918
668.793	819
668.845	442
668.898	1535
668.950	1332
669.002	509
669.054	606
669.106	875
669.158	781
669.211	86
669.263	981
669.315	882
669.367	1221
669.419	705
669.471	1026
669.523	1151
669.575	589
669.627	1108
669.679	264
669.731	874
669.783	1008
669.835	1170
669.886	741
669.938	1561
669.990	515
670.042	15
670.094	1334
670.146	497
670.197	880
670.249	2329
670.301	1587
670.353	2468
670.404	3521
670.456	4337
670.508	6512
670.560	11246
670.611	18595
670.663	33104
670.715	79937
670.766	123704
670.818	35802
670.869	6927
670.921	3457
670.972	3164
671.024	1662
671.075	1699
671.127	2002
671.178	1252
671.230	1374
671.281	2096
671.333	1030
671.384	1053
671.436	2413
671.487	4648
671.538	5409
671.590	9302
671.641	14937
671.692	27155
671.744	52087
671.795	35298
671.846	11772
671.897	4837
671.949	3413
672.000	3202
672.051	1936
672.102	1982
672.153	1288
672.204	340
672.256	601
672.307	746
672.358	1218
672.409	370
672.460	1043
672.511	-45
672.562	-690
672.613	306
672.664	371
672.715	749
672.766	-74
672.817	-174
672.868	386
672.919	661
672.970	94
673.021	428
673.071	72
673.122	32
673.173	-110
673.224	-165
673.275	-263
673.326	216
673.376	460
673.427	234
673.478	-339
673.528	781
673.579	566
673.630	253
673.680	759
673.731	61
673.782	-19
673.832	539
673.883	343
673.934	361
673.984	-220
674.035	71
674.085	-609
674.136	44
674.186	-148
674.237	-296
674.287	269
674.338	583
674.388	-68
674.438	878
674.489	264
674.539	-97
674.589	198
674.640	343
674.690	253
674.740	-172
674.791	1163
674.841	829
674.891	-25
674.942	198
674.992	93
675.042	-30
675.092	-110
675.142	-296
675.193	-807
675.243	240
675.293	478
675.343	-13
675.393	-154
675.443	531
675.493	3
675.543	-201
675.593	-170
675.643	-153
675.693	187
675.743	51
675.793	-9
675.843	-450
675.893	647
675.943	652
675.993	112
676.043	253
676.093	-237
676.142	21
676.192	-291
676.242	-35
676.292	192
676.341	-1106
676.391	9
676.441	-28
676.491	-687
676.540	-697
676.590	-279
676.640	-439
676.689	-1182
676.739	-210
676.789	-479
676.838	145
676.888	-35
676.937	-139
676.987	-399
677.037	-403
677.086	-965
677.136	-220
677.185	142
677.235	-915
677.284	-101
677.333	-580
677.383	-690
677.432	-931
677.482	-107
677.531	-604
677.580	-860
677.630	-626
677.679	-126
677.728	-596
677.778	262
677.827	-467
677.876	-609
677.925	-487
677.975	-56
678.024	-128
678.073	-601
678.122	-554
678.171	-681
678.220	427
678.269	-194
678.319	198
678.368	-226
678.417	266
678.466	-520
678.515	92
678.564	-384
678.613	-388
678.662	-192
678.711	557
678.760	-535
678.809	-616
678.857	-227
678.906	-673
678.955	-414
679.004	-61
679.053	-1070
679.102	221
679.151	-973
679.199	-526
679.248	-822
679.297	-574
679.346	-923
679.394	-217
679.443	-662
679.492	-752
679.540	-1095
679.589	-412
679.638	-183
679.686	-252
679.735	-141
679.784	-833
679.832	464
679.881	-576
679.929	-1083
679.978	-1086
680.026	-671
680.075	-626
680.123	-670
680.172	-157
680.220	-763
680.268	-1002
680.317	-700
680.365	-469
680.414	-1350
680.462	-59
680.510	-599
680.559	-201
680.607	-973
680.655	-868
680.703	-1162
680.752	-659
680.800	-760
680.848	-484
680.896	-313
680.945	-1039
680.993	-891
681.041	-654
681.089	-594
681.137	-333
681.185	-981
681.233	-1680
681.258	-1050
681.281	-501
681.329	-1122
681.377	-819
681.380	-729
681.425	91
681.473	294
681.502	589
681.521	715
681.569	46
681.617	-189
681.624	-82
681.665	250
681.713	151
681.745	157
681.761	97
681.809	516
681.857	738
681.867	711
681.904	436
681.952	1066
681.989	1153
682.000	1117
682.048	384
682.096	451
682.111	459
682.143	369
682.191	1004
682.233	1345
682.239	1345
682.286	2022
682.334	1749
682.354	1566
682.382	1227
682.430	1725
682.476	1972
682.477	1937
682.525	1686
682.572	944
682.598	1125
682.620	1237
682.667	1994
682.715	2424
682.720	2484
682.763	2638
682.810	1860
682.841	2070
682.857	2107
682.905	2109
682.952	3223
682.963	2983
683.000	2010
683.047	2755
683.085	3088
683.095	3143
683.142	2622
683.190	4195
683.206	3739
683.237	2738
683.284	3133
683.328	3674
683.332	3684
683.379	3008
683.426	3697
683.449	3390
683.473	3089
683.521	3353
683.568	4225
683.571	4238
683.615	3877
683.662	4489
683.693	3988
683.709	3665
683.757	4035
683.804	4387
683.814	4305
683.851	3850
683.898	4321
683.936	4600
683.945	4665
683.992	4598
684.039	4600
684.057	4664
684.086	4639
684.133	4499
684.179	5004
684.180	4993
684.227	5332
684.274	5336
684.300	5323
684.321	5263
684.368	5250
684.415	5731
684.422	5690
684.462	5434
684.509	5647
684.543	6006
684.556	6080
684.603	5601
684.649	5904
684.665	5935
684.696	5904
684.743	5765
684.786	6188
684.790	6192
684.837	6517
684.883	5951
684.908	6289
684.930	6652
684.977	6474
685.023	6366
685.029	6398
685.070	6435
685.117	6479
685.150	6470
685.164	6441
685.210	7358
685.257	7286
685.272	7416
685.303	7678
685.350	7661
685.393	7378
685.396	7318
685.443	7859
685.490	7200
685.514	7110
685.536	7122
685.583	7121
685.629	7150
685.636	7187
685.675	7342
685.722	7818
685.757	7763
685.768	7684
685.815	7792
685.861	8337
685.878	8173
685.908	7936
685.954	7917
686.000	8489
686.000	8489
686.047	8734
686.093	8613
686.121	9125
686.139	9455
686.185	8862
686.232	8978
686.242	9058
686.278	9151
686.324	9356
686.363	8631
686.370	8494
686.416	9075
686.463	9428
686.484	9107
686.509	8814
686.555	8612
686.601	9039
686.606	9100
686.647	9490
686.693	9098
686.727	9326
686.739	9428
686.785	9664
686.831	9643
686.848	9551
686.877	9417
686.923	10006
686.969	10061
686.969	10060
687.015	10663
687.061	10527
687.090	10651
687.107	10590
687.153	10660
687.199	10788
687.211	10726
687.245	10567
687.291	10375
687.332	10558
687.336	10606
687.382	10297
687.428	10978
687.453	11254
687.474	11358
687.520	11343
687.565	11381
687.574	11321
687.611	11548
687.657	11956
687.695	12730
687.702	12958
687.748	13847
687.794	15886
687.816	16190
687.839	15352
687.885	13930
687.931	12614
687.937	12482
687.976	12621
688.022	11930
688.058	11904
688.067	11926
688.113	12188
688.158	11835
688.179	11806
688.204	11935
688.249	12392
688.295	12396
688.300	12351
688.340	11925
688.386	12479
688.421	12424
688.431	12424
688.477	11934
688.522	12327
688.542	12375
688.567	12722
688.613	13213
688.658	13549
688.663	13597
688.703	13510
688.749	12883
688.784	13240
688.794	13399
688.839	12939
688.884	13353
688.905	13218
688.930	13073
688.975	13519
689.020	13321
689.026	13338
689.065	13833
689.110	13621
689.146	14483
689.155	14657
689.201	13984
689.246	14701
689.267	14443
689.291	14121
689.336	14329
689.381	13846
689.388	13825
689.426	13908
689.471	14013
689.509	13854
689.516	13885
689.561	14093
689.606	14190
689.630	14355
689.651	14294
689.696	14087
689.741	13722
689.750	13726
689.785	14344
689.830	14971
689.871	14291
689.875	14187
689.920	14383
689.965	14143
689.992	13925
690.010	14001
690.054	14090
690.099	14513
690.112	14517
690.144	14521
690.189	14831
690.233	14566
690.233	14587
690.278	14730
690.323	14667
690.354	14463
690.367	14554
690.412	15069
690.457	15813
690.474	15942
690.501	16085
690.546	16480
690.590	16420
690.595	16383
690.635	16192
690.680	16633
690.716	16547
690.724	16759
690.769	18027
690.813	19608
690.836	19982
690.857	21408
690.902	24865
690.946	28374
690.957	29159
690.991	37142
691.035	47990
691.077	57916
691.080	57779
691.124	52218
691.168	47096
691.198	43605
691.213	40877
691.257	33451
691.301	24905
691.318	21600
691.346	20833
691.390	19730
691.434	18812
691.439	18641
691.478	18156
691.522	17967
691.559	17875
691.567	18010
691.611	17882
691.655	17832
691.680	18107
691.699	18271
691.743	18016
691.787	18105
691.800	18066
691.831	17924
691.875	17709
691.919	17576
691.921	17537
691.964	17625
692.008	17603
692.041	17443
692.052	17481
692.096	17416
692.139	17745
692.162	17931
692.183	17942
692.227	17141
692.271	16979
692.282	16806
692.315	16844
692.359	17196
692.402	17472
692.403	17508
692.447	17303
692.490	17220
692.523	17151
692.534	17197
692.578	17069
692.622	17011
692.643	16890
692.666	16974
692.709	17437
692.753	17417
692.763	17518
692.797	17939
692.840	18111
692.884	17923
692.884	17960
692.928	18065
692.971	17983
693.004	17941
693.015	18006
693.059	18076
693.102	18296
693.124	18344
693.146	18635
693.189	18797
693.233	19414
693.245	19414
693.276	19590
693.320	20344
693.363	20551
693.365	20514
693.407	21399
693.450	22799
693.485	23371
693.493	23860
693.537	26807
693.580	29344
693.605	30689
693.624	33980
693.667	41965
693.710	49732
693.725	52448
693.753	68209
693.797	92695
693.840	117331
693.845	119993
693.883	108896
693.926	96380
693.966	84729
693.970	83044
694.013	63901
694.056	44734
694.086	31272
694.099	30356
694.142	27373
694.185	24473
694.206	22956
694.229	22825
694.272	22577
694.315	22206
694.326	22115
694.358	21843
694.401	21308
694.444	20710
694.446	20616
694.487	20174
694.530	20305
694.566	20077
694.573	20130
694.616	20103
694.659	19976
694.686	20019
694.702	20069
694.745	19912
694.787	19776
694.806	19710
694.830	19690
694.873	19410
694.916	19190
694.926	19082
694.959	19454
695.002	20113
695.044	20642
695.046	20607
695.087	20752
695.130	20883
695.166	21002
695.172	21087
695.215	21218
695.258	21325
695.286	21441
695.301	21604
695.343	21811
695.386	22070
695.406	22012
695.428	22209
695.471	22927
695.514	23291
695.526	23436
695.556	24528
695.599	25771
695.641	26992
695.646	27061
695.684	26257
695.726	25236
695.766	24381
695.769	24421
695.811	24070
695.854	23450
695.886	23044
695.896	23188
695.938	23526
695.981	23909
696.005	24029
696.023	24556
696.065	25841
696.108	26994
696.125	27385
696.150	27613
696.192	27895
696.235	28343
696.245	28323
696.277	28131
696.319	27884
696.361	27604
696.365	27514
696.404	27867
696.446	28118
696.485	28294
696.488	28379
696.530	28412
696.572	28570
696.604	28545
696.614	28437
696.656	27733
696.698	26913
696.724	26424
696.740	26703
696.783	27055
696.825	27594
696.844	27787
696.867	27972
696.909	27939
696.951	27982
696.964	27962
696.992	28009
697.034	27909
697.076	27699
697.083	27606
697.118	28434
697.160	29271
697.202	30220
697.203	30164
697.244	30194
697.286	30058
697.323	29955
697.327	30049
697.369	30101
697.411	30131
697.442	30096
697.453	30169
697.494	30099
697.536	30072
697.562	29986
697.578	30079
697.620	30014
697.661	30073
697.682	29971
697.703	30490
697.744	31429
697.786	32343
697.801	32587
697.828	32325
697.869	31710
697.911	31127
697.921	30904
697.952	30868
697.994	30664
698.035	30540
698.040	30432
698.077	30771
698.118	31098
698.160	31418
698.160	31332
698.201	31843
698.243	32292
698.279	32557
698.284	32721
698.325	33450
698.367	34152
698.399	34597
698.408	34751
698.449	35023
698.491	35322
698.518	35388
698.532	35507
698.573	35620
698.614	35701
698.638	35654
698.656	35621
698.697	35306
698.738	35010
698.757	34761
698.779	34869
698.820	34905
698.862	34935
698.877	34853
698.903	35178
698.944	35534
698.985	35885
698.996	35885
699.026	35853
699.067	35673
699.116	35359
699.235	34699
699.354	35004
699.474	33066
699.593	32378
699.713	33852
699.832	34012
699.951	33811
700.070	34368
700.190	32660
700.309	31447
700.428	31854
700.547	30806
700.667	31400
700.786	32699
700.905	30401
701.024	30164
701.143	30497
701.262	30517
701.381	32009
701.500	31349
701.619	30588
701.738	29896
701.857	29749
701.976	29127
702.095	29461
702.214	30606
702.333	28950
702.452	29971
702.571	30235
702.690	29633
702.809	30496
702.928	28055
703.047	27416
703.165	28097
703.284	28827
703.403	28092
703.522	27397
703.640	27459
703.759	26026
703.878	26395
703.997	27051
704.115	27143
704.234	26273
704.353	26860
704.471	24170
704.590	25296
704.708	25463
704.827	24216
704.946	24833
705.064	24689
705.183	24467
705.301	25858
705.420	27975
705.538	25131
705.656	24237
705.775	25106
705.893	29756
706.012	30175
706.130	24976
706.249	25713
706.367	23138
706.485	24537
706.604	23496
706.722	25452
706.840	28012
706.958	36398
707.077	29811
707.195	22876
707.313	23265
707.431	22331
707.549	22783
707.668	21581
707.786	22777
707.904	22464
708.022	22958
708.140	21847
708.258	21135
708.376	22822
708.494	21795
708.612	22375
708.730	23992
708.848	22010
708.966	22707
709.084	22398
709.202	22543
709.320	20787
709.438	22215
709.556	21559
709.674	20641
709.791	21649
709.909	21621
710.027	20889
710.145	21317
710.263	20109
710.380	20744
710.498	19892
710.616	20665
710.733	20025
710.851	20235
710.969	19903
711.086	19156
711.204	19805
711.322	19122
711.439	19604
711.557	19480
711.674	19489
711.792	18917
711.909	19511
712.027	19365
712.144	18833
712.262	19256
712.379	19443
712.497	20914
712.614	20059
712.732	18818
712.849	18891
712.966	19791
713.084	20204
713.201	19350
713.318	19246
713.436	20307
713.553	18611
713.670	19835
713.787	19903
713.905	19171
714.022	20235
714.139	20297
714.256	22670
714.373	27067
714.490	39212
714.608	83344
714.725	291285
714.842	296411
714.959	43935
715.076	24421
715.193	21436
715.310	20495
715.427	18642
715.544	18348
715.661	17263
715.778	17307
715.895	18106
716.011	17665
716.128	17314
716.245	17337
716.362	17351
716.479	16734
716.596	16895
716.713	17622
716.829	16298
716.946	16458
717.063	15318
717.180	15486
717.296	16375
717.413	16925
717.530	15480
717.646	14694
717.763	14628
717.880	16282
717.996	14886
718.113	14652
718.229	14811
718.346	15125
718.462	14235
718.579	15486
718.695	14860
718.812	14521
718.928	14769
719.045	15484
719.161	14997
719.277	14641
719.394	14531
719.510	14405
719.626	15553
719.743	17018
719.859	21120
719.975	34429
720.092	110077
720.208	238507
720.324	40380
720.440	17138
720.557	15619
720.673	15702
720.789	16270
720.905	19739
721.021	14776
721.137	13097
721.253	14352
721.369	13338
721.486	13642
721.602	13474
721.718	13111
721.834	12712
721.950	12926
722.066	13028
722.181	12731
722.297	12507
722.413	13116
722.529	11862
722.645	12406
722.761	11895
722.877	12476
722.993	12455
723.108	14149
723.224	13068
723.340	12801
723.456	12184
723.571	12207
723.687	11273
723.803	12580
723.918	11748
724.034	11272
724.150	12606
724.265	11506
724.381	13234
724.497	13369
724.612	11909
724.728	11586
724.843	11363
724.959	10961
725.074	13445
725.190	13390
725.305	11381
725.421	11541
725.536	11647
725.651	11389
725.767	11234
725.882	12287
725.997	10965
726.113	11602
726.228	11118
726.343	10787
726.459	10743
726.574	10342
726.689	10656
726.804	10695
726.920	10746
727.035	10384
727.150	9955
727.265	10433
727.380	11230
727.495	10769
727.610	11023
727.725	10382
727.841	11426
727.956	13133
728.071	12399
728.186	9501
728.301	10217
728.416	10095
728.531	11404
728.645	10301
728.760	9903
728.875	10185
728.990	10727
729.105	9841
729.220	10421
729.335	10131
729.449	10984
729.564	9509
729.679	9514
729.794	9800
729.908	10246
730.023	10429
730.138	8924
730.253	10221
730.367	9963
730.482	9543
730.596	10171
730.711	10734
730.826	13762
730.940	15537
731.055	11387
731.169	11141
731.284	10680
731.398	11346
731.513	11656
731.627	12729
731.742	14774
731.856	16749
731.970	15957
732.085	18647
732.199	23921
732.313	34791
732.428	78273
732.542	209426
732.656	129966
732.771	32578
732.885	20976
732.999	19430
733.113	21880
733.227	20424
733.342	19999
733.456	19773
733.570	18823
733.684	17678
733.798	18241
733.912	17328
734.026	17305
734.140	17170
734.254	17758
734.368	17496
734.482	18186
734.596	17756
734.710	16850
734.824	16221
734.938	16176
735.052	15844
735.166	16717
735.280	15768
735.393	15914
735.507	15921
735.621	16440
735.735	16059
735.849	16525
735.962	15324
736.076	15857
736.190	14560
736.303	15620
736.417	16032
736.531	14935
736.644	14990
736.758	13278
736.872	14618
736.985	15106
737.099	13605
737.212	14260
737.326	14004
737.439	15226
737.553	13703
737.666	14776
737.780	13541
737.893	14280
738.007	13507
738.120	15342
738.233	13858
738.347	14230
738.460	13807
738.573	15064
738.687	13240
738.800	14800
738.913	13920
739.026	13531
739.140	13115
739.253	13096
739.366	12856
739.479	13570
739.592	12286
739.705	12660
739.818	13727
739.932	12375
740.045	13030
740.158	13314
740.271	13480
740.384	13127
740.497	11704
740.610	12785
740.723	12677
740.836	12595
740.949	12130
741.062	13138
741.174	12241
741.287	12461
741.400	12485
741.513	11299
741.626	12656
741.739	11908
741.851	11212
741.964	11763
742.077	11753
742.189	10674
742.302	11706
742.415	10573
742.527	11213
742.640	11435
742.753	10152
742.865	11723
742.978	10679
743.090	10895
743.203	10977
743.316	11197
743.428	10224
743.541	12065
743.653	10741
743.766	11173
743.878	11150
743.990	10928
744.103	11686
744.215	10777
744.327	9152
744.440	12113
744.552	11670
744.664	10066
744.777	11072
744.889	10906
745.001	10394
745.113	11225
745.226	10370
745.338	10616
745.450	10993
745.562	11121
745.674	9861
745.786	10320
745.898	10254
746.010	9738
746.122	10961
746.234	10547
746.347	10392
746.459	10411
746.570	9058
746.682	10009
746.794	10537
746.906	9013
747.018	9674
747.130	10476
747.242	9956
747.354	10146
747.466	9805
747.577	9063
747.689	9235
747.801	9848
747.913	8935
748.024	10055
748.136	9776
748.248	9321
748.359	9934
748.471	9967
748.583	8290
748.694	9007
748.806	10713
748.918	9368
749.029	9410
749.141	9573
749.252	9827
749.364	7987
749.475	8476
749.587	8877
749.698	9480
749.809	9740
749.921	8932
750.032	9157
750.144	8502
750.255	8905
750.366	8841
750.478	8878
750.589	8879
750.700	8406
750.811	8898
750.923	8645
751.034	8898
751.145	10239
751.256	8585
751.367	8274
751.479	9058
751.590	7946
751.701	8906
751.812	8105
751.923	8442
752.034	9434
752.145	8048
752.256	8396
752.367	8646
752.478	8747
752.589	9179
752.700	8911
752.811	8239
752.922	8526
753.032	8247
753.143	8955
753.254	8523
753.365	9622
753.476	9331
753.586	8527
753.697	8839
753.808	8016
753.919	8060
754.029	8477
754.140	9249
754.251	9077
754.361	7341
754.472	8496
754.582	8936
754.693	8422
754.804	8797
754.914	7809
755.025	8464
755.135	9291
755.246	9073
755.356	8161
755.466	8569
755.577	8816
755.687	8586
755.798	8687
755.908	8659
756.018	8722
756.129	8782
756.239	9119
756.349	8942
756.460	9486
756.570	9384
756.680	8715
756.790	9553
756.900	10045
757.011	9112
757.121	9039
757.231	9092
757.341	9071
757.451	8665
757.561	8956
757.671	10001
757.781	8711
757.891	10085
758.001	9825
758.111	9324
758.221	9960
758.331	9750
758.441	9574
758.551	9310
758.661	10274
758.771	10437
758.880	9608
758.990	10498
759.100	10655
759.210	10244
759.320	10681
759.429	10622
759.539	11388
759.649	10464
759.758	12009
759.868	11475
759.978	12074
760.087	12307
760.197	12430
760.307	12856
760.416	12112
760.526	11454
760.635	13439
760.745	13106
760.854	13514
760.964	14809
761.073	14768
761.182	14484
761.292	13526
761.401	13987
761.511	13420
761.620	12753
761.729	13009
761.839	14030
761.948	14042
762.057	14570
762.166	14663
762.276	14102
762.385	16208
762.494	15509
762.603	15725
762.712	16587
762.822	16949
762.931	17183
763.040	18215
763.149	17221
763.258	19498
763.367	19989
763.476	21200
763.585	21591
763.694	22913
763.803	23350
763.912	25102
764.021	26400
764.130	28430
764.238	29759
764.347	31591
764.456	32872
764.565	36093
764.674	38787
764.783	42102
764.891	45905
765.000	52077
765.109	57178
765.217	64164
765.326	74965
765.435	86628
765.543	104165
765.652	124087
765.761	152909
765.869	191533
765.978	243622
766.086	308154
766.195	373423
766.303	400367
766.412	329880
766.520	286166
766.629	373208
766.737	368197
766.846	306403
766.954	242180
767.062	191513
767.171	151842
767.279	125033
767.387	102856
767.496	87011
767.604	75367
767.712	65457
767.820	60066
767.928	53776
768.037	51162
768.145	48094
768.253	46116
768.361	44272
768.469	44593
768.577	43943
768.685	46823
768.793	49575
768.901	54447
769.009	61158
769.117	71473
769.225	88794
769.333	116962
769.441	160939
769.549	231571
769.657	325176
769.765	379493
769.873	291408
769.981	327028
770.088	320200
770.196	242727
770.304	176678
770.412	135411
770.519	105787
770.627	85962
770.735	71711
770.842	60917
770.950	53822
771.058	48109
771.165	43917
771.273	40438
771.380	37234
771.488	37006
771.595	34740
771.703	31900
771.810	31269
771.918	28207
772.025	28527
772.133	29076
772.240	26274
772.348	28204
772.455	27054
772.562	24395
772.670	23031
772.777	22949
772.884	21213
772.991	21344
773.099	22227
773.206	20154
773.313	20685
773.420	20382
773.528	18669
773.635	18846
773.742	19572
773.849	18215
773.956	17837
774.063	17456
774.170	16856
774.277	17399
774.384	16188
774.491	16203
774.598	16206
774.705	16301
774.812	16609
774.919	15301
775.026	16100
775.133	15517
775.239	14409
775.346	14843
775.453	14431
775.560	14637
775.667	14528
775.773	14295
775.880	14638
775.987	13325
776.093	14151
776.200	14518
776.307	11856
776.413	12314
776.520	13784
776.627	13086
776.733	11583
776.840	11379
776.946	14286
777.053	12201
777.159	11523
777.266	11775
777.372	11706
777.478	12526
777.585	12427
777.691	11057
777.798	11453
777.904	11132
778.010	10992
778.117	11906
778.223	11278
778.329	11185
778.435	9119
778.542	11306
778.648	10534
778.754	9859
778.860	11203
778.966	11002
779.072	9766
779.178	10975
779.284	9629
779.391	9970
779.497	11379
779.603	12703
779.708	14096
779.815	22033
779.920	63621
780.026	118521
780.132	29250
780.238	12583
780.344	9898
780.450	11773
780.556	9115
780.661	7669
780.767	10514
780.873	8458
780.979	8648
781.085	8950
781.190	8442
781.296	7966
781.402	8618
781.507	8796
781.613	8020
781.719	8640
781.824	9177
781.930	8466
782.035	7389
782.141	9302
782.246	7029
782.352	7911
782.457	8452
782.563	7632
782.668	8364
782.773	7931
782.879	6379
782.984	7953
783.090	8060
783.195	7691
783.300	8686
783.405	6820
783.511	6583
783.616	7604
783.721	7133
783.826	6676
783.932	6717
784.037	6924
784.142	7148
784.247	7110
784.352	7278
784.457	6981
784.562	6968
784.667	7430
784.772	5843
784.877	5969
784.982	6476
785.087	7193
785.192	6248
785.297	6427
785.402	7076
785.507	6202
785.611	6800
785.716	5078
785.821	6105
785.926	6388
786.031	6560
786.135	5951
786.240	6804
786.345	5405
786.450	5837
786.554	6261
786.659	4825
786.763	5431
786.868	6719
786.973	6694
787.077	6107
787.182	5465
787.286	5117
787.391	6856
787.495	4790
787.600	5059
787.704	5196
787.809	6090
787.913	5408
788.017	6252
788.122	6686
788.226	5830
788.330	4287
788.435	4926
788.539	5941
788.643	5465
788.747	4627
788.852	4723
788.956	5235
789.060	5320
789.164	5197
789.268	5253
789.372	4983
789.476	5290
789.580	4150
789.684	4291
789.788	5660
789.892	4858
789.996	3987
790.100	4086
790.204	5250
790.308	5782
790.412	3547
790.516	4310
790.620	4450
790.724	5266
790.828	4536
790.931	3302
791.035	5262
791.139	4448
791.242	4283
791.346	5295
791.450	4255
791.554	4366
791.657	3688
791.761	4569
791.864	5938
791.968	4810
792.072	4615
792.175	3562
792.279	4525
792.382	4866
792.486	4363
792.589	3499
792.693	4936
792.796	2872
792.899	4553
793.003	5543
793.106	2895
793.209	4104
793.313	5073
793.416	2084
793.519	5178
793.623	5133
793.726	5086
793.829	4035
793.932	3430
794.035	2928
794.138	4967
794.242	6120
794.345	4921
794.448	6476
794.551	10896
794.654	37541
794.757	78382
794.860	17896
794.963	5735
795.066	4999
795.169	5319
795.272	3093
795.375	4932
795.477	3029
795.580	4019
795.683	3271
795.786	4543
795.889	3194
795.991	4453
796.094	4453
796.197	3672
796.300	4904
796.402	3795
796.505	2740
796.608	3400
796.710	4233
796.813	4003
796.915	4370
797.018	4529
797.120	3412
797.223	2409
797.326	4751
797.428	3348
797.530	2862
797.633	2526
797.735	4378
797.838	3411
797.940	4941
798.042	3029
798.145	3365
798.247	3877
798.349	2422
798.452	4049
798.554	2899
798.656	3115
798.758	5034
798.860	3723
798.962	3588
799.065	2440
799.167	2308
799.269	4273
799.371	4129
799.473	4384
799.575	3736
799.677	3771
799.779	4809
799.881	1876
799.983	4078
800.085	2880
800.187	2913
800.289	2298
800.390	1974
800.492	4209
800.594	4669
800.696	3097
800.798	2836
800.899	2952
801.001	3077
801.103	3063
801.205	2991
801.306	3365
801.408	2387
801.509	3252
801.611	3019
801.713	3243
801.814	2401
801.916	2697
802.017	3601
802.119	2769
802.220	2871
802.322	1792
802.423	3853
802.525	2065
802.626	3060
802.727	3437
802.829	3701
802.930	772
803.031	2821
803.133	2636
803.234	3608
803.335	3554
803.436	2187
803.538	3083
803.639	1894
803.740	3448
803.841	2094
803.942	3565
804.043	3189
804.144	1217
804.245	2366
804.346	1927
804.447	2126
804.548	2216
804.649	3936
804.750	2029
804.851	1746
804.952	1743
805.053	3166
805.154	1299
805.255	3666
805.355	3022
805.456	1684
805.557	2506
805.658	1491
805.758	3482
805.859	2352
805.960	2620
806.061	2801
806.161	3340
806.262	2437
806.362	1610
806.463	2269
806.564	3779
806.664	2027
806.765	2017
806.865	2671
806.966	2010
807.066	2082
807.166	2806
807.267	2869
807.367	2756
807.468	2539
807.568	1223
807.668	2179
807.769	3169
807.869	2139
807.969	2001
808.069	2166
808.170	1660
808.270	1483
808.370	2617
808.470	2517
808.570	1122
808.670	2069
808.770	2573
808.870	1363
808.970	1923
809.070	2718
809.170	1108
809.271	2859
809.370	1996
809.470	2141
809.570	1835
809.670	1407
809.770	2095
809.870	2471
809.970	2243
810.070	1568
810.169	2573
810.269	673
810.369	3128
810.469	1796
810.568	1658
810.668	1469
810.768	1210
810.867	1634
810.967	1533
811.066	2865
811.166	1341
811.265	3131
811.365	1898
811.464	950
811.564	2361
811.663	1689
811.763	1037
811.862	3439
811.962	2833
812.061	1886
812.160	1709
812.260	2083
812.359	2237
812.458	2856
812.557	3879
812.657	3141
812.756	2838
812.855	2407
812.954	2017
813.053	1654
813.153	2625
813.252	1597
813.351	1974
813.450	2412
813.549	1944
813.648	1833
813.747	2037
813.846	2807
813.945	2462
814.044	2216
814.143	2119
814.242	3325
814.341	2615
814.439	2232
814.538	3030
814.637	2607
814.736	2553
814.835	2732
814.933	2491
815.032	3350
815.131	4611
815.229	6162
815.328	9837
815.427	7064
815.525	6409
815.624	5715
815.722	6062
815.821	7321
815.919	7276
816.018	6313
816.116	6468
816.215	5875
816.313	5973
816.412	7411
816.510	7718
816.609	8451
816.707	8714
816.805	8394
816.904	7132
817.002	8386
817.100	8329
817.198	8399
817.296	7682
817.395	7055
817.493	8622
817.591	7111
817.689	7068
817.787	7724
817.885	7147
817.983	7692
818.081	8398
818.179	9675
818.277	15690
818.375	14991
818.473	8767
818.571	6963
818.669	7342
818.767	7514
818.865	6164
818.963	5744
819.061	6616
819.158	7086
819.256	10354
819.354	12371
819.452	24635
819.549	16258
819.647	10368
819.745	6675
819.842	7430
819.940	7192
820.038	6131
820.135	5676
820.233	7037
820.330	6140
820.428	5183
820.525	7313
820.623	5935
820.720	5831
820.818	6184
820.915	5997
821.012	5528
821.110	4590
821.207	6375
821.304	6066
821.402	6137
821.499	4959
821.596	4672
821.693	5668
821.791	6636
821.888	5416
821.985	6033
822.082	4538
822.179	6137
822.276	5098
822.373	5778
822.470	4523
822.567	5836
822.664	5096
822.761	5440
822.858	5210
822.955	5556
823.052	4624
823.149	5268
823.246	5250
823.343	3939
823.440	4828
823.536	4708
823.633	4676
823.730	4517
823.827	4841
823.923	4966
824.020	5614
824.117	4672
824.213	5114
824.310	4606
824.407	3797
824.503	5147
824.600	5422
824.696	4631
824.793	6568
824.889	4576
824.986	4272
825.082	4209
825.179	3930
825.275	4725
825.371	5340
825.468	5282
825.564	2524
825.660	4769
825.757	5851
825.853	4814
825.949	3201
826.045	4091
826.142	3555
826.238	4528
826.334	5110
826.430	3973
826.526	3637
826.622	2044
826.718	4896
826.814	5577
826.910	4965
827.006	1997
827.102	3193
827.198	4802
827.294	4702
827.390	4728
827.486	4221
827.582	2705
827.678	2795
827.774	5242
827.869	2745
827.965	4153
828.061	3070
828.157	3799
828.252	5383
828.348	2760
828.444	3635
828.539	3181
828.635	3775
828.731	4691
828.826	2979
828.922	3611
829.017	4387
829.113	4964
829.208	2962
829.304	2872
829.399	4961
829.495	3394
829.590	3781
829.685	2920
829.781	4325
829.876	4446
829.971	2750
830.066	2299
830.162	3084
830.257	4603
830.352	3628
830.447	3337
830.543	3038
830.638	2069
830.733	4921
830.828	2435
830.923	4566
831.018	3391
831.113	3716
831.208	1736
831.303	2097
831.398	2498
831.493	2935
831.588	5113
831.683	2713
831.778	2132
831.873	3187
831.967	3942
832.062	2946
832.157	2031
832.252	2992
832.346	2496
832.441	3301
832.536	2356
832.631	3973
832.725	2768
832.820	2956
832.914	2794
833.009	2153
833.104	3045
833.198	2813
833.293	3123
833.387	3964
833.482	2789
833.576	2617
833.670	3299
833.765	2775
833.859	3480
833.954	2848
834.048	3144
834.142	2716
834.237	1581
834.331	2686
834.425	3035
834.519	1954
834.613	2993
834.708	1791
834.802	2362
834.896	3030
834.990	2504
835.084	2683
835.178	1576
835.272	1491
835.366	3209
835.460	4209
835.554	2353
835.648	1912
835.742	1880
835.836	2076
835.930	866
836.024	3021
836.117	3304
836.211	2068
836.305	3128
836.399	2122
836.493	1664
836.586	3809
836.680	2384
836.774	2338
836.867	2727
836.961	1845
837.055	940
837.148	1203
837.242	1763
837.335	2745
837.429	2697
837.522	2511
837.616	1347
837.709	2721
837.803	1676
837.896	2545
837.989	1919
838.083	1643
838.176	1269
838.269	1434
838.363	2746
838.456	1322
838.549	2813
838.642	2001
838.735	1791
838.829	3100
838.922	1655
839.015	2679
839.108	1547
839.201	1988
839.294	2609
839.387	2139
839.480	509
839.573	2014
839.666	1723
839.759	1336
839.852	1192
839.945	2212
840.038	1671
840.131	1501
840.223	1265
840.316	2423
840.409	2192
840.502	2349
840.594	2390
840.687	729
840.780	2434
840.873	917
840.965	1603
841.058	2034
841.150	2358
841.243	1233
841.336	2409
841.428	1516
841.521	1112
841.613	1159
841.706	1825
841.798	1959
841.890	1533
841.983	1485
842.075	2518
842.167	1621
842.260	1530
842.352	2268
842.444	2056
842.537	1346
842.629	2324
842.721	1407
842.813	1828
842.905	-97
842.997	1585
843.090	1614
843.182	1000
843.274	280
843.366	2894
843.458	4486
843.550	4460
843.642	1396
843.734	2504
843.826	959
843.918	1017
844.009	1580
844.101	458
844.193	1436
844.285	1816
844.377	2082
844.469	1818
844.560	530
844.652	933
844.744	1477
844.835	1695
844.927	1841
845.019	2429
845.110	1408
845.202	2384
845.293	1571
845.385	993
845.476	1498
845.568	2195
845.659	1190
845.751	2011
845.842	1365
845.934	1896
846.025	1328
846.116	1006
846.208	1563
846.299	1465
846.390	1370
846.482	1537
846.573	1850
846.664	1022
846.755	1269
846.846	2244
846.937	100
847.029	595
847.120	851
847.211	1284
847.302	1454
847.393	892
847.484	1830
847.575	229
847.666	-87
847.757	394
847.847	952
847.938	2053
848.029	1613
848.120	1422
848.211	717
848.302	380
848.392	1372
848.483	1533
848.574	685
848.664	1631
848.755	1528
848.846	673
848.936	1696
849.027	1035
849.118	949
849.208	1223
849.299	1387
849.389	2938
849.480	3476
849.570	6292
849.661	11147
849.751	19915
849.841	7907
849.932	1497
850.022	1119
850.112	2133
850.203	1290
850.293	328
850.383	634
850.474	355
850.564	1097
850.654	924
850.744	1149
850.834	795
850.924	899
851.014	1906
851.104	1868
851.194	782
851.284	1004
851.374	1218
851.464	1021
851.554	1156
851.644	955
851.734	2564
851.824	1989
851.914	1785
852.004	4644
852.094	3705
852.183	2115
852.273	1214
852.363	1509
852.452	1266
852.542	917
852.632	103
852.721	1392
852.811	703
852.901	1873
852.990	1150
853.080	921
853.169	1614
853.259	1262
853.348	671
853.438	1917
853.527	1631
853.617	1699
853.706	4586
853.795	6899
853.885	14641
853.974	25692
854.063	44447
854.152	66280
854.242	28713
854.331	7950
854.420	2752
854.509	3013
854.598	2435
854.687	2188
854.777	1883
854.866	590
854.955	1887
855.044	1364
855.133	1544
855.222	948
855.311	289
855.400	343
855.488	900
855.577	1126
855.666	2116
855.755	2036
855.844	889
855.933	496
856.021	1991
856.110	1547
856.199	744
856.288	463
856.376	511
856.465	1286
856.554	1792
856.642	1340
856.731	1625
856.819	1407
856.908	456
856.996	709
857.085	691
857.173	655
857.262	876
857.350	603
857.438	569
857.527	1481
857.615	1012
857.703	1228
857.792	732
857.880	286
857.968	800
858.056	946
858.145	795
858.233	750
858.321	361
858.409	1718
858.497	454
858.585	605
858.673	748
858.761	737
858.849	353
858.937	710
859.025	1339
859.113	613
859.201	694
859.289	2114
859.377	1371
859.465	749
859.552	1040
859.640	877
859.728	854
859.816	850
859.903	1681
859.991	896
860.079	444
860.166	1914
860.254	926
860.342	983
860.429	781
860.517	1060
860.604	915
860.692	1199
860.779	481
860.867	562
860.954	1163
861.042	846
861.129	649
861.216	1951
861.304	1013
861.391	419
861.478	1215
861.565	1228
861.653	1734
861.740	654
861.827	643
861.914	486
862.001	323
862.089	541
862.176	1019
862.263	715
862.350	1054
862.437	620
862.524	789
862.611	810
862.698	1300
862.785	1221
862.871	1815
862.958	1133
863.045	1354
863.132	1270
863.219	492
863.306	848
863.392	1891
863.479	841
863.566	1082
863.652	351
863.739	622
863.826	1820
863.912	1408
863.999	988
864.086	722
864.172	1276
864.259	1392
864.345	1879
864.432	1783
864.518	1262
864.604	1593
864.691	972
864.777	1368
864.863	1609
864.950	2950
865.036	3981
865.122	8826
865.209	8258
865.295	7994
865.381	6433
865.467	6599
865.553	6468
865.639	7880
865.726	8482
865.812	11580
865.898	19126
865.984	24551
866.070	40762
866.156	44967
866.242	18109
866.328	9392
866.414	6530
866.499	6819
866.585	6329
866.671	6279
866.757	7118
866.843	5731
866.928	5765
867.014	6104
867.100	5700
867.186	5130
867.271	5679
867.357	5910
867.442	5180
867.528	4990
867.614	4551
867.699	4155
867.785	5424
867.870	5278
867.956	5102
868.041	5740
868.127	5084
868.212	4679
868.297	5979
868.383	5279
868.468	5097
868.553	5414
868.639	5151
868.724	5641
868.809	5270
868.894	4585
868.979	5095
869.065	4618
869.150	3901
869.235	5099
869.320	4734
869.405	4096
869.490	4459
869.575	4826
869.660	3854
869.745	4768
869.830	4827
869.915	4589
870.000	4194
870.085	4176
870.169	5929
870.254	5496
870.339	3804
870.424	3322
870.509	4780
870.593	4957
870.678	5224
870.763	3677
870.847	3928
870.932	4251
871.016	5182
871.101	2641
871.186	3618
871.270	5388
871.355	3502
871.439	3435
871.523	5130
871.608	3780
871.692	3343
871.777	5202
871.861	5024
871.945	3696
872.030	4828
872.114	3749
872.198	4268
872.282	3528
872.367	3928
872.451	3172
872.535	3426
872.619	4670
872.703	3371
872.787	3640
872.871	4315
872.955	3174
873.039	2623
873.123	3337
873.207	5097
873.291	1798
873.375	3092
873.459	4341
873.543	3340
873.627	3647
873.711	2798
873.794	3958
873.878	2806
873.962	3166
874.045	2592
874.129	2929
874.137	2930
874.213	2943
874.245	3205
874.296	3635
874.352	3043
874.380	2752
874.460	2669
874.464	2666
874.547	2941
874.568	2875
874.631	2694
874.676	2584
874.714	2486
874.784	3608
874.798	3834
874.881	4375
874.892	4109
874.965	2279
874.999	2556
875.048	2902
875.107	2650
875.131	2561
875.215	1518
875.215	1519
875.298	2199
875.323	2544
875.381	3462
875.430	3743
875.465	3922
875.538	3774
875.548	3742
875.631	1867
875.646	1957
875.714	2461
875.753	2409
875.798	2398
875.861	2793
875.881	2873
875.964	3398
875.968	3324
876.047	2100
876.076	2305
876.130	2712
876.183	2749
876.213	2736
876.291	3532
876.296	3591
876.379	2361
876.398	2245
876.462	1805
876.506	1933
876.545	2059
876.613	2180
876.628	2218
876.711	2537
876.721	2550
876.794	2611
876.828	2645
876.877	2642
876.935	2469
876.960	2439
877.043	2410
877.043	2410
877.125	2461
877.150	2784
877.208	3313
877.258	2801
877.291	2532
877.365	2264
877.374	2229
877.456	1840
877.472	1807
877.539	1607
877.579	2050
877.622	2565
877.687	2379
877.704	2306
877.787	2002
877.794	1979
877.869	1797
877.901	2041
877.952	2441
878.008	2132
878.034	1941
878.115	1353
878.117	1343
878.199	1434
878.222	1665
878.282	2280
878.329	2373
878.364	2464
878.437	2207
878.447	2178
878.529	1910
878.544	1972
878.611	1950
878.651	1799
878.694	1848
878.758	1847
878.776	1728
878.858	2251
878.865	2168
878.941	1550
878.972	1384
879.023	1069
879.078	1291
879.105	1456
879.185	2017
879.187	2022
879.269	1580
879.292	1520
879.351	1491
879.399	1252
879.433	1127
879.506	1548
879.516	1549
879.598	1836
879.613	1773
879.680	1716
879.720	1651
879.762	1638
879.827	1561
879.844	1480
879.926	1264
879.933	1267
880.007	1720
880.040	1666
880.089	1366
880.147	1714
880.171	1996
880.253	2140
880.254	2143
880.335	1868
880.360	1814
880.417	2054
880.467	2416
880.499	2614
880.574	2692
880.580	2687
880.662	1712
880.680	1629
880.744	1325
880.787	1268
880.825	1157
880.893	1152
880.907	1201
880.989	1324
881.000	1383
881.070	1782
881.106	1825
881.152	1522
881.213	904
881.233	801
881.315	1203
881.319	1200
881.396	1556
881.426	1481
881.478	1107
881.532	1345
881.559	1504
881.639	1707
881.641	1701
881.722	1188
881.745	1061
881.803	1180
881.852	1356
881.885	1236
881.958	1356
881.966	1397
882.047	1154
882.064	1148
882.129	1218
882.171	1247
882.210	1160
882.277	1177
882.291	1250
882.372	1800
882.383	1840
882.454	1720
882.489	1656
882.535	1628
882.596	1391
882.616	1317
882.697	1329
882.702	1317
882.778	1413
882.808	1412
882.859	1086
882.914	1072
882.940	1092
883.020	1220
883.021	1221
883.102	1233
883.127	1336
883.183	1626
883.233	1488
883.264	1398
883.339	1408
883.345	1385
883.426	1158
883.445	1269
883.507	1613
883.551	1301
883.587	1129
883.657	1291
883.668	1331
883.749	1610
883.763	1568
883.830	1107
883.869	1111
883.910	1167
883.975	1092
883.991	1120
884.072	1143
884.081	1156
884.152	1282
884.187	1462
884.233	1376
884.292	925
884.314	820
884.394	443
884.398	438
884.475	589
884.504	645
884.555	808
884.610	751
884.636	734
884.716	1516
884.716	1519
884.797	1749
884.821	1643
884.877	1220
884.927	1072
884.958	1142
885.033	908
885.038	847
885.118	320
885.139	110
885.199	51
885.244	327
885.279	691
885.350	1150
885.359	1179
885.439	1454
885.456	1442
885.520	955
885.561	722
885.600	568
885.667	601
885.680	662
885.760	824
885.773	843
885.840	776
885.878	708
885.920	795
885.984	957
886.000	991
886.080	1465
886.089	1504
886.160	1193
886.195	907
886.240	813
886.300	908
886.320	1088
886.400	1565
886.406	1614
886.480	1127
886.511	846
886.560	906
886.616	884
886.640	716
886.720	421
886.722	415
886.800	332
886.827	246
886.879	196
886.932	296
886.959	685
887.038	1640
887.039	1630
887.119	856
887.143	610
887.198	736
887.248	904
887.278	955
887.354	910
887.358	901
887.437	910
887.459	886
887.517	805
887.564	793
887.596	875
887.669	985
887.676	953
887.755	625
887.774	528
887.835	806
887.880	1146
887.914	1236
887.985	1183
887.994	1107
888.073	610
888.090	496
888.153	768
888.195	922
888.232	914
888.300	940
888.311	958
888.391	1133
888.405	1145
888.470	390
888.510	-12
888.549	515
888.615	1422
888.628	1402
888.708	1243
888.720	1219
888.787	1146
888.825	1086
888.866	988
888.930	892
888.945	923
889.024	1096
889.035	1115
889.103	819
889.140	673
889.182	445
889.245	171
889.261	279
889.340	746
889.349	809
889.419	681
889.454	609
889.498	796
889.559	1072
889.577	1084
889.656	1155
889.664	1165
889.735	1051
889.768	999
889.814	1238
889.873	1553
889.978	297
890.083	-39
890.187	1426
890.292	816
890.397	-94
890.501	1412
890.606	1626
890.710	1068
890.815	1480
890.919	635
891.024	446
891.128	707
891.233	586
891.337	1047
891.442	1389
891.546	517
891.650	877
891.755	712
891.859	1885
891.963	588
892.068	1298
892.172	642
892.276	219
892.380	1113
892.484	480
892.589	1504
892.693	1196
892.797	1075
892.901	585
893.005	479
893.109	939
893.213	664
893.317	1209
893.421	248
893.525	452
893.629	334
893.733	219
893.837	1160
893.941	483
894.045	666
894.148	529
894.252	1534
894.356	1729
894.460	1390
894.564	452
894.667	752
894.771	455
894.875	564
894.978	582
895.082	820
895.186	850
895.289	788
895.393	731
895.496	708
895.600	549
895.703	252
895.807	553
895.910	264
896.014	574
896.117	355
896.221	1780
896.324	1232
896.427	-100
896.531	548
896.634	962
896.737	682
896.840	517
896.944	1056
897.047	1470
897.150	331
897.253	341
897.356	30
897.460	305
897.563	65
897.666	306
897.769	631
897.872	214
897.975	626
898.078	952
898.181	528
898.284	367
898.387	-127
898.490	579
898.593	901
898.695	916
898.798	-255
898.901	953
899.004	503
899.107	288
899.209	657
899.312	-15
899.415	133
899.518	682
899.620	-605
899.723	571
899.826	659
899.928	441
900.031	1063
900.133	158
900.236	323
900.338	-46
900.441	-125
900.543	-82
900.646	-18
900.748	-176
900.851	1051
900.953	1740
901.055	811
901.158	191
901.260	122
901.362	806
901.465	171
901.567	273
901.669	1060
901.771	1276
901.873	503
901.976	139
902.078	330
902.180	-319
902.282	-561
902.384	-282
902.486	327
902.588	694
902.690	-218
902.792	1028
902.894	189
902.996	246
903.098	206
903.200	-87
903.302	196
903.404	875
903.505	-337
903.607	1076
903.709	1071
903.811	782
903.913	-623
904.014	246
904.116	-579
904.218	-26
904.319	951
904.421	-543
904.523	519
904.624	273
904.726	-19
904.827	314
904.929	-183
905.030	546
905.132	-126
905.233	335
905.335	611
905.436	33
905.537	575
905.639	-352
905.740	-27
905.841	947
905.943	477
906.044	408
906.145	308
906.247	-390
906.348	486
906.449	730
906.550	680
906.651	41
906.752	70
906.854	213
906.955	379
907.056	164
907.157	283
907.258	700
907.359	7
907.460	-141
907.561	186
907.662	-644
907.762	-309
907.863	-218
907.964	863
908.065	327
908.166	268
908.267	-70
908.367	72
908.468	-124
908.569	-549
908.670	543
908.770	815
908.871	-492
908.971	631
909.072	-666
909.173	287
909.273	669
909.374	769
909.474	-42
909.575	60
909.675	-73
909.776	639
909.876	250
909.977	437
910.077	-159
910.177	510
910.278	123
910.378	-283
910.478	-514
910.579	334
910.679	299
910.779	-934
910.879	-790
910.980	316
911.080	-290
911.180	-221
911.280	-658
911.380	-676
911.480	-413
911.580	-52
911.680	84
911.780	428
911.880	121
911.980	252
912.080	23
912.180	-519
912.280	401
912.380	245
912.480	195
912.580	271
912.679	-381
912.779	728
912.879	429
912.979	-263
913.078	-213
913.178	-452
913.278	-389
913.377	-254
913.477	389
913.577	9
913.676	199
913.776	471
913.875	147
913.975	460
914.074	-1010
914.174	-405
914.273	-1018
914.373	629
914.472	650
914.572	-417
914.671	47
914.770	-337
914.870	-457
914.969	-410
915.068	-179
915.167	181
915.267	-160
915.366	-14
915.465	-121
915.564	812
915.663	22
915.763	-113
915.862	162
915.961	1
916.060	-315
916.159	514
916.258	-210
916.357	-329
916.456	53
916.555	-588
916.654	126
916.752	176
916.851	-425
916.950	256
917.049	-787
917.148	-170
917.247	231
917.345	-137
917.444	-671
917.543	478
917.642	-587
917.740	159
917.839	-387
917.937	515
918.036	805
918.135	200
918.233	-295
918.332	299
918.430	-566
918.529	-733
918.627	-64
918.726	265
918.824	-130
918.923	558
919.021	-414
919.119	-425
919.218	-670
919.316	578
919.414	476
919.512	389
919.611	122
919.709	-626
919.807	-225
919.905	153
920.003	916
920.102	-163
920.200	-7
920.298	-380
920.396	365
920.494	173
920.592	125
920.690	237
920.788	-286
920.886	-642
920.984	362
921.082	-63
921.180	866
921.277	164
921.375	447
921.473	729
921.571	996
921.669	718
921.766	751
921.864	385
921.962	759
922.060	66
922.157	747
922.255	851
922.352	-121
922.450	779
922.548	127
922.645	957
922.743	1314
922.840	2383
922.938	3268
923.035	3672
923.133	2850
923.230	2182
923.327	3989
923.425	2599
923.522	3509
923.619	3772
923.717	3701
923.814	3050
923.911	2267
924.008	3770
924.106	3264
924.203	2286
924.300	2533
924.397	3101
924.494	3102
924.591	2083
924.688	2611
924.786	2007
924.883	3818
924.979	2657
925.077	3516
925.173	2365
925.270	2714
925.367	2159
925.464	3476
925.561	2888
925.658	2464
925.755	2614
925.852	2725
925.948	2946
926.045	3046
926.142	2498
926.239	2185
926.335	1952
926.432	2242
926.529	3014
926.625	2205
926.722	2171
926.818	2515
926.915	2890
927.011	2004
927.108	2397
927.204	2442
927.301	2034
927.397	1802
927.494	2844
927.590	2264
927.687	1647
927.783	3072
927.879	3155
927.976	2390
928.072	2153
928.168	2005
928.264	2482
928.361	1464
928.457	2335
928.553	2593
928.649	2088
928.745	2144
928.841	1920
928.937	1924
929.033	2318
929.129	1654
929.225	2705
929.321	2457
929.417	1937
929.513	1784
929.609	1583
929.705	1275
929.801	2286
929.897	1407
929.993	848
930.089	1938
930.184	1628
930.280	2589
930.376	2989
930.471	1490
930.567	1569
930.663	1464
930.758	1097
930.854	1920
930.950	1670
931.045	1833
931.141	1905
931.236	2045
931.332	1948
931.427	706
931.523	2704
931.618	2012
931.714	673
931.809	1873
931.905	2049
932.000	367
932.095	1386
932.191	1569
932.286	2642
932.381	2114
932.476	1038
932.572	701
932.667	1223
932.762	1636
932.857	1634
932.952	2068
933.047	1205
933.142	2029
933.237	1726
933.332	1370
933.427	2130
933.522	1650
933.617	1260
933.712	1565
933.807	1832
933.902	1862
933.997	2124
934.092	1399
934.187	1416
934.282	2105
934.376	1496
934.471	2115
934.566	1236
934.661	1148
934.755	966
934.850	1981
934.945	1458
935.039	1004
935.134	2126
935.228	1002
935.323	3135
935.417	1280
935.512	730
935.606	863
935.701	1531
935.795	1388
935.890	2073
935.984	1549
936.079	610
936.173	670
936.267	1607
936.362	1608
936.456	1898
936.550	1640
936.644	1840
936.738	1415
936.833	900
936.927	974
937.021	1467
937.115	1209
937.209	1032
937.303	2101
937.397	728
937.491	1835
937.585	1625
937.679	1567
937.773	1076
937.867	857
937.961	373
938.055	1823
938.149	1133
938.243	456
938.337	463
938.430	1273
938.524	1061
938.618	926
938.712	1145
938.805	1088
938.899	993
938.993	1521
939.086	923
939.180	-56
939.274	219
939.367	803
939.461	1394
939.554	450
939.648	841
939.741	218
939.835	640
939.928	1741
940.022	1869
940.115	864
940.208	1127
940.302	876
940.395	2335
940.488	1391
940.582	1522
940.675	444
940.768	481
940.861	1108
940.954	1824
941.048	-29
941.141	514
941.234	702
941.327	1037
941.420	1689
941.513	1109
941.606	854
941.699	491
941.792	1005
941.885	795
941.978	679
942.071	638
942.164	-175
942.257	255
942.349	58
942.442	1646
942.535	373
942.628	937
942.721	1098
942.813	249
942.906	929
942.999	899
943.091	325
943.184	645
943.277	55
943.369	951
943.462	-30
943.554	174
943.647	812
943.739	1447
943.832	1967
943.924	110
944.017	-283
944.109	-338
944.201	689
944.294	809
944.386	723
944.478	1490
944.571	503
944.663	154
944.755	725
944.847	813
944.940	887
945.032	34
945.124	323
945.216	1771
945.308	729
945.400	317
945.492	524
945.584	1484
945.676	762
945.768	864
945.860	1238
945.952	745
946.044	1315
946.136	1010
946.228	426
946.320	29
946.412	550
946.503	772
946.595	1577
946.687	-296
946.779	-202
946.870	-205
946.962	292
947.054	68
947.145	883
947.237	163
947.329	1178
947.420	287
947.512	60
947.603	-266
947.695	292
947.786	-217
947.878	377
947.969	640
948.061	348
948.152	-319
948.243	254
948.335	143
948.426	161
948.517	-231
948.609	673
948.700	1049
948.791	-87
948.882	669
948.973	131
949.065	-75
949.156	641
949.247	-270
949.338	563
949.429	557
949.520	630
949.611	-563
949.702	904
949.793	256
949.884	236
949.975	-197
950.066	54
950.157	-181
950.247	147
950.338	-548
950.429	-15
950.520	112
950.611	-239
950.701	133
950.792	485
950.883	1127
950.973	371
951.064	295
951.155	-249
951.245	752
951.336	387
951.427	-77
951.517	1341
951.608	277
951.698	114
951.788	-105
951.879	-592
951.969	-82
952.060	87
952.150	90
952.240	1119
952.331	-515
952.421	1731
952.511	54
952.602	-222
952.692	-317
952.782	38
952.872	-969
952.962	109
953.052	-87
953.143	317
953.233	178
953.323	319
953.413	235
953.503	908
953.593	-721
953.683	156
953.773	-497
953.863	-286
953.953	-137
954.042	93
954.132	589
954.222	344
954.312	-179
954.402	-174
954.492	370
954.581	-946
954.671	45
954.761	-367
954.850	966
954.940	-191
955.030	-120
955.119	-467
955.209	-394
955.298	-17
955.388	399
955.477	389
955.567	-727
955.656	72
955.746	96
955.835	-456
955.925	84
956.014	91
956.103	-10
956.193	1024
956.282	483
956.371	178
956.461	57
956.550	-114
956.639	500
956.728	-438
956.817	505
956.906	117
956.995	522
957.085	-446
957.174	2
957.263	172
957.352	209
957.441	-56
957.530	91
957.619	-270
957.708	324
957.796	0
957.885	-197
957.974	-238
958.063	241
958.152	-289
958.241	-273
958.329	419
958.418	-492
958.507	-218
958.596	541
958.684	-590
958.773	614
958.861	662
958.950	-415
959.039	-570
959.127	0
959.216	817
959.304	-162
959.393	215
959.481	652
959.570	-244
959.658	109
959.746	-20
959.835	244
959.923	-289
960.011	-730
960.100	489
960.188	358
960.276	23
960.365	78
960.453	-64
960.541	-319
960.629	-221
960.717	-351
960.805	-374
960.893	-136
960.981	-923
961.069	623
961.158	-609
961.245	1753
961.333	318
961.421	280
961.509	-407
961.597	145
961.685	569
961.773	-129
961.861	-733
961.949	369
962.036	-388
962.124	-50
962.212	-996
962.299	-256
962.387	-801
962.475	-305
962.562	-1010
962.650	190
962.738	286
962.825	-350
962.913	-1171
963.000	-1250
963.088	0
963.175	-477
963.263	-508
963.350	-724
963.438	-77
963.525	-1368
963.612	-346
963.700	-321
963.787	1669
963.874	157
963.962	236
964.049	-282
964.136	-472
964.223	-1185
964.310	-124
964.398	-222
964.485	-331
964.572	-142
964.659	-572
964.746	55
964.833	-1596
964.920	-841
965.007	-815
965.094	-43
965.181	-731
965.268	45
965.355	-377
965.441	-625
965.528	-59
965.615	-491
965.702	76
965.789	-940
965.875	132
965.962	-158
966.049	-1094
966.136	-578
966.222	-405
966.309	609
966.395	-947
966.482	739
966.569	-625
966.655	-877
966.742	-561
966.828	-320
966.915	-993
967.001	-494
967.087	-769
967.174	-19
967.260	-323
967.347	-41
967.433	-15
967.519	639
967.605	-54
967.692	234
967.778	-828
967.864	-1549
967.950	-297
968.036	239
968.123	234
968.209	-332
968.295	-1578
968.381	337
968.467	-1043
968.553	-1143
968.639	305
968.725	-904
968.811	-149
968.897	650
968.983	-838
969.069	-1113
969.154	534
969.240	77
969.326	-1005
969.412	-1107
969.497	-408
969.583	-1182
969.669	-182
969.755	384
969.840	-682
969.926	-102
970.012	312
970.097	1212
970.183	402
970.268	-856
970.354	-730
970.439	-1206
970.525	167
970.610	-756
970.696	175
970.781	-74
970.866	-1287
970.952	75
971.037	-1405
971.122	-1302
971.208	-345
971.293	-646
971.378	-2228
971.463	-886
971.549	-54
971.634	-903
971.719	-147
971.804	-623
971.889	-471
971.974	-535
972.059	-121
972.144	-913
972.229	-277
972.314	-715
972.399	-640
972.484	-955
972.569	-864
972.654	-1298
972.739	264
972.824	-1153
972.908	-1172
972.993	-586
973.078	-727
973.163	-864
973.247	-691
973.332	-2276
973.417	53
973.501	-1140
973.586	-706
973.671	-340
973.755	-309
973.840	-723
973.924	-559
974.009	-495
974.093	-1641
974.178	237
974.262	-976
974.346	-437
974.431	-536
974.515	-1151
974.600	-1128
974.684	-816
974.768	-1553
974.852	-553
974.937	-1531
975.021	-267
975.105	-28
975.189	-610
975.273	-1182
975.358	-1390
975.442	-1555
975.526	-84
975.610	-650
975.694	-1786
975.778	112
975.862	-787
975.946	-2593
976.030	259
976.114	-644
976.198	-933
976.281	-386
976.365	-922
976.449	-1808
976.533	-899
976.617	-941
976.700	-492
976.784	-584
976.868	-1771
976.951	-1056
977.035	-560
977.119	-576
977.202	-973
977.286	-760
977.369	-489
977.453	359
977.536	-1262
977.620	-737
977.703	-544
977.787	-1250
977.870	-474
977.953	-304
978.037	-1205
978.120	264
978.203	-935
978.287	-142
978.370	-1280
978.453	-916
978.536	-431
978.620	440
978.703	75
978.786	-323
978.869	-2283
978.952	-1336
979.035	186
979.118	-981
979.201	-1372
979.284	-741
979.367	-1263
979.450	-813
979.533	-1322
979.616	-879
979.699	-1288
979.782	145
979.865	-884
979.948	-1607
980.030	-1196
980.113	-406
980.196	-1747
980.279	-710
980.361	-946
980.444	-1277
980.526	-396
980.609	-1787
980.692	14
980.774	254
980.857	-1390
980.939	57
981.022	-919
981.104	-640
981.187	-911
981.269	-886
981.352	-876
981.434	-971
981.516	-746
981.599	64
981.681	24
981.763	-1246
981.846	-1054
981.928	-391
982.010	-861
982.092	-1463
982.174	-335
982.256	-1299
982.339	-195
982.421	-530
982.503	-1182
982.585	-889
982.667	-814
982.749	-136
982.831	-702
982.913	-1629
982.995	-221
983.077	-1060
983.158	-437
983.240	-1599
983.322	59
983.404	641
983.486	-578
983.568	-415
983.649	-853
983.731	188
983.813	-508
983.894	-264
983.976	-553
984.058	-589
984.139	-315
984.221	-1120
984.302	262
984.384	175
984.465	-811
984.547	-1047
984.628	-1366
984.710	302
984.791	-952
984.872	-1055
984.954	-943
985.035	-101
985.116	-1036
985.198	-263
985.279	254
985.360	-911
985.441	-199
985.522	-595
985.604	-700
985.685	-2806
985.766	816
985.847	186
985.928	-1690
986.009	-870
986.090	-340
986.171	7
986.252	-540
986.333	-302
986.414	-254
986.495	-400
986.576	-794
986.656	-1048
986.737	-768
986.818	-1244
986.899	-608
986.980	-713
987.060	76
987.141	-432
987.222	433
987.302	-168
987.383	-730
987.464	-910
987.544	-164
987.625	-211
987.705	339
987.786	-539
987.866	-683
987.947	-494
988.027	-81
988.108	-95
988.188	400
988.268	131
988.349	227
988.429	-165
988.509	171
988.589	-219
988.670	-1189
988.750	500
988.830	-119
988.910	105
988.990	-429
989.070	145
989.151	-547
989.231	-1112
989.311	-175
989.391	-98
989.471	-508
989.551	-494
989.631	-913
989.711	-338
989.791	-407
989.870	-1173
989.950	-129
990.030	-999
990.110	159
990.190	-1398
990.269	-661
990.349	-453
990.429	-163
990.509	-468
990.588	-991
990.668	-679
990.747	-1162
990.827	-473
990.907	-645
990.986	-514
991.066	-295
991.145	-1206
991.225	-693
991.304	-380
991.383	12
991.463	-739
991.542	-396
991.622	-501
991.701	-712
991.780	-239
991.859	-971
991.939	-396
992.018	-51
992.097	-1243
992.176	-228
992.256	-144
992.335	-527
992.414	-233
992.493	-381
992.572	-1909
992.651	169
992.730	-611
992.809	-137
992.888	-718
992.967	-1306
993.046	-206
993.125	-1073
993.203	-151
993.282	-913
993.361	-448
993.440	-536
993.519	-900
993.597	-605
993.676	-1871
993.755	831
993.834	51
993.912	-2071
993.991	46
994.069	-525
994.148	-792
994.226	-844
994.305	-807
994.384	-979
994.462	235
994.540	-989
994.619	-1534
994.697	-44
994.776	-872
994.854	-506
994.932	-2226
995.011	-934
995.089	-1352
995.167	-496
995.245	-1072
995.324	-1448
995.402	-764
995.480	-1314
995.558	-711
995.636	-1301
995.714	84
995.792	-337
995.870	-1130
995.948	-1975
996.026	-1111
996.104	-2000
996.182	-388
996.260	-1059
996.338	-1342
996.416	-1862
996.494	-900
996.572	277
996.649	-2395
996.727	-2053
996.805	-1587
996.883	-1465
996.960	-863
997.038	-485
997.116	-831
997.193	-1479
997.271	-148
997.348	-1434
997.426	-625
997.504	-1445
997.581	-276
997.658	-372
997.736	-2773
997.813	-1919
997.891	-140
997.968	-1139
998.046	-1231
998.123	-401
998.200	-1036
998.277	-2358
998.355	-926
998.432	-1986
998.509	-1549
998.586	-635
998.663	-1023
998.741	-1255
998.818	-981
998.895	-1165
998.972	-548
999.049	-692
999.126	-1195
999.203	-918
999.280	-897
999.357	-1056
999.434	-983
999.511	-1008
999.587	-1085
999.664	-1557
999.741	-1029
999.818	-568
999.895	-1628
999.971	-1540
1000.048	-1262
1000.125	-581
1000.202	-1770
1000.278	-1650
1000.355	-1214
1000.431	-2249
1000.508	-2059
1000.584	-1005
1000.661	-732
1000.738	-1116
1000.814	-1063
1000.890	-2071
1000.967	-1292
1001.043	-838
1001.120	-2262
1001.196	-946
1001.272	-2256
1001.349	-1821
1001.425	-1454
1001.501	-638
1001.577	-1294
1001.654	-1288
1001.730	-1741
1001.806	-1966
1001.882	-1329
1001.958	-467
1002.034	-494
1002.110	-1120
1002.186	-2082
1002.262	-1502
1002.338	-2362
1002.414	-734
1002.490	-1067
1002.566	-1698
1002.642	-945
1002.718	-390
1002.794	-1668
1002.870	-1461
1002.945	-2101
1003.021	-1166
1003.097	-1347
1003.173	-915
1003.248	-866
1003.324	-1883
1003.400	-582
1003.475	-2083
1003.551	-892
1003.626	-2387
1003.702	-2265
1003.777	-1922
1003.853	-1704
1003.928	-1491
1004.004	-1413
1004.079	-1147
1004.155	-960
1004.230	-2013
1004.305	-804
1004.381	-1676
1004.456	-919
1004.531	-1325
1004.607	-1708
1004.682	-1197
1004.757	-731
1004.832	-2091
1004.907	-1735
1004.982	-1551
1005.057	-838
1005.133	-1978
1005.208	-2018
1005.283	-2504
1005.358	-899
1005.433	-1855
1005.508	-1412
1005.583	-2447
1005.657	-2268
1005.732	-1898
1005.807	-2402
1005.882	-879
1005.957	-1096
1006.032	-971
1006.106	-1561
1006.181	-1696
1006.256	-1767
1006.331	-1727
1006.405	-1889
1006.480	-1550
1006.554	-2243
1006.629	-2063
1006.704	-1674
1006.778	-1216
1006.853	-754
1006.927	-1463
1007.002	-1998
1007.076	-998
1007.150	-1949
1007.225	-1735
1007.299	-1478
1007.373	-2099
1007.448	-1708
1007.522	-1348
1007.596	-2053
1007.671	-2194
1007.745	-1487
1007.819	-2181
1007.893	-1359
1007.967	-757
1008.041	-2654
1008.115	-596
1008.190	-2077
1008.264	-1035
1008.338	-2651
1008.412	-1516
1008.486	-1048
1008.560	-1650
1008.633	-2139
1008.707	-1731
1008.781	-937
1008.855	-1394
1008.929	-1217
1009.003	-2255
1009.076	-1266
1009.150	-1923
1009.224	-1539
1009.298	-1147
1009.371	-1584
1009.445	-1379
1009.519	-1020
1009.592	-2683
1009.666	-838
1009.739	-1004
1009.813	-2157
1009.886	-1322
1009.960	-2778
1010.033	-1422
1010.107	-1632
1010.180	-2440
1010.253	-2194
1010.327	-1958
1010.400	-1960
1010.473	-1502
1010.547	-1053
1010.620	-1979
1010.693	-1833
1010.766	-1637
1010.840	-1789
1010.913	-1852
1010.986	-1598
1011.059	-1993
1011.132	-2014
1011.205	-964
1011.278	-2252
1011.351	-1375
1011.424	-1163
1011.497	-2183
1011.570	-1425
1011.643	-1700
1011.716	-2157
1011.789	-2273
1011.862	-1795
1011.934	-1057
1012.007	-2623
1012.080	-961
1012.153	-1634
1012.225	-266
1012.298	-2334
1012.371	-1541
1012.443	-1879
1012.516	-2012
1012.588	-1682
1012.661	-2555
1012.733	-2029
1012.806	-703
1012.879	-2046
1012.951	-2262
1013.023	-2234
1013.096	-1168
1013.168	-2139
1013.241	-1438
1013.313	-1625
1013.385	-1169
1013.458	-2286
1013.530	-1455
1013.602	-1671
1013.674	-1183
1013.746	-2382
1013.819	-2242
1013.891	-1632
1013.963	-2692
1014.035	-1700
1014.107	-2135
1014.179	-1508
1014.251	-2423
1014.323	-1436
1014.395	-1830
1014.467	-2188
1014.539	-2142
1014.611	-2194
1014.683	-1615
1014.754	-2098
1014.826	-2371
1014.898	-1862
1014.970	-2745
1015.042	-1059
1015.113	-625
1015.185	-1863
1015.257	-1966
1015.328	-2150
1015.400	-1910
1015.471	-1812
1015.543	-3249
1015.615	-1535
1015.686	-1474
1015.757	-2785
1015.829	-1896
1015.901	-1592
1015.972	-1801
1016.043	-2514
1016.115	-1717
1016.186	-2623
1016.257	-2060
1016.328	-2047
1016.400	-1126
1016.471	-1886
1016.542	-1486
1016.613	-995
1016.685	-2186
1016.756	-1435
1016.827	-2092
1016.898	-2058
1016.969	-1338
1017.040	-2111
1017.111	-2770
1017.182	-2752
1017.253	-1929
1017.324	-2825
1017.395	-2108
1017.466	-1273
1017.537	-2451
1017.608	-2821
1017.678	-2012
1017.749	-2049
1017.820	-1303
1017.891	-2547
1017.961	-1962
1018.032	-1893
1018.103	-1932
1018.173	-1040
1018.244	-3077
1018.315	-1594
1018.385	-1326
1018.456	-2039
1018.526	-3120
1018.597	-2022
1018.667	-1875
1018.738	-2133
1018.808	-1891
1018.878	-2616
1018.949	-1891
1019.019	-2121
1019.089	-1571
1019.160	-2118
1019.230	-2492
1019.300	-1889
1019.371	-2249
1019.441	-894
1019.511	-2222
1019.581	-1715
1019.651	-2438
1019.721	-1367
1019.791	-2059
1019.861	-2395
1019.931	-2041
1020.001	-2147
1020.071	-2193
1020.141	-1779
1020.211	-2559
1020.281	-2250
1020.351	-1834
1020.421	-1854
1020.491	-1481
1020.560	-2509
1020.630	-2108
1020.700	-1444
1020.770	-1854
1020.839	-1821
1020.909	-1912
1020.979	-1861
1021.048	-1914
1021.118	-2031
1021.187	-2601
1021.257	-1334
1021.326	-1475
1021.396	-2134
1021.465	-2373
1021.535	-2841
1021.604	-1907
1021.674	-1815
1021.743	-2319
1021.812	-1412
1021.882	-2050
1021.951	-2022
1022.020	-2546
1022.089	-1962
1022.159	-1801
1022.228	-1766
1022.297	-1802
1022.366	-2042
1022.435	-2875
1022.504	-2320
1022.573	-2532
1022.642	-1610
1022.711	-2183
1022.781	-2043
1022.849	-1651
1022.918	-2648
1022.987	-2064
1023.056	-3095
1023.125	-1532
1023.194	-2097
1023.263	-2463
1023.331	-2416
1023.400	-1884
1023.469	-2352
1023.538	-1969
1023.606	-3275
1023.675	-2178
1023.744	-2205
1023.812	-2411
1023.881	-2364
1023.949	-2362
1024.018	-1937
1024.086	-2077
1024.155	-2230
1024.223	-2188
1024.292	-2202
1024.360	-1742
1024.429	-1648
1024.497	-2126
1024.565	-2453
1024.634	-2547
1024.702	-2314
1024.770	-2179
1024.838	-1847
1024.907	-2088
1024.975	-2832
1025.043	-2098
1025.111	-2872
1025.179	-1463
1025.247	-1781
1025.315	-2105
1025.383	-1987
1025.451	-2392
1025.519	-1655
1025.587	-2976
1025.655	-2203
1025.723	-3074
1025.791	-2432
1025.859	-2449
1025.927	-2343
1025.995	-2719
1026.062	-2248
1026.130	-1846
1026.198	-2315
1026.266	-1787
1026.333	-2153
1026.401	-1733
1026.469	-2058
1026.536	-2216
1026.604	-3063
1026.671	-2136
1026.739	-1648
1026.806	-2650
1026.874	-2395
1026.941	-1798
1027.009	-2139
1027.076	-2862
1027.144	-1574
1027.211	-2210
1027.278	-2199
1027.345	-2361
1027.413	-2710
1027.480	-2210
1027.547	-2754
1027.614	-2660
1027.682	-1777
1027.749	-2334
1027.816	-3460
1027.883	-2207
1027.950	-2520
1028.017	-2390
1028.084	-2253
1028.151	-2687
1028.218	-2965
1028.285	-2244
1028.352	-2926
1028.419	-2631
1028.486	-2590
1028.553	-2244
1028.619	-2149
1028.686	-2036
1028.753	-2286
1028.820	-2658
1028.886	-3199
1028.953	-2368
1029.020	-2276
1029.086	-3155
1029.153	-2350
1029.220	-2761
1029.286	-2547
1029.353	-2491
1029.419	-2065
1029.486	-2193
1029.552	-2967
1029.619	-1990
1029.685	-2204
1029.751	-1704
1029.818	-2116
1029.884	-2183
1029.951	-2113
1030.017	-2801
1030.083	-2723
1030.149	-2523
1030.216	-3055
1030.282	-2444
1030.348	-2184
1030.414	-2631
1030.480	-2189
1030.546	-1531
1030.612	-2061
1030.678	-2570
1030.744	-2285
1030.810	-2088
1030.876	-2081
1030.942	-2379
1031.008	-2945
1031.074	-2700
1031.140	-2578
1031.206	-2100
1031.272	-2905
1031.337	-2270
1031.403	-2040
1031.469	-2738
1031.534	-2719
1031.600	-2229
1031.666	-3587
1031.731	-2512
1031.797	-2260
1031.863	-2283
1031.928	-3036
1031.994	-2118
1032.059	-1749
1032.125	-2346
1032.190	-2649
1032.256	-3166
1032.321	-2596
1032.386	-2349
1032.452	-1990
1032.517	-2094
1032.582	-2432
1032.647	-2744
1032.713	-2856
1032.778	-2901
1032.843	-2411
1032.908	-1924
1032.974	-2908
1033.039	-2710
1033.104	-2384
1033.169	-3100
1033.234	-3318
1033.299	-1831
1033.364	-2293
1033.429	-2421
1033.494	-3221
1033.559	-2791
1033.624	-2406
1033.688	-2796
1033.753	-3461
1033.818	-2593
1033.883	-2619
1033.948	-2247
1034.013	-2548
1034.077	-2601
1034.142	-939
1034.207	-1216
1034.271	-1474
1034.336	-383
1034.400	-842
1034.465	-2038
1034.530	-2437
1034.594	-2827
1034.658	-3251
1034.723	-2608
1034.787	-2580
1034.852	-2492
1034.916	-2555
1034.981	-2597
1035.045	-2892
1035.109	-2044
1035.173	-2999
1035.238	-3194
1035.302	-2420
1035.366	-2365
1035.430	-2566
1035.495	-2809
1035.559	-2431
1035.623	-2461
1035.687	-3424
1035.751	-2653
1035.815	-2545
1035.879	-2857
1035.943	-3131
1036.007	-2226
1036.071	-3114
1036.135	-2494
1036.198	-3136
1036.262	-3608
1036.326	-2328
1036.390	-1994
1036.454	-3491
1036.517	-2804
1036.581	-2311
1036.645	-2675
1036.709	-3119
1036.772	-3545
1036.836	-2361
1036.900	-3258
1036.963	-2877
1037.026	-2198
1037.090	-2640
1037.154	-2439
1037.217	-2961
1037.280	-3282
1037.344	-2701
1037.407	-3080
1037.471	-2468
1037.534	-2574
1037.597	-2577
1037.661	-2797
1037.724	-2469
1037.787	-3135
1037.850	-3322
1037.913	-3849
1037.977	-2664
1038.040	-2865
1038.103	-2600
1038.166	-3009
1038.229	-3213
1038.292	-3000
1038.355	-2915
1038.418	-2904
1038.481	-3077
1038.544	-3689
1038.607	-2916
1038.670	-2799
1038.732	-3157
1038.795	-3008
1038.858	-3499
1038.921	-1872
1038.984	-3392
1039.046	-3092
1039.109	-2688
1039.172	-2875
1039.234	-2916
1039.297	-2653
1039.360	-2646
1039.422	-2986
1039.485	-2236
1039.547	-4004
1039.610	-2985
1039.672	-3409
1039.734	-3337
1039.797	-2954
1039.859	-2982
1039.922	-3263
1039.984	-2153
1040.046	-2929
1040.109	-3155
1040.171	-2673
1040.233	-3333
1040.295	-2592
1040.358	-3189
1040.420	-3448
1040.482	-3491
1040.544	-3010
1040.606	-3029
1040.668	-2998
1040.730	-3368
1040.792	-2609
1040.854	-3098
1040.916	-2993
1040.978	-2734
1041.040	-3492
1041.102	-3446
1041.164	-3242
1041.225	-3074
1041.287	-3211
1041.349	-3302
1041.411	-2794
1041.472	-2867
1041.534	-3423
1041.596	-2851
1041.657	-3662
1041.719	-2985
1041.781	-3382
1041.842	-2418
1041.904	-3058
1041.965	-2392
1042.027	-3266
1042.088	-2869
1042.150	-2629
1042.211	-3035
1042.272	-2526
1042.334	-2584
1042.395	-2987
1042.456	-2718
1042.518	-2507
1042.579	-3195
1042.640	-3384
1042.701	-2795
1042.763	-3005
1042.824	-2933
1042.885	-2974
1042.946	-3024
1043.007	-3244
1043.068	-3133
1043.129	-2658
1043.190	-2365
1043.251	-2850
1043.312	-3273
1043.373	-2367
1043.434	-2888
1043.495	-2452
1043.556	-3474
1043.616	-3774
1043.677	-3354
1043.738	-2683
1043.799	-3115
1043.859	-3584
1043.920	-2191
1043.981	-2567
1044.041	-2757
1044.102	-3613
1044.162	-2844
1044.223	-3102
1044.284	-2882
1044.344	-2296
1044.405	-2944
1044.465	-2629
1044.525	-2696
1044.586	-3172
1044.646	-2690
1044.707	-2435
1044.767	-2875
1044.827	-2700
1044.887	-2378
1044.948	-2823
1045.008	-3121
1045.068	-3064
1045.128	-3144
1045.188	-2475
1045.249	-2361
1045.309	-2339
1045.369	-2684
1045.429	-3047
1045.489	-2636
1045.549	-2690
1045.609	-2888
1045.669	-2541
1045.729	-2653
1045.789	-3174
1045.848	-2513
1045.908	-1739
1045.968	-2214
1046.028	-3118
1046.088	-2578
1046.147	-1555
1046.207	-3028
1046.267	-1805
1046.326	-2004
1046.386	-2125
1046.446	-2214
1046.505	-1465
1046.565	-898
1046.624	-1424
1046.684	-1360
1046.743	-1351
1046.803	-1496
1046.862	-1675
1046.922	0
