'Start Wavelength	183.907
'End Wavelength	1046.922
'Gate Delay	5.000
'Gate Width (ms)	1.050
'Laser Output Level	0.000
'X Position	0.000
'Y Position	0.000
'Z Position	0.000
'Grid Point Number	1.000
'Shot Number	100.000
183.907	701.000
183.977	1.000
184.047	744
184.116	975
184.186	42
184.256	212
184.325	715
184.395	68
184.465	798
184.534	609
184.604	-8
184.674	501
184.743	3
184.813	624
184.883	-122
184.952	-73
185.022	120
185.092	752
185.161	149
185.231	268
185.301	-449
185.370	521
185.440	506
185.509	217
185.579	342
185.649	27
185.718	769
185.788	481
185.857	520
185.927	357
185.996	192
186.066	151
186.136	-232
186.205	-62
186.275	250
186.344	345
186.414	395
186.483	349
186.553	1502
186.622	481
186.692	456
186.761	609
186.831	-563
186.900	417
186.970	392
187.039	49
187.109	707
187.178	790
187.248	-90
187.317	278
187.387	155
187.456	773
187.526	923
187.595	140
187.664	-145
187.734	371
187.803	-197
187.873	600
187.942	793
188.012	248
188.081	859
188.150	223
188.220	63
188.289	306
188.358	176
188.428	936
188.497	479
188.567	847
188.636	20
188.705	583
188.775	211
188.844	186
188.913	831
188.983	-238
189.052	101
189.121	252
189.191	-836
189.260	949
189.329	137
189.399	720
189.468	564
189.537	-8
189.606	341
189.676	983
189.745	931
189.814	1062
189.883	183
189.953	210
190.022	61
190.091	226
190.161	-688
190.230	47
190.299	-118
190.368	355
190.437	-60
190.507	496
190.576	721
190.645	-202
190.714	-230
190.783	-123
190.853	595
190.922	577
190.991	289
191.060	-18
191.129	191
191.198	-8
191.268	649
191.337	718
191.406	-258
191.475	632
191.544	199
191.613	344
191.682	464
191.752	441
191.821	178
191.890	230
191.959	-367
192.028	-167
192.097	642
192.166	269
192.235	140
192.304	463
192.373	87
192.442	-86
192.511	374
192.580	724
192.650	716
192.719	352
192.788	521
192.857	-48
192.926	554
192.995	-146
193.064	-181
193.133	1037
193.202	130
193.271	1033
193.340	412
193.409	245
193.478	984
193.547	846
193.615	410
193.684	77
193.753	-169
193.822	646
193.891	-274
193.960	813
194.029	-251
194.098	1062
194.167	368
194.236	807
194.305	775
194.374	237
194.443	18
194.512	1154
194.580	-229
194.649	116
194.718	792
194.787	-111
194.856	207
194.925	366
194.994	317
195.062	823
195.131	215
195.200	-510
195.269	229
195.338	189
195.407	289
195.475	825
195.544	101
195.613	235
195.682	519
195.751	443
195.819	153
195.888	496
195.957	535
196.026	358
196.094	156
196.163	253
196.232	318
196.301	405
196.369	291
196.438	375
196.507	494
196.576	-385
196.644	-465
196.713	46
196.782	450
196.850	187
196.919	-291
196.988	-57
197.056	314
197.125	97
197.194	524
197.262	143
197.331	-128
197.400	-10
197.468	218
197.537	272
197.606	364
197.674	883
197.743	982
197.812	364
197.880	1414
197.949	796
198.017	207
198.086	81
198.155	598
198.223	767
198.292	479
198.360	301
198.429	83
198.497	54
198.566	433
198.635	455
198.703	1519
198.772	618
198.840	35
198.909	427
198.977	785
199.046	543
199.114	608
199.183	324
199.251	218
199.320	919
199.388	421
199.457	133
199.525	427
199.594	-98
199.662	876
199.731	-243
199.799	-12
199.867	1154
199.936	400
200.004	496
200.073	-20
200.141	-127
200.210	273
200.278	-374
200.346	74
200.415	463
200.483	165
200.552	1087
200.620	205
200.688	154
200.757	-41
200.825	430
200.893	-387
200.962	-166
201.030	-818
201.098	742
201.167	79
201.235	325
201.303	-226
201.372	387
201.440	-29
201.508	523
201.577	686
201.645	-26
201.713	639
201.781	303
201.850	857
201.918	837
201.986	-925
202.055	834
202.123	318
202.191	-248
202.259	-96
202.327	492
202.396	421
202.464	170
202.532	-292
202.600	194
202.669	279
202.737	32
202.805	22
202.873	305
202.941	734
203.009	384
203.078	153
203.146	570
203.214	-86
203.282	290
203.350	949
203.418	421
203.487	696
203.555	478
203.623	951
203.691	508
203.759	484
203.827	151
203.895	581
203.963	271
204.031	278
204.099	-634
204.168	835
204.236	505
204.304	820
204.372	263
204.440	646
204.508	399
204.576	250
204.644	-319
204.712	26
204.780	614
204.848	603
204.916	240
204.984	264
205.052	518
205.120	376
205.188	575
205.256	-222
205.324	-191
205.392	-37
205.460	1002
205.528	107
205.596	764
205.664	-130
205.732	-70
205.799	172
205.867	423
205.935	-281
206.003	832
206.071	495
206.139	100
206.207	727
206.275	297
206.343	440
206.411	221
206.478	444
206.546	1222
206.614	884
206.682	164
206.750	344
206.818	496
206.885	1174
206.953	-357
207.021	718
207.089	910
207.157	652
207.225	542
207.292	446
207.360	-120
207.428	463
207.496	-115
207.563	-348
207.631	290
207.699	81
207.767	-497
207.834	-246
207.902	163
207.970	515
208.038	769
208.105	141
208.173	357
208.241	88
208.309	623
208.376	390
208.444	580
208.512	90
208.579	9
208.647	671
208.715	491
208.782	148
208.850	551
208.918	81
208.985	392
209.053	284
209.120	506
209.188	-388
209.256	60
209.323	-450
209.391	-151
209.459	1470
209.526	634
209.594	244
209.661	471
209.729	471
209.796	833
209.864	1237
209.932	-421
209.999	1361
210.067	354
210.134	-101
210.202	594
210.269	945
210.337	1265
210.404	-70
210.472	643
210.539	81
210.607	282
210.674	210
210.742	13
210.809	356
210.877	190
210.944	850
211.012	257
211.079	1507
211.146	542
211.214	841
211.281	1232
211.349	926
211.416	737
211.484	1452
211.551	848
211.618	380
211.686	512
211.753	-63
211.821	581
211.888	-34
211.955	591
212.023	398
212.090	143
212.157	401
212.225	-47
212.292	480
212.359	1091
212.427	1861
212.494	638
212.561	465
212.629	-277
212.696	-424
212.763	532
212.831	-630
212.898	1871
212.965	198
213.032	869
213.100	481
213.167	183
213.234	695
213.301	556
213.369	712
213.436	377
213.503	-297
213.570	634
213.638	90
213.705	-256
213.772	-51
213.839	599
213.906	290
213.973	485
214.041	596
214.108	1353
214.175	282
214.242	16
214.309	953
214.376	488
214.444	368
214.511	-244
214.578	218
214.645	1358
214.712	974
214.779	436
214.846	627
214.913	905
214.980	545
215.048	1081
215.115	895
215.182	990
215.249	359
215.316	348
215.383	798
215.450	305
215.517	811
215.584	358
215.651	-279
215.718	863
215.785	1488
215.852	233
215.919	1326
215.986	1498
216.053	-308
216.120	-895
216.187	1034
216.254	1335
216.321	825
216.388	1030
216.455	501
216.522	485
216.589	628
216.656	1098
216.722	1292
216.789	884
216.856	226
216.923	1261
216.990	1055
217.057	1529
217.124	526
217.191	391
217.258	368
217.324	647
217.391	1855
217.458	1293
217.525	627
217.592	928
217.659	176
217.725	1024
217.792	214
217.859	1055
217.926	260
217.993	815
218.059	380
218.126	960
218.193	1001
218.260	565
218.327	350
218.393	424
218.460	125
218.527	210
218.594	163
218.660	471
218.727	1243
218.794	410
218.860	598
218.927	460
218.994	210
219.061	202
219.127	309
219.194	566
219.261	588
219.327	-234
219.394	862
219.461	-122
219.527	883
219.594	807
219.661	-2
219.727	366
219.794	1196
219.860	-222
219.927	872
219.994	767
220.060	941
220.127	1485
220.193	1837
220.260	1366
220.326	1809
220.393	988
220.460	1194
220.526	1055
220.593	897
220.659	2089
220.726	860
220.792	2132
220.859	1704
220.925	2561
220.992	3275
221.058	2782
221.125	1168
221.191	1052
221.258	319
221.324	1149
221.391	602
221.457	522
221.524	721
221.590	708
221.657	1208
221.723	420
221.789	818
221.856	652
221.922	-116
221.989	721
222.055	1217
222.121	58
222.188	1371
222.254	974
222.321	195
222.387	536
222.453	447
222.520	797
222.586	-355
222.652	818
222.719	95
222.785	886
222.851	862
222.918	576
222.984	-4
223.050	409
223.116	-574
223.183	1520
223.249	-324
223.315	-41
223.382	800
223.448	566
223.514	343
223.580	97
223.647	210
223.713	-338
223.779	275
223.845	492
223.911	411
223.978	131
224.044	1031
224.110	300
224.176	252
224.242	496
224.309	-682
224.375	582
224.441	362
224.507	880
224.573	-90
224.639	467
224.705	245
224.772	658
224.838	968
224.904	1141
224.970	282
225.036	758
225.102	-588
225.168	1248
225.234	900
225.300	349
225.366	435
225.432	817
225.499	249
225.565	-424
225.631	-43
225.697	1144
225.763	594
225.829	595
225.895	714
225.961	-5
226.027	1016
226.093	412
226.159	1487
226.225	1743
226.291	2543
226.357	3481
226.423	2892
226.489	1155
226.554	533
226.620	685
226.686	1236
226.752	2090
226.818	2217
226.884	3930
226.950	2974
227.016	3148
227.082	1616
227.148	1570
227.214	726
227.279	685
227.345	976
227.411	822
227.477	1371
227.543	943
227.609	1456
227.674	2070
227.740	391
227.806	613
227.872	351
227.938	961
228.003	748
228.069	226
228.135	681
228.201	1054
228.267	292
228.332	309
228.398	-820
228.464	624
228.530	112
228.595	935
228.661	224
228.727	22
228.792	1158
228.858	337
228.924	-714
228.990	2278
229.055	-446
229.121	150
229.187	-148
229.252	298
229.318	-145
229.384	747
229.449	445
229.515	-1490
229.581	-924
229.646	1329
229.712	66
229.777	257
229.843	708
229.909	1279
229.974	589
230.040	836
230.105	1114
230.171	109
230.236	1403
230.302	1158
230.368	76
230.433	103
230.499	235
230.564	1581
230.630	252
230.695	119
230.761	1957
230.826	-846
230.892	955
230.957	156
231.023	761
231.088	-233
231.154	528
231.219	1196
231.284	275
231.350	1174
231.415	-604
231.481	517
231.546	459
231.612	631
231.677	225
231.742	-389
231.808	1189
231.873	-165
231.939	-1227
232.004	1456
232.069	1633
232.135	191
232.200	64
232.265	807
232.331	862
232.396	-524
232.461	451
232.527	-211
232.592	-14
232.657	358
232.723	290
232.788	583
232.853	1274
232.918	1139
232.984	-527
233.049	-404
233.114	0
233.179	889
233.245	1770
233.310	1005
233.375	-556
233.440	494
233.506	280
233.571	-317
233.636	300
233.701	347
233.766	49
233.832	745
233.897	316
233.962	-808
234.027	1712
234.092	614
234.157	349
234.222	280
234.288	226
234.353	1066
234.418	1404
234.483	1755
234.548	241
234.613	371
234.678	244
234.743	246
234.808	1865
234.873	117
234.938	1977
235.004	504
235.069	736
235.134	278
235.199	1374
235.264	612
235.329	-259
235.394	1148
235.459	1471
235.524	-91
235.589	665
235.654	485
235.719	-672
235.784	1292
235.849	830
235.913	1018
235.978	1571
236.043	110
236.108	61
236.173	-176
236.238	946
236.303	-12
236.368	723
236.433	1462
236.498	661
236.563	1880
236.627	2174
236.692	5357
236.757	5497
236.822	3207
236.887	1195
236.952	1551
237.017	393
237.081	2647
237.146	875
237.211	5170
237.276	5475
237.341	6855
237.405	4435
237.470	3119
237.535	1937
237.600	1656
237.664	1706
237.729	-116
237.794	-411
237.859	3173
237.923	2239
237.988	1026
238.053	1410
238.118	671
238.182	337
238.247	2900
238.312	-90
238.376	1213
238.441	-528
238.506	1415
238.570	-180
238.635	1712
238.700	662
238.764	-551
238.829	485
238.893	861
238.958	1672
239.023	750
239.087	1059
239.152	1350
239.216	199
239.281	444
239.346	491
239.410	476
239.475	223
239.539	1585
239.604	-221
239.668	1801
239.733	643
239.797	2367
239.862	3570
239.926	3988
239.991	1697
240.055	979
240.120	1053
240.184	1926
240.249	373
240.313	906
240.378	157
240.442	538
240.507	1488
240.571	379
240.635	321
240.700	548
240.764	363
240.829	466
240.893	-383
240.957	257
241.022	1365
241.086	1773
241.151	572
241.215	-357
241.279	1005
241.344	84
241.408	734
241.472	582
241.537	977
241.601	398
241.665	-154
241.730	352
241.794	547
241.858	262
241.922	-188
241.987	63
242.051	745
242.115	-119
242.179	1294
242.244	-432
242.308	1397
242.372	407
242.436	465
242.501	703
242.565	331
242.629	-59
242.693	1696
242.757	-477
242.822	61
242.886	902
242.950	1021
243.014	-243
243.078	1442
243.142	546
243.206	371
243.271	1111
243.335	772
243.399	1931
243.463	1923
243.527	5436
243.591	1537
243.655	1502
243.719	-164
243.783	1588
243.847	2155
243.911	2005
243.975	742
244.040	291
244.104	1635
244.168	839
244.232	572
244.296	1453
244.360	1124
244.424	3
244.488	24
244.552	792
244.615	-614
244.679	912
244.743	588
244.807	117
244.871	562
244.935	141
244.999	218
245.063	198
245.127	1382
245.191	1212
245.255	735
245.319	1616
245.383	-654
245.446	1299
245.510	-420
245.574	524
245.638	1025
245.702	-1019
245.766	2063
245.829	1416
245.893	333
245.957	83
246.021	1791
246.085	-99
246.149	612
246.212	2594
246.276	1008
246.340	1320
246.404	1021
246.467	1269
246.531	-1093
246.595	1469
246.659	1811
246.722	-437
246.786	786
246.850	787
246.913	1606
246.977	-67
247.041	536
247.104	660
247.168	197
247.232	286
247.295	1442
247.359	1451
247.423	1189
247.486	1753
247.550	1293
247.614	482
247.677	1235
247.741	1131
247.804	1147
247.868	1176
247.932	287
247.995	2399
248.059	666
248.122	-339
248.186	1803
248.249	2599
248.313	3325
248.376	4200
248.440	2515
248.503	605
248.567	1584
248.630	871
248.694	3074
248.757	3569
248.821	3479
248.884	4570
248.948	1752
249.011	3554
249.075	4104
249.138	3563
249.202	2027
249.265	1568
249.328	1934
249.392	1023
249.455	1596
249.519	749
249.582	934
249.645	2324
249.709	1922
249.772	1264
249.835	1110
249.899	1399
249.962	1408
250.025	901
250.089	1295
250.152	2990
250.215	1764
250.279	1259
250.342	1091
250.405	1374
250.468	298
250.532	696
250.595	2567
250.658	4315
250.721	9505
250.785	3551
250.848	3426
250.911	1176
250.974	2175
251.038	1427
251.101	3015
251.164	1551
251.227	2060
251.290	2118
251.354	2912
251.417	7756
251.480	8514
251.543	5621
251.606	12759
251.669	11603
251.732	5243
251.795	4511
251.859	4863
251.922	8360
251.985	6047
252.048	3568
252.111	3105
252.174	1355
252.237	2277
252.300	4992
252.363	5224
252.426	11498
252.489	4315
252.552	3539
252.615	1351
252.678	2930
252.741	4113
252.804	4759
252.867	11396
252.930	7118
252.993	3057
253.056	3164
253.119	1144
253.182	599
253.245	1960
253.308	1892
253.371	438
253.434	988
253.497	2253
253.559	2843
253.622	1863
253.685	2224
253.748	2963
253.811	1050
253.874	2277
253.937	1374
254.000	635
254.062	1314
254.125	2818
254.188	3047
254.251	2278
254.314	720
254.376	870
254.439	2049
254.502	2416
254.565	987
254.628	3874
254.690	1527
254.753	569
254.816	725
254.878	1007
254.941	2158
255.004	2017
255.067	888
255.129	646
255.192	874
255.255	-143
255.317	1458
255.380	975
255.443	502
255.505	94
255.568	-311
255.631	-394
255.693	-157
255.756	1055
255.819	1386
255.881	518
255.944	308
256.006	227
256.069	380
256.132	-618
256.194	494
256.257	992
256.319	744
256.382	1212
256.444	2152
256.507	1638
256.569	1262
256.632	1005
256.694	1491
256.757	5261
256.819	11404
256.882	5374
256.944	2003
257.007	2684
257.069	1916
257.132	1144
257.194	2465
257.257	487
257.319	380
257.381	729
257.444	3999
257.506	11092
257.569	14258
257.631	6066
257.693	2953
257.756	1584
257.818	1203
257.880	346
257.943	1319
258.005	223
258.067	1054
258.130	1075
258.192	1488
258.254	1199
258.317	-3
258.379	1262
258.441	1259
258.503	1607
258.566	862
258.628	2897
258.690	677
258.753	1870
258.815	1583
258.877	1264
258.939	896
259.001	1619
259.064	766
259.126	216
259.188	1066
259.250	1329
259.312	1190
259.375	1564
259.437	1129
259.499	702
259.561	846
259.623	1219
259.685	219
259.747	900
259.809	1765
259.872	2184
259.934	4051
259.996	5200
260.058	2351
260.120	1072
260.182	747
260.244	1209
260.306	631
260.368	1478
260.430	-101
260.492	1804
260.554	3476
260.616	1137
260.678	1869
260.740	1642
260.802	541
260.864	1546
260.926	155
260.988	1356
261.050	1034
261.112	2636
261.174	5675
261.236	2709
261.298	926
261.359	1375
261.421	2544
261.483	545
261.545	1688
261.607	-144
261.669	732
261.731	567
261.793	1889
261.854	1069
261.916	1747
261.978	778
262.040	1254
262.102	1542
262.164	617
262.225	623
262.287	976
262.349	1113
262.411	1217
262.472	1829
262.534	806
262.596	1497
262.658	1875
262.719	10
262.781	2344
262.843	-247
262.904	992
262.966	474
263.028	716
263.090	2585
263.151	7658
263.213	3891
263.275	3003
263.336	1349
263.398	1180
263.459	515
263.521	392
263.583	1567
263.644	1019
263.706	298
263.767	187
263.829	1573
263.891	804
263.952	146
264.014	471
264.075	1402
264.137	3906
264.198	1838
264.260	115
264.321	92
264.383	1824
264.444	6259
264.506	1403
264.567	803
264.629	2595
264.690	4253
264.752	2178
264.813	1634
264.875	-368
264.936	2137
264.998	1161
265.059	558
265.120	1425
265.182	1348
265.243	7211
265.305	9345
265.366	2923
265.427	1058
265.489	1535
265.550	-373
265.611	780
265.673	716
265.734	939
265.795	404
265.857	838
265.918	-101
265.979	2299
266.040	10422
266.102	11064
266.163	3875
266.224	2534
266.286	1573
266.347	1056
266.408	460
266.469	951
266.530	977
266.592	844
266.653	1204
266.714	1808
266.775	539
266.836	941
266.898	212
266.959	1153
267.020	763
267.081	1631
267.142	660
267.203	353
267.264	-34
267.326	976
267.387	-148
267.448	610
267.509	486
267.570	-1
267.631	201
267.692	576
267.753	146
267.814	-181
267.875	1097
267.936	1737
267.997	1017
268.058	1000
268.119	505
268.180	530
268.241	394
268.302	691
268.363	-66
268.424	202
268.485	751
268.546	531
268.607	209
268.668	-39
268.729	-107
268.790	507
268.851	546
268.912	1016
268.972	1827
269.033	477
269.094	-197
269.155	49
269.216	165
269.277	480
269.338	358
269.398	814
269.459	-566
269.520	-38
269.581	860
269.642	1573
269.702	576
269.763	395
269.824	14
269.885	74
269.945	1585
270.006	1115
270.067	-368
270.128	225
270.188	537
270.249	910
270.310	128
270.370	628
270.431	315
270.492	155
270.553	1450
270.613	942
270.674	2345
270.734	1066
270.795	594
270.856	1145
270.916	-418
270.977	460
271.038	50
271.098	400
271.159	1351
271.219	1345
271.280	802
271.340	814
271.401	312
271.462	607
271.522	668
271.583	631
271.643	169
271.704	544
271.764	683
271.825	1790
271.885	5018
271.946	7214
272.006	1948
272.066	2819
272.127	4762
272.187	3669
272.248	2024
272.308	507
272.369	3171
272.429	1545
272.489	1363
272.550	1522
272.610	1882
272.671	1122
272.731	1947
272.791	1422
272.852	1022
272.912	2060
272.972	682
273.033	491
273.093	598
273.153	2176
273.214	718
273.274	592
273.334	3192
273.394	4714
273.455	2098
273.515	2856
273.575	3681
273.635	2310
273.696	2714
273.756	3942
273.816	2280
273.876	1832
273.936	2181
273.997	3080
274.057	655
274.117	211
274.177	1180
274.237	5162
274.297	5282
274.358	2696
274.418	3314
274.478	4211
274.538	671
274.598	321
274.658	2326
274.718	2765
274.778	854
274.838	1205
274.898	845
274.958	2573
275.018	3912
275.078	3178
275.138	1304
275.198	457
275.258	1073
275.318	639
275.378	1383
275.438	2115
275.498	936
275.558	1862
275.618	4103
275.678	2819
275.738	2592
275.798	2688
275.858	1081
275.918	1132
275.978	507
276.038	733
276.098	955
276.157	1608
276.217	3606
276.277	2844
276.337	1171
276.397	1506
276.457	1149
276.517	836
276.576	645
276.636	566
276.696	1720
276.756	2147
276.815	1743
276.875	1284
276.935	834
276.995	1426
277.055	1250
277.114	896
277.174	548
277.234	3091
277.293	1105
277.353	1479
277.413	679
277.472	-30
277.532	457
277.592	606
277.651	2187
277.711	4511
277.771	1621
277.830	4260
277.890	5137
277.950	2492
278.009	7342
278.069	3705
278.128	3287
278.188	4839
278.248	1157
278.307	4878
278.367	3138
278.426	1535
278.486	870
278.545	432
278.605	1065
278.664	558
278.724	1154
278.783	1942
278.843	4190
278.902	1676
278.962	1079
279.021	775
279.081	1751
279.140	1336
279.199	1576
279.259	1132
279.318	1406
279.378	2093
279.437	1399
279.496	6272
279.556	15610
279.615	13734
279.675	3975
279.734	2335
279.793	3324
279.853	5539
279.912	2948
279.971	1445
280.031	1832
280.090	2280
280.149	4074
280.208	3467
280.268	11763
280.327	11860
280.386	2355
280.445	3170
280.505	2453
280.564	1748
280.623	1654
280.682	2116
280.742	2689
280.801	883
280.860	1025
280.919	1322
280.978	653
281.037	296
281.097	98
281.156	1355
281.215	635
281.274	644
281.333	3303
281.392	2833
281.451	627
281.510	774
281.569	521
281.628	841
281.688	626
281.747	1866
281.806	477
281.865	1250
281.924	538
281.983	640
282.042	71
282.101	236
282.160	851
282.219	846
282.278	-2
282.337	1582
282.396	1350
282.454	321
282.513	-103
282.572	3583
282.631	1926
282.690	1275
282.749	593
282.808	1460
282.867	206
282.926	975
282.985	302
283.043	378
283.102	1066
283.161	487
283.220	2102
283.279	3598
283.338	1645
283.396	713
283.455	1171
283.514	1946
283.573	1172
283.631	1478
283.690	620
283.749	676
283.808	449
283.866	2544
283.925	851
283.984	2119
284.043	678
284.101	1251
284.160	1029
284.219	1681
284.277	2006
284.336	1311
284.395	5075
284.453	3588
284.512	1104
284.570	2029
284.629	2198
284.688	1438
284.746	1755
284.805	2318
284.863	2847
284.922	3730
284.981	4666
285.039	5425
285.098	9249
285.156	17045
285.215	19701
285.273	19911
285.332	18140
285.390	12201
285.449	7878
285.507	6246
285.566	3831
285.624	4109
285.683	2586
285.741	1951
285.799	2545
285.858	1923
285.916	2144
285.975	1787
286.033	1204
286.091	1993
286.150	851
286.208	234
286.267	1250
286.325	355
286.383	2071
286.442	1754
286.500	956
286.558	855
286.616	1125
286.675	1791
286.733	587
286.791	229
286.850	1268
286.908	828
286.966	2154
287.024	1183
287.083	236
287.141	1136
287.199	1681
287.257	1725
287.315	1841
287.374	864
287.432	1580
287.490	1923
287.548	867
287.606	1179
287.664	1037
287.723	1519
287.781	1477
287.839	1397
287.897	1541
287.955	1622
288.013	2228
288.071	3583
288.129	11351
288.187	32894
288.245	18001
288.303	5302
288.361	2482
288.419	2545
288.477	1796
288.535	1124
288.593	1261
288.651	1198
288.709	683
288.767	1491
288.825	1261
288.883	1360
288.941	1098
288.999	1063
289.057	572
289.115	645
289.173	542
289.231	922
289.289	291
289.346	71
289.404	1165
289.462	1185
289.520	1224
289.578	456
289.636	462
289.694	797
289.751	370
289.809	1485
289.867	600
289.925	1279
289.983	1545
290.040	1257
290.098	691
290.156	1062
290.214	1353
290.271	763
290.329	950
290.387	1320
290.444	1307
290.502	987
290.560	848
290.617	1296
290.675	1251
290.733	783
290.790	1225
290.848	1398
290.906	1313
290.963	1368
291.021	672
291.078	684
291.136	1083
291.194	2120
291.251	5714
291.309	1334
291.366	1228
291.424	834
291.481	606
291.539	1009
291.596	1358
291.654	1234
291.711	890
291.769	1072
291.826	1574
291.884	1032
291.941	712
291.999	1124
292.056	429
292.114	2002
292.171	-38
292.228	1068
292.286	986
292.343	1434
292.401	2449
292.458	1165
292.515	228
292.573	1712
292.630	1224
292.687	709
292.745	886
292.802	480
292.859	3642
292.917	3841
292.974	2547
293.031	1363
293.089	680
293.146	505
293.203	242
293.260	707
293.318	733
293.375	1777
293.432	1394
293.489	1332
293.546	2180
293.604	589
293.661	2615
293.718	6896
293.775	4182
293.832	2636
293.889	1689
293.947	1948
294.004	1262
294.061	1493
294.118	2539
294.175	4550
294.232	7545
294.289	2708
294.346	1905
294.403	2383
294.460	1039
294.517	916
294.574	806
294.631	1500
294.688	1121
294.745	2254
294.802	7431
294.859	10792
294.916	3947
294.973	2915
295.030	2089
295.087	1582
295.144	1307
295.201	1975
295.258	520
295.315	1835
295.372	3215
295.429	5141
295.486	2988
295.542	2466
295.599	4011
295.656	10311
295.713	5791
295.770	5820
295.827	2617
295.883	1808
295.940	1795
295.997	1403
296.054	2291
296.111	1286
296.167	2249
296.224	885
296.281	1141
296.338	1756
296.394	656
296.451	1137
296.508	1958
296.564	4725
296.621	4154
296.678	6112
296.734	8169
296.791	4768
296.848	2298
296.904	2890
296.961	4335
297.018	5550
297.074	4678
297.131	2826
297.187	1987
297.244	2087
297.301	4617
297.357	8748
297.414	3676
297.470	2653
297.527	1445
297.583	2126
297.640	1811
297.696	1549
297.753	1492
297.809	828
297.866	1271
297.922	1165
297.979	568
298.035	161
298.092	1214
298.148	3090
298.204	3965
298.261	1883
298.317	3602
298.374	7294
298.430	4109
298.486	2408
298.543	1037
298.599	1414
298.656	1133
298.712	2471
298.768	5339
298.824	3807
298.881	2056
298.937	1175
298.993	1230
299.050	1484
299.106	1554
299.162	1166
299.218	1730
299.275	1585
299.331	1559
299.387	1855
299.443	6454
299.500	9816
299.556	6968
299.612	2920
299.668	2310
299.724	6401
299.780	7545
299.837	3550
299.893	3253
299.949	7133
300.005	10437
300.061	7513
300.117	12087
300.173	6487
300.229	2465
300.285	2479
300.341	3811
300.397	2563
300.453	1226
300.510	1050
300.566	1913
300.622	3146
300.678	8499
300.734	14078
300.790	8301
300.845	6867
300.901	6444
300.957	10766
301.013	6355
301.069	2637
301.125	1584
301.181	1717
301.237	1569
301.293	1019
301.349	734
301.405	501
301.461	712
301.516	1691
301.572	1864
301.628	2049
301.684	1723
301.740	2630
301.796	3782
301.851	2931
301.907	3891
301.963	5380
302.019	6113
302.074	13449
302.130	14238
302.186	8604
302.242	3956
302.297	2208
302.353	2436
302.409	3537
302.464	3120
302.520	2784
302.576	5961
302.631	6863
302.687	4783
302.743	2690
302.798	1059
302.854	2356
302.910	1774
302.965	2047
303.021	2781
303.076	3149
303.132	3319
303.187	4077
303.243	2162
303.299	2309
303.354	1718
303.410	1834
303.465	1471
303.521	1817
303.576	1184
303.632	2528
303.687	2834
303.743	5935
303.798	5512
303.853	3098
303.909	2143
303.964	1072
304.020	2128
304.075	3016
304.130	2290
304.186	4579
304.241	5997
304.297	4158
304.352	2398
304.358	2381
304.407	2237
304.449	1995
304.463	1917
304.518	1803
304.539	1919
304.573	2080
304.629	1535
304.630	1550
304.684	2329
304.720	3329
304.739	3778
304.794	6689
304.811	5899
304.850	3889
304.902	2179
304.905	2081
304.960	2085
304.992	2263
305.015	2365
305.071	1992
305.083	2088
305.126	2340
305.173	2180
305.181	2183
305.236	1436
305.264	1641
305.292	1811
305.347	1841
305.354	1763
305.402	1402
305.445	2351
305.457	2582
305.512	2979
305.535	2684
305.567	2276
305.622	2044
305.626	2062
305.678	3569
305.716	6872
305.733	7769
305.788	8338
305.807	7410
305.843	6142
305.897	7828
305.898	7840
305.953	6971
305.988	5145
306.008	4252
306.063	3188
306.078	2818
306.118	2130
306.168	1960
306.173	1959
306.228	2157
306.259	1930
306.283	1714
306.338	1512
306.349	1631
306.393	2326
306.440	2663
306.448	2666
306.503	2569
306.530	2532
306.558	3408
306.613	6465
306.620	6757
306.668	8219
306.711	9780
306.723	9547
306.778	7220
306.801	5695
306.833	4373
306.888	2997
306.892	2913
306.943	2552
306.982	2401
306.997	2422
307.052	2105
307.072	2378
307.107	3019
307.162	3100
307.163	3098
307.217	3993
307.253	4970
307.272	5102
307.327	4787
307.343	4581
307.381	4332
307.434	3943
307.436	4088
307.491	8058
307.524	10576
307.546	10417
307.600	10165
307.614	9441
307.655	6847
307.704	4319
307.710	4354
307.765	4611
307.795	5835
307.819	7494
307.874	10270
307.885	10730
307.929	9901
307.975	9199
307.984	9899
308.038	14865
308.065	17803
308.093	28305
308.148	52342
308.156	56552
308.202	74548
308.246	87199
308.257	83725
308.312	54788
308.336	40939
308.366	32335
308.421	19538
308.426	18359
308.475	12905
308.517	9321
308.530	8968
308.585	8000
308.607	7664
308.639	7587
308.694	7277
308.697	7286
308.748	11828
308.787	15775
308.803	15379
308.857	12093
308.877	11076
308.912	11537
308.967	11875
308.967	11863
309.021	16692
309.058	20154
309.076	25483
309.130	42336
309.148	48466
309.185	72293
309.238	109199
309.239	109635
309.293	112985
309.328	111204
309.348	99671
309.402	61439
309.418	50463
309.457	37852
309.508	23454
309.511	23203
309.566	19116
309.598	16763
309.620	17467
309.674	19810
309.688	20551
309.729	19440
309.778	17111
309.783	16862
309.837	12814
309.868	10819
309.892	12870
309.946	18369
309.959	19770
310.001	24643
310.049	29237
310.055	28137
310.109	16862
310.139	10401
310.163	8940
310.218	6656
310.229	6158
310.272	5724
310.319	5341
310.326	5226
310.381	4270
310.409	3782
310.435	3838
310.489	3905
310.499	3955
310.543	4265
310.589	4532
310.598	4656
310.652	5232
310.679	5354
310.706	4887
310.760	4224
310.769	4108
310.814	4071
310.859	3892
310.868	3973
310.923	4333
310.948	4558
310.977	4622
311.031	4625
311.038	4626
311.085	4463
311.128	4160
311.139	4234
311.193	4531
311.218	4654
311.247	4755
311.301	5035
311.308	5044
311.356	4902
311.398	4654
311.410	4622
311.464	4451
311.488	4361
311.518	4294
311.572	4189
311.578	4157
311.626	5382
311.668	6474
311.680	6500
311.734	6420
311.758	6405
311.788	6450
311.842	6395
311.847	6373
311.896	8325
311.937	9964
311.950	9827
312.004	9032
312.027	8675
312.058	7591
312.112	5564
312.117	5345
312.165	5810
312.207	6174
312.297	8433
312.386	7046
312.476	5565
312.566	9457
312.656	6076
312.745	4900
312.835	5049
312.925	6189
313.015	5727
313.104	6586
313.194	4892
313.284	5900
313.374	7445
313.463	6532
313.553	6069
313.643	5382
313.732	5517
313.822	5487
313.912	7050
314.001	7648
314.091	8295
314.180	9949
314.270	9237
314.360	7915
314.449	7452
314.539	6817
314.628	6829
314.718	7124
314.808	8023
314.897	6194
314.987	6892
315.076	7430
315.166	8288
315.255	8194
315.345	8908
315.434	6991
315.524	7680
315.613	7864
315.703	10032
315.792	16025
315.881	41697
315.971	16264
316.060	12075
316.150	13556
316.239	14820
316.328	7727
316.418	6876
316.507	6523
316.597	8293
316.686	8517
316.775	9503
316.865	14690
316.954	6705
317.043	6076
317.133	6297
317.222	5615
317.311	5647
317.400	4362
317.490	7009
317.579	7651
317.668	6242
317.757	9608
317.847	22208
317.936	66999
318.025	26145
318.114	18346
318.203	11221
318.293	12251
318.382	19949
318.471	17190
318.560	22097
318.649	43042
318.738	11237
318.828	7896
318.917	7259
319.006	8196
319.095	17446
319.184	49407
319.273	25804
319.362	13968
319.451	6389
319.540	5533
319.629	10609
319.718	15956
319.807	8712
319.896	17082
319.985	58494
320.074	20615
320.163	7907
320.252	11019
320.341	11378
320.430	12066
320.519	12209
320.608	8844
320.697	8456
320.786	8906
320.875	9556
320.964	11552
321.053	14641
321.142	19431
321.230	21109
321.319	18327
321.408	35421
321.497	18402
321.586	17198
321.675	18074
321.764	18708
321.852	14896
321.941	22239
322.030	16344
322.119	18424
322.207	34940
322.296	27554
322.385	19026
322.474	20735
322.562	42123
322.651	24997
322.740	17280
322.829	20743
322.917	20139
323.006	13950
323.095	12732
323.183	10398
323.272	13321
323.361	19211
323.449	45354
323.538	17106
323.626	32594
323.715	20249
323.804	10897
323.892	30370
323.981	17975
324.069	8459
324.158	18042
324.246	17331
324.335	9981
324.424	12384
324.512	6584
324.601	8956
324.689	12938
324.778	20727
324.866	14201
324.954	7241
325.043	6316
325.131	9348
325.220	14500
325.308	15164
325.397	13247
325.485	8760
325.574	5536
325.662	5412
325.750	5104
325.839	5891
325.927	4997
326.015	6225
326.104	7919
326.192	9803
326.280	5961
326.369	5575
326.457	7224
326.545	11734
326.634	6247
326.722	5098
326.810	5168
326.898	5380
326.987	6932
327.075	9876
327.163	10404
327.251	6361
327.340	11096
327.428	15449
327.516	7945
327.604	6548
327.692	6019
327.781	5866
327.869	7612
327.957	6208
328.045	6507
328.133	4497
328.221	5131
328.309	5245
328.397	5604
328.485	7076
328.574	8081
328.662	23455
328.750	12837
328.838	6558
328.926	5375
329.014	5373
329.102	6635
329.190	15802
329.278	10145
329.366	4634
329.454	3797
329.542	4599
329.630	4583
329.718	5032
329.806	5651
329.893	5740
329.981	5504
330.069	4942
330.157	6704
330.245	12817
330.333	8370
330.421	4754
330.509	6917
330.597	22328
330.684	15550
330.772	8382
330.860	10971
330.948	15571
331.036	7092
331.123	4664
331.211	5069
331.299	6762
331.387	13872
331.475	21581
331.562	7590
331.650	5162
331.738	5513
331.825	6484
331.913	5397
332.001	4202
332.089	6363
332.176	9454
332.264	17231
332.352	14631
332.439	7699
332.527	6129
332.614	5373
332.702	5886
332.790	5450
332.877	8578
332.965	16385
333.052	7046
333.140	6679
333.228	11357
333.315	5471
333.403	5789
333.490	11661
333.578	10109
333.665	13089
333.753	9009
333.840	6822
333.928	8088
334.015	13492
334.103	21606
334.190	60714
334.278	22651
334.365	18038
334.452	16611
334.540	12507
334.627	13130
334.715	16426
334.802	24822
334.889	69370
334.977	71645
335.064	26604
335.151	15799
335.239	13268
335.326	13805
335.413	34243
335.501	44077
335.588	13095
335.675	12749
335.762	16276
335.850	24534
335.937	25574
336.024	44231
336.111	97871
336.199	58762
336.286	24569
336.373	14890
336.460	10909
336.547	9353
336.635	9474
336.722	9026
336.809	7197
336.896	9680
336.983	21601
337.070	48760
337.157	61540
337.245	38304
337.332	26375
337.419	7044
337.506	7321
337.593	7715
337.680	18834
337.767	52278
337.854	16094
337.941	18634
338.028	16722
338.115	7883
338.202	10983
338.289	13608
338.376	35904
338.463	14275
338.550	30257
338.637	31346
338.724	9839
338.811	13957
338.898	5310
338.984	5496
339.071	7473
339.158	7168
339.245	14392
339.332	9995
339.419	10104
339.506	10199
339.593	4529
339.679	5728
339.766	4544
339.853	6307
339.940	9625
340.027	6004
340.113	5972
340.200	6819
340.287	5606
340.374	6585
340.460	9498
340.547	5539
340.634	7735
340.720	21301
340.807	13197
340.894	5520
340.980	5661
341.067	4511
341.154	6279
341.240	7553
341.327	13167
341.414	6790
341.500	6677
341.587	6325
341.674	6114
341.760	8877
341.847	10604
341.933	5599
342.020	4380
342.106	4077
342.193	5673
342.279	7734
342.366	6318
342.452	9874
342.539	5551
342.625	10858
342.712	22037
342.798	10252
342.885	6643
342.971	4035
343.058	3312
343.144	4633
343.230	4889
343.317	5138
343.403	4345
343.490	4133
343.576	3603
343.662	4381
343.749	5118
343.835	6088
343.921	7940
344.008	28558
344.094	60229
344.180	15251
344.267	8210
344.353	20572
344.439	22064
344.525	13711
344.612	12894
344.698	14046
344.784	9222
344.870	6115
344.957	3713
345.043	6133
345.129	5347
345.215	8891
345.301	6373
345.387	5287
345.474	4776
345.560	4437
345.646	4472
345.732	5226
345.818	5892
345.904	4851
345.990	5028
346.076	4866
346.162	7935
346.249	6120
346.335	3648
346.421	4664
346.507	9569
346.593	26527
346.679	8278
346.765	6558
346.851	7270
346.937	6738
347.023	6315
347.108	4987
347.194	4861
347.280	5417
347.366	5820
347.452	15609
347.538	37252
347.624	26531
347.710	21830
347.796	5768
347.882	4945
347.967	4733
348.053	7449
348.139	6377
348.225	4311
348.311	4652
348.397	5118
348.482	6316
348.568	7185
348.654	5968
348.740	14052
348.825	17577
348.911	10784
348.997	16632
349.083	28910
349.168	7851
349.254	5456
349.340	5467
349.425	4474
349.511	6636
349.597	5894
349.682	8459
349.768	21817
349.854	10954
349.939	5674
350.025	4827
350.110	4941
350.196	3884
350.282	4374
350.367	4678
350.453	5900
350.538	5653
350.624	5115
350.709	6951
350.795	4467
350.880	4175
350.966	6272
351.051	6116
351.137	4833
351.222	4684
351.308	9132
351.393	20341
351.479	7236
351.564	4432
351.649	4898
351.735	4133
351.820	4506
351.906	4197
351.991	5754
352.076	14085
352.162	20890
352.247	6114
352.332	5007
352.418	8684
352.503	9168
352.588	29148
352.673	24131
352.759	8089
352.844	4914
352.929	6196
353.014	6957
353.100	5357
353.185	5973
353.270	9151
353.355	10231
353.441	5055
353.526	5234
353.611	8140
353.696	9471
353.781	7058
353.866	3174
353.952	5334
354.037	9036
354.122	16251
354.207	15775
354.292	6945
354.377	4583
354.462	4606
354.547	5454
354.632	5044
354.717	7707
354.802	6278
354.887	3947
354.972	3930
355.057	3848
355.142	2867
355.227	5059
355.312	6249
355.397	11654
355.482	24660
355.567	13187
355.652	10483
355.737	10067
355.822	25196
355.907	20289
355.991	5874
356.076	4712
356.161	4390
356.246	3887
356.331	5120
356.416	6968
356.501	35382
356.585	35310
356.670	7957
356.755	7370
356.840	7970
356.924	26041
357.009	81607
357.094	34236
357.179	10258
357.263	6852
357.348	8530
357.433	8233
357.517	7892
357.602	6298
357.687	5164
357.771	8229
357.856	19722
357.941	13651
358.025	21426
358.110	77554
358.195	39527
358.279	10423
358.364	7702
358.448	19699
358.533	48796
358.617	35949
358.702	34209
358.787	14693
358.871	10318
358.956	9009
359.040	4986
359.125	4068
359.209	4697
359.294	10048
359.378	18607
359.462	11131
359.547	7014
359.631	4802
359.716	3723
359.800	4530
359.885	8362
359.969	4861
360.053	4893
360.138	5608
360.222	5869
360.306	8939
360.391	8188
360.475	12994
360.559	24577
360.644	21452
360.728	15368
360.812	21409
360.896	52182
360.981	28037
361.065	18445
361.149	6933
361.233	6792
361.318	5871
361.402	5967
361.486	6606
361.570	6393
361.654	6553
361.739	11229
361.823	35839
361.907	53434
361.991	14471
362.075	12221
362.159	21889
362.243	25383
362.327	45556
362.411	59825
362.495	26391
362.580	14469
362.664	13369
362.748	14493
362.832	20816
362.916	41801
363.000	107848
363.084	155128
363.168	99799
363.252	32277
363.336	17465
363.420	16987
363.503	45279
363.587	53338
363.671	12579
363.755	11496
363.839	16459
363.923	12035
364.007	18226
364.091	22687
364.175	34808
364.258	102605
364.342	145169
364.426	206874
364.510	112997
364.594	43777
364.677	26260
364.761	50851
364.845	36914
364.929	18405
365.013	15035
365.096	12848
365.180	14000
365.264	19031
365.347	65231
365.431	31252
365.515	11845
365.598	6292
365.682	7322
365.766	11743
365.849	13701
365.933	7319
366.017	10914
366.100	8970
366.184	5067
366.267	6615
366.351	5483
366.435	4683
366.518	4341
366.602	4769
366.685	4898
366.769	6324
366.852	9545
366.936	15373
367.019	8360
367.103	8895
367.186	17464
367.270	5387
367.353	4311
367.436	6430
367.520	4613
367.603	7483
367.687	7418
367.770	11360
367.853	7870
367.937	16196
368.020	23755
368.104	7570
368.187	9174
368.270	13345
368.353	12691
368.437	12407
368.520	24838
368.603	16814
368.687	19313
368.770	33768
368.853	10577
368.936	12947
369.020	14556
369.103	5630
369.186	4077
369.269	4619
369.352	8307
369.436	10873
369.519	7193
369.602	3576
369.685	6466
369.768	4797
369.851	6234
369.934	3889
370.018	5131
370.101	8423
370.184	10122
370.267	7174
370.350	9274
370.433	13666
370.516	27443
370.599	41343
370.682	16242
370.765	24317
370.848	25685
370.931	39194
371.014	20455
371.097	5472
371.180	5110
371.263	4891
371.346	2959
371.429	4108
371.511	3658
371.594	7035
371.677	11485
371.760	15552
371.843	9933
371.926	31278
372.009	65804
372.091	26540
372.174	16356
372.257	34517
372.340	15476
372.423	17866
372.505	22685
372.588	9915
372.671	14247
372.754	37979
372.836	21195
372.919	21826
373.002	44601
373.085	13527
373.167	9866
373.250	19657
373.332	34588
373.415	46899
373.498	87178
373.580	39449
373.663	57385
373.746	70162
373.828	19539
373.911	11124
373.993	12003
374.076	40888
374.159	38479
374.241	14569
374.324	35711
374.406	25670
374.489	27136
374.571	69749
374.654	30653
374.736	18840
374.819	45953
374.901	63787
374.983	65385
375.066	15553
375.148	9784
375.231	31532
375.313	62448
375.395	27874
375.478	9085
375.560	7253
375.643	7999
375.725	17038
375.807	55852
375.890	48076
375.972	23868
376.054	15041
376.136	21044
376.219	11740
376.301	18938
376.383	48687
376.465	21684
376.548	15499
376.630	17317
376.712	42957
376.794	21472
376.877	5767
376.959	4258
377.041	5092
377.123	11318
377.205	14669
377.287	5126
377.369	4706
377.452	4908
377.534	5262
377.616	4430
377.698	5194
377.780	3387
377.862	5262
377.944	5431
378.026	3719
378.108	5404
378.190	3852
378.272	5123
378.354	4368
378.436	3935
378.518	6968
378.600	21638
378.682	17071
378.764	25520
378.846	20843
378.928	9638
379.010	11054
379.091	7215
379.173	4791
379.255	3122
379.337	6341
379.419	12863
379.501	35041
379.583	15418
379.664	5809
379.746	10618
379.828	28315
379.910	33705
379.991	29080
380.073	7287
380.155	5975
380.237	4738
380.318	3268
380.400	4859
380.482	8279
380.564	10855
380.645	9568
380.727	10330
380.809	6841
380.890	5369
380.972	4590
381.053	4415
381.135	5571
381.217	10245
381.298	29160
381.380	13870
381.461	12367
381.543	43082
381.624	52920
381.706	12735
381.787	8599
381.869	8765
381.951	20485
382.032	65711
382.113	47054
382.195	13119
382.276	10988
382.358	14898
382.439	36232
382.521	42846
382.602	62953
382.684	31362
382.765	57799
382.846	61885
382.928	79497
383.009	46262
383.090	34680
383.172	113972
383.253	163221
383.334	62689
383.416	59723
383.497	33935
383.578	18548
383.659	33194
383.741	101981
383.822	234185
383.903	124016
383.984	47845
384.066	76190
384.147	49987
384.228	15648
384.309	13245
384.390	11526
384.471	9507
384.553	9466
384.634	11791
384.715	11356
384.796	7782
384.877	8818
384.958	25260
385.039	29804
385.120	13358
385.201	9436
385.282	11483
385.363	12872
385.444	9640
385.525	12523
385.606	31808
385.687	28357
385.768	13093
385.849	13902
385.930	37306
386.011	59358
386.092	20096
386.173	9734
386.254	9560
386.335	9852
386.416	9368
386.496	19842
386.577	31051
386.658	16032
386.739	11883
386.820	13307
386.901	11061
386.981	10487
387.062	9672
387.143	12047
387.224	29503
387.304	31823
387.385	17991
387.466	13978
387.547	18013
387.627	14119
387.708	18536
387.789	46334
387.869	51595
387.950	20865
388.031	9885
388.111	9979
388.192	19823
388.273	26141
388.353	15856
388.434	9523
388.514	13738
388.595	36847
388.676	48144
388.756	28219
388.837	28594
388.917	19497
388.998	7137
389.078	9114
389.159	7331
389.239	5284
389.320	9913
389.400	8575
389.480	14599
389.561	27530
389.641	15967
389.722	9596
389.802	12704
389.883	14987
389.963	30275
390.043	21199
390.124	11306
390.204	13579
390.284	32234
390.365	22374
390.445	30908
390.525	58474
390.605	45862
390.686	18546
390.766	10015
390.846	8951
390.927	5549
391.007	6706
391.087	8960
391.167	8021
391.247	6516
391.328	10156
391.408	14811
391.488	13580
391.568	6597
391.648	8809
391.728	11702
391.808	10724
391.888	11364
391.969	18577
392.049	28136
392.129	18665
392.209	18386
392.289	33257
392.369	24073
392.449	29361
392.529	21362
392.609	19096
392.689	20262
392.769	37998
392.849	38556
392.929	41461
393.009	69747
393.089	71145
393.169	103013
393.248	235701
393.328	459580
393.408	471285
393.488	250393
393.568	104550
393.648	57196
393.728	37572
393.807	27945
393.887	23478
393.967	21012
394.047	18878
394.127	21247
394.206	30960
394.286	78418
394.366	234026
394.446	250936
394.525	92773
394.605	32457
394.685	23502
394.764	38042
394.844	61182
394.924	51161
395.003	19769
395.083	13958
395.163	11709
395.242	11095
395.322	12065
395.402	9790
395.481	14848
395.561	25424
395.640	68543
395.720	81425
395.799	77292
395.879	57188
395.958	45911
396.038	116463
396.117	286122
396.197	311681
396.276	154772
396.356	67598
396.435	49251
396.515	40512
396.594	47004
396.673	83986
396.753	214366
396.832	424107
396.912	351831
396.991	131325
397.070	53088
397.150	30814
397.229	26716
397.308	43144
397.388	81618
397.467	44104
397.546	16595
397.625	11580
397.705	13217
397.784	11240
397.863	9185
397.942	7985
398.022	7326
398.101	18743
398.180	50745
398.259	29901
398.338	11173
398.417	7464
398.497	7033
398.576	8342
398.655	4984
398.734	6158
398.813	5950
398.892	16362
398.971	51446
399.050	26407
399.129	5871
399.208	5329
399.287	5464
399.366	4273
399.445	4942
399.524	5846
399.603	4100
399.682	7057
399.761	15525
399.840	51167
399.919	42215
399.998	7164
400.077	4541
400.156	3212
400.235	7047
400.313	3790
400.392	4151
400.471	15878
400.550	25127
400.629	8075
400.708	6121
400.786	4680
400.865	15310
400.944	16218
401.023	9276
401.102	2907
401.180	3276
401.259	4113
401.338	5204
401.416	5852
401.495	4932
401.574	5846
401.652	4103
401.731	5726
401.810	4771
401.888	2724
401.967	2478
402.046	3592
402.124	4942
402.203	5718
402.281	5054
402.360	6117
402.438	18154
402.517	13652
402.596	6086
402.674	5028
402.753	3513
402.831	3304
402.910	4945
402.988	9386
403.066	25484
403.145	17047
403.223	10828
403.302	20723
403.380	16554
403.459	16273
403.537	8852
403.615	5514
403.694	2589
403.772	4144
403.850	3813
403.929	3145
404.007	3189
404.085	5748
404.164	6437
404.242	5627
404.320	15470
404.398	40277
404.477	41382
404.555	60713
404.633	55290
404.711	33566
404.789	23215
404.868	7963
404.946	3815
405.024	3148
405.102	2150
405.180	2542
405.258	1910
405.336	3563
405.415	3289
405.493	6973
405.571	5676
405.649	2411
405.727	2734
405.805	6706
405.883	4995
405.961	5905
406.039	6467
406.117	2979
406.195	4930
406.273	13506
406.351	49104
406.429	31245
406.507	7883
406.585	4558
406.663	3890
406.740	4534
406.818	3446
406.896	3770
406.974	3731
407.052	5064
407.130	28648
407.208	41030
407.285	10052
407.363	2943
407.441	2996
407.519	2703
407.596	4519
407.674	14812
407.752	57408
407.830	51699
407.907	14550
407.985	4542
408.063	3856
408.141	2670
408.218	6410
408.296	5203
408.373	3352
408.451	4334
408.529	5367
408.606	2951
408.684	3522
408.762	3193
408.839	3913
408.917	3464
408.994	4031
409.072	3856
409.149	5579
409.227	9178
409.304	13133
409.382	15117
409.459	15186
409.537	19869
409.614	20191
409.692	16749
409.769	15916
409.846	19011
409.924	25701
410.001	20452
410.079	14785
410.156	11893
410.233	9741
410.311	6922
410.388	5999
410.465	6619
410.543	5073
410.620	5651
410.697	5701
410.775	5516
410.852	3544
410.929	5604
411.006	7274
411.083	4981
411.161	7145
411.238	9413
411.315	7027
411.392	4270
411.469	5368
411.547	4849
411.624	2281
411.701	3337
411.778	3257
411.855	6037
411.932	3778
412.009	3298
412.086	3177
412.163	3833
412.240	4444
412.317	4593
412.394	5635
412.471	2950
412.548	2568
412.625	2708
412.702	3703
412.779	5852
412.856	4750
412.933	2414
413.010	2255
413.087	3708
413.164	13706
413.241	20619
413.318	5106
413.395	5124
413.471	5751
413.548	2651
413.625	3038
413.702	3356
413.779	3331
413.855	1866
413.932	1459
414.009	1449
414.086	2235
414.162	2763
414.239	3194
414.316	13472
414.393	29798
414.469	10303
414.546	2805
414.623	2542
414.699	2886
414.776	3075
414.853	2465
414.929	2467
415.006	2051
415.082	3209
415.159	2781
415.236	1558
415.312	2675
415.389	4128
415.465	4571
415.542	3569
415.618	1960
415.695	3675
415.771	2934
415.848	2945
415.924	3112
416.000	2988
416.077	2636
416.153	1156
416.230	944
416.306	1755
416.383	1790
416.459	1683
416.535	1194
416.612	1370
416.688	1139
416.764	1243
416.841	891
416.917	2028
416.993	2097
417.069	2828
417.146	3216
417.222	5183
417.298	3193
417.374	957
417.451	2932
417.527	3642
417.603	3234
417.679	1999
417.755	2096
417.831	2019
417.908	1809
417.984	1394
418.060	1297
418.136	4824
418.212	5510
418.288	2737
418.364	3573
418.440	936
418.516	3942
418.592	5766
418.668	7975
418.744	10424
418.820	7351
418.896	3063
418.972	1054
419.048	2608
419.124	5080
419.200	4590
419.276	2534
419.352	2424
419.428	2731
419.504	2752
419.579	3031
419.655	2457
419.731	3609
419.807	7294
419.883	11963
419.959	8583
420.034	4604
420.110	6621
420.186	19596
420.262	17076
420.337	5266
420.413	5207
420.489	4346
420.565	4435
420.640	5045
420.716	5976
420.792	4264
420.867	5721
420.943	5029
421.019	7319
421.094	6976
421.170	6595
421.245	7014
421.321	8237
421.397	9600
421.472	17860
421.548	42643
421.623	30177
421.699	14347
421.774	15597
421.850	14962
421.925	19825
422.001	23528
422.076	27452
422.152	34175
422.227	45922
422.302	63299
422.378	89437
422.453	138924
422.529	210983
422.604	232818
422.679	178940
422.755	219714
422.830	220775
422.905	150826
422.981	99568
423.056	69388
423.131	53031
423.207	38507
423.282	32102
423.357	29924
423.432	23821
423.508	21000
423.583	23041
423.658	20094
423.733	14267
423.808	13639
423.883	14311
423.959	12786
424.034	13705
424.109	13657
424.184	9659
424.259	7202
424.334	7901
424.409	5190
424.484	6044
424.559	6315
424.634	5137
424.709	5908
424.784	6524
424.859	5444
424.934	6621
425.009	15508
425.084	24759
425.159	10993
425.234	5780
425.309	3360
425.384	7500
425.459	10309
425.534	6560
425.609	3318
425.683	3603
425.758	3947
425.833	4172
425.908	5522
425.983	9295
426.058	24180
426.132	12397
426.207	4799
426.282	7752
426.357	7091
426.431	2900
426.506	3806
426.581	3718
426.655	3139
426.730	3294
426.805	2711
426.879	4025
426.954	2796
427.029	5392
427.103	20252
427.178	43229
427.253	19841
427.327	4509
427.402	6284
427.476	14031
427.551	6630
427.625	4281
427.700	4443
427.774	2396
427.849	4667
427.923	2657
427.998	3349
428.072	4696
428.147	10307
428.221	37784
428.296	104026
428.370	57695
428.444	11654
428.519	9571
428.593	15537
428.667	13866
428.742	16480
428.816	19918
428.890	68940
428.965	105322
429.039	34004
429.113	18309
429.188	7828
429.262	4254
429.336	4573
429.410	12119
429.485	9889
429.559	13027
429.633	10624
429.707	6120
429.781	15539
429.855	75346
429.930	106475
430.004	47313
430.078	62977
430.152	70568
430.226	130243
430.300	129355
430.374	32074
430.448	12104
430.522	19677
430.596	52925
430.670	38341
430.744	87496
430.818	105313
430.892	22535
430.966	5615
431.040	3780
431.114	2580
431.188	2331
431.262	3000
431.336	2578
431.410	6829
431.484	16229
431.557	10746
431.631	2851
431.705	6422
431.779	25418
431.853	93943
431.927	65817
432.000	11377
432.074	3368
432.148	4221
432.222	3044
432.295	2782
432.369	1806
432.443	3595
432.516	18231
432.590	42736
432.664	17492
432.737	2752
432.811	1787
432.885	1097
432.958	2605
433.032	1055
433.106	1076
433.179	783
433.253	1279
433.326	1302
433.400	1243
433.473	837
433.547	1130
433.620	1954
433.694	3574
433.767	4013
433.841	1100
433.914	2011
433.988	1968
434.061	2082
434.134	2092
434.208	531
434.281	-42
434.355	602
434.428	1550
434.501	2038
434.575	1454
434.648	2069
434.721	924
434.795	1213
434.868	865
434.941	1137
435.014	1491
435.088	2009
435.161	2523
435.234	4048
435.307	5578
435.381	3962
435.454	5839
435.527	8162
435.600	10126
435.673	9999
435.746	7406
435.819	6244
435.892	4919
435.966	3569
436.039	2996
436.112	3363
436.185	2397
436.258	1940
436.331	1499
436.404	2144
436.477	1043
436.550	1206
436.623	1785
436.696	1199
436.769	1635
436.842	1354
436.915	2196
436.987	3054
437.060	1740
437.133	1503
437.206	1759
437.279	1519
437.352	625
437.425	1453
437.498	1699
437.570	3500
437.643	3795
437.716	1763
437.789	365
437.861	2719
437.934	6115
438.007	3152
438.080	1146
438.152	1856
438.225	3562
438.298	20669
438.370	53830
438.443	21570
438.516	5782
438.588	2450
438.661	579
438.734	1756
438.806	2034
438.879	1652
438.951	2145
439.024	2963
439.096	1263
439.169	1544
439.241	1223
439.314	621
439.386	2428
439.459	3693
439.531	3427
439.604	1730
439.676	980
439.749	832
439.821	1085
439.893	862
439.966	1327
440.038	1671
440.110	1600
440.183	1375
440.255	1442
440.327	2179
440.400	10537
440.472	38470
440.544	22560
440.617	4020
440.689	3022
440.761	3614
440.833	5797
440.905	4377
440.978	1021
441.050	1663
441.122	2001
441.194	807
441.266	1274
441.338	1080
441.411	2668
441.483	12983
441.555	19336
441.627	4945
441.699	4337
441.771	3801
441.843	2456
441.915	2574
441.987	2359
442.059	2807
442.131	2662
442.203	5124
442.275	5817
442.347	8551
442.419	17698
442.491	74812
442.563	155826
442.635	66961
442.706	25003
442.778	15195
442.850	5372
442.922	4514
442.994	5696
443.066	6242
443.137	6475
443.209	8486
443.281	12235
443.353	26888
443.425	87326
443.496	219580
443.568	232057
443.640	101162
443.711	24609
443.783	10168
443.855	6985
443.926	4436
443.998	4563
444.070	4924
444.141	3994
444.213	4518
444.285	5712
444.356	4362
444.428	4414
444.499	3188
444.571	3012
444.642	2789
444.714	3182
444.785	4517
444.857	6896
444.928	13390
445.000	8921
445.071	11610
445.143	13714
445.214	13365
445.285	23408
445.357	60580
445.428	153830
445.500	256044
445.571	219598
445.642	144978
445.714	53425
445.785	28622
445.856	10419
445.928	7207
445.999	5917
446.070	4171
446.141	4365
446.213	5044
446.284	2627
446.355	3372
446.426	2464
446.497	1881
446.569	3625
446.640	4813
446.711	3151
446.782	717
446.853	1969
446.924	2047
446.995	1440
447.066	1927
447.138	4477
447.209	2657
447.280	-12
447.351	11
447.422	662
447.493	1887
447.564	1712
447.635	2781
447.706	571
447.777	480
447.847	1065
447.918	404
447.989	1559
448.060	2947
448.131	7094
448.202	5052
448.273	2891
448.344	1421
448.414	1667
448.485	1031
448.556	480
448.627	-427
448.698	1039
448.768	148
448.839	148
448.910	2839
448.981	2980
449.051	640
449.122	-216
449.193	284
449.263	-523
449.334	797
449.405	1319
449.475	4048
449.546	2916
449.616	4331
449.687	3173
449.758	978
449.828	911
449.899	-160
449.969	86
450.040	595
450.110	674
450.181	-175
450.251	461
450.322	285
450.392	1362
450.463	785
450.533	1009
450.604	1169
450.674	930
450.744	1451
450.815	470
450.885	1248
450.955	1410
451.026	1270
451.096	1210
451.166	2131
451.237	4114
451.307	11757
451.377	4377
451.447	698
451.518	1221
451.588	379
451.658	2369
451.728	2496
451.799	13039
451.869	11722
451.939	2328
452.009	1043
452.079	1365
452.149	1530
452.219	3518
452.289	14147
452.360	8824
452.430	2903
452.500	2244
452.570	4733
452.640	8707
452.710	22796
452.780	30937
452.850	16920
452.920	9671
452.990	3877
453.060	3379
453.129	2953
453.199	3246
453.269	13340
453.339	24639
453.409	35996
453.479	41325
453.549	60691
453.619	65208
453.688	19845
453.758	3136
453.828	1991
453.898	1093
453.968	1302
454.037	1368
454.087	1007
454.107	848
454.168	89
454.177	-41
454.247	1604
454.249	1574
454.316	349
454.330	570
454.386	1332
454.411	3231
454.456	6322
454.492	7772
454.525	9075
454.574	4210
454.595	2085
454.655	1145
454.665	994
454.734	1792
454.736	1867
454.804	3760
454.817	5337
454.873	11659
454.898	11663
454.943	11591
454.979	7081
455.013	3040
455.060	2426
455.082	2216
455.141	2940
455.152	3039
455.221	8917
455.222	9038
455.291	16045
455.303	15284
455.360	11364
455.384	16016
455.430	23962
455.465	17694
455.499	11784
455.546	11769
455.569	11774
455.627	7282
455.638	6457
455.707	1578
455.708	1599
455.777	1952
455.789	2004
455.846	2048
455.869	1997
455.916	1974
455.950	1860
455.985	1734
456.031	2045
456.054	2139
456.112	1522
456.124	1438
456.193	1729
456.193	1708
456.262	1864
456.274	2045
456.332	2717
456.355	2608
456.401	2363
456.436	2389
456.470	2351
456.516	1812
456.540	1613
456.597	1868
456.609	1876
456.678	1886
456.678	1866
456.747	2459
456.759	2222
456.817	1192
456.840	1666
456.886	2383
456.920	2334
456.955	2431
457.001	2463
457.024	2394
457.082	2055
457.093	1973
457.162	2491
457.163	2511
457.232	2825
457.243	2817
457.301	2834
457.324	2740
457.370	2605
457.405	2947
457.439	3268
457.485	3144
457.508	3066
457.566	3811
457.577	4050
457.646	4945
457.647	4987
457.715	9623
457.727	10774
457.784	17790
457.808	24134
457.853	32965
457.889	39473
457.922	41515
457.969	27479
457.991	25150
458.050	27654
458.060	28229
458.129	50748
458.130	51406
458.198	60716
458.211	54934
458.267	29999
458.292	21521
458.336	13291
458.372	12314
458.405	15375
458.453	22164
458.474	27023
458.533	48229
458.543	50084
458.611	86088
458.614	86383
458.680	60532
458.694	49276
458.749	20908
458.775	15377
458.818	9389
458.855	7448
458.887	6289
458.936	5564
458.955	5247
459.016	5314
459.024	5354
459.093	4470
459.097	4498
459.162	4615
459.177	4481
459.230	4123
459.257	4358
459.299	4777
459.338	4987
459.368	5012
459.418	5118
459.437	5130
459.499	4544
459.505	4489
459.574	4036
459.579	4059
459.643	4107
459.659	4079
459.711	3927
459.740	4021
459.780	4279
459.820	4085
459.849	4005
459.900	4669
459.917	4864
459.981	5076
459.986	5031
460.054	4739
460.061	4597
460.123	4201
460.141	4513
460.191	4771
460.222	4733
460.260	4930
460.302	5334
460.328	5583
460.382	5788
460.397	5908
460.462	6370
460.465	6558
460.534	11156
460.543	11873
460.602	29207
460.623	35916
460.671	52901
460.703	70767
460.739	67241
460.783	53431
460.808	45760
460.864	12813
460.876	9518
460.944	5831
460.945	5792
461.013	5456
461.024	5330
461.081	5030
461.104	5125
461.150	4804
461.184	4644
461.218	4895
461.264	5004
461.286	4844
461.345	4347
461.355	4322
461.423	4330
461.425	4333
461.491	4311
461.505	4381
461.559	6034
461.585	6836
461.628	8644
461.665	10775
461.696	11983
461.745	15089
461.764	14388
461.825	6915
461.832	6623
461.901	5061
461.905	5073
461.969	4673
461.985	4619
462.037	5561
462.065	5972
462.105	5624
462.145	5348
462.173	6418
462.225	8252
462.241	8415
462.305	10541
462.310	10485
462.378	9073
462.385	8601
462.446	6063
462.465	5742
462.514	5861
462.545	6091
462.582	5878
462.625	5389
462.650	5378
462.705	5766
462.718	5838
462.785	5795
462.786	5801
462.854	5880
462.865	5991
462.922	7336
462.945	7971
462.990	7397
463.025	6122
463.058	5655
463.104	5581
463.126	5490
463.184	5256
463.194	5371
463.262	5884
463.264	5921
463.330	6128
463.344	6095
463.398	6714
463.424	6840
463.466	5806
463.504	5236
463.533	5576
463.583	5760
463.601	5826
463.663	6129
463.669	6182
463.737	7055
463.743	7120
463.805	9226
463.823	9819
463.873	12316
463.903	14043
463.940	14940
463.982	16267
464.008	14430
464.062	8730
464.076	8288
464.142	6484
464.144	6477
464.211	6358
464.221	6383
464.279	6401
464.301	6408
464.347	6272
464.381	6166
464.414	6583
464.461	7307
464.482	7516
464.540	7830
464.550	7746
464.617	6874
464.620	6843
464.685	7688
464.699	7859
464.753	9616
464.779	10498
464.820	11396
464.859	12364
464.888	11897
464.938	10701
464.956	10746
465.018	10911
465.023	10864
465.091	10010
465.098	9916
465.158	9733
465.177	9663
465.226	9558
465.257	9514
465.293	10155
465.336	10785
465.361	10844
465.416	10943
465.428	11189
465.495	12600
465.496	12647
465.563	16941
465.575	17747
465.631	20070
465.654	21194
465.698	15975
465.734	10701
465.765	10061
465.813	9490
465.833	9301
465.893	8927
465.900	8942
465.968	9079
465.972	9061
466.035	9149
466.052	9192
466.102	9200
466.131	9131
466.170	8857
466.210	8553
466.237	8737
466.290	9128
466.304	9249
466.369	9589
466.372	9625
466.439	10276
466.449	10334
466.506	10248
466.528	10236
466.573	12309
466.607	13792
466.641	16745
466.687	20864
466.708	22416
466.766	26787
466.775	25217
466.842	12836
466.845	12228
466.909	10639
466.925	10290
466.977	9984
467.004	9835
467.044	10639
467.083	11388
467.111	12467
467.163	14465
467.178	14996
467.242	17072
467.245	16987
467.312	14609
467.321	14269
467.379	14046
467.400	13927
467.446	14686
467.480	15189
467.559	13943
467.638	13229
467.717	13053
467.796	13890
467.875	12741
467.955	13447
468.034	17220
468.113	28631
468.192	37226
468.271	19266
468.350	18185
468.429	21927
468.508	21750
468.588	17096
468.667	14440
468.746	14030
468.825	13385
468.904	12425
468.983	13453
469.062	15028
469.141	16689
469.220	12450
469.299	12488
469.378	12938
469.456	16392
469.535	15383
469.614	14082
469.693	14524
469.772	16280
469.851	17520
469.930	14831
470.009	14226
470.088	13052
470.166	13393
470.245	14192
470.324	14111
470.403	13235
470.482	12720
470.560	13355
470.639	11843
470.718	13333
470.797	12299
470.875	13088
470.954	15055
471.033	15754
471.111	11957
471.190	11438
471.269	10891
471.347	11434
471.426	11948
471.505	12967
471.583	14294
471.662	14511
471.740	13206
471.819	13424
471.898	12402
471.976	12766
472.055	12995
472.133	13506
472.212	16430
472.290	14788
472.369	12646
472.447	12375
472.526	11248
472.604	11909
472.683	12434
472.761	12773
472.839	11921
472.918	11563
472.996	12261
473.075	12785
473.153	13102
473.231	11892
473.310	12354
473.388	11737
473.466	12197
473.545	13286
473.623	14071
473.701	13676
473.780	12841
473.858	11992
473.936	14542
474.014	12281
474.093	13792
474.171	16023
474.249	18392
474.327	14427
474.405	11219
474.484	11373
474.562	12002
474.640	11143
474.718	11366
474.796	11798
474.874	11845
474.952	10307
475.030	10741
475.108	10911
475.187	10911
475.265	11564
475.343	12908
475.421	13735
475.499	12249
475.577	11897
475.655	13168
475.733	17764
475.811	24966
475.889	22323
475.966	18409
476.044	11151
476.122	13122
476.200	12657
476.278	11845
476.356	11286
476.434	11997
476.512	11764
476.590	11554
476.667	12693
476.745	11033
476.823	11154
476.901	11306
476.979	11861
477.056	12531
477.134	11610
477.212	12357
477.290	11467
477.367	10715
477.445	11527
477.523	10337
477.601	10599
477.678	10877
477.756	12413
477.834	12693
477.911	10832
477.989	10686
478.066	11074
478.144	11264
478.222	11333
478.299	12474
478.377	13460
478.454	12667
478.532	11082
478.609	11143
478.687	11464
478.764	9929
478.842	10920
478.919	11102
478.997	10242
479.074	10071
479.152	11432
479.229	13328
479.307	10474
479.384	9978
479.461	10382
479.539	10192
479.616	11367
479.694	10511
479.771	10851
479.848	10428
479.926	11227
480.003	14604
480.080	10392
480.157	10194
480.235	8840
480.312	10343
480.389	11193
480.467	14227
480.544	14635
480.621	12264
480.698	11687
480.775	12355
480.853	12014
480.930	11360
481.007	11051
481.084	13634
481.161	18234
481.238	14650
481.315	10445
481.392	10857
481.470	10575
481.547	11441
481.624	10642
481.701	10833
481.778	10982
481.855	11307
481.932	13806
482.009	17387
482.086	15505
482.163	12145
482.240	12386
482.317	14763
482.393	12728
482.470	12028
482.547	11658
482.624	11201
482.701	12026
482.778	10364
482.855	10490
482.932	11083
483.009	10755
483.085	13229
483.162	14975
483.239	16538
483.316	11515
483.393	12540
483.469	11837
483.546	11521
483.623	12079
483.699	11561
483.776	11516
483.853	11699
483.930	13223
484.006	23632
484.083	37235
484.160	32284
484.236	46973
484.313	38147
484.389	28990
484.466	28432
484.543	27127
484.619	28075
484.696	30301
484.772	28179
484.849	27570
484.925	24961
485.002	24108
485.078	24789
485.155	24351
485.231	23346
485.308	22099
485.384	23402
485.461	24579
485.537	29824
485.614	34048
485.690	23192
485.766	22592
485.843	22319
485.919	23369
485.995	24192
486.072	21168
486.148	20635
486.224	19910
486.301	20273
486.377	21869
486.453	22104
486.530	23463
486.606	29766
486.682	32131
486.758	32551
486.835	33758
486.911	29068
486.987	36480
487.063	35605
487.139	37475
487.215	34643
487.292	30208
487.368	26821
487.444	29974
487.520	34143
487.596	40557
487.672	72468
487.748	176113
487.824	265714
487.900	114290
487.976	42393
488.052	30460
488.128	28574
488.204	23874
488.280	22841
488.356	25247
488.432	33412
488.508	41920
488.584	24101
488.660	19675
488.736	20067
488.812	19923
488.888	22457
488.964	24751
489.039	31024
489.115	38693
489.191	31499
489.267	21062
489.343	20196
489.418	18528
489.494	18441
489.570	16666
489.646	19414
489.722	18686
489.797	18124
489.873	23025
489.949	33347
490.024	31307
490.100	17898
490.176	17613
490.251	18246
490.327	19979
490.403	17007
490.478	16154
490.554	16150
490.629	17056
490.705	16123
490.781	16342
490.856	16612
490.932	16874
491.007	16775
491.083	16991
491.158	15405
491.234	18768
491.309	27276
491.385	27397
491.460	15852
491.536	15667
491.611	15455
491.686	14835
491.762	15879
491.837	21194
491.913	28789
491.988	35725
492.063	41526
492.139	21742
492.214	18199
492.289	14337
492.365	13425
492.440	15454
492.515	14626
492.590	14827
492.666	13849
492.741	15491
492.816	19805
492.891	14871
492.967	14051
493.042	13728
493.117	14204
493.192	14941
493.267	19102
493.342	41003
493.418	53586
493.493	17833
493.568	12564
493.643	12812
493.718	14838
493.793	15091
493.868	16528
493.943	13465
494.018	12935
494.093	12293
494.168	14009
494.243	12594
494.318	13123
494.393	12287
494.468	11758
494.543	11934
494.618	12090
494.693	11771
494.768	12301
494.842	12856
494.917	11712
494.992	12141
495.067	11565
495.142	11535
495.217	12163
495.292	11396
495.366	12899
495.441	12359
495.516	16236
495.591	16605
495.665	31826
495.740	59413
495.815	33896
495.890	15423
495.964	12216
496.039	16174
496.114	15276
496.188	20541
496.263	19041
496.338	12783
496.412	14059
496.487	15364
496.561	14501
496.636	15196
496.710	14725
496.785	14551
496.860	15592
496.934	13431
497.009	12692
497.083	12798
497.158	14164
497.232	13872
497.307	15441
497.381	13157
497.455	14895
497.530	17183
497.604	14511
497.679	12504
497.753	18217
497.827	19175
497.902	15369
497.976	19887
498.050	43532
498.125	138809
498.199	149640
498.273	23707
498.348	15073
498.422	14296
498.496	14480
498.570	14548
498.645	13391
498.719	11924
498.793	14695
498.867	19534
498.941	25623
499.016	62543
499.090	154501
499.164	66924
499.238	14710
499.312	13271
499.386	15072
499.460	15010
499.534	13127
499.609	15538
499.683	18041
499.757	19352
499.831	31735
499.905	104183
499.979	109780
500.053	21948
500.127	21195
500.201	15587
500.275	14837
500.349	13002
500.422	14291
500.496	16019
500.570	24907
500.644	62602
500.718	114109
500.792	35471
500.866	13965
500.940	17226
501.013	15606
501.087	14260
501.161	18122
501.235	21872
501.309	42267
501.382	101417
501.456	99627
501.530	26566
501.603	37804
501.677	22079
501.751	11576
501.825	12917
501.898	21117
501.972	44293
502.046	34062
502.119	13160
502.193	23481
502.266	48405
502.340	30556
502.413	25206
502.487	45659
502.561	27433
502.634	14741
502.708	13103
502.781	11196
502.855	11000
502.928	10385
503.002	11011
503.075	10487
503.149	11491
503.222	11603
503.295	11958
503.369	12936
503.442	15231
503.516	35724
503.589	80011
503.662	60003
503.736	25601
503.809	43466
503.882	43523
503.956	57106
504.029	73233
504.102	103130
504.175	150059
504.249	69509
504.322	31702
504.395	22295
504.468	15401
504.542	14438
504.615	12161
504.688	12677
504.761	9586
504.834	11720
504.907	11739
504.980	13667
505.053	12034
505.127	10816
505.200	15915
505.273	12894
505.346	10509
505.419	8791
505.492	9732
505.565	8791
505.638	10385
505.711	9845
505.784	8223
505.857	8202
505.930	10832
506.003	8832
506.076	10894
506.149	9330
506.221	10988
506.294	11902
506.367	20628
506.440	58589
506.513	39516
506.586	12359
506.659	10606
506.731	9715
506.804	9800
506.877	10764
506.950	10685
507.022	10842
507.095	9438
507.168	12342
507.241	9742
507.313	8415
507.386	8030
507.459	11161
507.531	8971
507.604	9287
507.677	9426
507.749	7732
507.822	11322
507.894	17404
507.967	23164
508.040	15727
508.112	14516
508.185	13841
508.257	12073
508.330	15311
508.402	13645
508.475	13126
508.547	13318
508.620	13788
508.692	15406
508.765	13589
508.837	11882
508.909	12749
508.982	11836
509.054	12537
509.127	10684
509.199	10439
509.271	10083
509.344	12201
509.416	11455
509.488	11252
509.560	12372
509.633	11119
509.705	12942
509.777	13631
509.849	14516
509.922	13479
509.994	13378
510.066	13993
510.138	13791
510.210	24051
510.283	21636
510.355	18055
510.427	16420
510.499	15271
510.571	14353
510.643	14761
510.715	17137
510.787	14759
510.859	15578
510.931	15191
511.003	17980
511.076	17591
511.148	14337
511.219	14322
511.291	18722
511.363	20255
511.435	14559
511.507	13135
511.579	13409
511.651	13757
511.723	12820
511.795	13369
511.867	12061
511.939	13734
512.010	17465
512.082	18641
512.154	12214
512.226	13695
512.298	19204
512.369	23530
512.441	18979
512.513	18200
512.585	14495
512.656	16459
512.728	15168
512.800	14860
512.871	14709
512.943	13574
513.015	12749
513.086	14163
513.158	15072
513.230	13114
513.301	14405
513.373	15806
513.444	13654
513.516	13048
513.588	13194
513.659	13996
513.731	13504
513.802	12954
513.874	17125
513.945	21174
514.016	14438
514.088	13836
514.159	12893
514.231	15168
514.302	21128
514.374	18033
514.445	14996
514.516	23508
514.588	19333
514.659	16008
514.730	20454
514.802	19187
514.873	12154
514.944	16196
515.016	14090
515.087	14719
515.158	16950
515.229	21652
515.301	13976
515.372	15888
515.443	12405
515.514	12904
515.585	11550
515.656	13963
515.728	12973
515.799	13332
515.870	13988
515.941	13850
516.012	13876
516.083	17916
516.154	16832
516.225	17966
516.296	17760
516.367	15784
516.438	14752
516.509	17698
516.580	19741
516.651	40001
516.722	101202
516.793	62592
516.864	21319
516.935	22076
517.006	21677
517.077	23958
517.148	41542
517.219	105248
517.289	168405
517.360	82742
517.431	39741
517.502	17403
517.573	16956
517.643	17210
517.714	18984
517.785	20048
517.856	18426
517.926	21266
517.997	20416
518.068	21860
518.138	24923
518.209	30935
518.280	76740
518.350	236715
518.421	118204
518.492	31784
518.562	29097
518.633	32869
518.703	42894
518.774	84313
518.845	190821
518.915	188990
518.986	67771
519.056	37234
519.127	32116
519.197	39659
519.268	72419
519.338	59316
519.408	21294
519.479	21734
519.549	18428
519.620	17062
519.690	14621
519.760	15655
519.831	14704
519.901	14522
519.971	14725
520.042	16160
520.112	15692
520.182	16673
520.253	15960
520.323	15170
520.393	15978
520.463	21858
520.534	14340
520.604	24087
520.674	18240
520.744	16906
520.814	23043
520.885	24622
520.955	30245
521.025	80971
521.095	43102
521.165	16640
521.235	13979
521.305	13711
521.375	14526
521.445	13973
521.515	15108
521.585	17144
521.655	14450
521.725	15808
521.795	14910
521.865	11860
521.935	17855
522.005	15526
522.075	12876
522.145	15243
522.215	15740
522.285	17562
522.355	19660
522.424	27858
522.494	25045
522.564	18022
522.634	20476
522.704	40757
522.774	23412
522.843	14153
522.913	13918
522.983	14760
523.053	12639
523.122	13916
523.192	14315
523.262	23146
523.331	24606
523.401	14372
523.471	11963
523.540	12688
523.610	11070
523.680	13302
523.749	13966
523.819	16750
523.888	15569
523.958	13354
524.027	13747
524.097	14866
524.166	12212
524.236	11976
524.305	15274
524.375	12355
524.444	11487
524.514	15488
524.583	13608
524.653	14620
524.722	15653
524.791	12663
524.861	14820
524.930	12227
524.999	12897
525.069	15076
525.138	13826
525.207	15335
525.277	15522
525.346	14476
525.415	15361
525.484	16124
525.554	16703
525.623	19449
525.692	22704
525.761	22435
525.830	24238
525.900	26781
525.969	39525
526.038	69628
526.107	135777
526.176	373107
526.245	318725
526.314	101397
526.383	187676
526.452	270890
526.522	360302
526.591	360498
526.660	81145
526.729	42766
526.797	46064
526.867	70290
526.935	219190
527.004	566038
527.073	369963
527.142	63128
527.211	29438
527.280	23220
527.349	19557
527.418	16609
527.487	16082
527.555	13430
527.624	13446
527.693	12238
527.762	14151
527.831	11256
527.899	13017
527.968	12021
528.037	10909
528.106	13754
528.174	15067
528.243	15042
528.312	15384
528.380	19087
528.449	13330
528.518	14378
528.586	11267
528.655	13576
528.723	12370
528.792	12387
528.861	12895
528.929	12735
528.998	14342
529.066	18471
529.135	31231
529.203	29622
529.272	36775
529.340	48780
529.409	44045
529.477	39928
529.545	39945
529.614	43995
529.682	49838
529.751	56909
529.819	58300
529.887	65292
529.956	61248
530.024	58254
530.092	53316
530.161	53736
530.229	54250
530.297	59032
530.365	58991
530.434	61637
530.502	64025
530.570	56320
530.638	49506
530.707	48126
530.775	46476
530.843	46543
530.911	53479
530.979	52243
531.047	58853
531.115	59520
531.183	52356
531.252	51876
531.320	47973
531.388	48554
531.456	53205
531.524	57788
531.592	60282
531.660	68388
531.728	60988
531.796	58506
531.864	58695
531.932	57373
532.000	58283
532.067	63967
532.135	67493
532.203	69363
532.271	73654
532.339	73469
532.407	76003
532.475	70619
532.542	66088
532.610	65403
532.678	69825
532.746	91289
532.814	132909
532.881	88498
532.949	67871
533.017	63901
533.084	61072
533.152	60823
533.220	58888
533.287	59578
533.355	63635
533.423	63695
533.490	65711
533.558	62694
533.625	59844
533.693	58570
533.761	57405
533.828	56294
533.896	55912
533.963	65135
534.031	67469
534.098	72072
534.166	64900
534.233	58409
534.300	58840
534.368	57065
534.435	53526
534.503	54218
534.570	56424
534.637	56094
534.705	59943
534.772	61848
534.840	74322
534.907	194659
534.974	248689
535.041	67827
535.109	49337
535.176	44727
535.243	46365
535.310	46652
535.378	45832
535.445	43034
535.512	41505
535.579	42012
535.646	37343
535.714	38968
535.781	41216
535.848	42573
535.915	44047
535.982	46080
536.049	46021
536.116	42816
536.183	38553
536.250	37452
536.317	36004
536.384	36016
536.451	37579
536.518	36697
536.585	35556
536.652	40046
536.719	39712
536.786	34877
536.853	32957
536.920	35301
536.987	36031
537.053	36586
537.120	63331
537.187	63447
537.254	34184
537.321	33402
537.388	34197
537.454	28326
537.521	29152
537.588	28391
537.654	30179
537.721	31771
537.788	31488
537.855	29491
537.921	31489
537.988	30585
538.055	30272
538.121	27007
538.188	27311
538.254	28331
538.321	30735
538.388	28495
538.454	28900
538.521	28573
538.587	28484
538.654	28124
538.720	27228
538.787	28027
538.853	26392
538.920	27310
538.986	25694
539.053	26196
539.119	24653
539.185	25617
539.252	27355
539.318	29310
539.385	30928
539.451	27273
539.517	27675
539.583	27948
539.650	33168
539.716	50581
539.782	30250
539.849	24350
539.915	25387
539.981	23660
540.047	26229
540.114	23910
540.180	26571
540.246	24913
540.312	26920
540.378	28144
540.444	30215
540.510	31188
540.576	53115
540.643	32527
540.709	24073
540.775	24527
540.841	23731
540.907	25498
540.973	29075
541.039	26516
541.105	25231
541.171	25994
541.237	24444
541.303	26256
541.369	26462
541.435	25236
541.500	27703
541.566	24475
541.632	21803
541.698	21982
541.764	23580
541.830	22803
541.896	21142
541.961	23078
542.027	22323
542.093	24570
542.159	24893
542.224	23162
542.290	26646
542.356	26589
542.421	27158
542.487	24609
542.553	23033
542.618	24021
542.684	23270
542.750	22081
542.815	24124
542.881	27032
542.947	46633
543.012	43569
543.078	22845
543.143	21227
543.209	23209
543.274	22272
543.340	23654
543.405	29364
543.471	36558
543.536	25400
543.602	21901
543.667	22017
543.732	24002
543.798	22080
543.863	23406
543.928	22007
543.994	21522
544.059	22957
544.124	23421
544.190	22210
544.255	23843
544.320	23630
544.386	24198
544.451	25769
544.516	24991
544.581	25690
544.646	36994
544.712	51001
544.777	28581
544.842	25505
544.907	25360
544.972	26424
545.037	27565
545.102	27713
545.168	27652
545.233	28407
545.298	28221
545.363	29037
545.428	29754
545.493	34343
545.558	45456
545.623	34672
545.688	28770
545.753	28527
545.818	29468
545.883	31196
545.947	30733
546.012	32748
546.077	32041
546.142	33806
546.207	32991
546.272	35869
546.337	35735
546.401	34831
546.466	37924
546.531	38111
546.596	40390
546.661	42234
546.725	42740
546.790	42463
546.855	47337
546.919	49220
546.984	53957
547.049	57676
547.113	63457
547.178	69031
547.243	76626
547.307	87272
547.372	95890
547.436	97592
547.501	98407
547.565	106103
547.630	100211
547.695	96792
547.759	98151
547.823	98446
547.888	97773
547.952	100566
548.017	104623
548.081	112986
548.146	111003
548.210	110433
548.274	116623
548.339	114228
548.403	105000
548.468	99403
548.532	98789
548.596	101642
548.660	102026
548.725	110825
548.789	119937
548.853	119208
548.917	112661
548.982	112389
549.046	103927
549.110	91439
549.174	92932
549.238	105939
549.303	116419
549.367	119889
549.431	115959
549.495	108217
549.559	107897
549.623	123032
549.687	136573
549.751	134411
549.815	153243
549.879	160366
549.943	150301
550.007	157742
550.071	158259
550.135	147982
550.199	139705
550.263	137398
550.327	131968
550.391	137088
550.455	147287
550.519	152998
550.582	159551
550.646	179832
550.710	184386
550.774	178303
550.838	181736
550.901	187358
550.965	195528
551.029	203701
551.093	215946
551.156	229658
551.220	254563
551.284	263369
551.347	221248
551.411	211529
551.475	211157
551.538	198913
551.602	190883
551.666	179915
551.729	171824
551.793	166647
551.856	165669
551.920	165632
551.983	165281
552.047	161877
552.110	163668
552.174	165188
552.237	169178
552.301	159494
552.364	155297
552.428	151399
552.491	154186
552.554	157010
552.618	155246
552.681	157493
552.745	154436
552.808	158502
552.871	165518
552.934	163001
552.998	159200
553.061	156524
553.124	153077
553.187	151066
553.251	156528
553.314	158232
553.377	158914
553.440	174242
553.503	209216
553.567	242695
553.630	181001
553.693	170912
553.756	172893
553.819	171209
553.882	167266
553.945	167489
554.008	168227
554.071	170345
554.134	172736
554.197	165426
554.260	163947
554.323	164907
554.386	167436
554.449	169666
554.512	170166
554.575	163386
554.638	164646
554.701	161323
554.764	162250
554.827	156918
554.889	152790
554.952	146265
555.015	140329
555.078	143664
555.141	145700
555.203	143634
555.266	141808
555.329	141740
555.391	135970
555.454	136743
555.517	131217
555.580	125629
555.642	122358
555.705	121937
555.768	120810
555.830	117179
555.893	113699
555.955	110664
556.018	107770
556.080	106361
556.143	109280
556.206	108664
556.268	105023
556.330	103013
556.393	103415
556.455	98990
556.518	99685
556.580	98411
556.643	90930
556.705	89186
556.767	87524
556.830	87673
556.892	85751
556.955	86821
557.017	82297
557.079	81274
557.142	79105
557.204	78845
557.266	81624
557.328	77392
557.391	71283
557.453	70298
557.515	69084
557.577	70446
557.639	69216
557.701	68491
557.764	66431
557.826	67743
557.888	68702
557.950	68516
558.012	74016
558.074	85745
558.136	143613
558.198	304221
558.260	145549
558.322	73271
558.384	69484
558.446	71269
558.508	74180
558.570	79576
558.632	90816
558.694	112123
558.756	159620
558.818	376446
558.880	732982
558.942	348013
559.003	317786
559.065	182543
559.127	82531
559.189	77453
559.251	82679
559.312	109953
559.374	216437
559.436	559985
559.498	320271
559.559	93447
559.621	77532
559.683	84908
559.744	124439
559.806	314272
559.868	449047
559.929	133286
559.991	83267
560.052	117225
560.114	281340
560.176	206868
560.237	172035
560.299	269423
560.360	87052
560.422	46491
560.483	41814
560.545	39853
560.606	38642
560.667	36748
560.729	36864
560.790	36106
560.852	35382
560.913	35408
560.974	34867
561.036	34935
561.097	34640
561.158	33788
561.220	34175
561.281	32507
561.342	32727
561.403	34648
561.465	33706
561.526	39579
561.587	42948
561.648	33751
561.709	31666
561.771	31206
561.832	31075
561.893	30179
561.954	29725
562.015	31408
562.076	30917
562.137	29546
562.198	29494
562.259	31440
562.320	29107
562.381	29409
562.442	31690
562.503	29285
562.564	28522
562.625	29193
562.686	27761
562.747	27945
562.808	28857
562.869	29034
562.930	30574
562.991	29263
563.051	29175
563.112	27622
563.173	28518
563.234	27943
563.294	27167
563.355	27333
563.416	27334
563.477	26847
563.537	27414
563.598	27625
563.659	26861
563.720	26699
563.780	27234
563.841	26790
563.901	27127
563.962	27375
564.023	26794
564.083	26139
564.144	27550
564.204	27235
564.265	26757
564.325	27862
564.386	32759
564.446	33562
564.507	26141
564.567	25646
564.628	26111
564.688	25737
564.749	26453
564.809	27110
564.869	27109
564.930	25907
564.990	26410
565.050	25757
565.111	25589
565.171	25407
565.231	26244
565.292	26345
565.352	26018
565.412	26296
565.472	24911
565.532	26367
565.593	24940
565.653	25548
565.713	24864
565.773	27035
565.833	26199
565.893	27703
565.953	25055
566.013	25508
566.074	25585
566.134	26945
566.194	29392
566.254	32534
566.314	27038
566.374	24932
566.434	25294
566.494	25867
566.554	25551
566.614	25270
566.673	25273
566.733	26074
566.793	26122
566.853	26981
566.913	25848
566.973	26371
567.033	26393
567.092	25355
567.152	25529
567.212	25947
567.272	25702
567.331	26895
567.391	25552
567.451	26148
567.511	28952
567.570	29625
567.630	26209
567.690	25032
567.749	25330
567.809	25517
567.868	25539
567.928	25136
567.988	25292
568.047	25627
568.107	25950
568.166	25920
568.226	24716
568.285	27157
568.345	25872
568.404	26263
568.464	26266
568.523	24536
568.582	26717
568.642	26376
568.701	25191
568.761	26046
568.820	26663
568.879	27135
568.939	28909
568.998	27454
569.057	25379
569.116	25306
569.176	25699
569.235	24212
569.294	25515
569.353	24578
569.413	24684
569.472	24034
569.531	24677
569.590	24043
569.649	22740
569.708	24107
569.767	23727
569.827	26396
569.886	23990
569.945	24254
570.004	23953
570.063	24227
570.122	24557
570.181	25170
570.240	25591
570.299	26071
570.358	24734
570.417	23969
570.475	24939
570.534	24257
570.593	24709
570.652	25685
570.711	24208
570.770	23187
570.829	24843
570.887	25145
570.946	24936
571.005	24336
571.064	23132
571.122	24564
571.181	25061
571.240	23593
571.299	23901
571.357	23281
571.416	23063
571.475	24445
571.533	25330
571.592	24950
571.650	24342
571.709	24422
571.768	25468
571.826	25707
571.885	24686
571.943	23780
572.002	23739
572.060	23156
572.119	23772
572.177	23593
572.236	22741
572.294	23905
572.352	23811
572.411	22898
572.469	23595
572.528	22337
572.586	22389
572.644	23346
572.703	23636
572.761	22272
572.819	22905
572.877	22673
572.936	21855
572.994	21514
573.052	20668
573.110	22169
573.169	21542
573.227	21858
573.285	22616
573.343	22650
573.401	21334
573.459	22080
573.517	21431
573.576	22183
573.634	22414
573.692	21905
573.750	21250
573.808	21448
573.866	20605
573.924	23269
573.982	23273
574.040	21597
574.098	21097
574.155	20159
574.213	20433
574.271	20171
574.329	21019
574.387	21020
574.445	20122
574.503	19964
574.560	19735
574.618	19316
574.676	18882
574.734	18594
574.792	19567
574.849	18979
574.907	18346
574.965	18184
575.022	17863
575.080	17596
575.138	18440
575.195	18685
575.253	18003
575.311	18506
575.368	18020
575.426	18632
575.483	18282
575.541	18676
575.598	18394
575.656	18135
575.713	18661
575.771	18649
575.828	18419
575.886	17446
575.943	18016
576.001	17605
576.058	17827
576.115	17549
576.173	18950
576.230	19565
576.287	19784
576.345	19220
576.402	18380
576.459	18688
576.517	18371
576.574	18090
576.631	18705
576.688	18469
576.746	18622
576.803	18450
576.860	17122
576.917	18233
576.974	18053
577.031	17939
577.089	17682
577.146	17915
577.203	17569
577.260	18728
577.317	18773
577.374	18647
577.431	18925
577.488	18042
577.545	17387
577.602	18562
577.659	18181
577.716	19044
577.773	19685
577.830	17652
577.886	17863
577.943	17904
578.000	19188
578.057	19513
578.114	20201
578.171	22617
578.227	27721
578.284	27171
578.341	24691
578.398	21186
578.454	20156
578.511	19972
578.568	20474
578.625	18726
578.681	19043
578.738	18559
578.794	18010
578.851	18945
578.908	19317
578.964	19467
579.021	19557
579.077	19189
579.134	18763
579.190	19475
579.247	18484
579.303	19284
579.360	18517
579.416	18969
579.473	18094
579.529	19146
579.586	19454
579.642	19467
579.698	19333
579.755	20881
579.811	20274
579.867	20768
579.924	20473
579.980	22505
580.036	24730
580.093	29120
580.149	36866
580.205	41425
580.261	33874
580.317	28410
580.374	25154
580.430	25358
580.486	24079
580.542	22513
580.598	22070
580.619	22348
580.654	22856
580.692	22981
580.710	23086
580.765	22622
580.767	22632
580.823	23087
580.838	23124
580.879	23308
580.911	22706
580.935	22314
580.984	22691
580.991	22771
581.047	23250
581.057	23219
581.103	23185
581.130	24307
581.159	25536
581.203	26620
581.215	26927
581.270	26266
581.276	26156
581.326	25341
581.349	24945
581.382	24379
581.422	24232
581.438	24201
581.494	23656
581.494	23643
581.550	24015
581.567	24125
581.606	24457
581.640	24482
581.661	24501
581.713	25304
581.717	25388
581.773	24480
581.786	24695
581.829	25406
581.859	25469
581.885	25593
581.932	25610
581.940	25626
581.996	26102
582.004	26171
582.052	26602
582.077	26323
582.107	25996
582.150	26230
582.163	26332
582.219	27322
582.223	27296
582.274	27085
582.296	26861
582.330	26606
582.368	27659
582.386	28151
582.441	28140
582.441	28148
582.497	27554
582.514	27874
582.552	28743
582.587	28863
582.608	28892
582.659	30381
582.663	30494
582.719	30127
582.732	29835
582.774	29279
582.805	30475
582.830	31390
582.877	32284
582.885	32458
582.941	35509
582.950	36079
582.996	39122
583.023	41742
583.052	44734
583.095	45751
583.107	45926
583.162	45627
583.168	45581
583.218	44660
583.240	42910
583.273	40395
583.313	37346
583.328	36219
583.384	34049
583.385	33993
583.439	32069
583.458	31475
583.494	30709
583.531	30375
583.549	30138
583.603	29288
583.605	29267
583.660	29579
583.676	29328
583.715	28628
583.748	28233
583.770	28021
583.820	28526
583.825	28554
583.881	29097
583.893	28885
583.936	28418
583.965	28681
583.991	28691
584.038	29234
584.046	29394
584.101	28706
584.110	28924
584.156	29936
584.183	29886
584.211	29662
584.255	29187
584.266	29108
584.321	30595
584.328	30694
584.376	31646
584.400	31440
584.431	30861
584.472	30666
584.486	30786
584.541	32752
584.545	32825
584.596	33151
584.617	32884
584.651	32894
584.689	32957
584.706	32861
584.761	34437
584.762	34439
584.816	33984
584.834	34143
584.871	34421
584.906	34416
584.926	34497
584.978	34678
584.980	34684
585.035	35434
585.051	35855
585.090	36985
585.123	37111
585.145	37204
585.195	38251
585.200	38419
585.254	40825
585.267	41419
585.309	43524
585.340	46040
585.364	48028
585.412	51055
585.419	51619
585.473	58087
585.484	60288
585.528	73315
585.556	85149
585.583	108882
585.628	163594
585.637	183933
585.692	348231
585.700	376700
585.747	481481
585.772	437345
585.801	301211
585.845	130884
585.856	109229
585.910	64315
585.917	59929
585.965	50863
585.989	47904
586.019	45864
586.061	43869
586.074	43488
586.128	41161
586.133	41050
586.183	39851
586.205	39088
586.237	38160
586.277	37394
586.292	37097
586.346	35128
586.349	35076
586.401	34914
586.421	34876
586.455	34759
586.493	35199
586.509	36187
586.564	38468
586.565	38593
586.618	46013
586.637	47056
586.672	44407
586.709	40518
586.727	39481
586.781	39753
586.781	39761
586.835	36066
586.853	34955
586.889	32964
586.925	31415
586.944	30925
586.996	30236
586.998	30241
587.052	30845
587.068	30829
587.106	31234
587.140	31135
587.161	30723
587.212	30941
587.215	31004
587.269	31486
587.284	31686
587.323	31650
587.356	31247
587.377	31252
587.427	31835
587.431	31865
587.485	32284
587.499	32269
587.539	32684
587.571	33018
587.593	33332
587.643	34870
587.648	34993
587.702	34796
587.715	34868
587.755	34820
587.786	34850
587.810	34925
587.858	34934
587.864	35054
587.917	36824
587.930	36947
587.971	36953
588.001	37316
588.025	37544
588.073	37664
588.079	37754
588.133	38622
588.145	38775
588.187	39432
588.217	40106
588.241	41049
588.288	42714
588.295	43017
588.348	45759
588.360	46289
588.402	48637
588.431	50112
588.456	51420
588.503	54830
588.510	55505
588.564	60634
588.575	61917
588.617	67389
588.646	71018
588.671	76221
588.718	88661
588.725	92133
588.778	122710
588.789	130405
588.832	197952
588.861	250374
588.886	337590
588.932	519151
588.939	533084
588.993	605408
589.004	604200
589.047	398170
589.075	263989
589.100	202892
589.147	112088
589.154	108302
589.207	87504
589.218	83816
589.261	81860
589.290	81605
589.314	84637
589.361	92298
589.368	96216
589.421	133042
589.433	142155
589.475	236195
589.504	310512
589.528	390659
589.576	544808
589.582	531031
589.635	332171
589.647	289462
589.689	166198
589.718	91723
589.742	79420
589.790	59634
589.795	59094
589.849	54909
589.861	54247
589.902	54429
589.932	53965
589.955	50943
590.004	43766
590.009	43506
590.062	41846
590.075	41202
590.115	40170
590.146	39694
590.168	39554
590.218	38644
590.222	38698
590.275	39936
590.289	39993
590.328	40293
590.360	40601
590.381	40632
590.431	40553
590.435	40556
590.488	39971
590.503	39771
590.541	39948
590.574	39983
590.594	40159
590.645	40733
590.647	40804
590.700	41409
590.716	41582
590.753	41648
590.787	41596
590.806	42158
590.859	43898
590.859	43947
590.912	43828
590.930	43816
590.965	44270
591.001	44627
591.018	44229
591.071	42840
591.072	42785
591.124	43147
591.143	43218
591.177	43399
591.214	43584
591.230	44072
591.283	45403
591.285	45408
591.336	45611
591.356	45573
591.389	45704
591.427	45747
591.442	45586
591.495	44684
591.498	44568
591.547	44096
591.569	43825
591.600	43894
591.640	43958
591.653	44415
591.706	46090
591.711	46208
591.759	47145
591.782	47565
591.811	48537
591.853	49899
591.864	49830
591.917	48966
591.924	48773
591.969	48618
591.995	48512
592.022	48579
592.066	48497
592.075	48992
592.127	51713
592.137	52158
592.180	53668
592.208	54483
592.233	54036
592.279	52983
592.285	52964
592.338	52236
592.350	51998
592.390	52097
592.421	52081
592.443	52258
592.491	52436
592.495	52619
592.548	54268
592.562	54651
592.600	53949
592.633	53233
592.653	53441
592.704	53521
592.705	53806
592.775	52745
592.846	55352
592.916	56012
592.987	56415
593.058	56671
593.128	57660
593.199	57217
593.270	57628
593.341	57745
593.411	58834
593.482	60473
593.553	62658
593.623	61782
593.694	63479
593.764	65408
593.835	64814
593.906	63272
593.976	65641
594.047	67007
594.117	71927
594.188	74892
594.258	70831
594.329	71174
594.399	72695
594.470	73918
594.540	75671
594.611	77248
594.681	76271
594.751	75711
594.822	79490
594.892	81568
594.963	83624
595.033	85830
595.103	87384
595.174	88663
595.244	96793
595.314	102159
595.384	94547
595.455	94940
595.525	98734
595.595	99816
595.665	101582
595.736	99950
595.806	102157
595.876	102832
595.946	103916
596.016	107468
596.087	110386
596.157	109892
596.227	110682
596.297	116381
596.367	122839
596.437	131248
596.507	135200
596.577	137199
596.647	133535
596.717	137070
596.787	138006
596.857	139430
596.927	141181
596.997	142374
597.067	144268
597.137	149356
597.207	148173
597.277	148073
597.347	144920
597.417	141639
597.487	142753
597.557	144534
597.626	149031
597.696	151237
597.766	154521
597.836	151416
597.906	140644
597.975	136651
598.045	139948
598.115	144837
598.185	153536
598.254	167029
598.324	179386
598.394	183258
598.464	178752
598.533	176911
598.603	169147
598.672	164362
598.742	168846
598.812	169614
598.881	174181
598.951	175643
599.020	177207
599.090	182915
599.159	185477
599.229	180973
599.299	180874
599.368	184976
599.437	185858
599.507	174791
599.576	174563
599.646	176242
599.715	176398
599.785	173344
599.854	171758
599.924	174277
599.993	173380
600.062	174966
600.132	181878
600.201	187547
600.270	211082
600.340	218624
600.409	216970
600.478	218480
600.547	224400
600.617	212403
600.686	189801
600.755	180775
600.824	178488
600.894	179744
600.963	182270
601.032	183376
601.101	183696
601.170	181885
601.239	182002
601.308	186424
601.378	188569
601.447	190068
601.516	194443
601.585	199789
601.654	206122
601.723	208926
601.792	214015
601.861	221043
601.930	234010
601.999	238819
602.068	234927
602.137	235926
602.206	238338
602.275	241050
602.343	245088
602.412	244840
602.481	246734
602.550	247163
602.619	252587
602.688	253264
602.756	257067
602.825	257439
602.894	261571
602.963	260813
603.032	264900
603.100	265135
603.169	257773
603.238	270928
603.307	260843
603.375	261278
603.444	273515
603.513	254749
603.581	263743
603.650	274187
603.719	239566
603.787	229754
603.856	236269
603.924	239223
603.993	245237
604.061	253826
604.130	261774
604.198	269549
604.267	269999
604.335	274745
604.404	276224
604.472	283659
604.541	284918
604.609	291683
604.678	300577
604.746	301415
604.815	316793
604.883	307628
604.951	298454
605.020	307071
605.088	291346
605.156	281095
605.225	280712
605.293	281768
605.361	282247
605.429	280278
605.498	289956
605.566	284474
605.634	297978
605.702	302961
605.771	307448
605.839	312680
605.907	295668
605.975	303359
606.043	291892
606.111	283722
606.180	303581
606.248	281918
606.316	277569
606.384	291292
606.452	252020
606.520	227081
606.588	231021
606.656	230698
606.724	227478
606.792	214527
606.860	197441
606.928	181459
606.996	175121
607.064	172100
607.132	176773
607.200	185930
607.267	193359
607.335	195595
607.403	200056
607.471	193454
607.539	188339
607.607	189173
607.674	168959
607.742	169373
607.810	168466
607.878	167116
607.946	170849
608.013	175917
608.081	179528
608.149	181163
608.216	186314
608.284	193065
608.352	189638
608.419	188134
608.487	189045
608.555	180648
608.622	185103
608.690	194454
608.757	210840
608.825	214701
608.893	209553
608.960	199270
609.028	192717
609.095	196230
609.163	189848
609.230	170469
609.298	159236
609.365	166624
609.432	178367
609.500	193004
609.567	218253
609.635	246659
609.702	258090
609.769	246680
609.837	199010
609.904	173525
609.971	178477
610.039	195679
610.106	247174
610.173	425822
610.241	865353
610.308	593833
610.375	264872
610.442	197033
610.509	183803
610.577	180468
610.644	181555
610.711	186251
610.778	190225
610.845	198181
610.912	210577
610.980	219059
611.047	223806
611.114	216017
611.181	207779
611.248	205886
611.315	217050
611.382	222142
611.449	229456
611.516	232136
611.583	230544
611.650	231936
611.717	235169
611.784	240338
611.851	249549
611.918	261857
611.984	297529
612.051	388829
612.118	662907
612.185	1302401
612.252	965006
612.319	391021
612.386	310007
612.452	281921
612.519	265950
612.586	265671
612.653	264085
612.719	271655
612.786	263006
612.853	243114
612.919	238735
612.986	241919
613.053	228577
613.120	215999
613.186	208984
613.253	209969
613.319	210356
613.386	211509
613.453	216070
613.519	217759
613.586	216775
613.652	223783
613.719	217070
613.785	220673
613.852	221907
613.918	217310
613.985	221116
614.051	234613
614.118	248147
614.184	239368
614.250	218792
614.317	222200
614.383	219731
614.449	223000
614.516	221774
614.582	224341
614.648	217472
614.715	216239
614.781	215460
614.847	212574
614.914	213862
614.980	207326
615.046	206899
615.112	213550
615.179	213406
615.245	218133
615.311	214121
615.377	217177
615.443	221636
615.509	222085
615.575	228950
615.642	227685
615.708	234234
615.774	243592
615.840	256382
615.906	271169
615.972	316969
616.038	431265
616.104	773931
616.170	1423066
616.236	1278764
616.302	540261
616.368	404902
616.434	310263
616.500	281814
616.565	299455
616.631	366057
616.697	317305
616.763	317246
616.829	436758
616.895	722288
616.961	717785
617.026	365858
617.092	256978
617.158	236772
617.224	229471
617.289	214428
617.355	205400
617.421	204766
617.487	203054
617.552	194859
617.618	192532
617.684	192690
617.749	195501
617.815	187139
617.880	183470
617.946	184020
618.012	187348
618.077	191213
618.143	182904
618.208	183000
618.274	196148
618.339	197806
618.405	167520
618.470	170673
618.536	169253
618.601	169364
618.667	158764
618.732	151739
618.798	151087
618.863	150842
618.928	150975
618.994	152052
619.059	151513
619.124	157345
619.190	152471
619.255	149636
619.320	151029
619.386	152292
619.451	148760
619.516	147146
619.581	147923
619.647	152697
619.712	154002
619.777	148135
619.842	147767
619.907	152056
619.972	152346
620.038	152707
620.103	147788
620.168	147617
620.233	150908
620.298	151589
620.363	151599
620.428	158106
620.493	158906
620.558	161577
620.623	162186
620.688	164332
620.753	161721
620.818	164522
620.883	163965
620.948	164692
621.013	163200
621.078	161024
621.143	161663
621.207	167145
621.272	162859
621.337	159999
621.402	160552
621.467	163509
621.532	162163
621.596	161090
621.661	154812
621.726	154234
621.791	155823
621.855	155833
621.920	153886
621.985	158765
622.049	161381
622.114	162139
622.179	162635
622.243	164359
622.308	168518
622.373	175572
622.437	170753
622.502	163962
622.566	163476
622.631	162136
622.695	165094
622.760	163989
622.824	162472
622.889	165169
622.953	165001
623.018	178391
623.082	176436
623.147	171792
623.211	167014
623.276	168964
623.340	160851
623.404	158241
623.469	157943
623.533	160392
623.597	155313
623.662	156713
623.726	147546
623.790	140574
623.854	138033
623.919	141435
623.983	140053
624.047	142802
624.111	143271
624.176	147662
624.240	146139
624.304	151208
624.368	144571
624.432	143936
624.496	147056
624.560	152916
624.625	154110
624.689	150925
624.753	157164
624.817	150566
624.881	147660
624.945	136564
625.009	133953
625.073	134841
625.137	136609
625.201	143598
625.265	144587
625.329	137304
625.393	137800
625.456	139094
625.520	141391
625.584	143340
625.648	149782
625.712	160954
625.776	188964
625.839	186558
625.903	134729
625.967	118522
626.031	133533
626.095	160864
626.158	132527
626.222	109335
626.286	102578
626.349	100395
626.413	92946
626.477	93492
626.540	93306
626.604	92592
626.668	92179
626.731	89864
626.795	90889
626.858	89810
626.922	86780
626.986	87191
627.049	85873
627.113	90024
627.176	88013
627.240	85253
627.303	84112
627.366	82445
627.430	83732
627.493	84094
627.557	81092
627.620	85665
627.684	84695
627.747	85059
627.810	78336
627.874	74727
627.937	71120
628.000	75391
628.064	74128
628.127	63875
628.190	63786
628.253	63862
628.317	60877
628.380	59601
628.443	58202
628.506	59127
628.569	55789
628.632	53889
628.696	52047
628.759	54967
628.822	50106
628.885	50427
628.948	50228
629.011	49398
629.074	48456
629.137	46416
629.200	45824
629.263	46473
629.326	43996
629.389	45160
629.452	45494
629.515	44854
629.578	42844
629.641	44475
629.704	44075
629.767	43506
629.830	43199
629.892	42001
629.955	40431
630.018	43808
630.081	41075
630.144	43489
630.207	40286
630.269	43321
630.332	41894
630.395	40509
630.458	39316
630.520	36869
630.583	38521
630.646	38686
630.708	37379
630.771	38579
630.834	40356
630.896	39759
630.959	39595
631.021	39666
631.084	38896
631.146	40531
631.209	40067
631.272	39123
631.334	39324
631.397	39890
631.459	39175
631.522	41141
631.584	41359
631.646	44707
631.709	44856
631.771	46970
631.834	44328
631.896	43506
631.958	39531
632.021	40001
632.083	36945
632.145	38365
632.208	37385
632.270	38143
632.332	35975
632.395	36913
632.457	38002
632.519	35701
632.581	37058
632.643	34314
632.706	35214
632.768	35250
632.830	35229
632.892	36620
632.954	34848
633.016	37783
633.078	35834
633.141	35964
633.203	36548
633.265	36171
633.327	35198
633.389	35306
633.451	37238
633.513	37731
633.575	38591
633.637	36899
633.698	37541
633.760	39133
633.822	38036
633.884	40005
633.946	39836
634.008	40861
634.070	43454
634.132	47413
634.193	47042
634.255	50575
634.317	49775
634.379	50161
634.441	45019
634.502	41607
634.564	40392
634.626	37270
634.687	35869
634.749	35941
634.811	35720
634.873	33782
634.934	33864
634.996	35910
635.057	33821
635.119	34743
635.181	35786
635.242	36913
635.304	34560
635.365	37312
635.427	35622
635.488	36680
635.550	34260
635.611	36334
635.673	35265
635.734	39106
635.796	38679
635.857	43821
635.918	42868
635.980	48716
636.041	48761
636.102	52360
636.164	51949
636.225	51650
636.286	44338
636.348	43163
636.409	37852
636.470	36708
636.531	35589
636.593	35581
636.654	34370
636.715	33317
636.776	31534
636.838	32445
636.899	31773
636.960	31727
637.021	30376
637.082	30979
637.143	30532
637.204	29301
637.265	29005
637.326	30256
637.387	30571
637.448	30097
637.509	30256
637.570	30558
637.631	30645
637.692	28437
637.753	28205
637.814	28825
637.875	29023
637.936	29632
637.997	28029
638.058	28835
638.119	29610
638.179	28846
638.240	27927
638.301	28296
638.362	26602
638.423	26843
638.483	28914
638.544	24986
638.605	26859
638.666	27499
638.726	27163
638.787	28133
638.848	27461
638.908	26048
638.969	26989
639.030	26806
639.090	25994
639.151	26347
639.211	26475
639.272	29372
639.332	31351
639.393	29375
639.453	27291
639.514	28626
639.574	27033
639.635	24771
639.695	25305
639.756	23845
639.816	24477
639.877	26041
639.937	28475
639.997	30960
640.058	24488
640.118	24103
640.178	25725
640.239	25382
640.299	24223
640.359	24426
640.420	25675
640.480	28361
640.540	29800
640.600	32379
640.661	30213
640.721	29275
640.781	34918
640.841	32090
640.901	26681
640.961	25193
641.021	27412
641.082	27399
641.142	27605
641.202	26487
641.262	21903
641.322	24454
641.382	23024
641.442	24135
641.502	23052
641.562	24849
641.622	23137
641.682	25794
641.742	27184
641.802	27677
641.861	23925
641.921	24105
641.981	23203
642.041	23152
642.101	23444
642.161	21980
642.221	20981
642.280	22996
642.340	21311
642.400	21133
642.460	23455
642.519	23376
642.579	22291
642.639	23582
642.698	20118
642.758	25551
642.818	23909
642.877	23004
642.937	23399
642.997	24645
643.056	25408
643.116	23721
643.175	24898
643.235	24108
643.294	24393
643.354	26040
643.414	25768
643.473	30712
643.532	33816
643.592	42165
643.651	60646
643.711	99671
643.770	182988
643.830	410610
643.889	743355
643.948	240710
644.008	62635
644.067	40603
644.126	30928
644.186	29013
644.245	25233
644.304	22613
644.363	25635
644.423	21621
644.482	23342
644.541	26181
644.600	23445
644.659	29625
644.719	33809
644.778	49140
644.837	77437
644.896	153042
644.955	329935
645.014	118590
645.073	36010
645.132	28597
645.191	25499
645.250	24189
645.309	26070
645.368	27073
645.427	35495
645.486	55771
645.545	90833
645.604	32818
645.663	23547
645.722	21997
645.781	23398
645.840	25389
645.898	30071
645.957	39898
646.016	55637
646.075	95570
646.134	176585
646.192	429120
646.251	582644
646.310	127602
646.369	45301
646.427	37899
646.486	28782
646.545	24614
646.603	22824
646.662	21767
646.721	20905
646.779	20900
646.838	21205
646.896	26016
646.955	32991
647.014	49883
647.072	90577
647.131	229513
647.189	114659
647.248	26137
647.306	20725
647.365	20068
647.423	15704
647.481	19226
647.540	15565
647.598	16726
647.657	15666
647.715	17048
647.773	15485
647.832	17134
647.890	14364
647.948	16494
648.007	15910
648.065	14215
648.123	15245
648.181	16754
648.240	17498
648.298	15109
648.356	13424
648.414	15271
648.472	14585
648.531	14801
648.589	13815
648.647	14102
648.705	13550
648.763	14028
648.821	14824
648.879	14505
648.937	16075
648.995	19028
649.053	21768
649.111	30145
649.169	47421
649.227	81818
649.285	164141
649.343	425230
649.401	212132
649.459	45671
649.516	28956
649.574	23741
649.632	29819
649.690	34164
649.748	29077
649.806	40314
649.863	71597
649.921	169824
649.979	112134
650.037	21432
650.094	14553
650.152	14162
650.210	13228
650.268	13691
650.325	14248
650.383	16117
650.440	11196
650.498	11835
650.556	11321
650.613	11428
650.671	10519
650.728	11763
650.786	13089
650.843	15116
650.901	11013
650.958	11757
651.016	10355
651.073	10908
651.131	8838
651.188	9074
651.246	9285
651.303	8462
651.360	9214
651.418	9377
651.475	8517
651.532	7959
651.590	9163
651.647	9416
651.704	9494
651.762	9340
651.819	8005
651.876	8477
651.933	8713
651.990	9743
652.048	6894
652.105	7786
652.162	8369
652.219	8151
652.276	8338
652.333	8426
652.390	7616
652.448	9028
652.505	8470
652.562	9257
652.619	8957
652.676	12009
652.733	12122
652.790	8422
652.847	7279
652.904	7868
652.961	5892
653.017	7006
653.074	8684
653.131	7506
653.188	6852
653.245	7751
653.302	7220
653.359	7500
653.415	7771
653.472	7142
653.529	7885
653.586	6644
653.642	7544
653.699	7607
653.756	6311
653.813	7632
653.869	7472
653.926	7444
653.983	6400
654.039	7816
654.096	6651
654.152	8225
654.209	5511
654.266	7448
654.322	6319
654.379	8347
654.435	7285
654.492	7832
654.548	8663
654.605	10995
654.661	9373
654.717	7957
654.774	6990
654.830	7048
654.887	7159
654.943	7705
655.000	9242
655.056	7759
655.112	7590
655.168	6650
655.225	6793
655.281	8849
655.337	7546
655.394	10772
655.450	8552
655.506	8858
655.562	10509
655.618	9831
655.675	5604
655.731	7740
655.787	5487
655.843	7585
655.899	5534
655.955	7283
656.011	6242
656.067	5846
656.123	6179
656.179	7202
656.235	7387
656.291	7141
656.347	7580
656.403	7009
656.459	6365
656.515	8156
656.571	6477
656.627	6706
656.683	6996
656.739	7367
656.795	6706
656.850	6482
656.906	7201
656.962	8282
657.018	6571
657.074	9046
657.129	9897
657.185	14813
657.241	29064
657.297	17827
657.352	7997
657.408	6677
657.464	7450
657.519	6597
657.575	5717
657.630	7059
657.686	5727
657.742	6943
657.797	6453
657.853	6168
657.908	6821
657.964	5401
658.019	6603
658.075	6221
658.130	6387
658.186	5663
658.241	6656
658.297	5242
658.352	5334
658.407	6479
658.463	5533
658.518	7425
658.573	5523
658.629	5606
658.684	6004
658.739	6393
658.795	5469
658.850	6328
658.905	5097
658.960	6581
659.016	4481
659.071	6172
659.126	5491
659.181	6275
659.236	7820
659.291	7399
659.346	5975
659.401	7231
659.457	7834
659.512	8462
659.567	7518
659.622	6338
659.677	5360
659.732	5548
659.787	5563
659.842	6108
659.897	7214
659.952	7005
660.007	5526
660.061	6193
660.116	4985
660.171	4987
660.226	4922
660.281	6382
660.336	5457
660.391	6489
660.445	5325
660.500	7045
660.555	6675
660.610	5784
660.664	5996
660.719	5442
660.774	5586
660.828	6429
660.883	5393
660.938	6187
660.992	4784
661.047	6203
661.101	5447
661.156	5351
661.211	4137
661.265	6076
661.320	5471
661.374	5778
661.429	5258
661.483	7048
661.538	4631
661.592	6046
661.647	5678
661.701	8305
661.755	6489
661.810	6010
661.864	5074
661.919	5040
661.973	5755
662.027	5474
662.081	4192
662.136	4626
662.190	5048
662.244	6677
662.299	4981
662.353	6008
662.407	4815
662.461	4998
662.515	6071
662.569	6280
662.624	5967
662.678	5750
662.732	5114
662.786	5941
662.840	5591
662.894	5633
662.948	5328
663.002	5565
663.056	5374
663.110	5740
663.164	4838
663.218	5645
663.272	5875
663.326	5274
663.380	5657
663.434	5230
663.488	5638
663.542	5477
663.595	5073
663.649	5272
663.703	5086
663.757	5630
663.811	4876
663.864	5598
663.918	4775
663.972	4805
664.026	4946
664.079	4630
664.133	5326
664.187	5283
664.240	5670
664.294	5973
664.348	6146
664.401	5610
664.455	4856
664.508	4961
664.562	5461
664.615	6476
664.669	4259
664.722	5027
664.776	5046
664.829	5525
664.883	6070
664.936	5170
664.990	4973
665.043	6309
665.097	4884
665.150	6858
665.203	4565
665.257	5202
665.310	5490
665.363	5624
665.417	5377
665.470	5834
665.523	5286
665.576	5637
665.630	4930
665.683	5922
665.736	4774
665.789	6367
665.842	4143
665.895	5847
665.949	4929
666.002	6073
666.055	5830
666.108	6607
666.161	5111
666.214	6306
666.267	5253
666.320	6376
666.373	5715
666.426	6447
666.479	5577
666.532	6304
666.585	5274
666.638	7015
666.691	5343
666.744	6841
666.796	5177
666.849	5697
666.902	5898
666.955	5718
667.008	4778
667.060	5138
667.113	5043
667.166	6485
667.219	5194
667.271	5717
667.324	5119
667.377	5319
667.430	5561
667.482	6786
667.535	5892
667.587	5959
667.640	5028
667.693	6014
667.745	7222
667.798	7287
667.850	5316
667.903	5892
667.955	5279
668.008	5659
668.060	4930
668.113	5742
668.165	5518
668.218	6497
668.270	5588
668.322	6032
668.375	5279
668.427	6809
668.479	4811
668.532	5430
668.584	6399
668.636	5602
668.689	4974
668.741	4785
668.793	5165
668.845	5653
668.898	5058
668.950	5346
669.002	4637
669.054	4641
669.106	4917
669.158	5726
669.211	5401
669.263	5648
669.315	6508
669.367	6874
669.419	5081
669.471	6927
669.523	6225
669.575	7294
669.627	6226
669.679	5842
669.731	5215
669.783	6616
669.835	6679
669.886	6143
669.938	5800
669.990	5610
670.042	5124
670.094	6546
670.146	6451
670.197	6462
670.249	7390
670.301	9124
670.353	10265
670.404	14554
670.456	17953
670.508	27202
670.560	42752
670.611	70236
670.663	116360
670.715	256480
670.766	371244
670.818	143480
670.869	31940
670.921	18275
670.972	12866
671.024	10091
671.075	8809
671.127	8054
671.178	7380
671.230	7641
671.281	6548
671.333	7977
671.384	7999
671.436	10184
671.487	12114
671.538	16097
671.590	23582
671.641	36620
671.692	62353
671.744	112230
671.795	82563
671.846	31817
671.897	16295
671.949	11971
672.000	9309
672.051	7980
672.102	7331
672.153	6586
672.204	6013
672.256	6405
672.307	5626
672.358	5735
672.409	4707
672.460	4972
672.511	4127
672.562	5047
672.613	4558
672.664	5011
672.715	4519
672.766	5761
672.817	4205
672.868	4223
672.919	4416
672.970	5035
673.021	4376
673.071	4193
673.122	4183
673.173	4570
673.224	3843
673.275	4104
673.326	4250
673.376	4179
673.427	2913
673.478	4905
673.528	3899
673.579	4243
673.630	4081
673.680	5717
673.731	4301
673.782	3785
673.832	3877
673.883	5110
673.934	3427
673.984	3559
674.035	3482
674.085	5247
674.136	3644
674.186	5144
674.237	5561
674.287	5603
674.338	4569
674.388	4794
674.438	4197
674.489	4471
674.539	4962
674.589	4066
674.640	3999
674.690	5021
674.740	4105
674.791	4285
674.841	3731
674.891	3951
674.942	3213
674.992	3654
675.042	3123
675.092	3177
675.142	2623
675.193	3607
675.243	3494
675.293	3727
675.343	3801
675.393	4054
675.443	3282
675.493	3524
675.543	3113
675.593	4067
675.643	4093
675.693	3984
675.743	4333
675.793	4472
675.843	3130
675.893	4059
675.943	3479
675.993	3349
676.043	3327
676.093	3900
676.142	3269
676.192	4511
676.242	3396
676.292	2839
676.341	3152
676.391	3535
676.441	2727
676.491	3361
676.540	3056
676.590	3122
676.640	1874
676.689	3308
676.739	2472
676.789	4294
676.838	2505
676.888	3474
676.937	2309
676.987	3483
677.037	1780
677.086	1662
677.136	3187
677.185	2832
677.235	2931
677.284	3259
677.333	2385
677.383	2877
677.432	1966
677.482	2890
677.531	2817
677.580	3078
677.630	2220
677.679	2840
677.728	2712
677.778	3241
677.827	2365
677.876	3393
677.925	1924
677.975	3327
678.024	3270
678.073	3113
678.122	3217
678.171	4190
678.220	3149
678.269	3849
678.319	3698
678.368	3691
678.417	3072
678.466	3253
678.515	2872
678.564	3250
678.613	2849
678.662	2905
678.711	2991
678.760	2926
678.809	2739
678.857	2894
678.906	3392
678.955	3050
679.004	3112
679.053	3589
679.102	3190
679.151	3160
679.199	2303
679.248	3679
679.297	2161
679.346	2761
679.394	2613
679.443	2857
679.492	2932
679.540	3026
679.589	2318
679.638	2813
679.686	2827
679.735	3438
679.784	3444
679.832	3090
679.881	2955
679.929	3244
679.978	1683
680.026	2506
680.075	3193
680.123	3062
680.172	2125
680.220	2861
680.268	2477
680.317	2918
680.365	1834
680.414	2217
680.462	2061
680.510	3221
680.559	1922
680.607	2422
680.655	2142
680.703	1780
680.752	2660
680.800	3133
680.848	1662
680.896	2456
680.945	1722
680.993	2013
681.041	1954
681.089	2154
681.137	1566
681.185	2682
681.233	2542
681.258	2608
681.281	2646
681.329	2033
681.377	2581
681.380	2603
681.425	2532
681.473	3652
681.502	3009
681.521	2514
681.569	3444
681.617	3052
681.624	3078
681.665	3068
681.713	2536
681.745	3526
681.761	3959
681.809	2124
681.857	4068
681.867	3829
681.904	2902
681.952	2918
681.989	2939
682.000	2917
682.048	2310
682.096	2765
682.111	3003
682.143	3407
682.191	1727
682.233	3806
682.239	4096
682.286	2796
682.334	3823
682.354	3367
682.382	2701
682.430	3649
682.476	3160
682.477	3126
682.525	3560
682.572	3251
682.598	3658
682.620	3981
682.667	3319
682.715	4328
682.720	4286
682.763	3661
682.810	4364
682.841	3672
682.857	3279
682.905	4036
682.952	3184
682.963	3480
683.000	4409
683.047	3253
683.085	4195
683.095	4444
683.142	3420
683.190	4868
683.206	4675
683.237	4213
683.284	4380
683.328	3739
683.332	3664
683.379	4364
683.426	3986
683.449	4124
683.473	4271
683.521	3605
683.568	4205
683.571	4204
683.615	3871
683.662	5121
683.693	4249
683.709	3749
683.757	4260
683.804	4325
683.814	4282
683.851	4004
683.898	4593
683.936	4523
683.945	4492
683.992	4514
684.039	4894
684.057	4762
684.086	4579
684.133	4928
684.179	4552
684.180	4519
684.227	5523
684.274	4874
684.300	5210
684.321	5469
684.368	4542
684.415	5835
684.422	5714
684.462	4946
684.509	5824
684.543	5450
684.556	5295
684.603	6104
684.649	5306
684.665	5709
684.696	6487
684.743	5960
684.786	6821
684.790	6876
684.837	5239
684.883	6547
684.908	6331
684.930	6167
684.977	6778
685.023	6078
685.029	6162
685.070	6606
685.117	6110
685.150	6539
685.164	6683
685.210	6377
685.257	6598
685.272	6624
685.303	6673
685.350	6849
685.393	6530
685.396	6493
685.443	6582
685.490	6599
685.514	6717
685.536	6804
685.583	6056
685.629	6264
685.636	6302
685.675	6561
685.722	6960
685.757	6527
685.768	6336
685.815	7472
685.861	7185
685.878	6904
685.908	6468
685.954	6742
686.000	7613
686.000	7623
686.047	7152
686.093	8338
686.121	7944
686.139	7598
686.185	7710
686.232	6732
686.242	7002
686.278	7947
686.324	7606
686.363	7787
686.370	7817
686.416	7925
686.463	8320
686.484	8062
686.509	7747
686.555	7866
686.601	7728
686.606	7753
686.647	7853
686.693	6971
686.727	7582
686.739	7839
686.785	7164
686.831	7945
686.848	7731
686.877	7373
686.923	8213
686.969	7238
686.969	7232
687.015	8269
687.061	7881
687.090	8365
687.107	8588
687.153	8316
687.199	8320
687.211	8274
687.245	8080
687.291	8231
687.332	7849
687.336	7837
687.382	8530
687.428	8807
687.453	8834
687.474	8746
687.520	8351
687.565	8793
687.574	8700
687.611	8679
687.657	9424
687.695	9693
687.702	9809
687.748	11562
687.794	12990
687.816	12965
687.839	12124
687.885	10486
687.931	9818
687.937	9752
687.976	9809
688.022	8980
688.058	8509
688.067	8487
688.113	9328
688.158	8869
688.179	9052
688.204	9256
688.249	9020
688.295	9635
688.300	9618
688.340	9527
688.386	9852
688.421	9320
688.431	9172
688.477	9465
688.522	9053
688.542	9406
688.567	9974
688.613	10121
688.658	9888
688.663	9892
688.703	9581
688.749	9860
688.784	9221
688.794	9131
688.839	9673
688.884	9455
688.905	9691
688.930	9923
688.975	9800
689.020	9984
689.026	9940
689.065	9748
689.110	9493
689.146	10028
689.155	10194
689.201	10258
689.246	10761
689.267	10708
689.291	10520
689.336	10135
689.381	10102
689.388	10045
689.426	9930
689.471	10219
689.509	10075
689.516	10082
689.561	10474
689.606	9835
689.630	10351
689.651	10658
689.696	9992
689.741	9935
689.750	9874
689.785	10002
689.830	10240
689.871	10255
689.875	10250
689.920	10432
689.965	9991
689.992	10152
690.010	10405
690.054	10135
690.099	11021
690.112	11029
690.144	10936
690.189	11275
690.233	10638
690.233	10648
690.278	11230
690.323	10671
690.354	10935
690.367	11150
690.412	11222
690.457	11102
690.474	11281
690.501	11456
690.546	11654
690.590	11195
690.595	11176
690.635	11741
690.680	12542
690.716	13062
690.724	13298
690.769	14497
690.813	16253
690.836	16695
690.857	18318
690.902	22310
690.946	26666
690.957	27760
690.991	36892
691.035	50369
691.077	62545
691.080	62521
691.124	55886
691.168	49438
691.198	45761
691.213	42339
691.257	33154
691.301	23138
691.318	19479
691.346	18330
691.390	16560
691.434	14527
691.439	14296
691.478	13796
691.522	13453
691.559	12562
691.567	12493
691.611	12902
691.655	12368
691.680	12385
691.699	12484
691.743	12515
691.787	12851
691.800	12629
691.831	12362
691.875	13042
691.919	13486
691.921	13478
691.964	13408
692.008	12600
692.041	12675
692.052	12808
692.096	12236
692.139	12645
692.162	12534
692.183	12245
692.227	12350
692.271	11569
692.282	11470
692.315	11781
692.359	11975
692.402	12595
692.403	12620
692.447	12180
692.490	12565
692.523	12298
692.534	12268
692.578	12746
692.622	12418
692.643	12493
692.666	12519
692.709	12099
692.753	12345
692.763	12282
692.797	12369
692.840	12588
692.884	12385
692.884	12409
692.928	12767
692.971	12679
693.004	12853
693.015	12959
693.059	12574
693.102	13003
693.124	12925
693.146	13083
693.189	13826
693.233	14058
693.245	14228
693.276	14741
693.320	15211
693.363	15626
693.365	15603
693.407	16543
693.450	17912
693.485	18645
693.493	19229
693.537	22503
693.580	25962
693.605	27912
693.624	31802
693.667	40434
693.710	49964
693.725	53356
693.753	71079
693.797	99907
693.840	128287
693.845	131103
693.883	120167
693.926	106130
693.966	94596
693.970	92530
694.013	69633
694.056	47454
694.086	32045
694.099	30731
694.142	26385
694.185	21743
694.206	19753
694.229	19331
694.272	17808
694.315	17071
694.326	16692
694.358	16024
694.401	15365
694.444	14542
694.446	14485
694.487	14774
694.530	14625
694.566	14804
694.573	14775
694.616	13919
694.659	13464
694.686	12870
694.702	12822
694.745	13446
694.787	13154
694.806	13192
694.830	13286
694.873	13239
694.916	13395
694.926	13332
694.959	13241
695.002	13508
695.044	13348
695.046	13323
695.087	13624
695.130	13525
695.166	13701
695.172	13763
695.215	13774
695.258	14035
695.286	13858
695.301	13835
695.343	14223
695.386	14344
695.406	14319
695.428	14399
695.471	14595
695.514	14934
695.526	14951
695.556	15419
695.599	16311
695.641	16568
695.646	16618
695.684	16333
695.726	15776
695.766	15241
695.769	15265
695.811	14978
695.854	14858
695.886	14583
695.896	14684
695.938	15212
695.981	15519
696.005	15763
696.023	15921
696.065	16027
696.108	16297
696.125	16353
696.150	16526
696.192	16718
696.235	16720
696.245	16774
696.277	17255
696.319	17488
696.361	18036
696.365	18012
696.404	17880
696.446	17941
696.485	17761
696.488	17785
696.530	17764
696.572	17518
696.604	17369
696.614	17420
696.656	17333
696.698	17493
696.724	17380
696.740	17246
696.783	16925
696.825	16633
696.844	16467
696.867	16763
696.909	16974
696.951	17383
696.964	17498
696.992	17383
697.034	17001
697.076	16599
697.083	16514
697.118	16889
697.160	17233
697.202	17525
697.203	17490
697.244	17417
697.286	17308
697.323	17109
697.327	17169
697.369	17446
697.411	17608
697.442	17737
697.453	17744
697.494	17479
697.536	17414
697.562	17246
697.578	17336
697.620	17345
697.661	17570
697.682	17556
697.703	17854
697.744	18452
697.786	19128
697.801	19266
697.828	19205
697.869	19087
697.911	18951
697.921	18877
697.952	18673
697.994	18274
698.035	17966
698.040	17873
698.077	17728
698.118	17596
698.160	17360
698.160	17313
698.201	17942
698.243	18440
698.279	18901
698.284	18997
698.325	19396
698.367	19846
698.399	20066
698.408	20079
698.449	19975
698.491	19794
698.518	19693
698.532	19755
698.573	19713
698.614	19728
698.638	19648
698.656	19715
698.697	19797
698.738	19848
698.757	19827
698.779	20083
698.820	20485
698.862	20863
698.877	20946
698.903	20891
698.944	20741
698.985	20575
698.996	20479
699.026	20168
699.067	19664
699.116	19016
699.235	19486
699.354	19873
699.474	19281
699.593	19306
699.713	20288
699.832	19341
699.951	20111
700.070	18600
700.190	17698
700.309	18947
700.428	17494
700.547	18191
700.667	18316
700.786	18500
700.905	16709
701.024	17924
701.143	17478
701.262	17656
701.381	17782
701.500	18128
701.619	17636
701.738	17832
701.857	17710
701.976	16797
702.095	17403
702.214	18106
702.333	17247
702.452	17730
702.571	17429
702.690	17424
702.809	16559
702.928	16918
703.047	16720
703.165	16883
703.284	15923
703.403	16328
703.522	16232
703.640	16988
703.759	16916
703.878	18039
703.997	16140
704.115	16756
704.234	16078
704.353	15810
704.471	15200
704.590	15411
704.708	14503
704.827	15848
704.946	14650
705.064	16385
705.183	14983
705.301	16247
705.420	19561
705.538	16991
705.656	16036
705.775	16802
705.893	24073
706.012	25708
706.130	16303
706.249	17197
706.367	16142
706.485	16407
706.604	15910
706.722	16514
706.840	19387
706.958	25850
707.077	19778
707.195	16111
707.313	15371
707.431	14716
707.549	13865
707.668	13900
707.786	14483
707.904	13961
708.022	14514
708.140	14000
708.258	14993
708.376	14981
708.494	14384
708.612	15650
708.730	18035
708.848	17780
708.966	16756
709.084	15526
709.202	16097
709.320	15068
709.438	15706
709.556	15236
709.674	14502
709.791	15248
709.909	14987
710.027	15140
710.145	14510
710.263	15211
710.380	14655
710.498	14928
710.616	14136
710.733	14739
710.851	14402
710.969	15207
711.086	14532
711.204	14109
711.322	14600
711.439	14068
711.557	13840
711.674	15013
711.792	14115
711.909	14856
712.027	14994
712.144	13149
712.262	13718
712.379	14576
712.497	16617
712.614	17386
712.732	15954
712.849	14670
712.966	15583
713.084	16572
713.201	15369
713.318	14858
713.436	15404
713.553	16281
713.670	16445
713.787	16497
713.905	14997
714.022	15864
714.139	16015
714.256	18551
714.373	23751
714.490	38810
714.608	92755
714.725	370816
714.842	360096
714.959	37820
715.076	19958
715.193	16404
715.310	16552
715.427	14393
715.544	14011
715.661	14406
715.778	14093
715.895	14169
716.011	14264
716.128	13906
716.245	13541
716.362	14141
716.479	13626
716.596	13433
716.713	13452
716.829	12596
716.946	12483
717.063	11915
717.180	11774
717.296	12305
717.413	11532
717.530	11599
717.646	11752
717.763	12610
717.880	10672
717.996	11193
718.113	10983
718.229	12082
718.346	10078
718.462	11298
718.579	11732
718.695	13075
718.812	13292
718.928	12839
719.045	11536
719.161	10852
719.277	11751
719.394	11362
719.510	12958
719.626	13079
719.743	15070
719.859	19500
719.975	35571
720.092	127457
720.208	280767
720.324	36094
720.440	13789
720.557	13103
720.673	14169
720.789	15572
720.905	24077
721.021	13619
721.137	10372
721.253	10747
721.369	10456
721.486	10579
721.602	12753
721.718	11022
721.834	10604
721.950	10406
722.066	9900
722.181	10288
722.297	11338
722.413	9656
722.529	9530
722.645	9817
722.761	10009
722.877	9935
722.993	10308
723.108	11060
723.224	10911
723.340	9869
723.456	9292
723.571	9520
723.687	9516
723.803	10302
723.918	8453
724.034	9237
724.150	9390
724.265	9548
724.381	12779
724.497	14067
724.612	9170
724.728	9180
724.843	9438
724.959	9526
725.074	12388
725.190	13129
725.305	8735
725.421	8967
725.536	8649
725.651	8855
725.767	8388
725.882	8941
725.997	7816
726.113	8521
726.228	7699
726.343	8440
726.459	8083
726.574	8589
726.689	8108
726.804	8843
726.920	7886
727.035	8305
727.150	7848
727.265	8143
727.380	8207
727.495	8296
727.610	7242
727.725	8203
727.841	8941
727.956	13327
728.071	11184
728.186	8490
728.301	7989
728.416	7734
728.531	7119
728.645	7583
728.760	7690
728.875	7790
728.990	7396
729.105	7916
729.220	7282
729.335	8056
729.449	7811
729.564	7579
729.679	7033
729.794	8393
729.908	7838
730.023	7640
730.138	7449
730.253	7398
730.367	6853
730.482	7321
730.596	7983
730.711	8757
730.826	10404
730.940	11416
731.055	8305
731.169	8514
731.284	7616
731.398	8115
731.513	8275
731.627	9904
731.742	9996
731.856	11940
731.970	10705
732.085	13341
732.199	17729
732.313	27146
732.428	69797
732.542	200765
732.656	111036
732.771	23504
732.885	14767
732.999	13106
733.113	13755
733.227	12828
733.342	11875
733.456	12009
733.570	11636
733.684	11060
733.798	11196
733.912	11802
734.026	10131
734.140	10532
734.254	11583
734.368	12657
734.482	13473
734.596	11287
734.710	10507
734.824	10705
734.938	9732
735.052	9434
735.166	11580
735.280	10337
735.393	9808
735.507	10822
735.621	10311
735.735	12239
735.849	10237
735.962	10224
736.076	9356
736.190	10667
736.303	11027
736.417	11402
736.531	8959
736.644	8726
736.758	9113
736.872	9112
736.985	9457
737.099	9774
737.212	8528
737.326	9142
737.439	9301
737.553	9269
737.666	9075
737.780	8609
737.893	9436
738.007	9124
738.120	9510
738.233	8437
738.347	8817
738.460	8903
738.573	8727
738.687	9022
738.800	8675
738.913	9906
739.026	8586
739.140	8877
739.253	8823
739.366	9407
739.479	7999
739.592	8769
739.705	7936
739.818	9017
739.932	8507
740.045	8203
740.158	8365
740.271	8196
740.384	9175
740.497	7669
740.610	8177
740.723	7829
740.836	8309
740.949	9211
741.062	8772
741.174	8889
741.287	7304
741.400	7717
741.513	7856
741.626	8100
741.739	6931
741.851	7489
741.964	8346
742.077	7962
742.189	7117
742.302	8498
742.415	7626
742.527	7277
742.640	8364
742.753	7329
742.865	7412
742.978	8020
743.090	7647
743.203	7316
743.316	7372
743.428	7526
743.541	7659
743.653	6912
743.766	7245
743.878	7965
743.990	7585
744.103	7794
744.215	7264
744.327	6543
744.440	8344
744.552	8367
744.664	6682
744.777	7616
744.889	6782
745.001	7192
745.113	6732
745.226	7157
745.338	6833
745.450	7692
745.562	6420
745.674	6320
745.786	7490
745.898	7485
746.010	6919
746.122	7038
746.234	7643
746.347	6270
746.459	7289
746.570	6643
746.682	7289
746.794	7004
746.906	7086
747.018	6549
747.130	7655
747.242	6608
747.354	6843
747.466	7474
747.577	6990
747.689	7437
747.801	7427
747.913	7058
748.024	7117
748.136	7195
748.248	7318
748.359	6059
748.471	7241
748.583	6750
748.694	6540
748.806	7301
748.918	7587
749.029	6728
749.141	7233
749.252	7215
749.364	7239
749.475	7642
749.587	7355
749.698	6224
749.809	6562
749.921	6389
750.032	6292
750.144	6928
750.255	6435
750.366	6918
750.478	6118
750.589	6796
750.700	6654
750.811	6600
750.923	6350
751.034	7696
751.145	7047
751.256	6654
751.367	5903
751.479	6842
751.590	6124
751.701	6890
751.812	5873
751.923	6411
752.034	6962
752.145	6461
752.256	6814
752.367	5882
752.478	6158
752.589	7066
752.700	6176
752.811	6416
752.922	6572
753.032	6141
753.143	6818
753.254	6242
753.365	7056
753.476	7316
753.586	7055
753.697	6504
753.808	6129
753.919	7071
754.029	6434
754.140	6801
754.251	6451
754.361	7323
754.472	6400
754.582	6422
754.693	6755
754.804	6942
754.914	6141
755.025	6136
755.135	6188
755.246	7236
755.356	6736
755.466	7681
755.577	7390
755.687	6948
755.798	6137
755.908	6868
756.018	6681
756.129	6500
756.239	6911
756.349	7438
756.460	7404
756.570	7848
756.680	7208
756.790	8109
756.900	7199
757.011	6815
757.121	7312
757.231	7982
757.341	7207
757.451	7631
757.561	7570
757.671	7305
757.781	6878
757.891	7637
758.001	7964
758.111	8028
758.221	8214
758.331	7902
758.441	8299
758.551	8957
758.661	8891
758.771	9071
758.880	8148
758.990	8753
759.100	8958
759.210	8771
759.320	9591
759.429	9389
759.539	10191
759.649	10417
759.758	10556
759.868	10507
759.978	9862
760.087	11292
760.197	10407
760.307	11451
760.416	10979
760.526	10578
760.635	11509
760.745	12488
760.854	11597
760.964	12957
761.073	12253
761.182	13578
761.292	12635
761.401	13516
761.511	12701
761.620	12927
761.729	12580
761.839	12305
761.948	12862
762.057	13370
762.166	14857
762.276	13386
762.385	15505
762.494	14948
762.603	16124
762.712	16061
762.822	16165
762.931	17787
763.040	17404
763.149	17675
763.258	19601
763.367	20578
763.476	20499
763.585	21753
763.694	22990
763.803	23865
763.912	24613
764.021	27076
764.130	26788
764.238	30018
764.347	31653
764.456	34194
764.565	37282
764.674	40300
764.783	43841
764.891	48827
765.000	55462
765.109	61092
765.217	69867
765.326	81379
765.435	96935
765.543	117002
765.652	143044
765.761	181906
765.869	235092
765.978	316462
766.086	432036
766.195	578586
766.303	664536
766.412	470338
766.520	522417
766.629	660521
766.737	529543
766.846	383824
766.954	283592
767.062	214939
767.171	167771
767.279	135353
767.387	109364
767.496	92431
767.604	78858
767.712	69465
767.820	61651
767.928	57407
768.037	52433
768.145	49379
768.253	47778
768.361	46838
768.469	46648
768.577	46804
768.685	50186
768.793	52350
768.901	58979
769.009	67887
769.117	81619
769.225	102261
769.333	138331
769.441	202174
769.549	309407
769.657	481217
769.765	586749
769.873	468684
769.981	570977
770.088	431057
770.196	281898
770.304	195561
770.412	143656
770.519	112024
770.627	89047
770.735	73855
770.842	61087
770.950	55506
771.058	48298
771.165	44222
771.273	39945
771.380	38071
771.488	34095
771.595	32256
771.703	29192
771.810	29141
771.918	26184
772.025	25206
772.133	25207
772.240	24099
772.348	23006
772.455	22696
772.562	20916
772.670	20476
772.777	19493
772.884	18830
772.991	18136
773.099	19363
773.206	16923
773.313	16995
773.420	16009
773.528	15467
773.635	15503
773.742	16073
773.849	16163
773.956	14985
774.063	13619
774.170	13796
774.277	14416
774.384	13072
774.491	13198
774.598	13647
774.705	11792
774.812	11899
774.919	11997
775.026	13132
775.133	12269
775.239	11046
775.346	11988
775.453	11472
775.560	10927
775.667	11505
775.773	10806
775.880	11980
775.987	10598
776.093	10536
776.200	10024
776.307	8950
776.413	9876
776.520	10009
776.627	9851
776.733	8815
776.840	8108
776.946	10927
777.053	8856
777.159	8753
777.266	7660
777.372	9364
777.478	8752
777.585	9815
777.691	8118
777.798	8755
777.904	8523
778.010	8925
778.117	9342
778.223	8077
778.329	7735
778.435	7170
778.542	8238
778.648	7944
778.754	7260
778.860	7109
778.966	7199
779.072	6843
779.178	7763
779.284	8238
779.391	7431
779.497	8329
779.603	11619
779.708	13872
779.815	29997
779.920	100493
780.026	143628
780.132	24903
780.238	10076
780.344	8681
780.450	8525
780.556	6642
780.661	7388
780.767	6534
780.873	6127
780.979	6457
781.085	6422
781.190	6035
781.296	4741
781.402	6079
781.507	5928
781.613	5907
781.719	5680
781.824	6452
781.930	6125
782.035	5915
782.141	6534
782.246	5294
782.352	5674
782.457	5640
782.563	5637
782.668	5369
782.773	4434
782.879	4494
782.984	5045
783.090	6323
783.195	5465
783.300	6195
783.405	4856
783.511	4676
783.616	5664
783.721	4573
783.826	4501
783.932	5786
784.037	5359
784.142	5786
784.247	4508
784.352	5471
784.457	3828
784.562	5561
784.667	4603
784.772	4848
784.877	4499
784.982	5191
785.087	5210
785.192	5209
785.297	4534
785.402	5427
785.507	5219
785.611	4628
785.716	4719
785.821	5103
785.926	4195
786.031	4443
786.135	4999
786.240	4600
786.345	2820
786.450	4019
786.554	4834
786.659	4488
786.763	3154
786.868	5059
786.973	4758
787.077	3744
787.182	3906
787.286	3962
787.391	3624
787.495	4704
787.600	3869
787.704	3871
787.809	4350
787.913	3184
788.017	4126
788.122	4758
788.226	4725
788.330	3638
788.435	3214
788.539	4681
788.643	2999
788.747	3784
788.852	3256
788.956	3380
789.060	3519
789.164	3339
789.268	2820
789.372	3742
789.476	3017
789.580	2568
789.684	3130
789.788	3586
789.892	3987
789.996	3813
790.100	2756
790.204	3155
790.308	3815
790.412	3378
790.516	3469
790.620	3304
790.724	3760
790.828	3098
790.931	1987
791.035	5168
791.139	3383
791.242	2375
791.346	3855
791.450	2927
791.554	3118
791.657	2259
791.761	3742
791.864	3860
791.968	2648
792.072	3239
792.175	2863
792.279	3471
792.382	3556
792.486	3046
792.589	3028
792.693	2718
792.796	2078
792.899	3425
793.003	3214
793.106	1113
793.209	3043
793.313	4166
793.416	1357
793.519	4184
793.623	3243
793.726	3162
793.829	2171
793.932	2280
794.035	1305
794.138	4194
794.242	4279
794.345	4701
794.448	7471
794.551	15283
794.654	55611
794.757	88079
794.860	15831
794.963	5626
795.066	3734
795.169	4343
795.272	2840
795.375	3117
795.477	2350
795.580	2882
795.683	1518
795.786	2607
795.889	1143
795.991	3539
796.094	2945
796.197	1559
796.300	3751
796.402	1801
796.505	1523
796.608	2658
796.710	2943
796.813	2786
796.915	2260
797.018	2854
797.120	2574
797.223	1363
797.326	3635
797.428	1792
797.530	1782
797.633	2419
797.735	2657
797.838	2260
797.940	3189
798.042	2087
798.145	1495
798.247	3047
798.349	1204
798.452	2418
798.554	2446
798.656	1630
798.758	3254
798.860	1855
798.962	1866
799.065	2145
799.167	1380
799.269	2841
799.371	2396
799.473	3351
799.575	1379
799.677	2008
799.779	3183
799.881	1402
799.983	3013
800.085	2462
800.187	2562
800.289	1284
800.390	2173
800.492	2872
800.594	2465
800.696	1611
800.798	2541
800.899	1260
801.001	1078
801.103	1143
801.205	1234
801.306	2537
801.408	1539
801.509	2125
801.611	1671
801.713	2213
801.814	1212
801.916	1612
802.017	1604
802.119	1315
802.220	2229
802.322	329
802.423	3018
802.525	1635
802.626	1901
802.727	1742
802.829	1251
802.930	-816
803.031	2257
803.133	1275
803.234	2321
803.335	1560
803.436	844
803.538	1519
803.639	842
803.740	2637
803.841	742
803.942	2724
804.043	2395
804.144	1319
804.245	1455
804.346	1535
804.447	1747
804.548	1437
804.649	2567
804.750	662
804.851	1058
804.952	1668
805.053	1636
805.154	655
805.255	2335
805.355	1848
805.456	563
805.557	713
805.658	43
805.758	1744
805.859	1310
805.960	1317
806.061	927
806.161	1450
806.262	1268
806.362	1183
806.463	1099
806.564	2352
806.664	940
806.765	2136
806.865	1148
806.966	1583
807.066	591
807.166	1981
807.267	2172
807.367	1347
807.468	1681
807.568	250
807.668	1234
807.769	1882
807.869	523
807.969	1951
808.069	1355
808.170	1578
808.270	1107
808.370	2288
808.470	1773
808.570	-418
808.670	1569
808.770	382
808.870	1225
808.970	1285
809.070	358
809.170	485
809.271	1101
809.370	837
809.470	1825
809.570	1018
809.670	756
809.770	1628
809.870	1653
809.970	1119
810.070	629
810.169	2039
810.269	-537
810.369	2039
810.469	840
810.568	491
810.668	887
810.768	1333
810.867	1427
810.967	1091
811.066	527
811.166	976
811.265	956
811.365	970
811.464	504
811.564	991
811.663	1382
811.763	383
811.862	1423
811.962	1707
812.061	959
812.160	631
812.260	653
812.359	1584
812.458	1566
812.557	3240
812.657	4053
812.756	2778
812.855	1124
812.954	785
813.053	1066
813.153	776
813.252	340
813.351	601
813.450	437
813.549	63
813.648	1472
813.747	1235
813.846	1236
813.945	371
814.044	538
814.143	1117
814.242	1192
814.341	966
814.439	1224
814.538	1627
814.637	1225
814.736	735
814.835	1435
814.933	1754
815.032	1752
815.131	1672
815.229	2882
815.328	4454
815.427	3057
815.525	3401
815.624	2561
815.722	2223
815.821	3475
815.919	3202
816.018	2893
816.116	3529
816.215	2907
816.313	3733
816.412	3103
816.510	3800
816.609	5043
816.707	5029
816.805	3323
816.904	3311
817.002	4298
817.100	3671
817.198	4971
817.296	3393
817.395	4026
817.493	3992
817.591	3189
817.689	4675
817.787	3811
817.885	4156
817.983	3916
818.081	5113
818.179	7628
818.277	17778
818.375	13853
818.473	6038
818.571	3544
818.669	5223
818.767	4100
818.865	3926
818.963	3361
819.061	4192
819.158	4847
819.256	9170
819.354	12880
819.452	31625
819.549	18783
819.647	6681
819.745	4608
819.842	4107
819.940	2973
820.038	2799
820.135	3023
820.233	4158
820.330	3194
820.428	2420
820.525	3268
820.623	3146
820.720	3106
820.818	2998
820.915	2976
821.012	3548
821.110	1602
821.207	3470
821.304	2553
821.402	3637
821.499	3372
821.596	3544
821.693	2217
821.791	3171
821.888	3051
821.985	4106
822.082	2322
822.179	3685
822.276	2890
822.373	3025
822.470	2077
822.567	2409
822.664	1570
822.761	2924
822.858	1958
822.955	2808
823.052	2034
823.149	3172
823.246	2772
823.343	2236
823.440	3137
823.536	3197
823.633	1866
823.730	2117
823.827	2814
823.923	3221
824.020	2891
824.117	2881
824.213	1735
824.310	1894
824.407	1884
824.503	3369
824.600	1242
824.696	1683
824.793	2567
824.889	1531
824.986	2461
825.082	2238
825.179	2004
825.275	2528
825.371	1704
825.468	2272
825.564	1159
825.660	1649
825.757	2540
825.853	2820
825.949	1493
826.045	1831
826.142	1138
826.238	1881
826.334	3008
826.430	1335
826.526	1511
826.622	628
826.718	2268
826.814	2039
826.910	2188
827.006	1403
827.102	1436
827.198	2105
827.294	1635
827.390	2025
827.486	1676
827.582	392
827.678	361
827.774	2835
827.869	1942
827.965	2693
828.061	892
828.157	1953
828.252	2324
828.348	1614
828.444	1477
828.539	1647
828.635	1432
828.731	2798
828.826	709
828.922	2216
829.017	1846
829.113	3007
829.208	1081
829.304	1125
829.399	2280
829.495	2067
829.590	1935
829.685	1545
829.781	1856
829.876	881
829.971	1320
830.066	1228
830.162	1603
830.257	2543
830.352	1345
830.447	2146
830.543	1588
830.638	299
830.733	2790
830.828	1101
830.923	2516
831.018	1202
831.113	1340
831.208	848
831.303	811
831.398	941
831.493	1291
831.588	2978
831.683	382
831.778	1513
831.873	1069
831.967	2820
832.062	291
832.157	936
832.252	1460
832.346	1095
832.441	1989
832.536	1791
832.631	2281
832.725	1396
832.820	530
832.914	1453
833.009	449
833.104	1112
833.198	1275
833.293	2284
833.387	2421
833.482	1373
833.576	603
833.670	2285
833.765	593
833.859	1314
833.954	1919
834.048	1560
834.142	1212
834.237	829
834.331	624
834.425	1296
834.519	397
834.613	1117
834.708	618
834.802	1735
834.896	461
834.990	876
835.084	1319
835.178	1266
835.272	728
835.366	685
835.460	1193
835.554	954
835.648	491
835.742	-178
835.836	1108
835.930	63
836.024	1312
836.117	1489
836.211	894
836.305	1430
836.399	1336
836.493	92
836.586	1950
836.680	529
836.774	466
836.867	1766
836.961	492
837.055	950
837.148	620
837.242	989
837.335	678
837.429	818
837.522	371
837.616	790
837.709	926
837.803	491
837.896	1058
837.989	760
838.083	1128
838.176	1999
838.269	1013
838.363	1450
838.456	753
838.549	2318
838.642	1066
838.735	2607
838.829	1368
838.922	528
839.015	1151
839.108	-578
839.201	814
839.294	1417
839.387	10
839.480	82
839.573	1332
839.666	360
839.759	500
839.852	90
839.945	1208
840.038	256
840.131	93
840.223	1479
840.316	761
840.409	496
840.502	2
840.594	1651
840.687	-264
840.780	616
840.873	626
840.965	886
841.058	398
841.150	2002
841.243	738
841.336	2004
841.428	-298
841.521	40
841.613	199
841.706	694
841.798	780
841.890	1670
841.983	208
842.075	1596
842.167	55
842.260	805
842.352	1655
842.444	1161
842.537	1435
842.629	1896
842.721	626
842.813	836
842.905	-79
842.997	708
843.090	298
843.182	578
843.274	784
843.366	3290
843.458	6060
843.550	4366
843.642	909
843.734	1334
843.826	138
843.918	1345
844.009	1220
844.101	1086
844.193	395
844.285	983
844.377	99
844.469	46
844.560	-160
844.652	717
844.744	1397
844.835	685
844.927	-277
845.019	1312
845.110	64
845.202	745
845.293	416
845.385	428
845.476	56
845.568	1158
845.659	-135
845.751	574
845.842	396
845.934	762
846.025	110
846.116	1064
846.208	894
846.299	739
846.390	695
846.482	843
846.573	77
846.664	1100
846.755	293
846.846	1753
846.937	-832
847.029	893
847.120	489
847.211	836
847.302	1188
847.393	-46
847.484	1863
847.575	898
847.666	305
847.757	568
847.847	1014
847.938	1769
848.029	178
848.120	948
848.211	762
848.302	169
848.392	-163
848.483	2049
848.574	400
848.664	53
848.755	496
848.846	414
848.936	498
849.027	718
849.118	644
849.208	234
849.299	451
849.389	1113
849.480	3531
849.570	6310
849.661	12529
849.751	22951
849.841	8894
849.932	1640
850.022	-92
850.112	554
850.203	507
850.293	1047
850.383	341
850.474	-165
850.564	769
850.654	394
850.744	285
850.834	-70
850.924	375
851.014	1232
851.104	128
851.194	370
851.284	551
851.374	833
851.464	467
851.554	1047
851.644	202
851.734	1538
851.824	1432
851.914	2127
852.004	2273
852.094	2272
852.183	457
852.273	421
852.363	985
852.452	480
852.542	722
852.632	739
852.721	210
852.811	33
852.901	1175
852.990	381
853.080	808
853.169	845
853.259	401
853.348	35
853.438	1035
853.527	1712
853.617	2331
853.706	4775
853.795	7291
853.885	18503
853.974	33719
854.063	63622
854.152	97476
854.242	38514
854.331	7995
854.420	3089
854.509	1993
854.598	2360
854.687	1494
854.777	1383
854.866	760
854.955	1675
855.044	79
855.133	914
855.222	88
855.311	-437
855.400	-334
855.488	-261
855.577	-234
855.666	94
855.755	497
855.844	934
855.933	214
856.021	1029
856.110	359
856.199	-419
856.288	393
856.376	451
856.465	-739
856.554	459
856.642	129
856.731	444
856.819	108
856.908	-143
856.996	602
857.085	-72
857.173	-223
857.262	182
857.350	-362
857.438	111
857.527	49
857.615	454
857.703	130
857.792	320
857.880	-750
857.968	474
858.056	577
858.145	155
858.233	-498
858.321	132
858.409	-604
858.497	-70
858.585	-722
858.673	287
858.761	-777
858.849	-250
858.937	-520
859.025	-376
859.113	166
859.201	480
859.289	-86
859.377	670
859.465	-339
859.552	-132
859.640	141
859.728	1099
859.816	-334
859.903	352
859.991	27
860.079	-313
860.166	-154
860.254	543
860.342	77
860.429	-836
860.517	-378
860.604	453
860.692	277
860.779	788
860.867	-391
860.954	-393
861.042	912
861.129	212
861.216	730
861.304	138
861.391	351
861.478	368
861.565	391
861.653	414
861.740	-566
861.827	103
861.914	520
862.001	-57
862.089	460
862.176	464
862.263	20
862.350	706
862.437	-25
862.524	-806
862.611	253
862.698	252
862.785	1020
862.871	566
862.958	-284
863.045	263
863.132	493
863.219	282
863.306	-489
863.392	836
863.479	325
863.566	-147
863.652	538
863.739	90
863.826	504
863.912	227
863.999	-303
864.086	-582
864.172	-125
864.259	204
864.345	803
864.432	372
864.518	723
864.604	305
864.691	-376
864.777	271
864.863	720
864.950	1987
865.036	1431
865.122	3872
865.209	4046
865.295	2855
865.381	2741
865.467	2938
865.553	4100
865.639	4079
865.726	6409
865.812	11065
865.898	19637
865.984	29218
866.070	51486
866.156	57021
866.242	17275
866.328	5711
866.414	2519
866.499	4042
866.585	2530
866.671	3128
866.757	3355
866.843	3925
866.928	2478
867.014	1976
867.100	3681
867.186	2362
867.271	2099
867.357	2872
867.442	2585
867.528	1842
867.614	2185
867.699	2411
867.785	2188
867.870	2931
867.956	1493
868.041	2390
868.127	2771
868.212	2251
868.297	1774
868.383	1667
868.468	2409
868.553	3133
868.639	2841
868.724	3273
868.809	3258
868.894	3075
868.979	1458
869.065	2610
869.150	1433
869.235	1663
869.320	2237
869.405	1357
869.490	1659
869.575	1942
869.660	1606
869.745	2068
869.830	1426
869.915	1948
870.000	2082
870.085	1780
870.169	710
870.254	2760
870.339	1546
870.424	1877
870.509	1986
870.593	2012
870.678	2065
870.763	1948
870.847	1483
870.932	1758
871.016	2022
871.101	1259
871.186	1969
871.270	1958
871.355	1118
871.439	1619
871.523	1693
871.608	2197
871.692	1170
871.777	1668
871.861	1430
871.945	1148
872.030	1556
872.114	1850
872.198	810
872.282	1385
872.367	1478
872.451	1042
872.535	1774
872.619	2118
872.703	1457
872.787	1817
872.871	1408
872.955	786
873.039	1255
873.123	1950
873.207	2159
873.291	874
873.375	245
873.459	1565
873.543	55
873.627	1199
873.711	615
873.794	916
873.878	548
873.962	658
874.045	1426
874.129	685
874.137	730
874.213	1181
874.245	997
874.296	694
874.352	711
874.380	723
874.460	1329
874.464	1352
874.547	1915
874.568	1865
874.631	1726
874.676	1572
874.714	1435
874.784	1685
874.798	1739
874.881	1758
874.892	1613
874.965	584
874.999	808
875.048	1150
875.107	899
875.131	760
875.215	1280
875.215	1280
875.298	1103
875.323	979
875.381	667
875.430	1621
875.465	2299
875.538	1755
875.548	1668
875.631	72
875.646	52
875.714	123
875.753	467
875.798	796
875.861	583
875.881	512
875.964	1364
875.968	1341
876.047	916
876.076	1088
876.130	1512
876.183	836
876.213	427
876.291	1260
876.296	1314
876.379	903
876.398	865
876.462	768
876.506	225
876.545	-269
876.613	955
876.628	1219
876.711	976
876.721	955
876.794	917
876.828	1186
876.877	1454
876.935	723
876.960	481
877.043	965
877.043	967
877.125	1355
877.150	1318
877.208	1245
877.258	1209
877.291	1182
877.365	996
877.374	977
877.456	1048
877.472	1110
877.539	1280
877.579	1325
877.622	1432
877.687	901
877.704	746
877.787	1200
877.794	1222
877.869	1691
877.901	1569
877.952	1138
878.008	586
878.034	450
878.115	857
878.117	858
878.199	566
878.222	691
878.282	1354
878.329	1578
878.364	1508
878.437	1223
878.447	1230
878.529	258
878.544	396
878.611	958
878.651	575
878.694	222
878.758	1489
878.776	1800
878.858	968
878.865	954
878.941	1074
878.972	1037
879.023	711
879.078	849
879.105	1165
879.185	1455
879.187	1449
879.269	1390
879.292	1261
879.351	1171
879.399	1208
879.433	1101
879.506	896
879.516	953
879.598	1488
879.613	1601
879.680	1454
879.720	1027
879.762	868
879.827	1031
879.844	999
879.926	987
879.933	1008
880.007	1510
880.040	1325
880.089	843
880.147	747
880.171	937
880.253	2267
880.254	2265
880.335	1258
880.360	1227
880.417	2152
880.467	2491
880.499	2263
880.574	2083
880.580	2111
880.662	2068
880.680	2005
880.744	1432
880.787	1134
880.825	1067
880.893	1182
880.907	1194
880.989	1313
881.000	1307
881.070	1352
881.106	1323
881.152	1110
881.213	1001
881.233	1096
881.315	1125
881.319	1153
881.396	1652
881.426	1472
881.478	1202
881.532	1829
881.559	1869
881.639	1246
881.641	1249
881.722	1637
881.745	1627
881.803	1533
881.852	1509
881.885	1449
881.958	929
881.966	878
882.047	1574
882.064	1539
882.129	1657
882.171	1661
882.210	1444
882.277	1184
882.291	1228
882.372	1696
882.383	1670
882.454	1446
882.489	1661
882.535	1831
882.596	1739
882.616	1669
882.697	1113
882.702	1114
882.778	1361
882.808	1385
882.859	1239
882.914	1069
882.940	1261
883.020	1432
883.021	1433
883.102	1704
883.127	1602
883.183	1940
883.233	2534
883.264	2399
883.339	1462
883.345	1432
883.426	1351
883.445	1344
883.507	1441
883.551	1454
883.587	1584
883.657	1873
883.668	1874
883.749	1650
883.763	1629
883.830	1456
883.869	1354
883.910	1276
883.975	1132
883.991	1182
884.072	1486
884.081	1511
884.152	1473
884.187	1342
884.233	1566
884.292	2275
884.314	2158
884.394	1195
884.398	1139
884.475	1132
884.504	1253
884.555	1217
884.610	1026
884.636	1199
884.716	1863
884.716	1869
884.797	2020
884.821	1929
884.877	1991
884.927	2099
884.958	1839
885.033	1134
885.038	1153
885.118	1311
885.139	1431
885.199	1270
885.244	1117
885.279	1630
885.350	2581
885.359	2540
885.439	2256
885.456	2077
885.520	1926
885.561	2198
885.600	2054
885.667	1291
885.680	1332
885.760	1863
885.773	1910
885.840	1605
885.878	1571
885.920	1872
885.984	2098
886.000	2018
886.080	1644
886.089	1590
886.160	1932
886.195	2197
886.240	1994
886.300	1564
886.320	1719
886.400	2326
886.406	2366
886.480	1472
886.511	1036
886.560	1359
886.616	1654
886.640	1628
886.720	1697
886.722	1691
886.800	2031
886.827	2184
886.879	1956
886.932	1641
886.959	1995
887.038	2970
887.039	2971
887.119	2277
887.143	2084
887.198	2302
887.248	2408
887.278	2158
887.354	1608
887.358	1637
887.437	1997
887.459	2145
887.517	2307
887.564	2329
887.596	2161
887.669	1809
887.676	1772
887.755	1269
887.774	1142
887.835	1878
887.880	2415
887.914	2273
887.985	1996
887.994	2021
888.073	2127
888.090	2151
888.153	2382
888.195	2511
888.232	2396
888.300	2216
888.311	2204
888.391	2090
888.405	2046
888.470	2008
888.510	1960
888.549	2042
888.615	2262
888.628	2427
888.708	3362
888.720	3494
888.787	2628
888.825	2099
888.866	2109
888.930	2176
888.945	2166
889.024	2067
889.035	2046
889.103	2416
889.140	2601
889.182	2295
889.245	1848
889.261	1959
889.340	2475
889.349	2524
889.419	2197
889.454	2042
889.498	2261
889.559	2544
889.577	2494
889.656	2257
889.664	2232
889.735	2920
889.768	3239
889.814	2601
889.873	1739
889.978	2939
890.083	2482
890.187	3418
890.292	2695
890.397	3285
890.501	1794
890.606	2771
890.710	2293
890.815	3610
890.919	1341
891.024	2680
891.128	2299
891.233	2680
891.337	1706
891.442	3280
891.546	2187
891.650	1828
891.755	1729
891.859	3409
891.963	2075
892.068	2516
892.172	1958
892.276	2059
892.380	1535
892.484	2707
892.589	2925
892.693	2581
892.797	1645
892.901	1852
893.005	2587
893.109	3040
893.213	2333
893.317	2653
893.421	2390
893.525	1413
893.629	1267
893.733	3321
893.837	2078
893.941	2910
894.045	1306
894.148	2514
894.252	4634
894.356	3755
894.460	2408
894.564	2008
894.667	1706
894.771	2055
894.875	825
894.978	2990
895.082	1999
895.186	2247
895.289	1581
895.393	2477
895.496	2134
895.600	2426
895.703	1119
895.807	2132
895.910	1273
896.014	2871
896.117	1090
896.221	3369
896.324	1378
896.427	2328
896.531	1735
896.634	2809
896.737	1845
896.840	1718
896.944	1468
897.047	2459
897.150	1624
897.253	1814
897.356	2237
897.460	1846
897.563	1356
897.666	2492
897.769	1804
897.872	2157
897.975	1349
898.078	2656
898.181	1810
898.284	2412
898.387	1479
898.490	1980
898.593	1238
898.695	1760
898.798	2621
898.901	1597
899.004	1752
899.107	2575
899.209	1886
899.312	2614
899.415	653
899.518	1030
899.620	895
899.723	1540
899.826	1409
899.928	2495
900.031	1737
900.133	1911
900.236	534
900.338	1526
900.441	1016
900.543	1471
900.646	1076
900.748	2256
900.851	1755
900.953	1025
901.055	994
901.158	1899
901.260	723
901.362	1256
901.465	938
901.567	2446
901.669	1373
901.771	1758
901.873	1148
901.976	2103
902.078	2744
902.180	1102
902.282	804
902.384	2780
902.486	1830
902.588	2165
902.690	1720
902.792	1813
902.894	2355
902.996	1958
903.098	1331
903.200	2437
903.302	811
903.404	2230
903.505	821
903.607	1616
903.709	1660
903.811	2373
903.913	860
904.014	1110
904.116	1117
904.218	1280
904.319	1921
904.421	2394
904.523	1616
904.624	1598
904.726	855
904.827	2377
904.929	1127
905.030	2409
905.132	1865
905.233	2046
905.335	1753
905.436	1872
905.537	1738
905.639	1735
905.740	921
905.841	2301
905.943	1807
906.044	2158
906.145	1725
906.247	1190
906.348	421
906.449	2308
906.550	1944
906.651	2009
906.752	1499
906.854	2555
906.955	1002
907.056	1209
907.157	1564
907.258	2042
907.359	1595
907.460	1671
907.561	507
907.662	1649
907.762	1255
907.863	1210
907.964	1506
908.065	2077
908.166	1293
908.267	1643
908.367	633
908.468	1019
908.569	1524
908.670	1969
908.770	1659
908.871	1218
908.971	1246
909.072	2125
909.173	770
909.273	1216
909.374	1670
909.474	1638
909.575	1243
909.675	1597
909.776	1246
909.876	1268
909.977	483
910.077	1801
910.177	2512
910.278	1686
910.378	388
910.478	1479
910.579	1179
910.679	1536
910.779	1438
910.879	1614
910.980	821
911.080	1434
911.180	878
911.280	1782
911.380	1099
911.480	1158
911.580	702
911.680	1616
911.780	306
911.880	1407
911.980	1085
912.080	1655
912.180	545
912.280	1819
912.380	1175
912.480	979
912.580	1220
912.679	1331
912.779	1108
912.879	2028
912.979	1630
913.078	1429
913.178	918
913.278	1886
913.377	355
913.477	1277
913.577	592
913.676	2472
913.776	963
913.875	2437
913.975	755
914.074	1437
914.174	752
914.273	1521
914.373	1437
914.472	1972
914.572	1153
914.671	1626
914.770	1184
914.870	1830
914.969	1004
915.068	1044
915.167	964
915.267	1087
915.366	1495
915.465	1664
915.564	1773
915.663	2003
915.763	741
915.862	2259
915.961	721
916.060	1905
916.159	834
916.258	1770
916.357	266
916.456	1330
916.555	761
916.654	1134
916.752	1101
916.851	1761
916.950	1275
917.049	1629
917.148	957
917.247	1934
917.345	1145
917.444	1247
917.543	834
917.642	1450
917.740	473
917.839	2362
917.937	1610
918.036	1766
918.135	691
918.233	1444
918.332	880
918.430	1701
918.529	824
918.627	2182
918.726	1000
918.824	1586
918.923	954
919.021	2070
919.119	554
919.218	1844
919.316	459
919.414	2095
919.512	2019
919.611	2720
919.709	1003
919.807	2057
919.905	2063
920.003	2050
920.102	1019
920.200	1933
920.298	1236
920.396	1928
920.494	1067
920.592	2180
920.690	1663
920.788	1892
920.886	1812
920.984	1402
921.082	1525
921.180	2606
921.277	2093
921.375	2420
921.473	2510
921.571	2903
921.669	1016
921.766	2931
921.864	1659
921.962	2912
922.060	1494
922.157	3215
922.255	2033
922.352	2464
922.450	2961
922.548	2881
922.645	3203
922.743	4436
922.840	6140
922.938	7697
923.035	5291
923.133	5751
923.230	5876
923.327	7642
923.425	6386
923.522	6673
923.619	6021
923.717	5500
923.814	4951
923.911	5589
924.008	6617
924.106	6016
924.203	5070
924.300	6070
924.397	5424
924.494	6260
924.591	5083
924.688	5130
924.786	5572
924.883	6073
924.979	5738
925.077	5918
925.173	4826
925.270	5367
925.367	4996
925.464	7109
925.561	6130
925.658	5943
925.755	5054
925.852	7326
925.948	5563
926.045	5426
926.142	4860
926.239	5755
926.335	3884
926.432	5861
926.529	4915
926.625	6146
926.722	4116
926.818	5022
926.915	5565
927.011	6170
927.108	4761
927.204	5136
927.301	4132
927.397	5819
927.494	5537
927.590	4441
927.687	4416
927.783	5449
927.879	5354
927.976	4686
928.072	4793
928.168	5820
928.264	5693
928.361	4832
928.457	5129
928.553	4801
928.649	5057
928.745	5208
928.841	4024
928.937	4853
929.033	5300
929.129	4620
929.225	4834
929.321	4691
929.417	3829
929.513	4564
929.609	4212
929.705	4365
929.801	4714
929.897	4890
929.993	3064
930.089	4308
930.184	4443
930.280	5290
930.376	5202
930.471	4105
930.567	4060
930.663	4408
930.758	3736
930.854	4337
930.950	3294
931.045	3520
931.141	3253
931.236	4632
931.332	3302
931.427	3233
931.523	3710
931.618	5408
931.714	2752
931.809	4112
931.905	4767
932.000	3912
932.095	3054
932.191	5224
932.286	4602
932.381	4432
932.476	2581
932.572	4260
932.667	3185
932.762	3346
932.857	3838
932.952	4817
933.047	3641
933.142	3628
933.237	3913
933.332	4494
933.427	3415
933.522	4232
933.617	3197
933.712	4000
933.807	2920
933.902	4558
933.997	4002
934.092	3562
934.187	3291
934.282	4129
934.376	3141
934.471	4636
934.566	2706
934.661	3690
934.755	2500
934.850	4671
934.945	4165
935.039	3372
935.134	2408
935.228	3878
935.323	3797
935.417	3483
935.512	2272
935.606	3231
935.701	2658
935.795	3251
935.890	4327
935.984	3101
936.079	2287
936.173	4194
936.267	2982
936.362	2913
936.456	3002
936.550	4551
936.644	3946
936.738	3255
936.833	2639
936.927	3157
937.021	2392
937.115	2182
937.209	2388
937.303	3417
937.397	1540
937.491	3019
937.585	3211
937.679	3244
937.773	1848
937.867	3289
937.961	2713
938.055	3499
938.149	3483
938.243	2585
938.337	1986
938.430	3402
938.524	3217
938.618	3155
938.712	1692
938.805	2955
938.899	3275
938.993	4155
939.086	2342
939.180	2875
939.274	2450
939.367	3553
939.461	3227
939.554	2875
939.648	2495
939.741	2980
939.835	2522
939.928	3664
940.022	2994
940.115	2563
940.208	2909
940.302	3784
940.395	2520
940.488	1777
940.582	2815
940.675	1901
940.768	2051
940.861	3248
940.954	2469
941.048	2423
941.141	1954
941.234	2534
941.327	2782
941.420	3473
941.513	2299
941.606	2445
941.699	2541
941.792	2897
941.885	1384
941.978	2875
942.071	2627
942.164	1077
942.257	1660
942.349	2996
942.442	2672
942.535	2396
942.628	1844
942.721	2799
942.813	1787
942.906	3377
942.999	2203
943.091	1324
943.184	2091
943.277	2097
943.369	2138
943.462	1997
943.554	1408
943.647	2907
943.739	2779
943.832	2686
943.924	874
944.017	2336
944.109	903
944.201	2705
944.294	1360
944.386	2327
944.478	1412
944.571	1588
944.663	2465
944.755	2149
944.847	2946
944.940	2457
945.032	509
945.124	2203
945.216	2595
945.308	2278
945.400	2219
945.492	1794
945.584	2274
945.676	3297
945.768	1207
945.860	2604
945.952	1062
946.044	2193
946.136	2252
946.228	2385
946.320	1469
946.412	1942
946.503	2718
946.595	2712
946.687	1383
946.779	1265
946.870	1483
946.962	2042
947.054	1705
947.145	1537
947.237	1507
947.329	635
947.420	1817
947.512	1943
947.603	1343
947.695	1920
947.786	1922
947.878	1064
947.969	1576
948.061	1818
948.152	1181
948.243	1475
948.335	577
948.426	1158
948.517	1540
948.609	1389
948.700	1386
948.791	1577
948.882	692
948.973	295
949.065	813
949.156	2514
949.247	920
949.338	1844
949.429	921
949.520	668
949.611	993
949.702	2371
949.793	1306
949.884	2051
949.975	649
950.066	976
950.157	326
950.247	1733
950.338	486
950.429	1789
950.520	1332
950.611	1680
950.701	699
950.792	1971
950.883	934
950.973	1695
951.064	1653
951.155	1726
951.245	1856
951.336	2071
951.427	1220
951.517	2078
951.608	1636
951.698	1712
951.788	611
951.879	1324
951.969	1599
952.060	1818
952.150	696
952.240	2020
952.331	273
952.421	2379
952.511	1114
952.602	724
952.692	429
952.782	921
952.872	325
952.962	1248
953.052	361
953.143	962
953.233	1588
953.323	1154
953.413	869
953.503	1710
953.593	1208
953.683	1138
953.773	-496
953.863	1458
953.953	378
954.042	1713
954.132	345
954.222	1817
954.312	1138
954.402	885
954.492	1173
954.581	2273
954.671	709
954.761	255
954.850	1586
954.940	1429
955.030	737
955.119	1003
955.209	1263
955.298	1313
955.388	1668
955.477	2540
955.567	627
955.656	1989
955.746	641
955.835	1044
955.925	171
956.014	897
956.103	1436
956.193	2509
956.282	1226
956.371	1338
956.461	619
956.550	1493
956.639	963
956.728	562
956.817	808
956.906	1060
956.995	1221
957.085	855
957.174	791
957.263	1802
957.352	928
957.441	1593
957.530	841
957.619	1895
957.708	1274
957.796	2011
957.885	-69
957.974	120
958.063	1445
958.152	978
958.241	584
958.329	576
958.418	651
958.507	979
958.596	1560
958.684	1075
958.773	1798
958.861	1927
958.950	652
959.039	2119
959.127	948
959.216	2001
959.304	1240
959.393	1182
959.481	1586
959.570	1525
959.658	374
959.746	1548
959.835	935
959.923	1484
960.011	643
960.100	1911
960.188	1477
960.276	1405
960.365	724
960.453	1493
960.541	-195
960.629	602
960.717	470
960.805	1023
960.893	548
960.981	557
961.069	1888
961.158	1857
961.245	1326
961.333	1916
961.421	1026
961.509	1659
961.597	1349
961.685	1060
961.773	609
961.861	358
961.949	1116
962.036	960
962.124	898
962.212	1690
962.299	628
962.387	882
962.475	1389
962.562	1058
962.650	866
962.738	1754
962.825	227
962.913	793
963.000	-264
963.088	1273
963.175	30
963.263	1690
963.350	268
963.438	407
963.525	-692
963.612	2220
963.700	1417
963.787	3557
963.874	1177
963.962	1535
964.049	883
964.136	-388
964.223	263
964.310	92
964.398	122
964.485	458
964.572	811
964.659	685
964.746	532
964.833	1109
964.920	-181
965.007	1674
965.094	530
965.181	572
965.268	834
965.355	907
965.441	237
965.528	234
965.615	713
965.702	1281
965.789	308
965.875	1220
965.962	243
966.049	811
966.136	79
966.222	1105
966.309	1455
966.395	1121
966.482	1402
966.569	967
966.655	591
966.742	698
966.828	521
966.915	78
967.001	448
967.087	305
967.174	423
967.260	1655
967.347	810
967.433	1072
967.519	2099
967.605	566
967.692	-1
967.778	1215
967.864	151
967.950	1101
968.036	1116
968.123	1248
968.209	233
968.295	-192
968.381	592
968.467	572
968.553	-897
968.639	2072
968.725	123
968.811	1259
968.897	1037
968.983	506
969.069	488
969.154	495
969.240	858
969.326	-381
969.412	-485
969.497	634
969.583	86
969.669	1662
969.755	466
969.840	736
969.926	1346
970.012	1331
970.097	1999
970.183	1646
970.268	361
970.354	1021
970.439	-618
970.525	2664
970.610	-786
970.696	1450
970.781	886
970.866	125
970.952	1144
971.037	874
971.122	-433
971.208	1267
971.293	243
971.378	486
971.463	-392
971.549	1273
971.634	687
971.719	578
971.804	-243
971.889	1391
971.974	-564
972.059	1032
972.144	499
972.229	774
972.314	197
972.399	1307
972.484	-42
972.569	1688
972.654	-139
972.739	1765
972.824	-339
972.908	628
972.993	309
973.078	907
973.163	472
973.247	849
973.332	-1552
973.417	1958
973.501	-654
973.586	1448
973.671	207
973.755	472
973.840	625
973.924	2215
974.009	1299
974.093	1622
974.178	1448
974.262	1352
974.346	429
974.431	953
974.515	139
974.600	439
974.684	192
974.768	763
974.852	637
974.937	58
975.021	745
975.105	226
975.189	262
975.273	1502
975.358	-256
975.442	-316
975.526	574
975.610	-90
975.694	-306
975.778	1074
975.862	-186
975.946	-833
976.030	1216
976.114	835
976.198	298
976.281	145
976.365	672
976.449	160
976.533	504
976.617	1200
976.700	757
976.784	566
976.868	-365
976.951	571
977.035	277
977.119	139
977.202	-573
977.286	-96
977.369	977
977.453	2124
977.536	843
977.620	708
977.703	1015
977.787	257
977.870	1101
977.953	1453
978.037	-1012
978.120	775
978.203	18
978.287	914
978.370	84
978.453	6
978.536	384
978.620	896
978.703	616
978.786	736
978.869	-518
978.952	740
979.035	949
979.118	477
979.201	305
979.284	417
979.367	-472
979.450	521
979.533	-170
979.616	-4
979.699	-1026
979.782	1578
979.865	-302
979.948	300
980.030	-688
980.113	352
980.196	-806
980.279	838
980.361	-101
980.444	546
980.526	1431
980.609	702
980.692	663
980.774	2074
980.857	-1326
980.939	1671
981.022	-428
981.104	-348
981.187	-348
981.269	1410
981.352	80
981.434	-246
981.516	-326
981.599	1454
981.681	375
981.763	450
981.846	-199
981.928	898
982.010	-599
982.092	120
982.174	552
982.256	-442
982.339	-290
982.421	317
982.503	168
982.585	-115
982.667	-121
982.749	854
982.831	-197
982.913	-328
982.995	692
983.077	-346
983.158	173
983.240	-588
983.322	-183
983.404	2194
983.486	-226
983.568	1122
983.649	192
983.731	1295
983.813	534
983.894	1131
983.976	-775
984.058	793
984.139	1067
984.221	561
984.302	575
984.384	127
984.465	-321
984.547	1474
984.628	-593
984.710	899
984.791	-157
984.872	67
984.954	-4
985.035	886
985.116	-1130
985.198	149
985.279	359
985.360	31
985.441	-461
985.522	963
985.604	-245
985.685	-755
985.766	339
985.847	1623
985.928	-455
986.009	234
986.090	155
986.171	1384
986.252	-779
986.333	-1
986.414	-441
986.495	1456
986.576	-744
986.656	308
986.737	316
986.818	1297
986.899	32
986.980	545
987.060	832
987.141	883
987.222	343
987.302	976
987.383	419
987.464	1142
987.544	1561
987.625	1194
987.705	1149
987.786	1395
987.866	743
987.947	1151
988.027	1028
988.108	322
988.188	584
988.268	1207
988.349	732
988.429	391
988.509	643
988.589	417
988.670	-1173
988.750	2045
988.830	960
988.910	1181
988.990	135
989.070	-74
989.151	179
989.231	473
989.311	404
989.391	873
989.471	-276
989.551	40
989.631	-910
989.711	1674
989.791	26
989.870	219
989.950	1068
990.030	455
990.110	669
990.190	141
990.269	-659
990.349	515
990.429	621
990.509	440
990.588	56
990.668	1066
990.747	-535
990.827	-342
990.907	-51
990.986	-630
991.066	227
991.145	60
991.225	294
991.304	-88
991.383	-156
991.463	476
991.542	521
991.622	241
991.701	-1455
991.780	-247
991.859	-101
991.939	83
992.018	-295
992.097	916
992.176	-603
992.256	565
992.335	-678
992.414	581
992.493	-474
992.572	-32
992.651	432
992.730	417
992.809	-32
992.888	-341
992.967	-239
993.046	739
993.125	-1021
993.203	-794
993.282	464
993.361	-399
993.440	-546
993.519	-26
993.597	11
993.676	70
993.755	-177
993.834	255
993.912	-1663
993.991	918
994.069	-1243
994.148	40
994.226	-874
994.305	420
994.384	-1018
994.462	909
994.540	-1681
994.619	-867
994.697	-45
994.776	-283
994.854	257
994.932	-493
995.011	-710
995.089	348
995.167	-457
995.245	14
995.324	-509
995.402	-66
995.480	-1648
995.558	300
995.636	-1016
995.714	-573
995.792	-93
995.870	-615
995.948	-1171
996.026	65
996.104	-1393
996.182	-31
996.260	-1532
996.338	245
996.416	-1835
996.494	258
996.572	-661
996.649	-130
996.727	-1496
996.805	-43
996.883	-793
996.960	-716
997.038	-672
997.116	-93
997.193	-799
997.271	139
997.348	-1095
997.426	291
997.504	-1262
997.581	397
997.658	-217
997.736	-1020
997.813	-1127
997.891	992
997.968	-988
998.046	-426
998.123	-981
998.200	-334
998.277	-1115
998.355	417
998.432	-2207
998.509	-90
998.586	68
998.663	-400
998.741	-1040
998.818	-12
998.895	-1034
998.972	-433
999.049	-947
999.126	-674
999.203	-422
999.280	172
999.357	-2277
999.434	-814
999.511	-401
999.587	-515
999.664	-1453
999.741	-645
999.818	-772
999.895	-620
999.971	-1326
1000.048	-438
1000.125	342
1000.202	-1191
1000.278	-362
1000.355	143
1000.431	-1035
1000.508	94
1000.584	-1261
1000.661	603
1000.738	-1362
1000.814	-1076
1000.890	-1660
1000.967	-785
1001.043	-1432
1001.120	-726
1001.196	-1092
1001.272	-1446
1001.349	-578
1001.425	-406
1001.501	-730
1001.577	-623
1001.654	-1196
1001.730	-524
1001.806	-1141
1001.882	-1035
1001.958	-1019
1002.034	-281
1002.110	-931
1002.186	-434
1002.262	-1325
1002.338	-1474
1002.414	-599
1002.490	153
1002.566	-1420
1002.642	-109
1002.718	-223
1002.794	-200
1002.870	-1070
1002.945	-858
1003.021	-1603
1003.097	-226
1003.173	-927
1003.248	-1561
1003.324	-1117
1003.400	-904
1003.475	-1777
1003.551	-9
1003.626	-1034
1003.702	-860
1003.777	-951
1003.853	-687
1003.928	-1479
1004.004	-591
1004.079	-754
1004.155	-224
1004.230	-1345
1004.305	-276
1004.381	-1847
1004.456	-544
1004.531	-1104
1004.607	-427
1004.682	-900
1004.757	-342
1004.832	-1794
1004.907	-1030
1004.982	-956
1005.057	-225
1005.133	-1601
1005.208	-376
1005.283	-483
1005.358	-709
1005.433	-1999
1005.508	-733
1005.583	-2294
1005.657	-1698
1005.732	-1354
1005.807	-921
1005.882	-1991
1005.957	-1180
1006.032	-1478
1006.106	-1335
1006.181	-1107
1006.256	-1048
1006.331	-1531
1006.405	-2070
1006.480	-1110
1006.554	-810
1006.629	-2195
1006.704	-1417
1006.778	-1416
1006.853	42
1006.927	-1441
1007.002	-1848
1007.076	-1468
1007.150	-1198
1007.225	-762
1007.299	-1273
1007.373	-2328
1007.448	-751
1007.522	-562
1007.596	-1090
1007.671	-1608
1007.745	-750
1007.819	-1902
1007.893	-1348
1007.967	-1491
1008.041	-2049
1008.115	-809
1008.190	-1435
1008.264	-676
1008.338	-1647
1008.412	-749
1008.486	-613
1008.560	-1763
1008.633	-1548
1008.707	-2129
1008.781	-661
1008.855	-1377
1008.929	-1841
1009.003	-801
1009.076	-871
1009.150	-1942
1009.224	-116
1009.298	-1098
1009.371	-1314
1009.445	-1141
1009.519	-742
1009.592	-2558
1009.666	-245
1009.739	-1320
1009.813	-2278
1009.886	-1574
1009.960	-2114
1010.033	-1961
1010.107	-1169
1010.180	-2567
1010.253	-1023
1010.327	-1461
1010.400	-948
1010.473	-1608
1010.547	-214
1010.620	-1063
1010.693	-1188
1010.766	-1706
1010.840	-359
1010.913	-2366
1010.986	-1420
1011.059	-1908
1011.132	-1744
1011.205	-1603
1011.278	-1400
1011.351	-2541
1011.424	-720
1011.497	-1228
1011.570	-944
1011.643	-2042
1011.716	-507
1011.789	-1950
1011.862	-420
1011.934	-855
1012.007	-2381
1012.080	-1614
1012.153	-1301
1012.225	-368
1012.298	-1284
1012.371	-1601
1012.443	-918
1012.516	-2263
1012.588	-1256
1012.661	-1158
1012.733	-1590
1012.806	-1070
1012.879	-1534
1012.951	-1022
1013.023	-607
1013.096	-1751
1013.168	-1337
1013.241	-809
1013.313	-1597
1013.385	-1875
1013.458	-930
1013.530	-613
1013.602	-1539
1013.674	-1507
1013.746	-1830
1013.819	-2166
1013.891	-1068
1013.963	-2885
1014.035	-1194
1014.107	-1672
1014.179	-703
1014.251	-1807
1014.323	-253
1014.395	-2187
1014.467	-972
1014.539	-1405
1014.611	-1215
1014.683	-1786
1014.754	-773
1014.826	-1709
1014.898	-1118
1014.970	-2833
1015.042	81
1015.113	-2581
1015.185	-1414
1015.257	-1946
1015.328	-1183
1015.400	-1424
1015.471	-1577
1015.543	-2508
1015.615	-1250
1015.686	-2329
1015.757	-1190
1015.829	-1096
1015.901	-2085
1015.972	-1255
1016.043	-679
1016.115	-2205
1016.186	-1544
1016.257	-2403
1016.328	-1064
1016.400	-1253
1016.471	-1344
1016.542	-2309
1016.613	-1738
1016.685	-1418
1016.756	-1247
1016.827	-1602
1016.898	-1522
1016.969	-1583
1017.040	-1089
1017.111	-2492
1017.182	-1898
1017.253	-2305
1017.324	-1552
1017.395	-1825
1017.466	-934
1017.537	-1650
1017.608	-993
1017.678	-1751
1017.749	-2039
1017.820	-2355
1017.891	-2239
1017.961	-2212
1018.032	-411
1018.103	-1346
1018.173	-1105
1018.244	-2633
1018.315	-1534
1018.385	-1099
1018.456	-1626
1018.526	-2633
1018.597	-1309
1018.667	-2223
1018.738	-1239
1018.808	-1375
1018.878	-1594
1018.949	-1598
1019.019	-1317
1019.089	-2093
1019.160	-412
1019.230	-2530
1019.300	-975
1019.371	-2209
1019.441	-984
1019.511	-1302
1019.581	-2146
1019.651	-1922
1019.721	-1253
1019.791	-2227
1019.861	-1350
1019.931	-1439
1020.001	-1203
1020.071	-1630
1020.141	-1440
1020.211	-1942
1020.281	-2094
1020.351	-1721
1020.421	-821
1020.491	-2142
1020.560	-1658
1020.630	-2496
1020.700	-932
1020.770	-2102
1020.839	-1256
1020.909	-1540
1020.979	-992
1021.048	-1780
1021.118	-1485
1021.187	-1839
1021.257	-1329
1021.326	-1320
1021.396	-1214
1021.465	-1377
1021.535	-1162
1021.604	-2695
1021.674	-1655
1021.743	-1786
1021.812	-1624
1021.882	-1826
1021.951	-973
1022.020	-1857
1022.089	-1181
1022.159	-1420
1022.228	-954
1022.297	-2315
1022.366	-1820
1022.435	-1873
1022.504	-2104
1022.573	-1815
1022.642	-1649
1022.711	-2610
1022.781	-1287
1022.849	-1768
1022.918	-2027
1022.987	-2513
1023.056	-1306
1023.125	-1240
1023.194	-1016
1023.263	-1301
1023.331	-1231
1023.400	-2836
1023.469	-597
1023.538	-1174
1023.606	-1545
1023.675	-2148
1023.744	-649
1023.812	-1701
1023.881	-1440
1023.949	-2574
1024.018	-1685
1024.086	-2374
1024.155	-2334
1024.223	-2021
1024.292	-872
1024.360	-1686
1024.429	-2325
1024.497	-2377
1024.565	-2134
1024.634	-2474
1024.702	-695
1024.770	-1894
1024.838	-1095
1024.907	-2261
1024.975	-1648
1025.043	-1134
1025.111	-2431
1025.179	-1060
1025.247	-791
1025.315	-1851
1025.383	-1474
1025.451	-2208
1025.519	-1012
1025.587	-1815
1025.655	-1190
1025.723	-2377
1025.791	-1732
1025.859	-2233
1025.927	-1042
1025.995	-1924
1026.062	-1032
1026.130	-1856
1026.198	-1668
1026.266	-2027
1026.333	-519
1026.401	-1627
1026.469	-1252
1026.536	-1854
1026.604	-1464
1026.671	-2195
1026.739	-2185
1026.806	-1959
1026.874	-1036
1026.941	-3112
1027.009	-1691
1027.076	-2640
1027.144	-1160
1027.211	-2730
1027.278	-1821
1027.345	-1880
1027.413	-945
1027.480	-2243
1027.547	-1441
1027.614	-1885
1027.682	-1092
1027.749	-1742
1027.816	-1043
1027.883	-1552
1027.950	-811
1028.017	-2216
1028.084	-1527
1028.151	-1904
1028.218	-2055
1028.285	-1834
1028.352	-2079
1028.419	-1580
1028.486	-1194
1028.553	-2315
1028.619	-2538
1028.686	-2092
1028.753	-2085
1028.820	-2197
1028.886	-1165
1028.953	-1833
1029.020	-1965
1029.086	-2623
1029.153	-1633
1029.220	-2268
1029.286	-1204
1029.353	-1943
1029.419	-1629
1029.486	-2888
1029.552	-1855
1029.619	-1842
1029.685	-1899
1029.751	-1976
1029.818	-853
1029.884	-1752
1029.951	-138
1030.017	-2541
1030.083	-1058
1030.149	-1673
1030.216	-1024
1030.282	-1510
1030.348	-1943
1030.414	-2565
1030.480	-1222
1030.546	-1901
1030.612	-984
1030.678	-2590
1030.744	-1461
1030.810	-1697
1030.876	-1245
1030.942	-1941
1031.008	-1652
1031.074	-1838
1031.140	-1659
1031.206	-1798
1031.272	-2019
1031.337	-1582
1031.403	-636
1031.469	-1829
1031.534	-1732
1031.600	-1514
1031.666	-1657
1031.731	-2669
1031.797	-1156
1031.863	-2856
1031.928	-1636
1031.994	-2419
1032.059	-1957
1032.125	-1609
1032.190	-1646
1032.256	-2560
1032.321	-2291
1032.386	-1891
1032.452	-1257
1032.517	-2722
1032.582	-1818
1032.647	-1673
1032.713	-1493
1032.778	-1604
1032.843	-1662
1032.908	-2769
1032.974	-1064
1033.039	-1987
1033.104	-1334
1033.169	-2660
1033.234	-1232
1033.299	-2060
1033.364	-189
1033.429	-1656
1033.494	-1009
1033.559	-2036
1033.624	-1009
1033.688	-1930
1033.753	-1208
1033.818	-2784
1033.883	-1071
1033.948	-2140
1034.013	-2157
1034.077	-1985
1034.142	-149
1034.207	-1823
1034.271	-481
1034.336	-591
1034.400	-430
1034.465	-1056
1034.530	-347
1034.594	-1899
1034.658	-2089
1034.723	-1977
1034.787	-1509
1034.852	-2331
1034.916	-1503
1034.981	-2310
1035.045	-453
1035.109	-2606
1035.173	-1004
1035.238	-3176
1035.302	-2015
1035.366	-1623
1035.430	-1751
1035.495	-2677
1035.559	-1331
1035.623	-2391
1035.687	-1462
1035.751	-1941
1035.815	-2031
1035.879	-2176
1035.943	-1620
1036.007	-2554
1036.071	-1743
1036.135	-2503
1036.198	-1222
1036.262	-1361
1036.326	-1246
1036.390	-1570
1036.454	-1230
1036.517	-2534
1036.581	-1552
1036.645	-2480
1036.709	-1481
1036.772	-2258
1036.836	-1417
1036.900	-2217
1036.963	-1838
1037.026	-1833
1037.090	-1223
1037.154	-1947
1037.217	-1270
1037.280	-2359
1037.344	-1637
1037.407	-2722
1037.471	-1653
1037.534	-2334
1037.597	-1200
1037.661	-2465
1037.724	-1863
1037.787	-2203
1037.850	-1181
1037.913	-2615
1037.977	-386
1038.040	-2259
1038.103	-1607
1038.166	-2253
1038.229	-641
1038.292	-2201
1038.355	-2280
1038.418	-1777
1038.481	-916
1038.544	-1818
1038.607	-2043
1038.670	-2697
1038.732	-1634
1038.795	-1767
1038.858	-1526
1038.921	-1394
1038.984	-1152
1039.046	-1845
1039.109	-1799
1039.172	-2878
1039.234	-2184
1039.297	-2245
1039.360	-1695
1039.422	-3065
1039.485	-768
1039.547	-2640
1039.610	-1496
1039.672	-1965
1039.734	-2059
1039.797	-1595
1039.859	-1387
1039.922	-1921
1039.984	-1588
1040.046	-2618
1040.109	-1874
1040.171	-3001
1040.233	-1615
1040.295	-2585
1040.358	-1665
1040.420	-1932
1040.482	-1525
1040.544	-1771
1040.606	-1769
1040.668	-2399
1040.730	-1669
1040.792	-1972
1040.854	-1081
1040.916	-1934
1040.978	-1805
1041.040	-1516
1041.102	-793
1041.164	-1814
1041.225	-1526
1041.287	-2355
1041.349	-1793
1041.411	-2294
1041.472	-723
1041.534	-2300
1041.596	-2131
1041.657	-2618
1041.719	-912
1041.781	-2650
1041.842	-1786
1041.904	-2037
1041.965	-1935
1042.027	-2691
1042.088	-1522
1042.150	-2888
1042.211	-1854
1042.272	-2272
1042.334	-2071
1042.395	-2150
1042.456	-1791
1042.518	-1846
1042.579	-1116
1042.640	-2161
1042.701	-1523
1042.763	-1849
1042.824	-2434
1042.885	-2558
1042.946	-1131
1043.007	-1912
1043.068	-1344
1043.129	-1286
1043.190	-2430
1043.251	-2110
1043.312	-1537
1043.373	-2456
1043.434	-1913
1043.495	-1664
1043.556	-1727
1043.616	-1523
1043.677	-1949
1043.738	-2447
1043.799	-2297
1043.859	-2604
1043.920	-1296
1043.981	-2723
1044.041	-1727
1044.102	-1960
1044.162	-1085
1044.223	-1996
1044.284	-1622
1044.344	-2043
1044.405	-1516
1044.465	-1932
1044.525	-1394
1044.586	-2365
1044.646	-1783
1044.707	-1669
1044.767	-1329
1044.827	-2052
1044.887	-1729
1044.948	-2667
1045.008	-1471
1045.068	-3037
1045.128	-1724
1045.188	-1934
1045.249	-865
1045.309	-2139
1045.369	-1065
1045.429	-2549
1045.489	-2138
1045.549	-2426
1045.609	-1538
1045.669	-2023
1045.729	-850
1045.789	-1777
1045.848	-1291
1045.908	-1550
1045.968	-945
1046.028	-1736
1046.088	-1314
1046.147	-696
1046.207	-844
1046.267	-1317
1046.326	-909
1046.386	-1473
1046.446	-533
1046.505	-1582
1046.565	-346
1046.624	-1422
1046.684	-941
1046.743	-1661
1046.803	-121
1046.862	-632
1046.922	0
