'Start Wavelength	183.907
'End Wavelength	1046.922
'Gate Delay	5.000
'Gate Width (ms)	1.050
'Laser Output Level	0.000
'X Position	0.000
'Y Position	0.000
'Z Position	0.000
'Grid Point Number	1.000
'Shot Number	100.000
183.907	579.000
183.977	-436.000
184.047	-134
184.116	261
184.186	-20
184.256	-124
184.325	362
184.395	9
184.465	747
184.534	283
184.604	-300
184.674	752
184.743	-1402
184.813	-492
184.883	-216
184.952	-282
185.022	-324
185.092	-70
185.161	49
185.231	238
185.301	-231
185.370	760
185.440	-130
185.509	245
185.579	662
185.649	-184
185.718	169
185.788	428
185.857	-632
185.927	-241
185.996	286
186.066	559
186.136	306
186.205	-227
186.275	124
186.344	484
186.414	633
186.483	-376
186.553	969
186.622	454
186.692	224
186.761	-532
186.831	274
186.900	39
186.970	207
187.039	648
187.109	589
187.178	200
187.248	97
187.317	84
187.387	-517
187.456	-32
187.526	131
187.595	-23
187.664	-32
187.734	225
187.803	120
187.873	-344
187.942	457
188.012	-558
188.081	-174
188.150	13
188.220	395
188.289	277
188.358	-77
188.428	-87
188.497	32
188.567	-40
188.636	163
188.705	195
188.775	144
188.844	23
188.913	794
188.983	797
189.052	206
189.121	-86
189.191	499
189.260	454
189.329	104
189.399	312
189.468	227
189.537	-310
189.606	15
189.676	-58
189.745	784
189.814	143
189.883	-15
189.953	38
190.022	-616
190.091	-253
190.161	-687
190.230	-89
190.299	-667
190.368	336
190.437	-360
190.507	389
190.576	-54
190.645	-174
190.714	-973
190.783	-362
190.853	-13
190.922	245
190.991	-528
191.060	482
191.129	-100
191.198	289
191.268	-305
191.337	-234
191.406	398
191.475	46
191.544	208
191.613	336
191.682	-242
191.752	-315
191.821	73
191.890	-633
191.959	-72
192.028	-20
192.097	77
192.166	132
192.235	-313
192.304	132
192.373	-550
192.442	2
192.511	-657
192.580	215
192.650	72
192.719	-277
192.788	372
192.857	214
192.926	-72
192.995	171
193.064	-139
193.133	-82
193.202	445
193.271	-351
193.340	468
193.409	241
193.478	228
193.547	109
193.615	77
193.684	1160
193.753	-284
193.822	541
193.891	-305
193.960	641
194.029	76
194.098	707
194.167	-143
194.236	712
194.305	184
194.374	-156
194.443	378
194.512	277
194.580	674
194.649	-172
194.718	-159
194.787	300
194.856	129
194.925	784
194.994	-224
195.062	163
195.131	-265
195.200	-236
195.269	230
195.338	-52
195.407	-140
195.475	117
195.544	-400
195.613	228
195.682	123
195.751	102
195.819	308
195.888	333
195.957	1105
196.026	279
196.094	545
196.163	-16
196.232	257
196.301	42
196.369	1018
196.438	465
196.507	153
196.576	-18
196.644	0
196.713	-702
196.782	64
196.850	125
196.919	105
196.988	-375
197.056	-225
197.125	726
197.194	1029
197.262	-130
197.331	53
197.400	-268
197.468	-90
197.537	151
197.606	251
197.674	371
197.743	57
197.812	-29
197.880	505
197.949	-212
198.017	284
198.086	-554
198.155	12
198.223	693
198.292	-15
198.360	147
198.429	-236
198.497	-429
198.566	901
198.635	513
198.703	629
198.772	135
198.840	344
198.909	499
198.977	519
199.046	-488
199.114	142
199.183	39
199.251	149
199.320	64
199.388	247
199.457	165
199.525	-370
199.594	307
199.662	49
199.731	129
199.799	-26
199.867	225
199.936	176
200.004	394
200.073	169
200.141	-503
200.210	247
200.278	174
200.346	-180
200.415	654
200.483	627
200.552	504
200.620	264
200.688	262
200.757	80
200.825	-270
200.893	81
200.962	194
201.030	-105
201.098	-210
201.167	407
201.235	197
201.303	-388
201.372	622
201.440	322
201.508	302
201.577	151
201.645	173
201.713	866
201.781	47
201.850	-448
201.918	-293
201.986	198
202.055	914
202.123	-197
202.191	549
202.259	205
202.327	24
202.396	2
202.464	150
202.532	-114
202.600	309
202.669	-464
202.737	36
202.805	-625
202.873	331
202.941	230
203.009	-384
203.078	502
203.146	369
203.214	289
203.282	-356
203.350	1038
203.418	197
203.487	576
203.555	426
203.623	381
203.691	-29
203.759	98
203.827	753
203.895	-88
203.963	45
204.031	-275
204.099	325
204.168	391
204.236	400
204.304	-51
204.372	85
204.440	573
204.508	189
204.576	-588
204.644	-189
204.712	594
204.780	-298
204.848	-252
204.916	-490
204.984	465
205.052	-428
205.120	299
205.188	369
205.256	165
205.324	160
205.392	-372
205.460	577
205.528	255
205.596	425
205.664	-219
205.732	-43
205.799	53
205.867	598
205.935	56
206.003	456
206.071	198
206.139	-128
206.207	774
206.275	682
206.343	150
206.411	140
206.478	68
206.546	118
206.614	-646
206.682	-292
206.750	-88
206.818	449
206.885	414
206.953	-96
207.021	484
207.089	291
207.157	-707
207.225	-386
207.292	47
207.360	445
207.428	-638
207.496	-443
207.563	-57
207.631	-84
207.699	107
207.767	-220
207.834	-335
207.902	46
207.970	-443
208.038	-176
208.105	661
208.173	214
208.241	227
208.309	297
208.376	-377
208.444	-236
208.512	848
208.579	-895
208.647	-102
208.715	930
208.782	455
208.850	762
208.918	-167
208.985	-14
209.053	-91
209.120	244
209.188	-575
209.256	-127
209.323	-698
209.391	-253
209.459	1002
209.526	851
209.594	406
209.661	637
209.729	-294
209.796	230
209.864	-132
209.932	-745
209.999	1376
210.067	1014
210.134	247
210.202	410
210.269	185
210.337	480
210.404	250
210.472	719
210.539	256
210.607	-489
210.674	-10
210.742	20
210.809	229
210.877	286
210.944	536
211.012	-905
211.079	1050
211.146	783
211.214	22
211.281	1204
211.349	638
211.416	-119
211.484	365
211.551	42
211.618	555
211.686	-190
211.753	44
211.821	735
211.888	69
211.955	-242
212.023	327
212.090	-225
212.157	396
212.225	-20
212.292	797
212.359	244
212.427	2171
212.494	744
212.561	813
212.629	391
212.696	-304
212.763	-194
212.831	-22
212.898	83
212.965	52
213.032	104
213.100	201
213.167	395
213.234	551
213.301	214
213.369	224
213.436	264
213.503	387
213.570	528
213.638	-93
213.705	-19
213.772	169
213.839	180
213.906	312
213.973	351
214.041	-502
214.108	-504
214.175	-241
214.242	-339
214.309	40
214.376	689
214.444	-157
214.511	-92
214.578	463
214.645	579
214.712	572
214.779	-361
214.846	-462
214.913	997
214.980	370
215.048	522
215.115	524
215.182	1170
215.249	218
215.316	-127
215.383	808
215.450	128
215.517	-299
215.584	600
215.651	35
215.718	-235
215.785	225
215.852	-190
215.919	373
215.986	100
216.053	365
216.120	594
216.187	205
216.254	678
216.321	-274
216.388	721
216.455	1046
216.522	192
216.589	362
216.656	-64
216.722	-129
216.789	241
216.856	1175
216.923	630
216.990	69
217.057	800
217.124	-312
217.191	492
217.258	930
217.324	611
217.391	667
217.458	-171
217.525	118
217.592	685
217.659	-934
217.725	773
217.792	-275
217.859	1420
217.926	229
217.993	338
218.059	608
218.126	-296
218.193	-54
218.260	1361
218.327	6
218.393	359
218.460	-933
218.527	-599
218.594	89
218.660	1
218.727	637
218.794	-119
218.860	604
218.927	315
218.994	308
219.061	-92
219.127	38
219.194	405
219.261	441
219.327	326
219.394	779
219.461	-439
219.527	307
219.594	-17
219.661	-57
219.727	-379
219.794	627
219.860	-77
219.927	223
219.994	221
220.060	507
220.127	994
220.193	359
220.260	326
220.326	960
220.393	1048
220.460	1258
220.526	608
220.593	38
220.659	1617
220.726	548
220.792	1326
220.859	527
220.925	1612
220.992	2042
221.058	2624
221.125	1803
221.191	418
221.258	239
221.324	772
221.391	-325
221.457	-606
221.524	-55
221.590	251
221.657	1037
221.723	1549
221.789	1079
221.856	1249
221.922	-187
221.989	670
222.055	247
222.121	-923
222.188	973
222.254	200
222.321	141
222.387	1246
222.453	-15
222.520	463
222.586	58
222.652	332
222.719	-64
222.785	339
222.851	-70
222.918	239
222.984	-98
223.050	-386
223.116	-820
223.183	542
223.249	-969
223.315	482
223.382	-229
223.448	67
223.514	-383
223.580	84
223.647	-618
223.713	545
223.779	159
223.845	17
223.911	-252
223.978	-736
224.044	683
224.110	3
224.176	1006
224.242	-469
224.309	-751
224.375	55
224.441	-608
224.507	-176
224.573	-812
224.639	108
224.705	-222
224.772	430
224.838	-572
224.904	-192
224.970	136
225.036	-489
225.102	-772
225.168	-84
225.234	1134
225.300	-45
225.366	622
225.432	429
225.499	219
225.565	35
225.631	-371
225.697	250
225.763	173
225.829	-181
225.895	766
225.961	-257
226.027	602
226.093	-306
226.159	841
226.225	1352
226.291	2633
226.357	3156
226.423	2563
226.489	1309
226.554	305
226.620	568
226.686	596
226.752	1049
226.818	2079
226.884	3647
226.950	3609
227.016	1277
227.082	1469
227.148	651
227.214	201
227.279	178
227.345	653
227.411	208
227.477	838
227.543	864
227.609	1249
227.674	1056
227.740	480
227.806	443
227.872	14
227.938	378
228.003	420
228.069	-87
228.135	422
228.201	380
228.267	-738
228.332	537
228.398	-701
228.464	238
228.530	-363
228.595	346
228.661	-177
228.727	-743
228.792	301
228.858	259
228.924	-1577
228.990	911
229.055	-88
229.121	274
229.187	117
229.252	-136
229.318	-909
229.384	-310
229.449	4
229.515	-1835
229.581	-1423
229.646	1506
229.712	262
229.777	-79
229.843	-622
229.909	-82
229.974	117
230.040	-455
230.105	28
230.171	-458
230.236	370
230.302	506
230.368	55
230.433	-536
230.499	-242
230.564	627
230.630	9
230.695	160
230.761	1140
230.826	-837
230.892	1361
230.957	-674
231.023	-546
231.088	-50
231.154	-68
231.219	100
231.284	-71
231.350	-122
231.415	-1101
231.481	-469
231.546	-299
231.612	37
231.677	-242
231.742	-1520
231.808	920
231.873	-862
231.939	-1607
232.004	746
232.069	-422
232.135	-888
232.200	-164
232.265	354
232.331	436
232.396	528
232.461	-190
232.527	-1
232.592	-11
232.657	188
232.723	-592
232.788	-6
232.853	-94
232.918	208
232.984	-126
233.049	-362
233.114	-118
233.179	-51
233.245	376
233.310	96
233.375	-816
233.440	766
233.506	-405
233.571	-671
233.636	-569
233.701	-406
233.766	155
233.832	-564
233.897	-125
233.962	-1035
234.027	1022
234.092	-16
234.157	-226
234.222	-205
234.288	-91
234.353	-54
234.418	877
234.483	658
234.548	615
234.613	53
234.678	-121
234.743	-210
234.808	1136
234.873	-418
234.938	1934
235.004	-447
235.069	346
235.134	-81
235.199	329
235.264	-669
235.329	-1362
235.394	322
235.459	757
235.524	-283
235.589	210
235.654	-291
235.719	-940
235.784	210
235.849	113
235.913	-27
235.978	110
236.043	438
236.108	-124
236.173	-1267
236.238	388
236.303	-63
236.368	-129
236.433	1281
236.498	829
236.563	1287
236.627	1219
236.692	5523
236.757	4798
236.822	2215
236.887	1259
236.952	1203
237.017	-847
237.081	2090
237.146	126
237.211	3838
237.276	6001
237.341	7179
237.405	4295
237.470	1523
237.535	1394
237.600	693
237.664	525
237.729	-847
237.794	143
237.859	2243
237.923	1401
237.988	120
238.053	1565
238.118	594
238.182	560
238.247	1248
238.312	-981
238.376	737
238.441	-1551
238.506	1385
238.570	-668
238.635	889
238.700	672
238.764	-809
238.829	-810
238.893	-676
238.958	738
239.023	-430
239.087	-427
239.152	387
239.216	-1289
239.281	652
239.346	51
239.410	151
239.475	-31
239.539	1531
239.604	431
239.668	577
239.733	530
239.797	1829
239.862	3410
239.926	2524
239.991	626
240.055	1250
240.120	-450
240.184	609
240.249	-106
240.313	94
240.378	-300
240.442	346
240.507	1008
240.571	1031
240.635	-818
240.700	375
240.764	-433
240.829	376
240.893	-768
240.957	434
241.022	887
241.086	756
241.151	-796
241.215	-1058
241.279	1072
241.344	104
241.408	12
241.472	-350
241.537	497
241.601	753
241.665	-691
241.730	-654
241.794	764
241.858	-254
241.922	-505
241.987	157
242.051	-929
242.115	-605
242.179	259
242.244	272
242.308	1808
242.372	-355
242.436	-264
242.501	154
242.565	-195
242.629	-29
242.693	685
242.757	-1020
242.822	-547
242.886	256
242.950	518
243.014	61
243.078	712
243.142	-251
243.206	-362
243.271	477
243.335	-652
243.399	913
243.463	1994
243.527	6278
243.591	1185
243.655	521
243.719	-548
243.783	1374
243.847	115
243.911	408
243.975	-189
244.040	-503
244.104	1730
244.168	289
244.232	53
244.296	177
244.360	301
244.424	-290
244.488	423
244.552	1347
244.615	-1856
244.679	293
244.743	4
244.807	-887
244.871	-64
244.935	376
244.999	-859
245.063	-189
245.127	951
245.191	447
245.255	-139
245.319	-134
245.383	-1400
245.446	1076
245.510	-731
245.574	-878
245.638	741
245.702	-983
245.766	-365
245.829	491
245.893	-847
245.957	-66
246.021	1099
246.085	-494
246.149	212
246.212	741
246.276	264
246.340	358
246.404	519
246.467	879
246.531	-1186
246.595	1646
246.659	1667
246.722	-715
246.786	880
246.850	-177
246.913	62
246.977	-824
247.041	310
247.104	106
247.168	32
247.232	290
247.295	1889
247.359	575
247.423	-617
247.486	125
247.550	725
247.614	-304
247.677	811
247.741	614
247.804	365
247.868	209
247.932	-13
247.995	1339
248.059	157
248.122	-1133
248.186	1479
248.249	1080
248.313	2540
248.376	2510
248.440	942
248.503	-868
248.567	1203
248.630	-230
248.694	92
248.757	1885
248.821	2562
248.884	2258
248.948	505
249.011	2487
249.075	2861
249.138	2253
249.202	1092
249.265	-324
249.328	1660
249.392	-574
249.455	937
249.519	-132
249.582	355
249.645	1743
249.709	858
249.772	107
249.835	217
249.899	-114
249.962	1306
250.025	-168
250.089	923
250.152	1356
250.215	1125
250.279	126
250.342	679
250.405	709
250.468	104
250.532	806
250.595	1408
250.658	4405
250.721	9836
250.785	2770
250.848	2974
250.911	-418
250.974	1268
251.038	1044
251.101	1125
251.164	718
251.227	1429
251.290	852
251.354	2002
251.417	6723
251.480	7984
251.543	4808
251.606	14308
251.669	11237
251.732	4174
251.795	3050
251.859	3731
251.922	7989
251.985	5562
252.048	2279
252.111	1091
252.174	196
252.237	2032
252.300	3918
252.363	3797
252.426	11512
252.489	3798
252.552	1926
252.615	266
252.678	1975
252.741	2121
252.804	4120
252.867	11463
252.930	6086
252.993	3100
253.056	2253
253.119	1211
253.182	770
253.245	1035
253.308	1533
253.371	-99
253.434	-398
253.497	347
253.559	1638
253.622	744
253.685	743
253.748	820
253.811	-430
253.874	863
253.937	-377
254.000	895
254.062	637
254.125	464
254.188	2382
254.251	817
254.314	487
254.376	349
254.439	970
254.502	614
254.565	596
254.628	2171
254.690	704
254.753	-238
254.816	187
254.878	-591
254.941	231
255.004	1329
255.067	32
255.129	-397
255.192	672
255.255	-959
255.317	425
255.380	-312
255.443	-356
255.505	-332
255.568	-257
255.631	-667
255.693	123
255.756	-358
255.819	847
255.881	-138
255.944	875
256.006	-264
256.069	-422
256.132	-815
256.194	926
256.257	6
256.319	95
256.382	373
256.444	1551
256.507	1155
256.569	-673
256.632	-482
256.694	860
256.757	3275
256.819	10929
256.882	4244
256.944	2105
257.007	2000
257.069	-155
257.132	54
257.194	1462
257.257	366
257.319	131
257.381	606
257.444	3372
257.506	11315
257.569	12668
257.631	4931
257.693	1804
257.756	1436
257.818	-429
257.880	247
257.943	960
258.005	-376
258.067	395
258.130	273
258.192	741
258.254	293
258.317	1174
258.379	898
258.441	155
258.503	1498
258.566	974
258.628	1448
258.690	-599
258.753	829
258.815	392
258.877	-515
258.939	40
259.001	442
259.064	577
259.126	47
259.188	24
259.250	990
259.312	-328
259.375	1198
259.437	-110
259.499	276
259.561	343
259.623	69
259.685	-237
259.747	486
259.809	754
259.872	1007
259.934	2072
259.996	3494
260.058	1657
260.120	-1066
260.182	608
260.244	727
260.306	-147
260.368	115
260.430	-304
260.492	722
260.554	1892
260.616	94
260.678	801
260.740	1013
260.802	602
260.864	909
260.926	337
260.988	698
261.050	223
261.112	754
261.174	3835
261.236	1299
261.298	972
261.359	561
261.421	1262
261.483	-541
261.545	1400
261.607	-375
261.669	1001
261.731	732
261.793	1057
261.854	-482
261.916	1191
261.978	377
262.040	545
262.102	598
262.164	-562
262.225	-323
262.287	1012
262.349	-29
262.411	246
262.472	884
262.534	179
262.596	-95
262.658	774
262.719	-887
262.781	505
262.843	-768
262.904	647
262.966	-118
263.028	586
263.090	2675
263.151	6998
263.213	2552
263.275	1707
263.336	-85
263.398	145
263.459	-680
263.521	387
263.583	829
263.644	136
263.706	44
263.767	-41
263.829	521
263.891	618
263.952	-284
264.014	-184
264.075	493
264.137	1960
264.198	1301
264.260	-98
264.321	228
264.383	774
264.444	3453
264.506	958
264.567	105
264.629	2194
264.690	1898
264.752	1089
264.813	212
264.875	-498
264.936	947
264.998	-138
265.059	16
265.120	526
265.182	264
265.243	6550
265.305	7242
265.366	2273
265.427	242
265.489	868
265.550	594
265.611	275
265.673	63
265.734	599
265.795	148
265.857	192
265.918	-536
265.979	2233
266.040	8925
266.102	8744
266.163	2513
266.224	792
266.286	361
266.347	100
266.408	347
266.469	401
266.530	227
266.592	174
266.653	999
266.714	301
266.775	-263
266.836	-248
266.898	-134
266.959	645
267.020	156
267.081	1347
267.142	84
267.203	-601
267.264	-904
267.326	419
267.387	274
267.448	234
267.509	403
267.570	-129
267.631	-120
267.692	-665
267.753	342
267.814	-616
267.875	122
267.936	759
267.997	209
268.058	-410
268.119	-854
268.180	-275
268.241	-1244
268.302	260
268.363	-271
268.424	-709
268.485	-226
268.546	-241
268.607	-788
268.668	-1217
268.729	-162
268.790	-252
268.851	525
268.912	1179
268.972	79
269.033	-188
269.094	-714
269.155	-78
269.216	-164
269.277	399
269.338	-132
269.398	832
269.459	-604
269.520	852
269.581	-293
269.642	596
269.702	-5
269.763	73
269.824	-539
269.885	-94
269.945	332
270.006	223
270.067	-422
270.128	16
270.188	-433
270.249	-131
270.310	-184
270.370	595
270.431	-130
270.492	-437
270.553	317
270.613	751
270.674	1123
270.734	220
270.795	728
270.856	484
270.916	-882
270.977	174
271.038	246
271.098	60
271.159	708
271.219	473
271.280	464
271.340	672
271.401	-117
271.462	412
271.522	885
271.583	519
271.643	575
271.704	-578
271.764	154
271.825	805
271.885	2135
271.946	4169
272.006	495
272.066	1221
272.127	3350
272.187	3385
272.248	1465
272.308	730
272.369	1973
272.429	1174
272.489	247
272.550	-17
272.610	695
272.671	42
272.731	459
272.791	626
272.852	28
272.912	90
272.972	506
273.033	313
273.093	-488
273.153	604
273.214	562
273.274	25
273.334	1943
273.394	3628
273.455	-32
273.515	644
273.575	2301
273.635	898
273.696	1095
273.756	2999
273.816	1026
273.876	776
273.936	378
273.997	2529
274.057	-129
274.117	-483
274.177	791
274.237	2827
274.297	2741
274.358	1811
274.418	1551
274.478	1786
274.538	234
274.598	-301
274.658	1184
274.718	1578
274.778	124
274.838	675
274.898	146
274.958	2018
275.018	2620
275.078	944
275.138	647
275.198	-375
275.258	598
275.318	131
275.378	342
275.438	611
275.498	361
275.558	412
275.618	2489
275.678	1350
275.738	831
275.798	717
275.858	400
275.918	-62
275.978	429
276.038	760
276.098	156
276.157	657
276.217	2997
276.277	828
276.337	80
276.397	404
276.457	730
276.517	79
276.576	497
276.636	-654
276.696	36
276.756	1387
276.815	585
276.875	-156
276.935	455
276.995	315
277.055	252
277.114	1160
277.174	747
277.234	1585
277.293	161
277.353	288
277.413	-49
277.472	386
277.532	68
277.592	978
277.651	2044
277.711	3725
277.771	543
277.830	4543
277.890	3796
277.950	2024
278.009	7638
278.069	2958
278.128	3158
278.188	3900
278.248	1365
278.307	4738
278.367	3045
278.426	947
278.486	339
278.545	-189
278.605	704
278.664	1
278.724	-3
278.783	1377
278.843	3377
278.902	959
278.962	135
279.021	1085
279.081	1102
279.140	1041
279.199	624
279.259	477
279.318	1214
279.378	1978
279.437	1301
279.496	5518
279.556	21146
279.615	16672
279.675	4286
279.734	2210
279.793	3606
279.853	4854
279.912	2330
279.971	1834
280.031	1189
280.090	1597
280.149	4403
280.208	3350
280.268	13571
280.327	15938
280.386	3264
280.445	1830
280.505	1734
280.564	1641
280.623	1150
280.682	930
280.742	1991
280.801	670
280.860	283
280.919	923
280.978	751
281.037	526
281.097	-399
281.156	180
281.215	-165
281.274	398
281.333	1974
281.392	1625
281.451	922
281.510	19
281.569	209
281.628	375
281.688	241
281.747	929
281.806	441
281.865	951
281.924	-45
281.983	572
282.042	237
282.101	220
282.160	748
282.219	382
282.278	52
282.337	553
282.396	577
282.454	-39
282.513	466
282.572	2553
282.631	971
282.690	-102
282.749	289
282.808	-635
282.867	479
282.926	861
282.985	935
283.043	342
283.102	277
283.161	658
283.220	609
283.279	1817
283.338	1303
283.396	175
283.455	995
283.514	767
283.573	841
283.631	615
283.690	304
283.749	319
283.808	402
283.866	1220
283.925	307
283.984	690
284.043	-73
284.101	806
284.160	258
284.219	1198
284.277	371
284.336	1201
284.395	2381
284.453	2317
284.512	1550
284.570	1836
284.629	1622
284.688	1772
284.746	1323
284.805	1970
284.863	1013
284.922	2782
284.981	2898
285.039	4208
285.098	7880
285.156	16566
285.215	23755
285.273	23386
285.332	18134
285.390	11167
285.449	5983
285.507	4169
285.566	3060
285.624	2461
285.683	1994
285.741	1406
285.799	1432
285.858	899
285.916	1640
285.975	828
286.033	830
286.091	1402
286.150	526
286.208	1043
286.267	1169
286.325	1063
286.383	1403
286.442	596
286.500	322
286.558	972
286.616	1049
286.675	1104
286.733	1574
286.791	227
286.850	430
286.908	690
286.966	1228
287.024	710
287.083	256
287.141	735
287.199	1223
287.257	1054
287.315	1060
287.374	454
287.432	1133
287.490	739
287.548	-62
287.606	639
287.664	383
287.723	887
287.781	802
287.839	735
287.897	1086
287.955	522
288.013	1095
288.071	3478
288.129	12743
288.187	37306
288.245	20004
288.303	6352
288.361	2593
288.419	2805
288.477	894
288.535	1498
288.593	920
288.651	579
288.709	106
288.767	485
288.825	893
288.883	1588
288.941	613
288.999	403
289.057	794
289.115	350
289.173	672
289.231	1128
289.289	207
289.346	-158
289.404	1114
289.462	527
289.520	1239
289.578	65
289.636	394
289.694	-331
289.751	683
289.809	293
289.867	372
289.925	449
289.983	911
290.040	1417
290.098	545
290.156	-18
290.214	733
290.271	24
290.329	495
290.387	825
290.444	844
290.502	424
290.560	520
290.617	426
290.675	865
290.733	-108
290.790	288
290.848	193
290.906	1126
290.963	48
291.021	1693
291.078	819
291.136	480
291.194	1604
291.251	3567
291.309	953
291.366	1213
291.424	307
291.481	687
291.539	1459
291.596	586
291.654	722
291.711	1077
291.769	777
291.826	960
291.884	932
291.941	38
291.999	518
292.056	693
292.114	-274
292.171	593
292.228	816
292.286	717
292.343	705
292.401	1541
292.458	731
292.515	649
292.573	875
292.630	256
292.687	1196
292.745	409
292.802	94
292.859	2302
292.917	3205
292.974	1849
293.031	131
293.089	1549
293.146	189
293.203	746
293.260	226
293.318	494
293.375	1192
293.432	1084
293.489	593
293.546	898
293.604	1350
293.661	2384
293.718	4962
293.775	3233
293.832	1902
293.889	1888
293.947	1773
294.004	883
294.061	384
294.118	977
294.175	4208
294.232	5716
294.289	2147
294.346	1851
294.403	1542
294.460	1110
294.517	943
294.574	1134
294.631	1078
294.688	1053
294.745	1657
294.802	4825
294.859	9012
294.916	3550
294.973	1820
295.030	1600
295.087	732
295.144	679
295.201	1332
295.258	910
295.315	654
295.372	1861
295.429	3331
295.486	2753
295.542	1342
295.599	3560
295.656	9192
295.713	4408
295.770	4130
295.827	1573
295.883	1636
295.940	957
295.997	709
296.054	1458
296.111	1237
296.167	1674
296.224	777
296.281	593
296.338	372
296.394	-130
296.451	380
296.508	1995
296.564	2883
296.621	2862
296.678	4429
296.734	6032
296.791	2513
296.848	1476
296.904	1499
296.961	1527
297.018	3704
297.074	3854
297.131	1562
297.187	884
297.244	1420
297.301	3195
297.357	7056
297.414	2416
297.470	1963
297.527	867
297.583	1274
297.640	886
297.696	269
297.753	588
297.809	579
297.866	263
297.922	872
297.979	190
298.035	345
298.092	714
298.148	1749
298.204	2285
298.261	1028
298.317	1526
298.374	4543
298.430	2855
298.486	1592
298.543	1582
298.599	538
298.656	1347
298.712	2128
298.768	4582
298.824	4134
298.881	1480
298.937	902
298.993	863
299.050	-41
299.106	935
299.162	136
299.218	392
299.275	694
299.331	745
299.387	1611
299.443	4747
299.500	9658
299.556	6614
299.612	3140
299.668	1860
299.724	5668
299.780	7860
299.837	2977
299.893	2258
299.949	5552
300.005	9421
300.061	6495
300.117	11233
300.173	5052
300.229	1968
300.285	1503
300.341	1980
300.397	1257
300.453	668
300.510	1193
300.566	1200
300.622	2605
300.678	8706
300.734	14389
300.790	7490
300.845	5869
300.901	6177
300.957	10440
301.013	5763
301.069	1899
301.125	2103
301.181	1536
301.237	933
301.293	1267
301.349	1102
301.405	323
301.461	676
301.516	1228
301.572	629
301.628	771
301.684	632
301.740	2083
301.796	2694
301.851	2271
301.907	1502
301.963	3195
302.019	3180
302.074	10359
302.130	11449
302.186	6134
302.242	2605
302.297	1788
302.353	1856
302.409	2097
302.464	2131
302.520	1520
302.576	4143
302.631	5722
302.687	3034
302.743	1642
302.798	649
302.854	1469
302.910	1495
302.965	1632
303.021	2140
303.076	1717
303.132	1926
303.187	2685
303.243	1674
303.299	525
303.354	1241
303.410	1196
303.465	1509
303.521	1075
303.576	367
303.632	1562
303.687	1642
303.743	4052
303.798	4073
303.853	1983
303.909	881
303.964	1361
304.020	748
304.075	1639
304.130	1174
304.186	3213
304.241	3302
304.297	2720
304.352	991
304.358	1065
304.407	1666
304.449	1464
304.463	1398
304.518	551
304.539	587
304.573	633
304.629	1225
304.630	1209
304.684	498
304.720	1509
304.739	2043
304.794	3975
304.811	3758
304.850	3164
304.902	1151
304.905	1021
304.960	1462
304.992	1206
305.015	1015
305.071	1843
305.083	1702
305.126	1163
305.173	706
305.181	643
305.236	1237
305.264	1172
305.292	1081
305.347	1092
305.354	1045
305.402	796
305.445	1452
305.457	1648
305.512	914
305.535	1188
305.567	1443
305.622	1336
305.626	1370
305.678	2351
305.716	3992
305.733	4511
305.788	4789
305.807	4157
305.843	3287
305.897	3765
305.898	3764
305.953	4908
305.988	3137
306.008	2180
306.063	1761
306.078	1741
306.118	1635
306.168	374
306.173	282
306.228	773
306.259	924
306.283	901
306.338	581
306.349	624
306.393	1003
306.440	1578
306.448	1660
306.503	917
306.530	1251
306.558	1876
306.613	2420
306.620	2586
306.668	3128
306.711	3986
306.723	4199
306.778	3831
306.801	3158
306.833	2301
306.888	1307
306.892	1294
306.943	1223
306.982	1044
306.997	943
307.052	1209
307.072	1071
307.107	1161
307.162	1568
307.163	1572
307.217	1663
307.253	1921
307.272	2099
307.327	1659
307.343	1832
307.381	2073
307.434	1517
307.436	1533
307.491	2663
307.524	3830
307.546	4062
307.600	3767
307.614	3341
307.655	2454
307.704	1911
307.710	1884
307.765	2525
307.795	2856
307.819	3168
307.874	4481
307.885	4571
307.929	4511
307.975	4083
307.984	4192
308.038	5736
308.065	6945
308.093	10725
308.148	21889
308.156	24478
308.202	38392
308.246	47628
308.257	46790
308.312	28415
308.336	19952
308.366	14259
308.421	7810
308.426	7374
308.475	5001
308.517	4106
308.530	3839
308.585	3118
308.607	2915
308.639	2603
308.694	2305
308.697	2306
308.748	3971
308.787	5711
308.803	5699
308.857	4877
308.877	4338
308.912	3912
308.967	3877
308.967	3890
309.021	5715
309.058	6775
309.076	8155
309.130	13836
309.148	16200
309.185	28347
309.238	50261
309.239	50423
309.293	55797
309.328	53442
309.348	47686
309.402	25268
309.418	19645
309.457	13550
309.508	7715
309.511	7523
309.566	6209
309.598	5949
309.620	6026
309.674	6669
309.688	7016
309.729	6881
309.778	5511
309.783	5390
309.837	4085
309.868	3629
309.892	3878
309.946	4544
309.959	4904
310.001	6091
310.049	7054
310.055	6852
310.109	4363
310.139	2913
310.163	2461
310.218	2049
310.229	1916
310.272	1590
310.319	1513
310.326	1511
310.381	1675
310.409	1574
310.435	1269
310.489	766
310.499	714
310.543	1349
310.589	1872
310.598	1814
310.652	1577
310.679	1302
310.706	1079
310.760	1010
310.769	962
310.814	1013
310.859	1113
310.868	1122
310.923	962
310.948	984
310.977	1177
311.031	1672
311.038	1723
311.085	1586
311.128	1382
311.139	1282
311.193	969
311.218	690
311.247	1107
311.301	2031
311.308	2143
311.356	1887
311.398	1614
311.410	1591
311.464	1464
311.488	1426
311.518	1196
311.572	701
311.578	653
311.626	1213
311.668	1735
311.680	1743
311.734	1678
311.758	1668
311.788	1505
311.842	1244
311.847	1213
311.896	1968
311.937	2651
311.950	2566
312.004	2184
312.027	2006
312.058	1667
312.112	1071
312.117	1015
312.165	1255
312.207	1466
312.297	1274
312.386	2447
312.476	1414
312.566	2657
312.656	783
312.745	982
312.835	1211
312.925	2021
313.015	1469
313.104	1894
313.194	1056
313.284	1521
313.374	1879
313.463	2081
313.553	1551
313.643	1588
313.732	1244
313.822	962
313.912	2256
314.001	2056
314.091	1271
314.180	2507
314.270	1906
314.360	1830
314.449	1686
314.539	1882
314.628	1708
314.718	1983
314.808	2004
314.897	2511
314.987	2291
315.076	1844
315.166	2367
315.255	2839
315.345	2413
315.434	2694
315.524	2536
315.613	2182
315.703	2573
315.792	5616
315.881	16114
315.971	5857
316.060	3167
316.150	3464
316.239	3490
316.328	2518
316.418	1607
316.507	1977
316.597	2446
316.686	2016
316.775	2576
316.865	3918
316.954	1890
317.043	1757
317.133	1468
317.222	2139
317.311	1671
317.400	86
317.490	2747
317.579	1420
317.668	1139
317.757	3445
317.847	8906
317.936	27339
318.025	8041
318.114	6679
318.203	2563
318.293	3050
318.382	4563
318.471	4232
318.560	5202
318.649	12744
318.738	2375
318.828	1915
318.917	1078
319.006	2302
319.095	4108
319.184	13118
319.273	6422
319.362	2219
319.451	574
319.540	1618
319.629	1353
319.718	2603
319.807	1890
319.896	4617
319.985	16988
320.074	5234
320.163	1214
320.252	2004
320.341	2382
320.430	2786
320.519	1970
320.608	2610
320.697	2223
320.786	2588
320.875	2328
320.964	2938
321.053	3337
321.142	4199
321.230	4050
321.319	4524
321.408	5776
321.497	4523
321.586	3260
321.675	4088
321.764	3460
321.852	3965
321.941	3175
322.030	2437
322.119	3863
322.207	6091
322.296	6020
322.385	5293
322.474	6142
322.562	8799
322.651	5211
322.740	4579
322.829	4290
322.917	4784
323.006	2299
323.095	2862
323.183	2098
323.272	3250
323.361	4151
323.449	12204
323.538	4214
323.626	7555
323.715	4869
323.804	2482
323.892	6171
323.981	4136
324.069	2010
324.158	4489
324.246	4071
324.335	2053
324.424	2115
324.512	1808
324.601	1094
324.689	2014
324.778	2229
324.866	2996
324.954	1726
325.043	1905
325.131	1412
325.220	3366
325.308	2957
325.397	2853
325.485	2124
325.574	1687
325.662	1453
325.750	1209
325.839	1868
325.927	1664
326.015	1242
326.104	2165
326.192	2121
326.280	1616
326.369	1234
326.457	2120
326.545	2031
326.634	1866
326.722	1657
326.810	1321
326.898	1820
326.987	1961
327.075	974
327.163	3369
327.251	1128
327.340	1894
327.428	2216
327.516	2357
327.604	1684
327.692	1760
327.781	891
327.869	1956
327.957	1407
328.045	802
328.133	1875
328.221	1289
328.309	1343
328.397	1708
328.485	1743
328.574	2757
328.662	4479
328.750	3007
328.838	1840
328.926	1537
329.014	909
329.102	1460
329.190	2691
329.278	2217
329.366	1219
329.454	1568
329.542	1074
329.630	1121
329.718	1420
329.806	2363
329.893	1605
329.981	1534
330.069	1785
330.157	1807
330.245	3395
330.333	2880
330.421	994
330.509	1901
330.597	3377
330.684	2695
330.772	1871
330.860	1883
330.948	3424
331.036	1895
331.123	796
331.211	1523
331.299	1491
331.387	3576
331.475	4485
331.562	1903
331.650	356
331.738	854
331.825	1492
331.913	1403
332.001	1040
332.089	1555
332.176	2525
332.264	3982
332.352	2555
332.439	1855
332.527	1713
332.614	912
332.702	1014
332.790	2061
332.877	1955
332.965	4825
333.052	1129
333.140	1980
333.228	2452
333.315	1061
333.403	2418
333.490	2995
333.578	2672
333.665	3172
333.753	2435
333.840	1840
333.928	1016
334.015	4164
334.103	6026
334.190	18335
334.278	7002
334.365	6323
334.452	5605
334.540	3546
334.627	3651
334.715	4383
334.802	6859
334.889	21316
334.977	24600
335.064	10000
335.151	4101
335.239	4151
335.326	3042
335.413	10492
335.501	13479
335.588	3957
335.675	2572
335.762	3811
335.850	6136
335.937	7574
336.024	12652
336.111	31918
336.199	23038
336.286	9460
336.373	4386
336.460	2841
336.547	2712
336.635	2461
336.722	1243
336.809	1946
336.896	1559
336.983	6148
337.070	12845
337.157	19916
337.245	10148
337.332	7052
337.419	1758
337.506	1808
337.593	1946
337.680	4781
337.767	13575
337.854	3649
337.941	3501
338.028	3709
338.115	1260
338.202	3011
338.289	3010
338.376	8840
338.463	2950
338.550	7828
338.637	8586
338.724	2649
338.811	3144
338.898	2058
338.984	1417
339.071	1800
339.158	740
339.245	2502
339.332	1968
339.419	1831
339.506	2058
339.593	930
339.679	1493
339.766	1088
339.853	1070
339.940	1929
340.027	267
340.113	1911
340.200	1027
340.287	769
340.374	737
340.460	1479
340.547	222
340.634	2198
340.720	3228
340.807	2033
340.894	1592
340.980	1139
341.067	476
341.154	1704
341.240	878
341.327	2308
341.414	1450
341.500	1025
341.587	1164
341.674	1457
341.760	1446
341.847	1095
341.933	1133
342.020	638
342.106	1006
342.193	1117
342.279	976
342.366	953
342.452	935
342.539	912
342.625	1393
342.712	3240
342.798	1472
342.885	930
342.971	33
343.058	1147
343.144	719
343.230	1301
343.317	1670
343.403	1510
343.490	1276
343.576	124
343.662	1125
343.749	524
343.835	790
343.921	2743
344.008	7069
344.094	16283
344.180	3516
344.267	1662
344.353	3656
344.439	4857
344.525	1088
344.612	3160
344.698	2990
344.784	1150
344.870	1109
344.957	482
345.043	1457
345.129	761
345.215	2085
345.301	650
345.387	735
345.474	1101
345.560	345
345.646	633
345.732	966
345.818	657
345.904	653
345.990	1388
346.076	1105
346.162	1288
346.249	1471
346.335	438
346.421	952
346.507	2967
346.593	6811
346.679	1349
346.765	1373
346.851	2317
346.937	383
347.023	1695
347.108	1067
347.194	390
347.280	1190
347.366	2447
347.452	4629
347.538	9941
347.624	7143
347.710	5113
347.796	904
347.882	727
347.967	1482
348.053	1310
348.139	961
348.225	1006
348.311	580
348.397	953
348.482	1815
348.568	1888
348.654	1542
348.740	4831
348.825	4500
348.911	3425
348.997	3880
349.083	8104
349.168	599
349.254	1769
349.340	1247
349.425	1012
349.511	1072
349.597	1281
349.682	755
349.768	5247
349.854	1909
349.939	1641
350.025	826
350.110	1469
350.196	1280
350.282	409
350.367	1397
350.453	2183
350.538	1529
350.624	807
350.709	1138
350.795	768
350.880	287
350.966	1711
351.051	1256
351.137	818
351.222	1423
351.308	1230
351.393	3053
351.479	1345
351.564	455
351.649	1826
351.735	580
351.820	317
351.906	1433
351.991	995
352.076	1935
352.162	3830
352.247	1108
352.332	1570
352.418	1062
352.503	1849
352.588	4949
352.673	3448
352.759	1156
352.844	944
352.929	1216
353.014	854
353.100	1622
353.185	1801
353.270	803
353.355	1305
353.441	1307
353.526	992
353.611	1265
353.696	1293
353.781	1413
353.866	658
353.952	1302
354.037	1240
354.122	1393
354.207	2296
354.292	1542
354.377	1390
354.462	1421
354.547	161
354.632	1159
354.717	1226
354.802	66
354.887	1641
354.972	914
355.057	1398
355.142	-209
355.227	1670
355.312	894
355.397	1644
355.482	2598
355.567	1291
355.652	2031
355.737	1506
355.822	4769
355.907	3408
355.991	1327
356.076	541
356.161	1174
356.246	1148
356.331	463
356.416	1428
356.501	8793
356.585	8232
356.670	449
356.755	2343
356.840	1406
356.924	5327
357.009	18248
357.094	7141
357.179	1380
357.263	1576
357.348	2484
357.433	1632
357.517	1197
357.602	1835
357.687	1410
357.771	2078
357.856	4703
357.941	4427
358.025	4214
358.110	19570
358.195	9208
358.279	1543
358.364	1135
358.448	2802
358.533	7885
358.617	4981
358.702	5510
358.787	2873
358.871	1551
358.956	1248
359.040	293
359.125	195
359.209	727
359.294	2703
359.378	4089
359.462	2854
359.547	1226
359.631	1700
359.716	864
359.800	1132
359.885	2090
359.969	496
360.053	1293
360.138	1208
360.222	731
360.306	1359
360.391	1088
360.475	3247
360.559	3670
360.644	2949
360.728	1370
360.812	5951
360.896	12594
360.981	6281
361.065	2047
361.149	1843
361.233	872
361.318	656
361.402	1431
361.486	1278
361.570	834
361.654	1527
361.739	1254
361.823	7579
361.907	13731
361.991	2599
362.075	1721
362.159	2949
362.243	5002
362.327	12389
362.411	22547
362.495	8298
362.580	3261
362.664	2896
362.748	2607
362.832	5620
362.916	9942
363.000	35172
363.084	58779
363.168	30360
363.252	6814
363.336	3949
363.420	4080
363.503	13755
363.587	16008
363.671	3308
363.755	2160
363.839	4064
363.923	1714
364.007	3461
364.091	4125
364.175	7911
364.258	32156
364.342	44449
364.426	81248
364.510	43730
364.594	12375
364.677	7034
364.761	11194
364.845	9742
364.929	2763
365.013	2327
365.096	1844
365.180	2249
365.264	5106
365.347	22586
365.431	9641
365.515	1867
365.598	541
365.682	2643
365.766	1508
365.849	3330
365.933	867
366.017	3222
366.100	1117
366.184	929
366.267	1769
366.351	1773
366.435	988
366.518	713
366.602	928
366.685	1616
366.769	1165
366.852	1816
366.936	1902
367.019	959
367.103	123
367.186	4171
367.270	730
367.353	764
367.436	1797
367.520	1167
367.603	1265
367.687	964
367.770	996
367.853	1975
367.937	3499
368.020	6237
368.104	1283
368.187	2161
368.270	1179
368.353	1083
368.437	1577
368.520	5999
368.603	2356
368.687	2697
368.770	6038
368.853	1459
368.936	2079
369.020	3074
369.103	579
369.186	1030
369.269	1150
369.352	1968
369.436	1379
369.519	1216
369.602	-1209
369.685	1691
369.768	-7
369.851	1682
369.934	300
370.018	1243
370.101	-106
370.184	2881
370.267	1416
370.350	1625
370.433	2443
370.516	6127
370.599	13285
370.682	3134
370.765	3668
370.848	5783
370.931	6788
371.014	4632
371.097	70
371.180	1992
371.263	1513
371.346	217
371.429	1065
371.511	489
371.594	649
371.677	2418
371.760	3677
371.843	1731
371.926	6058
372.009	15244
372.091	6749
372.174	3386
372.257	8548
372.340	2754
372.423	2586
372.505	5206
372.588	1493
372.671	3037
372.754	5724
372.836	3939
372.919	5659
373.002	12535
373.085	2625
373.167	2080
373.250	2971
373.332	8387
373.415	10754
373.498	22042
373.580	9198
373.663	17993
373.746	21274
373.828	4230
373.911	2216
373.993	2665
374.076	11030
374.159	10950
374.241	2704
374.324	6433
374.406	4341
374.489	6008
374.571	18536
374.654	8141
374.736	4156
374.819	11278
374.901	16422
374.983	18052
375.066	3404
375.148	2555
375.231	9110
375.313	19108
375.395	5055
375.478	2338
375.560	2254
375.643	2197
375.725	3519
375.807	14246
375.890	12780
375.972	4467
376.054	2581
376.136	5096
376.219	2555
376.301	4665
376.383	11449
376.465	4501
376.548	2090
376.630	3489
376.712	9497
376.794	5395
376.877	1174
376.959	200
377.041	1344
377.123	2885
377.205	3608
377.287	185
377.369	1256
377.452	489
377.534	913
377.616	1567
377.698	957
377.780	19
377.862	1215
377.944	2387
378.026	-298
378.108	1753
378.190	859
378.272	1609
378.354	377
378.436	1203
378.518	256
378.600	3534
378.682	2559
378.764	3888
378.846	3305
378.928	1264
379.010	-520
379.091	1442
379.173	909
379.255	136
379.337	734
379.419	1720
379.501	6660
379.583	3485
379.664	766
379.746	1059
379.828	4653
379.910	4987
379.991	5526
380.073	996
380.155	158
380.237	411
380.318	281
380.400	888
380.482	834
380.564	2071
380.645	1205
380.727	956
380.809	1716
380.890	636
380.972	-437
381.053	1163
381.135	1314
381.217	620
381.298	4436
381.380	2478
381.461	2098
381.543	8516
381.624	11550
381.706	2144
381.787	1307
381.869	2754
381.951	4225
382.032	15152
382.113	12023
382.195	1145
382.276	3141
382.358	2407
382.439	7871
382.521	9971
382.602	16839
382.684	7378
382.765	10655
382.846	12956
382.928	18012
383.009	9850
383.090	6593
383.172	25901
383.253	41786
383.334	13381
383.416	14136
383.497	7073
383.578	3247
383.659	5385
383.741	21745
383.822	63916
383.903	30597
383.984	9657
384.066	15925
384.147	8283
384.228	3300
384.309	2515
384.390	2616
384.471	1420
384.553	1048
384.634	1894
384.715	2382
384.796	1238
384.877	1415
384.958	4512
385.039	3880
385.120	2097
385.201	1961
385.282	3004
385.363	3124
385.444	2180
385.525	2874
385.606	7954
385.687	6088
385.768	2963
385.849	2603
385.930	9479
386.011	14099
386.092	3961
386.173	1681
386.254	2243
386.335	3205
386.416	1571
386.496	3222
386.577	5969
386.658	2251
386.739	1703
386.820	2584
386.901	2225
386.981	2317
387.062	2457
387.143	2285
387.224	5912
387.304	6748
387.385	5223
387.466	2346
387.547	5432
387.627	3661
387.708	4994
387.789	9680
387.869	11681
387.950	4818
388.031	1991
388.111	664
388.192	4829
388.273	5021
388.353	3061
388.434	2862
388.514	1794
388.595	8661
388.676	10761
388.756	4808
388.837	5334
388.917	2986
388.998	-230
389.078	2279
389.159	1415
389.239	288
389.320	2673
389.400	-20
389.480	3197
389.561	4882
389.641	5209
389.722	1964
389.802	1516
389.883	3079
389.963	7600
390.043	3584
390.124	1690
390.204	2351
390.284	5298
390.365	2874
390.445	6670
390.525	13676
390.605	10738
390.686	1907
390.766	2977
390.846	2163
390.927	1394
391.007	560
391.087	2195
391.167	1509
391.247	656
391.328	2509
391.408	3382
391.488	2773
391.568	-185
391.648	1366
391.728	2313
391.808	3130
391.888	1172
391.969	3925
392.049	5497
392.129	4238
392.209	4552
392.289	7744
392.369	5835
392.449	6781
392.529	4620
392.609	4953
392.689	5554
392.769	8921
392.849	9999
392.929	11683
393.009	18805
393.089	19690
393.169	33296
393.248	86105
393.328	230053
393.408	243044
393.488	94167
393.568	33287
393.648	17725
393.728	10382
393.807	6786
393.887	7148
393.967	6536
394.047	4791
394.127	4516
394.206	7031
394.286	20945
394.366	82978
394.446	92000
394.525	22997
394.605	6297
394.685	5167
394.764	9315
394.844	15643
394.924	13470
395.003	4494
395.083	2576
395.163	2764
395.242	2543
395.322	2542
395.402	1348
395.481	3351
395.561	5710
395.640	19035
395.720	25239
395.799	21715
395.879	15705
395.958	10301
396.038	30493
396.117	109248
396.197	120764
396.276	39114
396.356	14860
396.435	10871
396.515	10079
396.594	11978
396.673	26492
396.753	83197
396.832	206822
396.912	156888
396.991	43550
397.070	17236
397.150	8949
397.229	8596
397.308	14355
397.388	28283
397.467	13895
397.546	4281
397.625	1281
397.705	4124
397.784	2637
397.863	1471
397.942	2730
398.022	2039
398.101	3987
398.180	14209
398.259	7534
398.338	3396
398.417	1226
398.497	404
398.576	1679
398.655	104
398.734	1942
398.813	1394
398.892	4640
398.971	15532
399.050	7240
399.129	796
399.208	1412
399.287	1026
399.366	999
399.445	513
399.524	975
399.603	-168
399.682	1699
399.761	2616
399.840	16189
399.919	12831
399.998	1698
400.077	63
400.156	58
400.235	2894
400.313	516
400.392	-632
400.471	3271
400.550	3571
400.629	503
400.708	1730
400.786	1057
400.865	2086
400.944	2321
401.023	2248
401.102	284
401.180	401
401.259	1172
401.338	-47
401.416	1891
401.495	-209
401.574	1342
401.652	-630
401.731	1945
401.810	-492
401.888	1270
401.967	-860
402.046	674
402.124	558
402.203	-118
402.281	727
402.360	-386
402.438	3889
402.517	1705
402.596	911
402.674	448
402.753	215
402.831	927
402.910	966
402.988	1539
403.066	5799
403.145	4793
403.223	2565
403.302	4450
403.380	4435
403.459	3577
403.537	904
403.615	385
403.694	-957
403.772	2195
403.850	908
403.929	213
404.007	383
404.085	2089
404.164	105
404.242	725
404.320	4009
404.398	12456
404.477	10350
404.555	13793
404.633	12448
404.711	9387
404.789	5942
404.868	1760
404.946	-630
405.024	776
405.102	138
405.180	703
405.258	-1858
405.336	525
405.415	-984
405.493	1252
405.571	1809
405.649	-517
405.727	-988
405.805	1172
405.883	156
405.961	1285
406.039	696
406.117	-632
406.195	905
406.273	907
406.351	8586
406.429	6452
406.507	239
406.585	47
406.663	-605
406.740	-127
406.818	-774
406.896	312
406.974	428
407.052	-902
407.130	5189
407.208	7515
407.285	1890
407.363	-464
407.441	582
407.519	832
407.596	493
407.674	3548
407.752	18900
407.830	16469
407.907	2176
407.985	-356
408.063	574
408.141	210
408.218	78
408.296	-232
408.373	-39
408.451	603
408.529	383
408.606	702
408.684	405
408.762	723
408.839	143
408.917	724
408.994	1000
409.072	-92
409.149	651
409.227	3135
409.304	3787
409.382	4739
409.459	4450
409.537	7581
409.614	6102
409.692	4723
409.769	2991
409.846	6749
409.924	8822
410.001	4881
410.079	3031
410.156	3302
410.233	1781
410.311	1136
410.388	-36
410.465	1065
410.543	-295
410.620	1478
410.697	1157
410.775	654
410.852	-279
410.929	2068
411.006	1787
411.083	305
411.161	1053
411.238	1903
411.315	527
411.392	880
411.469	494
411.547	550
411.624	-183
411.701	635
411.778	-578
411.855	757
411.932	-18
412.009	744
412.086	184
412.163	787
412.240	-825
412.317	1079
412.394	-870
412.471	498
412.548	-461
412.625	554
412.702	229
412.779	1043
412.856	389
412.933	-191
413.010	-28
413.087	814
413.164	1425
413.241	2538
413.318	-715
413.395	1008
413.471	-120
413.548	755
413.625	763
413.702	-605
413.779	7
413.855	350
413.932	-263
414.009	-1108
414.086	-9
414.162	676
414.239	378
414.316	1935
414.393	4299
414.469	745
414.546	-619
414.623	63
414.699	-561
414.776	474
414.853	-444
414.929	117
415.006	201
415.082	280
415.159	-164
415.236	411
415.312	27
415.389	856
415.465	-638
415.542	100
415.618	-256
415.695	170
415.771	-843
415.848	166
415.924	592
416.000	-289
416.077	875
416.153	-326
416.230	-982
416.306	-311
416.383	-388
416.459	450
416.535	-609
416.612	-847
416.688	-305
416.764	25
416.841	-467
416.917	-257
416.993	69
417.069	273
417.146	-441
417.222	938
417.298	-524
417.374	-415
417.451	329
417.527	-219
417.603	-254
417.679	315
417.755	575
417.831	-521
417.908	-361
417.984	631
418.060	-918
418.136	83
418.212	-298
418.288	150
418.364	783
418.440	-269
418.516	108
418.592	423
418.668	210
418.744	251
418.820	120
418.896	-8
418.972	-953
419.048	-61
419.124	447
419.200	-168
419.276	351
419.352	-467
419.428	-508
419.504	-176
419.579	196
419.655	285
419.731	213
419.807	493
419.883	945
419.959	665
420.034	536
420.110	1044
420.186	2280
420.262	2761
420.337	871
420.413	408
420.489	893
420.565	1489
420.640	-130
420.716	554
420.792	221
420.867	2176
420.943	538
421.019	1553
421.094	566
421.170	2046
421.245	1305
421.321	1662
421.397	1959
421.472	6010
421.548	13646
421.623	9461
421.699	4125
421.774	3808
421.850	4267
421.925	6070
422.001	6503
422.076	8587
422.152	10970
422.227	14137
422.302	20814
422.378	30578
422.453	50930
422.529	86627
422.604	124828
422.679	118831
422.755	124330
422.830	95333
422.905	56230
422.981	34925
423.056	22791
423.131	18070
423.207	12024
423.282	10167
423.357	8199
423.432	6231
423.508	5760
423.583	4318
423.658	3571
423.733	3677
423.808	3472
423.883	3647
423.959	2537
424.034	3549
424.109	4037
424.184	2316
424.259	1814
424.334	1658
424.409	1073
424.484	1232
424.559	1213
424.634	872
424.709	498
424.784	383
424.859	403
424.934	177
425.009	1511
425.084	3184
425.159	349
425.234	954
425.309	312
425.384	1448
425.459	774
425.534	1527
425.609	-402
425.683	480
425.758	-352
425.833	46
425.908	867
425.983	824
426.058	2811
426.132	863
426.207	167
426.282	2278
426.357	-598
426.431	531
426.506	-79
426.581	126
426.655	-106
426.730	254
426.805	-1200
426.879	1214
426.954	-550
427.029	1042
427.103	2496
427.178	7166
427.253	2706
427.327	465
427.402	357
427.476	2033
427.551	69
427.625	165
427.700	559
427.774	247
427.849	513
427.923	-238
427.998	-39
428.072	-73
428.147	1613
428.221	12021
428.296	43619
428.370	24134
428.444	2444
428.519	423
428.593	1274
428.667	1899
428.742	2796
428.816	5451
428.890	25446
428.965	42938
429.039	10923
429.113	4086
429.188	554
429.262	331
429.336	620
429.410	1103
429.485	348
429.559	1872
429.633	1578
429.707	1093
429.781	3221
429.855	25281
429.930	39152
430.004	13736
430.078	12907
430.152	20039
430.226	53320
430.300	56936
430.374	10839
430.448	2792
430.522	4035
430.596	11905
430.670	11648
430.744	32967
430.818	40246
430.892	7159
430.966	632
431.040	486
431.114	-811
431.188	-985
431.262	-703
431.336	-722
431.410	1163
431.484	2190
431.557	1539
431.631	-632
431.705	870
431.779	9372
431.853	39766
431.927	28760
432.000	1966
432.074	705
432.148	-509
432.222	143
432.295	-1058
432.369	-553
432.443	-741
432.516	2706
432.590	7123
432.664	2859
432.737	-294
432.811	-1054
432.885	-371
432.958	176
433.032	-628
433.106	76
433.179	-529
433.253	434
433.326	-52
433.400	-594
433.473	26
433.547	-529
433.620	-648
433.694	-280
433.767	521
433.841	-1534
433.914	-629
433.988	-3
434.061	-626
434.134	-629
434.208	-556
434.281	-555
434.355	-1476
434.428	-462
434.501	-1444
434.575	-1015
434.648	-1620
434.721	-550
434.795	-1053
434.868	-693
434.941	-1286
435.014	-842
435.088	-1342
435.161	82
435.234	-600
435.307	-129
435.381	32
435.454	1217
435.527	2669
435.600	3033
435.673	2354
435.746	1987
435.819	507
435.892	988
435.966	-23
436.039	-531
436.112	27
436.185	-1100
436.258	-834
436.331	-1195
436.404	-638
436.477	-650
436.550	-300
436.623	-400
436.696	-1451
436.769	-835
436.842	-544
436.915	-266
436.987	-1166
437.060	-578
437.133	-1356
437.206	-1066
437.279	-171
437.352	-549
437.425	-806
437.498	209
437.570	-760
437.643	-115
437.716	-283
437.789	-732
437.861	-555
437.934	415
438.007	-178
438.080	-571
438.152	-453
438.225	129
438.298	3539
438.370	13372
438.443	5048
438.516	-438
438.588	-963
438.661	-169
438.734	-1108
438.806	-449
438.879	-457
438.951	130
439.024	70
439.096	-165
439.169	-857
439.241	-1020
439.314	-232
439.386	15
439.459	98
439.531	-73
439.604	-590
439.676	-55
439.749	-650
439.821	-870
439.893	252
439.966	-1040
440.038	-571
440.110	-148
440.183	-1243
440.255	-146
440.327	178
440.400	1409
440.472	6456
440.544	3779
440.617	71
440.689	841
440.761	579
440.833	-17
440.905	29
440.978	-795
441.050	-562
441.122	-686
441.194	-1489
441.266	-874
441.338	-1097
441.411	483
441.483	1121
441.555	2779
441.627	125
441.699	113
441.771	-609
441.843	-264
441.915	36
441.987	103
442.059	-576
442.131	92
442.203	-4
442.275	696
442.347	1536
442.419	4359
442.491	27256
442.563	67907
442.635	29629
442.706	6466
442.778	2582
442.850	417
442.922	797
442.994	877
443.066	1003
443.137	1279
443.209	1320
443.281	3331
443.353	7290
443.425	32346
443.496	102395
443.568	111477
443.640	46518
443.711	9159
443.783	2253
443.855	2071
443.926	174
443.998	210
444.070	-152
444.141	500
444.213	90
444.285	287
444.356	-377
444.428	587
444.499	63
444.571	134
444.642	-956
444.714	-419
444.785	199
444.857	911
444.928	2461
445.000	1531
445.071	1630
445.143	2680
445.214	3064
445.285	6441
445.357	17740
445.428	63258
445.500	129873
445.571	102400
445.642	66557
445.714	21545
445.785	8472
445.856	2226
445.928	561
445.999	478
446.070	-340
446.141	936
446.213	653
446.284	403
446.355	145
446.426	472
446.497	-1008
446.569	449
446.640	-533
446.711	190
446.782	-987
446.853	86
446.924	-42
446.995	-765
447.066	-216
447.138	437
447.209	-67
447.280	-1209
447.351	-1340
447.422	-350
447.493	-662
447.564	-625
447.635	-910
447.706	-686
447.777	-837
447.847	-924
447.918	-1985
447.989	-526
448.060	-455
448.131	643
448.202	59
448.273	-253
448.344	-888
448.414	222
448.485	-1188
448.556	-431
448.627	-1220
448.698	230
448.768	-888
448.839	-1410
448.910	-1061
448.981	732
449.051	-1603
449.122	-598
449.193	-1100
449.263	-737
449.334	-1556
449.405	-399
449.475	-727
449.546	-452
449.616	79
449.687	-149
449.758	-671
449.828	-847
449.899	-1675
449.969	-1050
450.040	-895
450.110	-340
450.181	-652
450.251	-679
450.322	-981
450.392	-733
450.463	-341
450.533	-525
450.604	-1067
450.674	-648
450.744	-206
450.815	-213
450.885	-1100
450.955	-48
451.026	-1126
451.096	-1105
451.166	-212
451.237	435
451.307	1757
451.377	463
451.447	-1100
451.518	-802
451.588	-1360
451.658	-294
451.728	-876
451.799	1503
451.869	2321
451.939	-304
452.009	-988
452.079	-545
452.149	-888
452.219	-312
452.289	2035
452.360	849
452.430	-498
452.500	245
452.570	-15
452.640	2986
452.710	8924
452.780	12506
452.850	5326
452.920	1278
452.990	297
453.060	410
453.129	-791
453.199	-317
453.269	2162
453.339	6553
453.409	10975
453.479	11827
453.549	16495
453.619	17247
453.688	4966
453.758	523
453.828	-472
453.898	146
453.968	-272
454.037	737
454.087	-521
454.107	-1048
454.168	-1124
454.177	-1156
454.247	-1384
454.249	-1318
454.316	-181
454.330	-320
454.386	-963
454.411	-406
454.456	392
454.492	753
454.525	1073
454.574	1000
454.595	950
454.655	-717
454.665	-990
454.734	-102
454.736	-68
454.804	133
454.817	633
454.873	2450
454.898	2470
454.943	2399
454.979	1579
455.013	888
455.060	-158
455.082	-624
455.141	-5
455.152	116
455.221	2710
455.222	2780
455.291	4935
455.303	5143
455.360	5527
455.384	8573
455.430	13163
455.465	9376
455.499	5979
455.546	3569
455.569	2406
455.627	962
455.638	736
455.707	325
455.708	344
455.777	503
455.789	526
455.846	608
455.869	490
455.916	156
455.950	279
455.985	405
456.031	-238
456.054	-582
456.112	455
456.124	645
456.193	671
456.193	654
456.262	491
456.274	474
456.332	425
456.355	613
456.401	825
456.436	769
456.470	633
456.516	488
456.540	476
456.597	0
456.609	-127
456.678	786
456.678	773
456.747	135
456.759	152
456.817	441
456.840	412
456.886	129
456.920	431
456.955	789
457.001	675
457.024	488
457.082	677
457.093	802
457.162	1001
457.163	1021
457.232	1005
457.243	895
457.301	583
457.324	742
457.370	1020
457.405	970
457.439	921
457.485	1190
457.508	1382
457.566	1501
457.577	1535
457.646	3218
457.647	3238
457.715	5561
457.727	6584
457.784	12620
457.808	16113
457.853	19892
457.889	23548
457.922	23721
457.969	15747
457.991	15664
458.050	19373
458.060	20098
458.129	33844
458.130	34275
458.198	33785
458.211	30337
458.267	16916
458.292	11822
458.336	7892
458.372	7637
458.405	10519
458.453	15206
458.474	18706
458.533	33125
458.543	34272
458.611	54925
458.614	55250
458.680	35057
458.694	27667
458.749	12144
458.775	8265
458.818	4397
458.855	3810
458.887	3429
458.936	2970
458.955	2896
459.016	2880
459.024	2856
459.093	2272
459.097	2278
459.162	2071
459.177	2072
459.230	2260
459.257	2564
459.299	3059
459.338	2709
459.368	2428
459.418	2574
459.437	2549
459.499	2696
459.505	2699
459.574	2524
459.579	2508
459.643	2229
459.659	2337
459.711	2558
459.740	2387
459.780	2274
459.820	2326
459.849	2370
459.900	2477
459.917	2490
459.981	2957
459.986	2965
460.054	2715
460.061	2732
460.123	2941
460.141	2986
460.191	3461
460.222	3827
460.260	3913
460.302	3569
460.328	3518
460.382	3966
460.397	4068
460.462	4471
460.465	4624
460.534	8354
460.543	8834
460.602	21889
460.623	26963
460.671	41042
460.703	53467
460.739	47346
460.783	36622
460.808	30887
460.864	8012
460.876	6279
460.944	3894
460.945	3868
461.013	3463
461.024	3428
461.081	3003
461.104	3094
461.150	2882
461.184	2663
461.218	3047
461.264	3240
461.286	3042
461.345	2803
461.355	2793
461.423	2616
461.425	2617
461.491	2982
461.505	3084
461.559	3832
461.585	4151
461.628	5773
461.665	7385
461.696	7404
461.745	7561
461.764	6834
461.825	3527
461.832	3510
461.901	3266
461.905	3296
461.969	2637
461.985	2514
462.037	3851
462.065	4373
462.105	3821
462.145	3453
462.173	4112
462.225	5177
462.241	5186
462.305	6053
462.310	6031
462.378	4764
462.385	4610
462.446	4007
462.465	3828
462.514	3708
462.545	3759
462.582	3806
462.625	3828
462.650	3554
462.705	2781
462.718	2838
462.785	3440
462.786	3448
462.854	3878
462.865	3856
462.922	4321
462.945	4781
462.990	4354
463.025	3600
463.058	3631
463.104	3766
463.126	3581
463.184	3290
463.194	3398
463.262	3753
463.264	3775
463.330	3989
463.344	4021
463.398	4108
463.424	4076
463.466	3602
463.504	3377
463.533	3540
463.583	3368
463.601	3425
463.663	3972
463.669	4019
463.737	4299
463.743	4333
463.805	5576
463.823	5906
463.873	7503
463.903	8683
463.940	9036
463.982	9190
464.008	8077
464.062	5441
464.076	5322
464.142	4780
464.144	4764
464.211	3901
464.221	3802
464.279	3996
464.301	4070
464.347	4493
464.381	4689
464.414	4432
464.461	4297
464.482	4700
464.540	5539
464.550	5503
464.617	5300
464.620	5279
464.685	5778
464.699	5931
464.753	7160
464.779	7742
464.820	9106
464.859	10318
464.888	9417
464.938	7873
464.956	8098
465.018	8739
465.023	8698
465.091	7908
465.098	7822
465.158	7797
465.177	7771
465.226	7311
465.257	7075
465.293	7330
465.336	7466
465.361	7551
465.416	7808
465.428	7985
465.495	8858
465.496	8890
465.563	11239
465.575	11664
465.631	12775
465.654	13267
465.698	10091
465.734	7201
465.765	7237
465.813	7322
465.833	7136
465.893	6538
465.900	6620
465.968	7401
465.972	7431
466.035	6747
466.052	6574
466.102	7147
466.131	7384
466.170	6827
466.210	6258
466.237	6492
466.290	6892
466.304	6933
466.369	7102
466.372	7114
466.439	6978
466.449	6933
466.506	7894
466.528	8279
466.573	9282
466.607	9963
466.641	11632
466.687	13942
466.708	15032
466.766	17967
466.775	16897
466.842	8575
466.845	8162
466.909	7394
466.925	7198
466.977	8114
467.004	8605
467.044	9128
467.083	9595
467.111	10072
467.163	10936
467.178	11415
467.242	13285
467.245	13212
467.312	11161
467.321	10867
467.379	10407
467.400	10209
467.446	11107
467.480	11720
467.559	11428
467.638	10248
467.717	10285
467.796	11040
467.875	10333
467.955	10869
468.034	13635
468.113	18879
468.192	23872
468.271	13223
468.350	14308
468.429	16802
468.508	17300
468.588	13494
468.667	11703
468.746	9705
468.825	9680
468.904	8901
468.983	9264
469.062	11578
469.141	12083
469.220	8529
469.299	9280
469.378	10581
469.456	13712
469.535	11919
469.614	10810
469.693	10281
469.772	12658
469.851	11881
469.930	10696
470.009	10823
470.088	9274
470.166	10501
470.245	10130
470.324	10887
470.403	10106
470.482	9072
470.560	9453
470.639	9341
470.718	10260
470.797	9189
470.875	9341
470.954	9786
471.033	11379
471.111	8417
471.190	8266
471.269	8702
471.347	8184
471.426	8742
471.505	10884
471.583	11376
471.662	11580
471.740	9342
471.819	9680
471.898	9048
471.976	9628
472.055	8924
472.133	9766
472.212	11909
472.290	10783
472.369	8890
472.447	9255
472.526	8019
472.604	9435
472.683	8747
472.761	8881
472.839	8763
472.918	8599
472.996	8862
473.075	9096
473.153	8613
473.231	7957
473.310	9197
473.388	9215
473.466	8693
473.545	10029
473.623	10807
473.701	10075
473.780	9899
473.858	9069
473.936	10256
474.014	9398
474.093	9807
474.171	10755
474.249	11423
474.327	8852
474.405	7893
474.484	8739
474.562	7725
474.640	8447
474.718	7938
474.796	9190
474.874	8103
474.952	7648
475.030	7726
475.108	8151
475.187	7613
475.265	7693
475.343	9277
475.421	10027
475.499	8503
475.577	8631
475.655	9302
475.733	10966
475.811	13867
475.889	13470
475.966	11246
476.044	8020
476.122	8455
476.200	9031
476.278	7600
476.356	7803
476.434	7462
476.512	7540
476.590	9239
476.667	9103
476.745	7047
476.823	8043
476.901	7620
476.979	7452
477.056	7787
477.134	7989
477.212	8037
477.290	7825
477.367	6514
477.445	7950
477.523	7373
477.601	7689
477.678	6933
477.756	7754
477.834	8948
477.911	7734
477.989	7845
478.066	6423
478.144	8254
478.222	7727
478.299	7683
478.377	8412
478.454	7662
478.532	6789
478.609	7000
478.687	7744
478.764	6019
478.842	6964
478.919	6690
478.997	7265
479.074	6172
479.152	7478
479.229	7733
479.307	6858
479.384	6598
479.461	6790
479.539	6448
479.616	7348
479.694	6248
479.771	7318
479.848	6191
479.926	7631
480.003	7495
480.080	7311
480.157	6760
480.235	6327
480.312	6043
480.389	7003
480.467	8041
480.544	8487
480.621	7397
480.698	7629
480.775	7879
480.853	7609
480.930	6187
481.007	7421
481.084	9045
481.161	12730
481.238	8401
481.315	6495
481.392	6041
481.470	6347
481.547	5526
481.624	5794
481.701	6140
481.778	6559
481.855	7168
481.932	8305
482.009	10437
482.086	8986
482.163	7523
482.240	7195
482.317	8799
482.393	8327
482.470	7365
482.547	6829
482.624	6897
482.701	6801
482.778	6537
482.855	7102
482.932	6003
483.009	6603
483.085	8384
483.162	10111
483.239	9776
483.316	7124
483.393	8408
483.469	7398
483.546	7069
483.623	6732
483.699	7053
483.776	6345
483.853	6689
483.930	8379
484.006	13548
484.083	21899
484.160	23487
484.236	40071
484.313	28923
484.389	22311
484.466	22211
484.543	20832
484.619	20969
484.696	23175
484.772	19259
484.849	19291
484.925	18096
485.002	17717
485.078	18004
485.155	17047
485.231	17054
485.308	17333
485.384	17060
485.461	18333
485.537	19894
485.614	22489
485.690	16332
485.766	16041
485.843	16691
485.919	15598
485.995	15819
486.072	14987
486.148	15213
486.224	14954
486.301	14713
486.377	15307
486.453	15752
486.530	17641
486.606	23378
486.682	24113
486.758	22276
486.835	23526
486.911	20112
486.987	24786
487.063	21380
487.139	21770
487.215	22348
487.292	21384
487.368	19524
487.444	20958
487.520	24531
487.596	28725
487.672	51011
487.748	129863
487.824	191452
487.900	66360
487.976	26445
488.052	19369
488.128	19723
488.204	15991
488.280	16348
488.356	17404
488.432	19738
488.508	24671
488.584	15524
488.660	14145
488.736	14117
488.812	14019
488.888	16285
488.964	16273
489.039	17057
489.115	19247
489.191	16990
489.267	14030
489.343	13270
489.418	13101
489.494	13002
489.570	11470
489.646	13011
489.722	12592
489.797	13020
489.873	15351
489.949	19270
490.024	17726
490.100	11746
490.176	12080
490.251	10997
490.327	11960
490.403	10483
490.478	11968
490.554	10767
490.629	11941
490.705	9935
490.781	12011
490.856	10894
490.932	11154
491.007	10756
491.083	10300
491.158	10915
491.234	12893
491.309	14783
491.385	15081
491.460	9747
491.536	10987
491.611	9159
491.686	9947
491.762	10836
491.837	11377
491.913	14494
491.988	16489
492.063	15418
492.139	11810
492.214	11294
492.289	9401
492.365	8084
492.440	10121
492.515	7870
492.590	9784
492.666	7822
492.741	9931
492.816	11052
492.891	8866
492.967	9944
493.042	8019
493.117	8689
493.192	9563
493.267	13771
493.342	35061
493.418	41822
493.493	10797
493.568	6906
493.643	7660
493.718	8664
493.793	8301
493.868	9176
493.943	7930
494.018	8751
494.093	7010
494.168	8306
494.243	7639
494.318	7240
494.393	8518
494.468	6185
494.543	7737
494.618	7714
494.693	7196
494.768	6894
494.842	8418
494.917	6847
494.992	7951
495.067	7010
495.142	6911
495.217	7478
495.292	6919
495.366	7490
495.441	7450
495.516	9615
495.591	8829
495.665	13969
495.740	21679
495.815	12979
495.890	8073
495.964	6335
496.039	9907
496.114	8621
496.188	12434
496.263	11045
496.338	7436
496.412	7648
496.487	9717
496.561	7764
496.636	8758
496.710	8535
496.785	8697
496.860	8680
496.934	8428
497.009	8320
497.083	8009
497.158	7653
497.232	8242
497.307	8452
497.381	8897
497.455	7507
497.530	9043
497.604	8595
497.679	7541
497.753	9537
497.827	10664
497.902	8747
497.976	11636
498.050	25177
498.125	84755
498.199	78779
498.273	11003
498.348	7555
498.422	8380
498.496	8119
498.570	8484
498.645	8532
498.719	7538
498.793	8840
498.867	11461
498.941	14400
499.016	36969
499.090	89076
499.164	30776
499.238	7881
499.312	7651
499.386	8315
499.460	8230
499.534	8185
499.609	9514
499.683	9634
499.757	11059
499.831	19550
499.905	61889
499.979	53107
500.053	11218
500.127	10413
500.201	7336
500.275	7953
500.349	8248
500.422	8615
500.496	8888
500.570	12905
500.644	34008
500.718	60940
500.792	15571
500.866	8495
500.940	8644
501.013	8360
501.087	7498
501.161	8837
501.235	10334
501.309	22257
501.382	54809
501.456	44175
501.530	13502
501.603	18647
501.677	9837
501.751	5731
501.825	8580
501.898	10656
501.972	22298
502.046	14754
502.119	7170
502.193	12436
502.266	23832
502.340	13035
502.413	13923
502.487	20868
502.561	11949
502.634	6714
502.708	6802
502.781	4880
502.855	6195
502.928	4810
503.002	5973
503.075	5312
503.149	5448
503.222	5343
503.295	6965
503.369	6738
503.442	9408
503.516	18230
503.589	38374
503.662	24775
503.736	13099
503.809	22855
503.882	19867
503.956	31840
504.029	39006
504.102	69451
504.175	99683
504.249	37650
504.322	16701
504.395	10170
504.468	8376
504.542	7711
504.615	5828
504.688	6820
504.761	4931
504.834	6357
504.907	6486
504.980	6065
505.053	5772
505.127	4288
505.200	8485
505.273	6362
505.346	5516
505.419	4998
505.492	6163
505.565	4348
505.638	5162
505.711	5361
505.784	4154
505.857	4929
505.930	7565
506.003	3560
506.076	7125
506.149	5745
506.221	5423
506.294	7251
506.367	9643
506.440	31294
506.513	16027
506.586	6981
506.659	4008
506.731	4573
506.804	4705
506.877	5361
506.950	5475
507.022	5114
507.095	4310
507.168	6379
507.241	6359
507.313	4009
507.386	3283
507.459	5632
507.531	4783
507.604	3901
507.677	5145
507.749	4323
507.822	6418
507.894	9347
507.967	14417
508.040	9586
508.112	9453
508.185	7985
508.257	6775
508.330	9535
508.402	7213
508.475	7652
508.547	7581
508.620	7140
508.692	8962
508.765	7983
508.837	6694
508.909	6884
508.982	7145
509.054	7500
509.127	6705
509.199	6335
509.271	6326
509.344	6223
509.416	6284
509.488	5665
509.560	6821
509.633	6297
509.705	7849
509.777	7055
509.849	8218
509.922	6555
509.994	7655
510.066	8686
510.138	7435
510.210	16960
510.283	13391
510.355	11727
510.427	11151
510.499	8697
510.571	9033
510.643	8361
510.715	10600
510.787	7033
510.859	9375
510.931	8297
511.003	9772
511.076	9186
511.148	7885
511.219	8130
511.291	11591
511.363	11111
511.435	8232
511.507	7149
511.579	9091
511.651	8737
511.723	7931
511.795	7072
511.867	7682
511.939	8085
512.010	9642
512.082	10167
512.154	7087
512.226	7947
512.298	12294
512.369	14839
512.441	12833
512.513	10802
512.585	8536
512.656	9574
512.728	9107
512.800	7649
512.871	8646
512.943	8807
513.015	7549
513.086	8393
513.158	8467
513.230	7576
513.301	7941
513.373	8674
513.444	8438
513.516	7907
513.588	7203
513.659	8088
513.731	8485
513.802	6394
513.874	10334
513.945	9429
514.016	7269
514.088	7157
514.159	6690
514.231	9510
514.302	12948
514.374	11306
514.445	9245
514.516	13745
514.588	9187
514.659	8916
514.730	10301
514.802	10366
514.873	6975
514.944	9326
515.016	8801
515.087	7981
515.158	10458
515.229	11851
515.301	7855
515.372	8672
515.443	7063
515.514	7183
515.585	6992
515.656	7990
515.728	8484
515.799	6684
515.870	8194
515.941	9337
516.012	8366
516.083	12004
516.154	9810
516.225	9658
516.296	10763
516.367	8824
516.438	8300
516.509	9926
516.580	11800
516.651	21979
516.722	52457
516.793	25697
516.864	11435
516.935	11653
517.006	11999
517.077	13329
517.148	23967
517.219	67260
517.289	93700
517.360	38667
517.431	17311
517.502	8688
517.573	10587
517.643	9085
517.714	11400
517.785	10771
517.856	10140
517.926	12849
517.997	12293
518.068	11522
518.138	16173
518.209	17438
518.280	47974
518.350	148432
518.421	55705
518.492	16177
518.562	15865
518.633	19149
518.703	23933
518.774	49938
518.845	122310
518.915	115783
518.986	34750
519.056	17491
519.127	15613
519.197	18365
519.268	35329
519.338	24835
519.408	11504
519.479	9534
519.549	7593
519.620	10073
519.690	7995
519.760	9048
519.831	7705
519.901	6724
519.971	8550
520.042	7098
520.112	6908
520.182	8741
520.253	8955
520.323	7380
520.393	7638
520.463	11101
520.534	6401
520.604	12846
520.674	9091
520.744	7878
520.814	11663
520.885	11925
520.955	15766
521.025	40276
521.095	17053
521.165	8228
521.235	8132
521.305	6378
521.375	7447
521.445	9246
521.515	6827
521.585	8470
521.655	5393
521.725	7634
521.795	7886
521.865	5015
521.935	9922
522.005	7085
522.075	6812
522.145	7615
522.215	6775
522.285	9010
522.355	9264
522.424	12147
522.494	10295
522.564	7704
522.634	8811
522.704	15081
522.774	7935
522.843	7616
522.913	7018
522.983	7077
523.053	6146
523.122	7400
523.192	5898
523.262	8230
523.331	7497
523.401	7613
523.471	5889
523.540	7084
523.610	5444
523.680	7292
523.749	6459
523.819	8327
523.888	7414
523.958	6911
524.027	7426
524.097	7197
524.166	7331
524.236	5753
524.305	7932
524.375	5468
524.444	5638
524.514	7885
524.583	6783
524.653	6201
524.722	8242
524.791	5897
524.861	7932
524.930	5074
524.999	6552
525.069	7758
525.138	6432
525.207	6802
525.277	8670
525.346	6962
525.415	8303
525.484	8011
525.554	7944
525.623	10146
525.692	12265
525.761	11370
525.830	13492
525.900	16458
525.969	24578
526.038	43124
526.107	86960
526.176	239152
526.245	183074
526.314	55521
526.383	120682
526.452	161537
526.522	238906
526.591	211657
526.660	36597
526.729	21745
526.797	25743
526.867	38649
526.935	121092
527.004	366504
527.073	219063
527.142	28238
527.211	14465
527.280	12357
527.349	9497
527.418	6656
527.487	8573
527.555	7037
527.624	6785
527.693	5191
527.762	8157
527.831	5460
527.899	7833
527.968	6046
528.037	4768
528.106	6722
528.174	6253
528.243	7194
528.312	7915
528.380	7453
528.449	5648
528.518	7828
528.586	4469
528.655	7721
528.723	6132
528.792	5771
528.861	5340
528.929	5912
528.998	9115
529.066	10173
529.135	16476
529.203	15065
529.272	20041
529.340	25738
529.409	23079
529.477	19996
529.545	20515
529.614	23958
529.682	25880
529.751	28273
529.819	32740
529.887	35361
529.956	32193
530.024	30042
530.092	27481
530.161	28474
530.229	28603
530.297	30935
530.365	30684
530.434	32407
530.502	33511
530.570	28842
530.638	25971
530.707	24233
530.775	25669
530.843	24699
530.911	28191
530.979	27122
531.047	30252
531.115	30422
531.183	26897
531.252	25983
531.320	25713
531.388	24980
531.456	29321
531.524	28281
531.592	32487
531.660	36662
531.728	32204
531.796	29417
531.864	31105
531.932	30109
532.000	30443
532.067	31897
532.135	35553
532.203	36815
532.271	37568
532.339	37959
532.407	38139
532.475	35232
532.542	33850
532.610	35058
532.678	34674
532.746	43080
532.814	53556
532.881	40772
532.949	35511
533.017	33503
533.084	33072
533.152	30350
533.220	30382
533.287	31451
533.355	32610
533.423	33470
533.490	34643
533.558	31715
533.625	31023
533.693	28985
533.761	29126
533.828	29277
533.896	28683
533.963	33173
534.031	33264
534.098	35744
534.166	31541
534.233	30207
534.300	31157
534.368	30135
534.435	27344
534.503	27280
534.570	28963
534.637	29126
534.705	30898
534.772	33548
534.840	42907
534.907	121041
534.974	139269
535.041	33556
535.109	24846
535.176	23485
535.243	24874
535.310	23719
535.378	24103
535.445	22676
535.512	21402
535.579	21310
535.646	19841
535.714	20660
535.781	23204
535.848	22901
535.915	23880
535.982	24040
536.049	23813
536.116	22533
536.183	19799
536.250	18896
536.317	18292
536.384	18130
536.451	18484
536.518	19058
536.585	17956
536.652	21203
536.719	20145
536.786	16572
536.853	16201
536.920	17987
536.987	17524
537.053	16260
537.120	26634
537.187	24503
537.254	16889
537.321	16881
537.388	18141
537.454	15529
537.521	15757
537.588	14502
537.654	16500
537.721	17608
537.788	17676
537.855	15370
537.921	16739
537.988	15895
538.055	15641
538.121	13578
538.188	14728
538.254	13833
538.321	14411
538.388	13865
538.454	15409
538.521	15628
538.587	15114
538.654	14580
538.720	13966
538.787	14546
538.853	14907
538.920	14375
538.986	13247
539.053	13444
539.119	13154
539.185	12964
539.252	16007
539.318	14177
539.385	16348
539.451	14804
539.517	15272
539.583	14736
539.650	15512
539.716	18395
539.782	13326
539.849	12580
539.915	13823
539.981	12064
540.047	13126
540.114	13462
540.180	14877
540.246	11801
540.312	14024
540.378	13786
540.444	14844
540.510	16076
540.576	19500
540.643	13464
540.709	11744
540.775	11820
540.841	12127
540.907	12852
540.973	15428
541.039	13825
541.105	13127
541.171	13574
541.237	12745
541.303	13807
541.369	14845
541.435	13413
541.500	14199
541.566	11688
541.632	12024
541.698	11688
541.764	13651
541.830	11800
541.896	11788
541.961	12777
542.027	11789
542.093	12199
542.159	13521
542.224	12793
542.290	14184
542.356	12627
542.421	12735
542.487	13333
542.553	11748
542.618	12367
542.684	11567
542.750	11051
542.815	13492
542.881	12457
542.947	18427
543.012	16500
543.078	11328
543.143	11070
543.209	12610
543.274	11871
543.340	12073
543.405	13321
543.471	13520
543.536	12142
543.602	12439
543.667	11765
543.732	12804
543.798	11149
543.863	13685
543.928	11804
543.994	11338
544.059	12317
544.124	12405
544.190	12372
544.255	12020
544.320	12779
544.386	13155
544.451	14489
544.516	13286
544.581	13082
544.646	15733
544.712	19684
544.777	13650
544.842	13812
544.907	14182
544.972	12592
545.037	14421
545.102	14220
545.168	13065
545.233	15217
545.298	15687
545.363	14413
545.428	15788
545.493	16539
545.558	17934
545.623	15755
545.688	14538
545.753	16043
545.818	16000
545.883	18164
545.947	17294
546.012	18020
546.077	17845
546.142	20235
546.207	19157
546.272	19644
546.337	20177
546.401	21139
546.466	22036
546.531	22119
546.596	23532
546.661	23319
546.725	25050
546.790	25985
546.855	28346
546.919	29425
546.984	33224
547.049	35316
547.113	40564
547.178	43432
547.243	50116
547.307	57769
547.372	61946
547.436	62405
547.501	66290
547.565	70024
547.630	66878
547.695	61930
547.759	62823
547.823	63881
547.888	64675
547.952	66587
548.017	69420
548.081	72018
548.146	71086
548.210	72348
548.274	77740
548.339	75328
548.403	69698
548.468	64969
548.532	64274
548.596	66217
548.660	67699
548.725	72412
548.789	79839
548.853	77960
548.917	74234
548.982	72171
549.046	66966
549.110	59713
549.174	60888
549.238	71356
549.303	77292
549.367	79531
549.431	75972
549.495	71544
549.559	71424
549.623	82239
549.687	90003
549.751	87107
549.815	104655
549.879	106272
549.943	101941
550.007	104422
550.071	104881
550.135	96563
550.199	90987
550.263	91428
550.327	86583
550.391	90995
550.455	98509
550.519	102728
550.582	107754
550.646	122283
550.710	123520
550.774	121380
550.838	124623
550.901	124795
550.965	132282
551.029	136222
551.093	144022
551.156	151984
551.220	164727
551.284	169868
551.347	145839
551.411	135810
551.475	134324
551.538	135179
551.602	128534
551.666	121586
551.729	116293
551.793	113619
551.856	112728
551.920	110948
551.983	111408
552.047	109847
552.110	110733
552.174	112095
552.237	114299
552.301	107828
552.364	103815
552.428	100670
552.491	102716
552.554	105647
552.618	105408
552.681	107325
552.745	102434
552.808	107246
552.871	110749
552.934	108757
552.998	105135
553.061	104397
553.124	100887
553.187	101660
553.251	104285
553.314	105658
553.377	108070
553.440	119160
553.503	144946
553.567	162082
553.630	119223
553.693	116474
553.756	117089
553.819	116320
553.882	113893
553.945	114113
554.008	114257
554.071	115298
554.134	117082
554.197	111883
554.260	111291
554.323	111968
554.386	112926
554.449	116201
554.512	115469
554.575	110228
554.638	110419
554.701	109872
554.764	110091
554.827	104908
554.889	101995
554.952	97745
555.015	94946
555.078	96723
555.141	96934
555.203	96170
555.266	94852
555.329	96087
555.391	91064
555.454	90726
555.517	86068
555.580	82547
555.642	78766
555.705	79247
555.768	78884
555.830	75153
555.893	73094
555.955	71973
556.018	69135
556.080	70806
556.143	72414
556.206	70854
556.268	68394
556.330	66805
556.393	65787
556.455	63123
556.518	62616
556.580	60919
556.643	58084
556.705	56002
556.767	54285
556.830	56515
556.892	52876
556.955	52578
557.017	51887
557.079	51546
557.142	50510
557.204	48066
557.266	48838
557.328	47266
557.391	43461
557.453	41989
557.515	42574
557.577	42370
557.639	43163
557.701	40496
557.764	39700
557.826	39956
557.888	42760
557.950	42197
558.012	42720
558.074	52819
558.136	89881
558.198	180990
558.260	76541
558.322	40672
558.384	41427
558.446	42289
558.508	43171
558.570	47360
558.632	52317
558.694	64049
558.756	98728
558.818	240978
558.880	474969
558.942	196784
559.003	185949
559.065	96915
559.127	46093
559.189	44276
559.251	49341
559.312	65640
559.374	134481
559.436	357128
559.498	183759
559.559	48649
559.621	43159
559.683	49758
559.744	74648
559.806	196543
559.868	270866
559.929	69022
559.991	47507
560.052	69057
560.114	169467
560.176	112342
560.237	102827
560.299	153057
560.360	41238
560.422	23155
560.483	22290
560.545	20566
560.606	20553
560.667	19482
560.729	18110
560.790	18872
560.852	19020
560.913	17381
560.974	17030
561.036	18006
561.097	17774
561.158	17567
561.220	17781
561.281	15205
561.342	17111
561.403	17208
561.465	16904
561.526	18160
561.587	18293
561.648	14839
561.709	15371
561.771	15917
561.832	15406
561.893	15147
561.954	15065
562.015	15029
562.076	14197
562.137	14090
562.198	13653
562.259	14338
562.320	14417
562.381	14841
562.442	15244
562.503	14698
562.564	13710
562.625	14464
562.686	13759
562.747	12722
562.808	13662
562.869	12850
562.930	13000
562.991	14054
563.051	13394
563.112	12883
563.173	13356
563.234	12655
563.294	13209
563.355	12622
563.416	12603
563.477	12198
563.537	12465
563.598	11780
563.659	12178
563.720	12079
563.780	12411
563.841	12120
563.901	12906
563.962	12539
564.023	12960
564.083	11921
564.144	12389
564.204	11460
564.265	10735
564.325	11767
564.386	14089
564.446	13340
564.507	12431
564.567	11178
564.628	11661
564.688	11073
564.749	11457
564.809	12046
564.869	12332
564.930	11934
564.990	12559
565.050	11231
565.111	11960
565.171	11325
565.231	11228
565.292	11833
565.352	11347
565.412	11504
565.472	10869
565.532	10361
565.593	11657
565.653	10809
565.713	10818
565.773	12268
565.833	11089
565.893	11988
565.953	11496
566.013	10219
566.074	10018
566.134	11812
566.194	12442
566.254	12130
566.314	11606
566.374	10496
566.434	10649
566.494	10357
566.554	10654
566.614	10868
566.673	11215
566.733	12167
566.793	11189
566.853	11067
566.913	12044
566.973	11213
567.033	12016
567.092	11232
567.152	11583
567.212	10667
567.272	11541
567.331	11835
567.391	10769
567.451	11387
567.511	12330
567.570	11975
567.630	11727
567.690	11441
567.749	11274
567.809	10876
567.868	11529
567.928	11738
567.988	11155
568.047	11856
568.107	10470
568.166	11879
568.226	10740
568.285	12389
568.345	11500
568.404	11117
568.464	11589
568.523	10936
568.582	11530
568.642	10785
568.701	11447
568.761	11755
568.820	12614
568.879	12299
568.939	12935
568.998	11394
569.057	11006
569.116	10744
569.176	10919
569.235	10607
569.294	11080
569.353	11192
569.413	11357
569.472	9863
569.531	9873
569.590	9500
569.649	10590
569.708	10216
569.767	10231
569.827	10209
569.886	10610
569.945	10745
570.004	10104
570.063	10670
570.122	10514
570.181	11343
570.240	10719
570.299	11663
570.358	10572
570.417	10702
570.475	10876
570.534	10472
570.593	11125
570.652	11276
570.711	11333
570.770	10342
570.829	9862
570.887	10528
570.946	9964
571.005	9812
571.064	10834
571.122	10704
571.181	10575
571.240	10553
571.299	10636
571.357	10201
571.416	10168
571.475	10902
571.533	11044
571.592	10168
571.650	11008
571.709	10954
571.768	11316
571.826	11931
571.885	11176
571.943	10821
572.002	10266
572.060	9788
572.119	10487
572.177	10182
572.236	10929
572.294	9907
572.352	11919
572.411	11087
572.469	10426
572.528	10116
572.586	10411
572.644	9401
572.703	10782
572.761	10329
572.819	10336
572.877	9711
572.936	9337
572.994	9633
573.052	9791
573.110	8644
573.169	10063
573.227	10296
573.285	10622
573.343	9763
573.401	9595
573.459	8885
573.517	9076
573.576	9943
573.634	9948
573.692	9653
573.750	9300
573.808	8652
573.866	9113
573.924	9312
573.982	9385
574.040	9173
574.098	9806
574.155	8718
574.213	8207
574.271	9600
574.329	8859
574.387	7906
574.445	8685
574.503	7574
574.560	8177
574.618	7833
574.676	7882
574.734	8440
574.792	8406
574.849	7831
574.907	7440
574.965	6770
575.022	7850
575.080	7577
575.138	7495
575.195	8827
575.253	6956
575.311	7253
575.368	7437
575.426	6584
575.483	9351
575.541	8047
575.598	7850
575.656	6580
575.713	6858
575.771	7850
575.828	7438
575.886	6853
575.943	8003
576.001	6830
576.058	7526
576.115	7482
576.173	7853
576.230	7579
576.287	7716
576.345	7500
576.402	7680
576.459	7146
576.517	7628
576.574	6969
576.631	6427
576.688	7543
576.746	6971
576.803	6535
576.860	7115
576.917	8006
576.974	7470
577.031	7487
577.089	7253
577.146	6570
577.203	6760
577.260	6865
577.317	6944
577.374	7684
577.431	6940
577.488	7254
577.545	6427
577.602	7462
577.659	7764
577.716	7179
577.773	8305
577.830	6688
577.886	7222
577.943	6796
578.000	7629
578.057	7475
578.114	7707
578.171	9384
578.227	11942
578.284	10303
578.341	8930
578.398	7235
578.454	8106
578.511	7557
578.568	8491
578.625	7269
578.681	7122
578.738	7883
578.794	6784
578.851	6849
578.908	7865
578.964	7087
579.021	7848
579.077	7943
579.134	7482
579.190	7518
579.247	6364
579.303	7376
579.360	7224
579.416	6898
579.473	7652
579.529	6531
579.586	7477
579.642	7268
579.698	7568
579.755	7630
579.811	7633
579.867	8166
579.924	8194
579.980	8765
580.036	10262
580.093	11990
580.149	15811
580.205	17188
580.261	12140
580.317	10243
580.374	9870
580.430	9937
580.486	8666
580.542	9479
580.598	9581
580.619	9448
580.654	9229
580.692	8795
580.710	8598
580.765	9331
580.767	9365
580.823	9717
580.838	9537
580.879	9088
580.911	9365
580.935	9588
580.984	9289
580.991	9266
581.047	10198
581.057	10108
581.103	9757
581.130	9906
581.159	10056
581.203	11208
581.215	11542
581.270	10715
581.276	10637
581.326	9904
581.349	10129
581.382	10484
581.422	9850
581.438	9626
581.494	9942
581.494	9932
581.550	9860
581.567	10044
581.606	10462
581.640	10040
581.661	9773
581.713	10575
581.717	10651
581.773	10776
581.786	10828
581.829	11019
581.859	10923
581.885	10858
581.932	11154
581.940	11217
581.996	10925
582.004	11034
582.052	11655
582.077	11081
582.107	10415
582.150	11480
582.163	11812
582.219	10515
582.223	10522
582.274	10658
582.296	10880
582.330	11268
582.368	11413
582.386	11539
582.441	11822
582.441	11826
582.497	11330
582.514	11464
582.552	11925
582.587	12381
582.608	12588
582.659	11665
582.663	11606
582.719	12708
582.732	12600
582.774	12297
582.805	12541
582.830	12720
582.877	13667
582.885	13834
582.941	14654
582.950	14955
582.996	16608
583.023	17698
583.052	18861
583.095	19824
583.107	20111
583.162	19901
583.168	19863
583.218	18968
583.240	17591
583.273	15802
583.313	14867
583.328	14488
583.384	13372
583.385	13356
583.439	12825
583.458	12432
583.494	11958
583.531	12204
583.549	12199
583.603	11963
583.605	11960
583.660	11215
583.676	11387
583.715	11844
583.748	11633
583.770	11473
583.820	11627
583.825	11614
583.881	11879
583.893	11644
583.936	11197
583.965	11428
583.991	11587
584.038	12046
584.046	12072
584.101	11664
584.110	11665
584.156	11782
584.183	11769
584.211	11822
584.255	11823
584.266	11821
584.321	12191
584.328	12282
584.376	12878
584.400	12570
584.431	12098
584.472	12677
584.486	12885
584.541	13165
584.545	13104
584.596	12143
584.617	12577
584.651	13421
584.689	13885
584.706	13944
584.761	13787
584.762	13790
584.816	13444
584.834	13513
584.871	13926
584.906	14395
584.926	14509
584.978	14597
584.980	14602
585.035	15005
585.051	14910
585.090	14512
585.123	15315
585.145	15961
585.195	16070
585.200	16074
585.254	17655
585.267	17966
585.309	19358
585.340	20726
585.364	21757
585.412	22950
585.419	23066
585.473	28185
585.484	29053
585.528	34881
585.556	42502
585.583	54727
585.628	83232
585.637	93280
585.692	183413
585.700	199769
585.747	265013
585.772	227541
585.801	146561
585.845	57874
585.856	45625
585.910	27012
585.917	25173
585.965	20419
585.989	19185
586.019	18417
586.061	17511
586.074	17176
586.128	16328
586.133	16266
586.183	15925
586.205	15549
586.237	14857
586.277	14604
586.292	14529
586.346	14400
586.349	14373
586.401	13601
586.421	13589
586.455	13743
586.493	13706
586.509	13773
586.564	14135
586.565	14187
586.618	16977
586.637	17456
586.672	17028
586.709	15905
586.727	15661
586.781	16737
586.781	16724
586.835	13633
586.853	13172
586.889	12788
586.925	11558
586.944	11147
586.996	11982
586.998	11984
587.052	11696
587.068	11514
587.106	11451
587.140	11797
587.161	11887
587.212	11790
587.215	11776
587.269	11782
587.284	11850
587.323	11876
587.356	11762
587.377	11730
587.427	12169
587.431	12203
587.485	12355
587.499	12428
587.539	12423
587.571	12535
587.593	12763
587.643	13348
587.648	13387
587.702	13634
587.715	13681
587.755	13432
587.786	13460
587.810	13282
587.858	12871
587.864	12966
587.917	13954
587.930	14216
587.971	14073
588.001	14047
588.025	14119
588.073	14053
588.079	14070
588.133	14404
588.145	14552
588.187	15469
588.217	16143
588.241	16295
588.288	16796
588.295	16885
588.348	17523
588.360	17650
588.402	18467
588.431	19497
588.456	20285
588.503	21587
588.510	21841
588.564	24621
588.575	25298
588.617	27709
588.646	29600
588.671	31660
588.718	36873
588.725	38066
588.778	50375
588.789	53852
588.832	83480
588.861	108443
588.886	151471
588.932	246576
588.939	255819
588.993	309623
589.004	308398
589.047	186488
589.075	110515
589.100	80316
589.147	43369
589.154	41646
589.207	33612
589.218	32364
589.261	32026
589.290	32407
589.314	33278
589.361	37191
589.368	38951
589.421	55566
589.433	60300
589.475	102836
589.504	138318
589.528	181178
589.576	267251
589.582	260875
589.635	151815
589.647	129110
589.689	67096
589.718	33742
589.742	28962
589.790	21857
589.795	21512
589.849	19331
589.861	19019
589.902	18853
589.932	18467
589.955	17392
590.004	15140
590.009	15001
590.062	14409
590.075	14191
590.115	13828
590.146	13655
590.168	13724
590.218	13910
590.222	13876
590.275	13980
590.289	13957
590.328	14043
590.360	14032
590.381	13825
590.431	13610
590.435	13615
590.488	13975
590.503	14088
590.541	13574
590.574	13209
590.594	13433
590.645	14101
590.647	14105
590.700	14518
590.716	14735
590.753	14939
590.787	15149
590.806	14975
590.859	14519
590.859	14510
590.912	15286
590.930	15625
590.965	15678
591.001	15645
591.018	15374
591.071	14660
591.072	14675
591.124	14691
591.143	14806
591.177	15047
591.214	15265
591.230	15482
591.283	16369
591.285	16417
591.336	15335
591.356	14954
591.389	15426
591.427	16017
591.442	15942
591.495	15796
591.498	15801
591.547	15569
591.569	15534
591.600	15365
591.640	15011
591.653	15088
591.706	15746
591.711	15837
591.759	16181
591.782	16392
591.811	16528
591.853	16724
591.864	16762
591.917	17166
591.924	17224
591.969	16950
591.995	16914
592.022	16736
592.066	16521
592.075	16680
592.127	17800
592.137	18036
592.180	18585
592.208	19008
592.233	18251
592.279	16855
592.285	16920
592.338	17831
592.350	18064
592.390	17364
592.421	16917
592.443	17287
592.491	18218
592.495	18181
592.548	18149
592.562	18179
592.600	18285
592.633	18449
592.653	18282
592.704	17855
592.705	17970
592.775	18732
592.846	18908
592.916	19001
592.987	19466
593.058	18958
593.128	18756
593.199	19939
593.270	19653
593.341	20399
593.411	20915
593.482	20841
593.553	22570
593.623	22069
593.694	22383
593.764	22988
593.835	22404
593.906	22465
593.976	23372
594.047	24134
594.117	27061
594.188	27274
594.258	25958
594.329	25471
594.399	26006
594.470	27314
594.540	26977
594.611	27666
594.681	27664
594.751	28727
594.822	29506
594.892	29521
594.963	31079
595.033	31902
595.103	32408
595.174	33388
595.244	34803
595.314	37226
595.384	35456
595.455	35278
595.525	37077
595.595	38026
595.665	38487
595.736	38326
595.806	37907
595.876	39616
595.946	39183
596.016	40072
596.087	42463
596.157	41988
596.227	41767
596.297	43756
596.367	46433
596.437	49807
596.507	51173
596.577	50656
596.647	51590
596.717	52857
596.787	53756
596.857	54692
596.927	54569
596.997	55601
597.067	56488
597.137	57406
597.207	58564
597.277	58215
597.347	55638
597.417	54367
597.487	54092
597.557	56345
597.626	57754
597.696	57585
597.766	58416
597.836	57117
597.906	53090
597.975	53170
598.045	53670
598.115	54973
598.185	59538
598.254	64004
598.324	71119
598.394	70294
598.464	69001
598.533	67801
598.603	64293
598.672	63559
598.742	64964
598.812	65003
598.881	66787
598.951	66677
599.020	68796
599.090	70285
599.159	72706
599.229	70295
599.299	69314
599.368	71461
599.437	69380
599.507	66990
599.576	65274
599.646	65579
599.715	65873
599.785	64698
599.854	63727
599.924	64868
599.993	63788
600.062	65044
600.132	67066
600.201	71358
600.270	79970
600.340	84338
600.409	82267
600.478	82889
600.547	83742
600.617	79316
600.686	70330
600.755	64725
600.824	65212
600.894	62955
600.963	64222
601.032	65406
601.101	65608
601.170	64805
601.239	63540
601.308	65962
601.378	66111
601.447	65995
601.516	68215
601.585	71041
601.654	71229
601.723	72034
601.792	73801
601.861	77306
601.930	82280
601.999	83869
602.068	81635
602.137	82861
602.206	83982
602.275	84809
602.343	83651
602.412	86845
602.481	86514
602.550	87904
602.619	89226
602.688	86955
602.756	89111
602.825	89478
602.894	91739
602.963	91763
603.032	93444
603.100	93724
603.169	91883
603.238	95807
603.307	92335
603.375	94023
603.444	97883
603.513	92346
603.581	92728
603.650	98481
603.719	86810
603.787	83926
603.856	85431
603.924	87493
603.993	91476
604.061	92003
604.130	95782
604.198	98343
604.267	98212
604.335	100752
604.404	101787
604.472	105176
604.541	105957
604.609	107533
604.678	109345
604.746	112299
604.815	115572
604.883	112710
604.951	111201
605.020	114053
605.088	109072
605.156	107500
605.225	107495
605.293	106862
605.361	107191
605.429	105463
605.498	109727
605.566	109532
605.634	114084
605.702	115621
605.771	118268
605.839	123232
605.907	115393
605.975	116090
606.043	110348
606.111	109620
606.180	114568
606.248	108670
606.316	107286
606.384	112809
606.452	100109
606.520	91283
606.588	93595
606.656	93315
606.724	91857
606.792	86822
606.860	80112
606.928	72392
606.996	70194
607.064	69217
607.132	71208
607.200	74126
607.267	77507
607.335	77760
607.403	80475
607.471	78210
607.539	74815
607.607	76629
607.674	67745
607.742	67526
607.810	67331
607.878	67075
607.946	66754
608.013	71293
608.081	71705
608.149	72890
608.216	73615
608.284	77291
608.352	76350
608.419	74867
608.487	75643
608.555	73309
608.622	75249
608.690	78982
608.757	85517
608.825	87062
608.893	85726
608.960	79963
609.028	76540
609.095	78956
609.163	76868
609.230	69585
609.298	64047
609.365	66428
609.432	72267
609.500	78098
609.567	88371
609.635	101104
609.702	105969
609.769	102208
609.837	80507
609.904	69584
609.971	70609
610.039	79685
610.106	101183
610.173	181391
610.241	388245
610.308	260791
610.375	111523
610.442	79354
610.509	72783
610.577	73550
610.644	72792
610.711	73903
610.778	75996
610.845	79262
610.912	84019
610.980	89319
611.047	91582
611.114	87865
611.181	83982
611.248	82785
611.315	87904
611.382	89431
611.449	93588
611.516	96228
611.583	94450
611.650	94884
611.717	94811
611.784	98414
611.851	101667
611.918	106743
611.984	121617
612.051	167025
612.118	297369
612.185	643640
612.252	448691
612.319	154330
612.386	125605
612.452	113947
612.519	108447
612.586	107402
612.653	107026
612.719	111393
612.786	106220
612.853	99585
612.919	97238
612.986	99054
613.053	91622
613.120	87530
613.186	83720
613.253	85910
613.319	85354
613.386	84548
613.453	87080
613.519	89032
613.586	86491
613.652	86753
613.719	86979
613.785	87621
613.852	88922
613.918	88508
613.985	90894
614.051	95269
614.118	102910
614.184	101508
614.250	89275
614.317	90523
614.383	88504
614.449	88810
614.516	90304
614.582	89236
614.648	88261
614.715	88450
614.781	86497
614.847	86482
614.914	85805
614.980	82388
615.046	84236
615.112	85695
615.179	86344
615.245	87312
615.311	86538
615.377	88601
615.443	88536
615.509	89101
615.575	93265
615.642	91430
615.708	94113
615.774	98331
615.840	102981
615.906	109241
615.972	129728
616.038	181858
616.104	347642
616.170	715274
616.236	638274
616.302	214857
616.368	160412
616.434	120625
616.500	110235
616.565	121100
616.631	146293
616.697	124494
616.763	125584
616.829	178945
616.895	305165
616.961	295099
617.026	138193
617.092	99888
617.158	94235
617.224	92310
617.289	85252
617.355	80628
617.421	80162
617.487	80875
617.552	77316
617.618	75666
617.684	75497
617.749	79345
617.815	74511
617.880	72983
617.946	72825
618.012	73300
618.077	74843
618.143	71367
618.208	72835
618.274	76946
618.339	78140
618.405	67021
618.470	66939
618.536	67507
618.601	65243
618.667	62607
618.732	58805
618.798	58907
618.863	58795
618.928	58077
618.994	58511
619.059	58348
619.124	59373
619.190	58235
619.255	56588
619.320	58130
619.386	58593
619.451	56395
619.516	56057
619.581	57202
619.647	58066
619.712	58597
619.777	56100
619.842	57216
619.907	58434
619.972	58293
620.038	57493
620.103	57292
620.168	56329
620.233	58954
620.298	57575
620.363	57644
620.428	59751
620.493	62195
620.558	62279
620.623	63166
620.688	62255
620.753	61825
620.818	62863
620.883	63501
620.948	63434
621.013	62677
621.078	61734
621.143	62054
621.207	64505
621.272	62890
621.337	60920
621.402	61025
621.467	61198
621.532	61180
621.596	61171
621.661	59831
621.726	58022
621.791	59627
621.855	59816
621.920	58796
621.985	59822
622.049	60925
622.114	61485
622.179	62038
622.243	63316
622.308	62660
622.373	68126
622.437	64620
622.502	61036
622.566	61360
622.631	60579
622.695	63288
622.760	61697
622.824	62300
622.889	63409
622.953	61692
623.018	66745
623.082	65071
623.147	65327
623.211	63226
623.276	63438
623.340	60788
623.404	60006
623.469	59473
623.533	61324
623.597	59722
623.662	59702
623.726	56381
623.790	52699
623.854	51476
623.919	52359
623.983	53410
624.047	54004
624.111	53522
624.176	54588
624.240	54519
624.304	56474
624.368	52821
624.432	54728
624.496	54364
624.560	58104
624.625	56991
624.689	56218
624.753	60625
624.817	57115
624.881	54109
624.945	51939
625.009	49660
625.073	51590
625.137	51653
625.201	54072
625.265	53020
625.329	52375
625.393	52187
625.456	51909
625.520	53681
625.584	54413
625.648	55337
625.712	58969
625.776	65793
625.839	66106
625.903	48688
625.967	43718
626.031	49731
626.095	57979
626.158	50143
626.222	38477
626.286	38267
626.349	36479
626.413	34159
626.477	34274
626.540	35186
626.604	33613
626.668	33834
626.731	33225
626.795	31611
626.858	33092
626.922	31620
626.986	31231
627.049	30280
627.113	31953
627.176	32632
627.240	30796
627.303	30437
627.366	29628
627.430	30749
627.493	29304
627.557	28999
627.620	31419
627.684	31472
627.747	31597
627.810	28082
627.874	26392
627.937	25129
628.000	27833
628.064	24696
628.127	21930
628.190	22692
628.253	23547
628.317	21123
628.380	20995
628.443	20958
628.506	20246
628.569	19535
628.632	17907
628.696	18690
628.759	18357
628.822	17201
628.885	16536
628.948	17897
629.011	16843
629.074	16018
629.137	14773
629.200	14803
629.263	16685
629.326	14852
629.389	14922
629.452	14978
629.515	14194
629.578	14819
629.641	15462
629.704	14973
629.767	14810
629.830	14287
629.892	13658
629.955	13854
630.018	15270
630.081	13942
630.144	13659
630.207	13310
630.269	15357
630.332	13364
630.395	12959
630.458	13556
630.520	11749
630.583	14214
630.646	13022
630.708	12561
630.771	12302
630.834	13947
630.896	12179
630.959	13311
631.021	12393
631.084	12311
631.146	13042
631.209	14369
631.272	12596
631.334	13728
631.397	12962
631.459	13318
631.522	13822
631.584	12730
631.646	14898
631.709	16047
631.771	15580
631.834	15349
631.896	14284
631.958	13659
632.021	13737
632.083	12136
632.145	13163
632.208	11771
632.270	12961
632.332	11945
632.395	11403
632.457	12622
632.519	11534
632.581	13396
632.643	10532
632.706	11690
632.768	10708
632.830	13136
632.892	12329
632.954	12154
633.016	12813
633.078	12207
633.141	12641
633.203	11771
633.265	12798
633.327	11339
633.389	12001
633.451	13096
633.513	11617
633.575	12852
633.637	12188
633.698	10678
633.760	13115
633.822	13455
633.884	13652
633.946	14081
634.008	12931
634.070	15520
634.132	16635
634.193	16196
634.255	18626
634.317	16962
634.379	18384
634.441	15846
634.502	14408
634.564	14140
634.626	12484
634.687	11804
634.749	12061
634.811	11520
634.873	11285
634.934	11223
634.996	12045
635.057	11701
635.119	10820
635.181	11821
635.242	12803
635.304	10668
635.365	13935
635.427	12228
635.488	11627
635.550	11145
635.611	11929
635.673	10087
635.734	14365
635.796	13526
635.857	15705
635.918	14606
635.980	16787
636.041	16244
636.102	19034
636.164	19106
636.225	18812
636.286	15104
636.348	13874
636.409	12750
636.470	11678
636.531	12122
636.593	11331
636.654	11230
636.715	11103
636.776	10373
636.838	9884
636.899	11940
636.960	10536
637.021	9602
637.082	9783
637.143	9321
637.204	8173
637.265	8925
637.326	10222
637.387	10283
637.448	8275
637.509	10005
637.570	9339
637.631	10676
637.692	8141
637.753	9052
637.814	9965
637.875	9362
637.936	9728
637.997	9108
638.058	8656
638.119	9878
638.179	8993
638.240	9275
638.301	9364
638.362	8710
638.423	8004
638.483	9305
638.544	7532
638.605	9372
638.666	7600
638.726	9098
638.787	9543
638.848	8707
638.908	9225
638.969	7627
639.030	8271
639.090	7291
639.151	7918
639.211	8251
639.272	8493
639.332	9375
639.393	8815
639.453	8338
639.514	9822
639.574	8979
639.635	6903
639.695	9283
639.756	6626
639.816	8695
639.877	7489
639.937	8992
639.997	8732
640.058	7332
640.118	6910
640.178	8591
640.239	7796
640.299	7502
640.359	8263
640.420	7402
640.480	9262
640.540	10474
640.600	10443
640.661	10095
640.721	8445
640.781	11375
640.841	9204
640.901	9332
640.961	7694
641.021	8601
641.082	8222
641.142	7904
641.202	9171
641.262	6612
641.322	7950
641.382	7059
641.442	7543
641.502	7615
641.562	8255
641.622	7148
641.682	7679
641.742	9216
641.802	8675
641.861	8887
641.921	7424
641.981	7403
642.041	6968
642.101	6780
642.161	5232
642.221	7109
642.280	6430
642.340	6983
642.400	6305
642.460	7440
642.519	6497
642.579	7114
642.639	7831
642.698	5090
642.758	8470
642.818	7327
642.877	6665
642.937	7601
642.997	7425
643.056	7613
643.116	5840
643.175	9348
643.235	7337
643.294	7588
643.354	8306
643.414	9160
643.473	10222
643.532	11835
643.592	15545
643.651	25341
643.711	44213
643.770	85300
643.830	198679
643.889	407219
643.948	115446
644.008	23335
644.067	14279
644.126	10458
644.186	9744
644.245	8483
644.304	6541
644.363	9266
644.423	6278
644.482	7373
644.541	7725
644.600	6824
644.659	10295
644.719	11385
644.778	18319
644.837	31293
644.896	63954
644.955	147201
645.014	52169
645.073	13125
645.132	9081
645.191	8552
645.250	7509
645.309	9628
645.368	9273
645.427	12198
645.486	19176
645.545	35218
645.604	11208
645.663	8220
645.722	7266
645.781	8172
645.840	8876
645.898	10886
645.957	15191
646.016	23220
646.075	43240
646.134	80948
646.192	209768
646.251	315512
646.310	55353
646.369	16659
646.427	13985
646.486	9007
646.545	8737
646.603	6575
646.662	7658
646.721	7227
646.779	6197
646.838	6391
646.896	8943
646.955	11824
647.014	19765
647.072	35298
647.131	97495
647.189	49478
647.248	7854
647.306	7316
647.365	6703
647.423	3843
647.481	6699
647.540	4304
647.598	5160
647.657	4531
647.715	5346
647.773	3550
647.832	5589
647.890	3364
647.948	4364
648.007	5388
648.065	3189
648.123	4049
648.181	5491
648.240	5919
648.298	4135
648.356	4407
648.414	4564
648.472	4257
648.531	5795
648.589	3689
648.647	3940
648.705	3467
648.763	4560
648.821	4279
648.879	4156
648.937	5120
648.995	5531
649.053	7220
649.111	12659
649.169	18892
649.227	34961
649.285	72629
649.343	206982
649.401	105057
649.459	15552
649.516	9488
649.574	6355
649.632	12170
649.690	15140
649.748	10980
649.806	13313
649.863	27499
649.921	68682
649.979	47296
650.037	7100
650.094	2935
650.152	3652
650.210	2962
650.268	3987
650.325	3336
650.383	4314
650.440	2423
650.498	2592
650.556	3296
650.613	3035
650.671	3932
650.728	3028
650.786	2822
650.843	4391
650.901	1572
650.958	2353
651.016	2545
651.073	2608
651.131	2289
651.188	1411
651.246	2285
651.303	1178
651.360	1961
651.418	1499
651.475	2064
651.532	1271
651.590	2268
651.647	1297
651.704	1800
651.762	1573
651.819	1758
651.876	1155
651.933	1510
651.990	2961
652.048	1147
652.105	1250
652.162	2506
652.219	1514
652.276	1926
652.333	1625
652.390	224
652.448	1663
652.505	1265
652.562	1958
652.619	2730
652.676	3135
652.733	3514
652.790	1725
652.847	409
652.904	1704
652.961	1101
653.017	1034
653.074	2283
653.131	1342
653.188	1165
653.245	1518
653.302	1448
653.359	907
653.415	1473
653.472	558
653.529	960
653.586	1416
653.642	1386
653.699	1598
653.756	162
653.813	1379
653.869	2063
653.926	489
653.983	1480
654.039	1758
654.096	1446
654.152	2237
654.209	-52
654.266	1810
654.322	579
654.379	1936
654.435	2377
654.492	1384
654.548	1750
654.605	1667
654.661	2769
654.717	1233
654.774	1905
654.830	1859
654.887	1832
654.943	1167
655.000	2036
655.056	1238
655.112	1555
655.168	872
655.225	1797
655.281	1898
655.337	1687
655.394	1944
655.450	1662
655.506	1265
655.562	1792
655.618	2933
655.675	849
655.731	1302
655.787	932
655.843	1951
655.899	1743
655.955	3382
656.011	2192
656.067	1190
656.123	2307
656.179	1449
656.235	2658
656.291	469
656.347	3232
656.403	1793
656.459	1307
656.515	1688
656.571	1685
656.627	1558
656.683	1398
656.739	1295
656.795	1118
656.850	862
656.906	1248
656.962	2179
657.018	1293
657.074	1753
657.129	2817
657.185	4575
657.241	10217
657.297	4862
657.352	2127
657.408	942
657.464	2068
657.519	771
657.575	219
657.630	1264
657.686	874
657.742	179
657.797	634
657.853	598
657.908	1228
657.964	765
658.019	902
658.075	961
658.130	1887
658.186	348
658.241	925
658.297	742
658.352	824
658.407	1257
658.463	710
658.518	1480
658.573	1090
658.629	-522
658.684	902
658.739	1269
658.795	-11
658.850	1369
658.905	575
658.960	997
659.016	266
659.071	1239
659.126	1301
659.181	396
659.236	2026
659.291	1856
659.346	824
659.401	1091
659.457	1220
659.512	1346
659.567	1468
659.622	1651
659.677	1302
659.732	459
659.787	907
659.842	683
659.897	898
659.952	844
660.007	491
660.061	488
660.116	678
660.171	649
660.226	1151
660.281	685
660.336	708
660.391	1225
660.445	-203
660.500	1046
660.555	930
660.610	686
660.664	1508
660.719	573
660.774	865
660.828	660
660.883	1310
660.938	1150
660.992	100
661.047	842
661.101	419
661.156	870
661.211	518
661.265	459
661.320	190
661.374	973
661.429	291
661.483	1558
661.538	-77
661.592	599
661.647	520
661.701	621
661.755	1509
661.810	276
661.864	-194
661.919	88
661.973	711
662.027	245
662.081	347
662.136	748
662.190	590
662.244	419
662.299	647
662.353	1521
662.407	-18
662.461	347
662.515	350
662.569	26
662.624	1466
662.678	149
662.732	580
662.786	507
662.840	848
662.894	1013
662.948	822
663.002	473
663.056	851
663.110	-136
663.164	103
663.218	-392
663.272	435
663.326	556
663.380	61
663.434	-243
663.488	903
663.542	664
663.595	279
663.649	163
663.703	755
663.757	973
663.811	131
663.864	-56
663.918	70
663.972	-42
664.026	435
664.079	-238
664.133	435
664.187	736
664.240	794
664.294	535
664.348	990
664.401	404
664.455	1293
664.508	732
664.562	417
664.615	677
664.669	107
664.722	178
664.776	292
664.829	851
664.883	293
664.936	211
664.990	884
665.043	-136
665.097	53
665.150	1708
665.203	253
665.257	655
665.310	329
665.363	314
665.417	638
665.470	489
665.523	832
665.576	895
665.630	1018
665.683	719
665.736	55
665.789	391
665.842	-283
665.895	164
665.949	1185
666.002	829
666.055	429
666.108	988
666.161	507
666.214	1204
666.267	1396
666.320	2175
666.373	587
666.426	571
666.479	809
666.532	848
666.585	745
666.638	871
666.691	668
666.744	1420
666.796	109
666.849	368
666.902	1724
666.955	84
667.008	322
667.060	468
667.113	-112
667.166	71
667.219	369
667.271	210
667.324	588
667.377	540
667.430	-176
667.482	1621
667.535	1069
667.587	1482
667.640	1122
667.693	1060
667.745	254
667.798	799
667.850	384
667.903	1052
667.955	656
668.008	1077
668.060	742
668.113	1240
668.165	980
668.218	1239
668.270	1064
668.322	796
668.375	1085
668.427	979
668.479	379
668.532	1224
668.584	512
668.636	110
668.689	573
668.741	657
668.793	781
668.845	726
668.898	674
668.950	600
669.002	570
669.054	421
669.106	469
669.158	1362
669.211	1234
669.263	551
669.315	1597
669.367	894
669.419	-38
669.471	1517
669.523	1640
669.575	1384
669.627	751
669.679	312
669.731	741
669.783	1358
669.835	1363
669.886	402
669.938	1439
669.990	720
670.042	395
670.094	1864
670.146	1212
670.197	1272
670.249	2537
670.301	1651
670.353	2919
670.404	5625
670.456	6571
670.508	10971
670.560	19303
670.611	33539
670.663	58426
670.715	132945
670.766	205808
670.818	76509
670.869	15095
670.921	6796
670.972	4313
671.024	3758
671.075	3111
671.127	2178
671.178	1441
671.230	644
671.281	1832
671.333	2032
671.384	1717
671.436	2006
671.487	2989
671.538	4279
671.590	7846
671.641	13629
671.692	24214
671.744	47435
671.795	32123
671.846	10623
671.897	4175
671.949	2474
672.000	2038
672.051	1479
672.102	1438
672.153	-14
672.204	521
672.256	1548
672.307	1315
672.358	370
672.409	626
672.460	418
672.511	401
672.562	-21
672.613	125
672.664	203
672.715	-92
672.766	-263
672.817	283
672.868	230
672.919	-300
672.970	306
673.021	742
673.071	-482
673.122	147
673.173	-63
673.224	-202
673.275	-49
673.326	206
673.376	665
673.427	527
673.478	-606
673.528	808
673.579	-234
673.630	-83
673.680	358
673.731	1133
673.782	623
673.832	-189
673.883	151
673.934	-56
673.984	-625
674.035	115
674.085	448
674.136	872
674.186	185
674.237	-141
674.287	-724
674.338	930
674.388	-493
674.438	329
674.489	858
674.539	434
674.589	-411
674.640	165
674.690	-294
674.740	-769
674.791	309
674.841	-1087
674.891	225
674.942	371
674.992	85
675.042	-261
675.092	-287
675.142	958
675.193	-509
675.243	-51
675.293	527
675.343	101
675.393	-331
675.443	-19
675.493	399
675.543	-75
675.593	427
675.643	299
675.693	-115
675.743	-467
675.793	-169
675.843	-820
675.893	39
675.943	311
675.993	-1007
676.043	-260
676.093	361
676.142	-260
676.192	-725
676.242	-85
676.292	-737
676.341	-540
676.391	2
676.441	-92
676.491	-305
676.540	-490
676.590	211
676.640	-620
676.689	-597
676.739	-1028
676.789	55
676.838	-376
676.888	-221
676.937	-883
676.987	-775
677.037	114
677.086	-704
677.136	-675
677.185	-607
677.235	-515
677.284	-222
677.333	-82
677.383	-780
677.432	-365
677.482	-230
677.531	-645
677.580	-576
677.630	-306
677.679	-676
677.728	-431
677.778	-1000
677.827	-801
677.876	164
677.925	31
677.975	-270
678.024	-566
678.073	-532
678.122	-809
678.171	-424
678.220	-426
678.269	-122
678.319	79
678.368	-96
678.417	-303
678.466	400
678.515	-719
678.564	-141
678.613	-91
678.662	-872
678.711	-522
678.760	-20
678.809	361
678.857	75
678.906	-513
678.955	-316
679.004	81
679.053	-186
679.102	-20
679.151	-720
679.199	-755
679.248	-527
679.297	-486
679.346	-636
679.394	-1225
679.443	-703
679.492	-243
679.540	-278
679.589	-363
679.638	-805
679.686	-5
679.735	-490
679.784	-591
679.832	-370
679.881	-621
679.929	-466
679.978	-1337
680.026	-784
680.075	-544
680.123	-704
680.172	-546
680.220	-518
680.268	-503
680.317	-1334
680.365	-824
680.414	-952
680.462	-818
680.510	-8
680.559	249
680.607	-426
680.655	-584
680.703	-965
680.752	-497
680.800	-262
680.848	-358
680.896	-762
680.945	-275
680.993	-1162
681.041	-165
681.089	-588
681.137	-394
681.185	-1030
681.233	-1602
681.258	-962
681.281	-372
681.329	-803
681.377	-1315
681.380	-1212
681.425	363
681.473	-21
681.502	237
681.521	382
681.569	-161
681.617	-402
681.624	-427
681.665	-722
681.713	-522
681.745	-666
681.761	-760
681.809	125
681.857	-143
681.867	-31
681.904	300
681.952	-275
681.989	-233
682.000	-244
682.048	-254
682.096	-156
682.111	-4
682.143	237
682.191	65
682.233	583
682.239	652
682.286	576
682.334	-328
682.354	-22
682.382	333
682.430	437
682.476	507
682.477	494
682.525	-59
682.572	31
682.598	-188
682.620	-386
682.667	-14
682.715	901
682.720	890
682.763	620
682.810	267
682.841	467
682.857	545
682.905	708
682.952	609
682.963	469
683.000	-66
683.047	917
683.085	1124
683.095	1148
683.142	748
683.190	1216
683.206	1131
683.237	993
683.284	989
683.328	962
683.332	942
683.379	472
683.426	631
683.449	744
683.473	864
683.521	856
683.568	970
683.571	1022
683.615	1444
683.662	1377
683.693	844
683.709	543
683.757	929
683.804	1797
683.814	1623
683.851	974
683.898	1085
683.936	380
683.945	206
683.992	1226
684.039	1307
684.057	1281
684.086	1193
684.133	1021
684.179	1572
684.180	1578
684.227	1982
684.274	1483
684.300	1559
684.321	1603
684.368	1025
684.415	1955
684.422	1828
684.462	1077
684.509	1290
684.543	1661
684.556	1746
684.603	1938
684.649	1524
684.665	1409
684.696	1220
684.743	1814
684.786	1929
684.790	1926
684.837	1865
684.883	1849
684.908	1949
684.930	2108
684.977	2324
685.023	2026
685.029	2099
685.070	2363
685.117	2460
685.150	2053
685.164	1921
685.210	2426
685.257	2590
685.272	2656
685.303	2716
685.350	2394
685.393	2475
685.396	2474
685.443	2269
685.490	2598
685.514	2639
685.536	2683
685.583	2597
685.629	2428
685.636	2407
685.675	2267
685.722	2500
685.757	2521
685.768	2493
685.815	2388
685.861	2525
685.878	2293
685.908	2023
685.954	2971
686.000	3025
686.000	3021
686.047	2968
686.093	2781
686.121	3105
686.139	3274
686.185	3020
686.232	3459
686.242	3381
686.278	3077
686.324	3149
686.363	3295
686.370	3328
686.416	3190
686.463	3837
686.484	3704
686.509	3506
686.555	3519
686.601	3815
686.606	3741
686.647	3149
686.693	3792
686.727	2961
686.739	2626
686.785	3182
686.831	3546
686.848	3335
686.877	3067
686.923	3525
686.969	3668
686.969	3667
687.015	3529
687.061	3958
687.090	3793
687.107	3645
687.153	3547
687.199	3863
687.211	3844
687.245	3854
687.291	3400
687.332	3751
687.336	3797
687.382	4166
687.428	4162
687.453	4165
687.474	4059
687.520	4191
687.565	3864
687.574	3918
687.611	4392
687.657	4311
687.695	4634
687.702	4754
687.748	5863
687.794	6435
687.816	6565
687.839	6097
687.885	5444
687.931	4751
687.937	4721
687.976	4913
688.022	4352
688.058	4128
688.067	4097
688.113	4142
688.158	3725
688.179	3829
688.204	4075
688.249	3970
688.295	4407
688.300	4386
688.340	4283
688.386	4767
688.421	4527
688.431	4407
688.477	4675
688.522	4293
688.542	4487
688.567	4864
688.613	4599
688.658	4681
688.663	4693
688.703	4725
688.749	4596
688.784	5050
688.794	5195
688.839	5028
688.884	5256
688.905	5039
688.930	4714
688.975	5138
689.020	4890
689.026	4820
689.065	4618
689.110	5393
689.146	5031
689.155	4900
689.201	5171
689.246	5158
689.267	4948
689.291	4779
689.336	5337
689.381	5179
689.388	5085
689.426	4726
689.471	5279
689.509	5236
689.516	5202
689.561	5101
689.606	4944
689.630	4857
689.651	4848
689.696	4774
689.741	5091
689.750	5078
689.785	5218
689.830	5194
689.871	5374
689.875	5372
689.920	5585
689.965	5189
689.992	5061
690.010	5054
690.054	5320
690.099	5182
690.112	5106
690.144	5017
690.189	5335
690.233	5136
690.233	5144
690.278	5431
690.323	5734
690.354	5325
690.367	5221
690.412	5740
690.457	5457
690.474	5658
690.501	5926
690.546	5947
690.590	5710
690.595	5691
690.635	5818
690.680	5644
690.716	5777
690.724	5890
690.769	6977
690.813	7672
690.836	7774
690.857	8419
690.902	10345
690.946	12183
690.957	12622
690.991	16810
691.035	22988
691.077	28562
691.080	28537
691.124	25632
691.168	22905
691.198	21331
691.213	19730
691.257	15087
691.301	10319
691.318	8688
691.346	8615
691.390	7650
691.434	6605
691.439	6533
691.478	6465
691.522	6562
691.559	6288
691.567	6308
691.611	6190
691.655	6656
691.680	6736
691.699	6792
691.743	6578
691.787	6660
691.800	6632
691.831	6438
691.875	6552
691.919	6641
691.921	6603
691.964	6098
692.008	6719
692.041	6501
692.052	6415
692.096	6286
692.139	6246
692.162	6329
692.183	6443
692.227	6037
692.271	6188
692.282	6177
692.315	6211
692.359	6215
692.402	5959
692.403	5972
692.447	6144
692.490	6038
692.523	6015
692.534	6091
692.578	6289
692.622	6670
692.643	6637
692.666	6417
692.709	6583
692.753	6016
692.763	6035
692.797	6421
692.840	6499
692.884	6513
692.884	6529
692.928	6620
692.971	7091
693.004	6791
693.015	6689
693.059	6660
693.102	6911
693.124	6841
693.146	6880
693.189	7080
693.233	7306
693.245	7268
693.276	7486
693.320	8161
693.363	8690
693.365	8672
693.407	8623
693.450	9289
693.485	9537
693.493	9791
693.537	11060
693.580	11998
693.605	12759
693.624	14546
693.667	18905
693.710	23069
693.725	24584
693.753	32874
693.797	45846
693.840	58964
693.845	60298
693.883	55356
693.926	49579
693.966	44553
693.970	43588
694.013	32650
694.056	22047
694.086	14637
694.099	14044
694.142	11865
694.185	9787
694.206	8844
694.229	8946
694.272	8913
694.315	9097
694.326	9023
694.358	8507
694.401	8257
694.444	7599
694.446	7558
694.487	7776
694.530	7822
694.566	7922
694.573	7863
694.616	7373
694.659	6761
694.686	6435
694.702	6562
694.745	6852
694.787	7008
694.806	7195
694.830	7329
694.873	7036
694.916	7109
694.926	7075
694.959	7168
695.002	7472
695.044	7415
695.046	7402
695.087	7567
695.130	7737
695.166	7782
695.172	7796
695.215	7694
695.258	7790
695.286	7744
695.301	7810
695.343	7891
695.386	8034
695.406	8024
695.428	7909
695.471	7808
695.514	7690
695.526	7592
695.556	8086
695.599	8892
695.641	9752
695.646	9803
695.684	9391
695.726	9098
695.766	8626
695.769	8623
695.811	8224
695.854	7921
695.886	7654
695.896	7706
695.938	7742
695.981	7885
696.005	7934
696.023	8209
696.065	8893
696.108	9409
696.125	9639
696.150	9592
696.192	9467
696.235	9206
696.245	9164
696.277	9467
696.319	9757
696.361	10056
696.365	10058
696.404	10257
696.446	10311
696.485	10397
696.488	10434
696.530	10491
696.572	10639
696.604	10662
696.614	10607
696.656	10231
696.698	9818
696.724	9644
696.740	9745
696.783	9777
696.825	9849
696.844	9888
696.867	9947
696.909	9877
696.951	9840
696.964	9856
696.992	9824
697.034	9501
697.076	9269
697.083	9215
697.118	9606
697.160	9975
697.202	10247
697.203	10227
697.244	10184
697.286	10127
697.323	9964
697.327	9976
697.369	9867
697.411	9812
697.442	9740
697.453	9818
697.494	9847
697.536	10055
697.562	10127
697.578	10137
697.620	10068
697.661	10025
697.682	9936
697.703	10059
697.744	10360
697.786	10632
697.801	10686
697.828	10748
697.869	10796
697.911	10855
697.921	10847
697.952	10894
697.994	10877
698.035	10813
698.040	10784
698.077	10734
698.118	10607
698.160	10416
698.160	10384
698.201	10599
698.243	10827
698.279	11020
698.284	11064
698.325	11127
698.367	11229
698.399	11285
698.408	11398
698.449	11703
698.491	12069
698.518	12262
698.532	12251
698.573	12122
698.614	12000
698.638	11880
698.656	11892
698.697	11868
698.738	11821
698.757	11766
698.779	11892
698.820	12076
698.862	12246
698.877	12282
698.903	12332
698.944	12344
698.985	12353
698.996	12324
699.026	12373
699.067	12391
699.116	12380
699.235	12185
699.354	11344
699.474	11861
699.593	11675
699.713	11768
699.832	12258
699.951	12160
700.070	11475
700.190	10817
700.309	11366
700.428	10167
700.547	10977
700.667	11061
700.786	11086
700.905	10532
701.024	10518
701.143	10349
701.262	10561
701.381	11287
701.500	10863
701.619	11154
701.738	10356
701.857	10447
701.976	9153
702.095	10271
702.214	10069
702.333	10266
702.452	9408
702.571	10899
702.690	10974
702.809	9949
702.928	9369
703.047	9752
703.165	10209
703.284	9739
703.403	9056
703.522	9013
703.640	9568
703.759	10835
703.878	9782
703.997	8729
704.115	8811
704.234	9029
704.353	9610
704.471	8214
704.590	8176
704.708	8317
704.827	8221
704.946	8825
705.064	8296
705.183	8912
705.301	9875
705.420	10633
705.538	9789
705.656	9146
705.775	8917
705.893	15154
706.012	19125
706.130	9306
706.249	8896
706.367	9561
706.485	8462
706.604	8415
706.722	8559
706.840	9879
706.958	15540
707.077	11769
707.195	7664
707.313	8297
707.431	8064
707.549	8229
707.668	7306
707.786	8979
707.904	7603
708.022	7983
708.140	7994
708.258	8221
708.376	8641
708.494	7575
708.612	8594
708.730	10133
708.848	8977
708.966	9156
709.084	8847
709.202	8117
709.320	7983
709.438	8589
709.556	8650
709.674	8210
709.791	8232
709.909	7255
710.027	7312
710.145	8067
710.263	8094
710.380	7577
710.498	7751
710.616	7541
710.733	7476
710.851	8142
710.969	7701
711.086	6875
711.204	7016
711.322	8272
711.439	7487
711.557	7306
711.674	7675
711.792	7080
711.909	6926
712.027	8068
712.144	7964
712.262	7857
712.379	7700
712.497	9345
712.614	8953
712.732	8857
712.849	7078
712.966	8571
713.084	8907
713.201	7185
713.318	8676
713.436	8685
713.553	8703
713.670	9541
713.787	9001
713.905	9035
714.022	8327
714.139	8102
714.256	11214
714.373	15089
714.490	27369
714.608	72563
714.725	298461
714.842	330297
714.959	28889
715.076	13449
715.193	10209
715.310	10255
715.427	8206
715.544	7250
715.661	7991
715.778	7675
715.895	7754
716.011	7584
716.128	7937
716.245	7309
716.362	7127
716.479	7266
716.596	7573
716.713	6843
716.829	6834
716.946	7010
717.063	6560
717.180	6323
717.296	5359
717.413	6218
717.530	5461
717.646	6134
717.763	6629
717.880	6140
717.996	5708
718.113	5729
718.229	5633
718.346	5177
718.462	5217
718.579	5649
718.695	6137
718.812	5835
718.928	6372
719.045	6101
719.161	5593
719.277	6662
719.394	5463
719.510	5963
719.626	7180
719.743	8861
719.859	12634
719.975	24388
720.092	97303
720.208	243997
720.324	31056
720.440	8431
720.557	7123
720.673	7072
720.789	7992
720.905	12135
721.021	7185
721.137	5292
721.253	5719
721.369	4588
721.486	5586
721.602	6192
721.718	4795
721.834	3986
721.950	4529
722.066	4588
722.181	4545
722.297	4754
722.413	4924
722.529	4778
722.645	5275
722.761	4049
722.877	4799
722.993	5260
723.108	6095
723.224	5996
723.340	5326
723.456	4544
723.571	5158
723.687	4154
723.803	3909
723.918	4329
724.034	4885
724.150	4285
724.265	4992
724.381	6252
724.497	6692
724.612	3975
724.728	3478
724.843	4475
724.959	3981
725.074	6001
725.190	6136
725.305	3885
725.421	4248
725.536	3803
725.651	4319
725.767	3779
725.882	4871
725.997	4359
726.113	3753
726.228	3708
726.343	4080
726.459	3951
726.574	3626
726.689	4214
726.804	3304
726.920	4093
727.035	3826
727.150	5113
727.265	4127
727.380	3527
727.495	3993
727.610	3501
727.725	3890
727.841	4860
727.956	7502
728.071	6569
728.186	3389
728.301	3205
728.416	3407
728.531	3634
728.645	3047
728.760	3579
728.875	3508
728.990	3918
729.105	3519
729.220	3222
729.335	3594
729.449	3767
729.564	3157
729.679	3331
729.794	3319
729.908	3305
730.023	4027
730.138	3872
730.253	3946
730.367	3853
730.482	3512
730.596	3285
730.711	4386
730.826	5081
730.940	5785
731.055	4033
731.169	3497
731.284	4230
731.398	5027
731.513	4997
731.627	4735
731.742	6368
731.856	6117
731.970	6224
732.085	8318
732.199	11099
732.313	20253
732.428	52910
732.542	164003
732.656	103711
732.771	18052
732.885	9704
732.999	8029
733.113	7761
733.227	7554
733.342	7099
733.456	6367
733.570	5899
733.684	6505
733.798	6359
733.912	6551
734.026	5606
734.140	5488
734.254	5655
734.368	6447
734.482	7189
734.596	5305
734.710	6086
734.824	5488
734.938	5862
735.052	5363
735.166	5614
735.280	5805
735.393	5759
735.507	5211
735.621	5149
735.735	6719
735.849	6276
735.962	4877
736.076	5335
736.190	5093
736.303	5036
736.417	5393
736.531	4421
736.644	4250
736.758	4072
736.872	5308
736.985	4447
737.099	5503
737.212	4263
737.326	4076
737.439	5053
737.553	4198
737.666	4556
737.780	4772
737.893	4482
738.007	4366
738.120	3928
738.233	5021
738.347	5229
738.460	4801
738.573	4824
738.687	4288
738.800	5141
738.913	4195
739.026	5250
739.140	4359
739.253	4707
739.366	4062
739.479	3669
739.592	3542
739.705	4077
739.818	4208
739.932	3672
740.045	4088
740.158	4090
740.271	3992
740.384	4108
740.497	3645
740.610	4552
740.723	3458
740.836	4361
740.949	4440
741.062	4961
741.174	4400
741.287	4418
741.400	4274
741.513	2822
741.626	4589
741.739	4398
741.851	3723
741.964	4088
742.077	3452
742.189	4277
742.302	4632
742.415	3630
742.527	4176
742.640	4422
742.753	4011
742.865	3536
742.978	3938
743.090	3500
743.203	2981
743.316	3058
743.428	3617
743.541	3223
743.653	2706
743.766	3590
743.878	3704
743.990	2904
744.103	4934
744.215	4998
744.327	2826
744.440	4205
744.552	3557
744.664	3394
744.777	3571
744.889	3266
745.001	3462
745.113	3480
745.226	3300
745.338	3026
745.450	4023
745.562	2885
745.674	2016
745.786	3436
745.898	3428
746.010	3470
746.122	3083
746.234	3565
746.347	3200
746.459	4110
746.570	3173
746.682	3648
746.794	4765
746.906	3905
747.018	3694
747.130	3172
747.242	2625
747.354	3533
747.466	3587
747.577	2749
747.689	3425
747.801	2942
747.913	3130
748.024	3053
748.136	2653
748.248	2715
748.359	2912
748.471	3156
748.583	2350
748.694	2761
748.806	3331
748.918	2589
749.029	3615
749.141	3392
749.252	3972
749.364	2292
749.475	3265
749.587	2685
749.698	2741
749.809	3549
749.921	3032
750.032	2686
750.144	2435
750.255	3073
750.366	2308
750.478	2830
750.589	2870
750.700	3663
750.811	3026
750.923	2887
751.034	2962
751.145	3135
751.256	2074
751.367	2477
751.479	2803
751.590	1745
751.701	2090
751.812	2681
751.923	2942
752.034	2909
752.145	3608
752.256	3302
752.367	2898
752.478	3249
752.589	2161
752.700	3223
752.811	2967
752.922	2233
753.032	1700
753.143	2421
753.254	1701
753.365	3277
753.476	2664
753.586	2389
753.697	2358
753.808	3357
753.919	2289
754.029	2845
754.140	2952
754.251	2844
754.361	2044
754.472	2593
754.582	2332
754.693	3678
754.804	2604
754.914	2305
755.025	2462
755.135	2907
755.246	2987
755.356	2872
755.466	3100
755.577	3136
755.687	3171
755.798	2745
755.908	2390
756.018	3200
756.129	2968
756.239	2369
756.349	3297
756.460	2679
756.570	3328
756.680	2433
756.790	2972
756.900	3205
757.011	2475
757.121	3254
757.231	3200
757.341	2891
757.451	3631
757.561	2267
757.671	2647
757.781	3480
757.891	3316
758.001	2261
758.111	3122
758.221	3071
758.331	3783
758.441	3683
758.551	2620
758.661	3097
758.771	4040
758.880	3649
758.990	3428
759.100	3376
759.210	4178
759.320	3927
759.429	4183
759.539	4016
759.649	4828
759.758	4180
759.868	4264
759.978	4331
760.087	4751
760.197	4987
760.307	4714
760.416	4496
760.526	4683
760.635	5177
760.745	4679
760.854	4685
760.964	5592
761.073	6054
761.182	5726
761.292	5479
761.401	5362
761.511	4328
761.620	5024
761.729	4387
761.839	4366
761.948	5196
762.057	5138
762.166	5343
762.276	4307
762.385	6325
762.494	5344
762.603	5139
762.712	5574
762.822	5295
762.931	5887
763.040	5747
763.149	6318
763.258	6580
763.367	7408
763.476	7375
763.585	7258
763.694	7701
763.803	7541
763.912	8686
764.021	9074
764.130	9923
764.238	9943
764.347	10846
764.456	11118
764.565	12705
764.674	13746
764.783	13457
764.891	15314
765.000	18394
765.109	19904
765.217	22277
765.326	26969
765.435	31687
765.543	38878
765.652	47825
765.761	61086
765.869	79205
765.978	111955
766.086	161677
766.195	235879
766.303	317314
766.412	282298
766.520	255126
766.629	291586
766.737	216714
766.846	147102
766.954	104930
767.062	78023
767.171	60097
767.279	47802
767.387	37682
767.496	30586
767.604	27407
767.712	22788
767.820	20645
767.928	19782
768.037	17712
768.145	16672
768.253	17139
768.361	15285
768.469	15091
768.577	16605
768.685	16865
768.793	18344
768.901	20235
769.009	21863
769.117	27440
769.225	34203
769.333	47504
769.441	69418
769.549	111769
769.657	188841
769.765	285771
769.873	247600
769.981	251711
770.088	174947
770.196	106323
770.304	70504
770.412	50188
770.519	38730
770.627	30251
770.735	24570
770.842	21681
770.950	18567
771.058	15868
771.165	15404
771.273	13500
771.380	13661
771.488	12372
771.595	11955
771.703	10101
771.810	11115
771.918	9586
772.025	8900
772.133	10649
772.240	8126
772.348	9050
772.455	8869
772.562	7607
772.670	8488
772.777	7559
772.884	7048
772.991	5599
773.099	7223
773.206	6693
773.313	6331
773.420	6480
773.528	5424
773.635	5927
773.742	6608
773.849	5282
773.956	5082
774.063	5420
774.170	6178
774.277	5127
774.384	5178
774.491	5284
774.598	5825
774.705	5410
774.812	5141
774.919	4961
775.026	5519
775.133	5098
775.239	5608
775.346	4521
775.453	5043
775.560	4363
775.667	4861
775.773	4823
775.880	4726
775.987	4248
776.093	4833
776.200	4512
776.307	3584
776.413	4664
776.520	3863
776.627	4583
776.733	4711
776.840	3344
776.946	5793
777.053	4998
777.159	6552
777.266	4300
777.372	6464
777.478	6079
777.585	4316
777.691	3144
777.798	4034
777.904	3665
778.010	3669
778.117	3886
778.223	3402
778.329	3917
778.435	3883
778.542	3124
778.648	4027
778.754	2997
778.860	3758
778.966	3237
779.072	2592
779.178	3361
779.284	2965
779.391	2897
779.497	2525
779.603	5057
779.708	4959
779.815	10729
779.920	33723
780.026	64770
780.132	11772
780.238	3781
780.344	3736
780.450	4204
780.556	2696
780.661	1960
780.767	3100
780.873	1938
780.979	3319
781.085	2292
781.190	2611
781.296	3072
781.402	2340
781.507	3063
781.613	2271
781.719	2197
781.824	2677
781.930	3984
782.035	2105
782.141	3242
782.246	2377
782.352	2181
782.457	1732
782.563	2448
782.668	2925
782.773	2450
782.879	1770
782.984	3400
783.090	2335
783.195	2826
783.300	1426
783.405	1386
783.511	2168
783.616	2285
783.721	2005
783.826	2144
783.932	2758
784.037	2397
784.142	1813
784.247	1621
784.352	1855
784.457	1755
784.562	1848
784.667	2156
784.772	1595
784.877	989
784.982	2483
785.087	2130
785.192	2065
785.297	2225
785.402	2154
785.507	1972
785.611	1449
785.716	1881
785.821	1689
785.926	1287
786.031	1352
786.135	1814
786.240	1640
786.345	268
786.450	2030
786.554	1443
786.659	1405
786.763	984
786.868	2000
786.973	2443
787.077	1577
787.182	1695
787.286	1926
787.391	2113
787.495	1493
787.600	2196
787.704	1615
787.809	2147
787.913	1195
788.017	2265
788.122	1558
788.226	1614
788.330	1520
788.435	1217
788.539	2786
788.643	1000
788.747	1443
788.852	1453
788.956	1784
789.060	2318
789.164	926
789.268	1122
789.372	2276
789.476	1751
789.580	1722
789.684	1626
789.788	1973
789.892	1120
789.996	1211
790.100	1476
790.204	1272
790.308	892
790.412	914
790.516	1801
790.620	1510
790.724	2041
790.828	1539
790.931	922
791.035	2049
791.139	1357
791.242	267
791.346	1343
791.450	1208
791.554	560
791.657	-49
791.761	2543
791.864	1887
791.968	1694
792.072	1167
792.175	874
792.279	420
792.382	1171
792.486	1415
792.589	505
792.693	1535
792.796	-263
792.899	2021
793.003	311
793.106	87
793.209	144
793.313	1759
793.416	190
793.519	1482
793.623	1184
793.726	478
793.829	1515
793.932	651
794.035	-811
794.138	1830
794.242	1307
794.345	1199
794.448	2285
794.551	4313
794.654	19220
794.757	39654
794.860	6713
794.963	1601
795.066	460
795.169	2051
795.272	308
795.375	1297
795.477	431
795.580	1151
795.683	405
795.786	1191
795.889	-563
795.991	1143
796.094	1597
796.197	-22
796.300	1805
796.402	820
796.505	1374
796.608	-169
796.710	1025
796.813	847
796.915	1139
797.018	730
797.120	1058
797.223	-746
797.326	1530
797.428	279
797.530	655
797.633	690
797.735	2060
797.838	216
797.940	2018
798.042	637
798.145	-18
798.247	655
798.349	-110
798.452	1420
798.554	628
798.656	-218
798.758	2368
798.860	1607
798.962	405
799.065	2
799.167	468
799.269	1470
799.371	741
799.473	1492
799.575	1234
799.677	526
799.779	1847
799.881	-421
799.983	1573
800.085	342
800.187	460
800.289	308
800.390	110
800.492	968
800.594	1415
800.696	287
800.798	359
800.899	243
801.001	-34
801.103	-90
801.205	727
801.306	1071
801.408	323
801.509	974
801.611	853
801.713	899
801.814	458
801.916	-402
802.017	357
802.119	-348
802.220	653
802.322	-1420
802.423	2219
802.525	-304
802.626	266
802.727	715
802.829	1279
802.930	-1198
803.031	1865
803.133	-359
803.234	87
803.335	216
803.436	-280
803.538	624
803.639	165
803.740	1546
803.841	-272
803.942	1063
804.043	948
804.144	112
804.245	320
804.346	119
804.447	-217
804.548	450
804.649	1145
804.750	532
804.851	374
804.952	197
805.053	505
805.154	-457
805.255	406
805.355	435
805.456	-425
805.557	922
805.658	-261
805.758	720
805.859	429
805.960	709
806.061	624
806.161	415
806.262	-242
806.362	-83
806.463	987
806.564	446
806.664	-307
806.765	675
806.865	504
806.966	178
807.066	140
807.166	49
807.267	1313
807.367	150
807.468	335
807.568	-659
807.668	318
807.769	709
807.869	828
807.969	900
808.069	275
808.170	139
808.270	-176
808.370	1045
808.470	735
808.570	-656
808.670	-28
808.770	1273
808.870	-308
808.970	809
809.070	-650
809.170	-830
809.271	477
809.370	-476
809.470	-35
809.570	171
809.670	-876
809.770	-333
809.870	634
809.970	339
810.070	269
810.169	155
810.269	-674
810.369	1422
810.469	-274
810.568	463
810.668	-92
810.768	-347
810.867	-365
810.967	395
811.066	-176
811.166	-400
811.265	887
811.365	-589
811.464	198
811.564	7
811.663	231
811.763	-1107
811.862	1526
811.962	999
812.061	61
812.160	-450
812.260	456
812.359	-428
812.458	107
812.557	2054
812.657	2981
812.756	1090
812.855	-634
812.954	-294
813.053	680
813.153	336
813.252	-337
813.351	40
813.450	448
813.549	-482
813.648	824
813.747	-123
813.846	280
813.945	-136
814.044	231
814.143	443
814.242	122
814.341	-21
814.439	-111
814.538	236
814.637	165
814.736	105
814.835	317
814.933	-322
815.032	1840
815.131	1154
815.229	1436
815.328	1793
815.427	1581
815.525	2117
815.624	1638
815.722	2054
815.821	1856
815.919	1172
816.018	208
816.116	1749
816.215	1152
816.313	1428
816.412	1824
816.510	1583
816.609	3460
816.707	1835
816.805	2136
816.904	1603
817.002	1869
817.100	2360
817.198	2363
817.296	1178
817.395	2220
817.493	2082
817.591	1435
817.689	2212
817.787	1743
817.885	1580
817.983	2859
818.081	3177
818.179	4560
818.277	11256
818.375	10924
818.473	3487
818.571	2849
818.669	2150
818.767	2410
818.865	2166
818.963	1691
819.061	2080
819.158	2560
819.256	5259
819.354	9064
819.452	21234
819.549	13944
819.647	4286
819.745	2437
819.842	2091
819.940	1787
820.038	1110
820.135	993
820.233	2569
820.330	1646
820.428	1386
820.525	1793
820.623	1176
820.720	503
820.818	1947
820.915	1757
821.012	2246
821.110	425
821.207	1967
821.304	1074
821.402	1697
821.499	2178
821.596	2565
821.693	2283
821.791	1379
821.888	1005
821.985	1798
822.082	861
822.179	2460
822.276	2232
822.373	1449
822.470	1212
822.567	1040
822.664	474
822.761	2101
822.858	307
822.955	815
823.052	1365
823.149	950
823.246	830
823.343	311
823.440	1128
823.536	703
823.633	641
823.730	-194
823.827	1758
823.923	1014
824.020	1658
824.117	386
824.213	1216
824.310	1964
824.407	1382
824.503	1699
824.600	1328
824.696	783
824.793	1575
824.889	354
824.986	323
825.082	238
825.179	1060
825.275	396
825.371	1003
825.468	975
825.564	-446
825.660	1312
825.757	1534
825.853	1869
825.949	385
826.045	654
826.142	686
826.238	183
826.334	1616
826.430	757
826.526	616
826.622	354
826.718	1210
826.814	640
826.910	1540
827.006	215
827.102	234
827.198	1458
827.294	188
827.390	796
827.486	749
827.582	20
827.678	-70
827.774	1490
827.869	297
827.965	602
828.061	755
828.157	505
828.252	913
828.348	-245
828.444	1410
828.539	-96
828.635	977
828.731	779
828.826	-617
828.922	567
829.017	660
829.113	1256
829.208	294
829.304	-1139
829.399	1671
829.495	545
829.590	675
829.685	-87
829.781	638
829.876	814
829.971	597
830.066	-291
830.162	259
830.257	725
830.352	-81
830.447	1283
830.543	525
830.638	-396
830.733	1416
830.828	424
830.923	1235
831.018	391
831.113	561
831.208	-266
831.303	-55
831.398	510
831.493	177
831.588	1136
831.683	160
831.778	727
831.873	309
831.967	1186
832.062	22
832.157	120
832.252	863
832.346	-233
832.441	1250
832.536	709
832.631	420
832.725	1108
832.820	-331
832.914	-194
833.009	565
833.104	12
833.198	925
833.293	-454
833.387	1152
833.482	292
833.576	-5
833.670	378
833.765	896
833.859	51
833.954	365
834.048	79
834.142	685
834.237	-52
834.331	875
834.425	-22
834.519	30
834.613	267
834.708	-83
834.802	227
834.896	-188
834.990	213
835.084	1141
835.178	266
835.272	-121
835.366	-554
835.460	346
835.554	-84
835.648	87
835.742	-195
835.836	432
835.930	-1007
836.024	601
836.117	248
836.211	594
836.305	752
836.399	670
836.493	-584
836.586	1258
836.680	-347
836.774	-589
836.867	88
836.961	-89
837.055	-399
837.148	-744
837.242	-21
837.335	-340
837.429	324
837.522	446
837.616	72
837.709	541
837.803	-56
837.896	858
837.989	-527
838.083	36
838.176	253
838.269	341
838.363	522
838.456	-98
838.549	125
838.642	-338
838.735	530
838.829	641
838.922	223
839.015	-186
839.108	-11
839.201	-246
839.294	65
839.387	915
839.480	-751
839.573	235
839.666	19
839.759	-111
839.852	83
839.945	224
840.038	-199
840.131	-306
840.223	-950
840.316	394
840.409	139
840.502	-53
840.594	483
840.687	-1144
840.780	5
840.873	-588
840.965	-694
841.058	408
841.150	273
841.243	-467
841.336	162
841.428	678
841.521	72
841.613	-284
841.706	619
841.798	42
841.890	343
841.983	-727
842.075	89
842.167	-247
842.260	-179
842.352	579
842.444	108
842.537	37
842.629	1426
842.721	53
842.813	-995
842.905	-1387
842.997	-51
843.090	-847
843.182	32
843.274	381
843.366	1391
843.458	2433
843.550	2228
843.642	-176
843.734	-22
843.826	270
843.918	106
844.009	498
844.101	-714
844.193	-454
844.285	-77
844.377	628
844.469	720
844.560	-514
844.652	98
844.744	197
844.835	-261
844.927	281
845.019	-83
845.110	512
845.202	6
845.293	16
845.385	-1047
845.476	741
845.568	608
845.659	-325
845.751	778
845.842	324
845.934	-49
846.025	-170
846.116	-287
846.208	-546
846.299	-666
846.390	606
846.482	425
846.573	9
846.664	79
846.755	-531
846.846	1140
846.937	-965
847.029	-277
847.120	-771
847.211	-800
847.302	639
847.393	-1196
847.484	971
847.575	-885
847.666	-210
847.757	-46
847.847	142
847.938	1185
848.029	-762
848.120	-86
848.211	-349
848.302	-377
848.392	-493
848.483	-254
848.574	-139
848.664	-520
848.755	-394
848.846	234
848.936	-440
849.027	337
849.118	257
849.208	-476
849.299	394
849.389	754
849.480	3313
849.570	6539
849.661	14536
849.751	26318
849.841	9931
849.932	858
850.022	570
850.112	-137
850.203	-76
850.293	-226
850.383	-387
850.474	-714
850.564	-658
850.654	-452
850.744	-288
850.834	-182
850.924	-656
851.014	572
851.104	133
851.194	-375
851.284	143
851.374	182
851.464	-423
851.554	-258
851.644	-594
851.734	258
851.824	-26
851.914	-177
852.004	1288
852.094	173
852.183	-130
852.273	-611
852.363	-134
852.452	473
852.542	-906
852.632	-606
852.721	-100
852.811	231
852.901	24
852.990	-93
853.080	139
853.169	-428
853.259	-313
853.348	-860
853.438	884
853.527	776
853.617	2062
853.706	4244
853.795	8530
853.885	17420
853.974	34492
854.063	62640
854.152	101461
854.242	44388
854.331	8001
854.420	2994
854.509	993
854.598	1321
854.687	441
854.777	1114
854.866	-42
854.955	176
855.044	-838
855.133	-343
855.222	-578
855.311	-250
855.400	-38
855.488	54
855.577	312
855.666	-1125
855.755	102
855.844	581
855.933	-740
856.021	-639
856.110	-355
856.199	-305
856.288	-567
856.376	-1100
856.465	-1309
856.554	275
856.642	-783
856.731	-680
856.819	565
856.908	-498
856.996	-598
857.085	-952
857.173	446
857.262	-1119
857.350	-315
857.438	321
857.527	-918
857.615	-1094
857.703	172
857.792	-926
857.880	-507
857.968	-520
858.056	136
858.145	-34
858.233	-954
858.321	-344
858.409	326
858.497	-1117
858.585	-187
858.673	20
858.761	-1216
858.849	-804
858.937	-534
859.025	-806
859.113	124
859.201	118
859.289	267
859.377	-864
859.465	-393
859.552	-488
859.640	-937
859.728	-227
859.816	-391
859.903	-461
859.991	-266
860.079	-400
860.166	-548
860.254	-391
860.342	-828
860.429	-694
860.517	-81
860.604	-711
860.692	-25
860.779	-122
860.867	-604
860.954	217
861.042	-800
861.129	-939
861.216	-181
861.304	-527
861.391	175
861.478	-272
861.565	-103
861.653	85
861.740	-877
861.827	-1381
861.914	1
862.001	-292
862.089	-1111
862.176	-192
862.263	-916
862.350	-627
862.437	-486
862.524	-1680
862.611	-533
862.698	120
862.785	351
862.871	685
862.958	166
863.045	-838
863.132	-350
863.219	308
863.306	-592
863.392	-316
863.479	-8
863.566	-629
863.652	-527
863.739	-837
863.826	-16
863.912	-352
863.999	-398
864.086	-468
864.172	-38
864.259	-433
864.345	-534
864.432	61
864.518	-416
864.604	-1271
864.691	-541
864.777	-281
864.863	432
864.950	528
865.036	669
865.122	1521
865.209	2716
865.295	1633
865.381	1500
865.467	2190
865.553	2183
865.639	3918
865.726	5085
865.812	9328
865.898	19933
865.984	28977
866.070	52246
866.156	61696
866.242	19240
866.328	4958
866.414	2647
866.499	2468
866.585	2048
866.671	1860
866.757	2301
866.843	2096
866.928	1038
867.014	1196
867.100	1510
867.186	1773
867.271	1621
867.357	1593
867.442	1746
867.528	935
867.614	1431
867.699	1234
867.785	2075
867.870	1211
867.956	1908
868.041	2200
868.127	1439
868.212	2273
868.297	1425
868.383	1727
868.468	770
868.553	1866
868.639	2229
868.724	1533
868.809	1766
868.894	1128
868.979	1050
869.065	1210
869.150	253
869.235	318
869.320	1117
869.405	639
869.490	698
869.575	615
869.660	584
869.745	1055
869.830	400
869.915	842
870.000	1332
870.085	-304
870.169	973
870.254	1617
870.339	515
870.424	392
870.509	946
870.593	1190
870.678	692
870.763	846
870.847	591
870.932	839
871.016	1313
871.101	701
871.186	1067
871.270	1291
871.355	646
871.439	33
871.523	1103
871.608	1078
871.692	489
871.777	699
871.861	1327
871.945	-185
872.030	1057
872.114	-126
872.198	1097
872.282	158
872.367	-357
872.451	472
872.535	466
872.619	703
872.703	615
872.787	464
872.871	347
872.955	493
873.039	432
873.123	367
873.207	835
873.291	31
873.375	292
873.459	1451
873.543	-60
873.627	59
873.711	179
873.794	429
873.878	178
873.962	-314
874.045	-176
874.129	180
874.137	130
874.213	-372
874.245	-103
874.296	331
874.352	-127
874.380	-351
874.460	128
874.464	146
874.547	691
874.568	593
874.631	323
874.676	598
874.714	804
874.784	1142
874.798	1215
874.881	996
874.892	847
874.965	-198
874.999	59
875.048	404
875.107	440
875.131	463
875.215	-131
875.215	-130
875.298	-206
875.323	-272
875.381	-342
875.430	406
875.465	935
875.538	68
875.548	-71
875.631	-341
875.646	-309
875.714	-112
875.753	-54
875.798	62
875.861	563
875.881	730
875.964	482
875.968	464
876.047	134
876.076	382
876.130	756
876.183	451
876.213	330
876.291	1013
876.296	1049
876.379	604
876.398	644
876.462	753
876.506	169
876.545	-262
876.613	223
876.628	327
876.711	282
876.721	297
876.794	437
876.828	844
876.877	1317
876.935	988
876.960	878
877.043	490
877.043	492
877.125	997
877.150	1044
877.208	1211
877.258	1041
877.291	934
877.365	965
877.374	953
877.456	588
877.472	549
877.539	531
877.579	808
877.622	1103
877.687	1097
877.704	1063
877.787	1021
877.794	996
877.869	904
877.901	1043
877.952	992
878.008	627
878.034	622
878.115	453
878.117	450
878.199	676
878.222	817
878.282	1181
878.329	1261
878.364	1343
878.437	1296
878.447	1243
878.529	374
878.544	370
878.611	589
878.651	800
878.694	1279
878.758	1928
878.776	1990
878.858	1537
878.865	1485
878.941	943
878.972	951
879.023	830
879.078	473
879.105	606
879.185	1785
879.187	1792
879.269	879
879.292	700
879.351	597
879.399	611
879.433	553
879.506	565
879.516	599
879.598	403
879.613	512
879.680	1018
879.720	911
879.762	650
879.827	623
879.844	683
879.926	974
879.933	973
880.007	888
880.040	671
880.089	271
880.147	463
880.171	713
880.253	1256
880.254	1254
880.335	900
880.360	934
880.417	1762
880.467	2027
880.499	1995
880.574	2175
880.580	2185
880.662	1559
880.680	1535
880.744	1299
880.787	1156
880.825	1124
880.893	967
880.907	996
880.989	694
881.000	827
881.070	1753
881.106	1950
881.152	1829
881.213	1125
881.233	1046
881.315	1670
881.319	1669
881.396	1747
881.426	1709
881.478	1455
881.532	1640
881.559	1874
881.639	1963
881.641	1953
881.722	1817
881.745	1586
881.803	1526
881.852	1441
881.885	1360
881.958	1502
881.966	1490
882.047	1458
882.064	1317
882.129	1161
882.171	1268
882.210	1190
882.277	1287
882.291	1316
882.372	1333
882.383	1279
882.454	1636
882.489	1808
882.535	1605
882.596	1756
882.616	1862
882.697	1642
882.702	1642
882.778	1614
882.808	1375
882.859	969
882.914	1183
882.940	1361
883.020	1224
883.021	1233
883.102	1987
883.127	2102
883.183	2072
883.233	2050
883.264	1903
883.339	1398
883.345	1372
883.426	1053
883.445	1002
883.507	951
883.551	930
883.587	1198
883.657	1737
883.668	1854
883.749	2612
883.763	2626
883.830	1935
883.869	1785
883.910	1618
883.975	1402
883.991	1463
884.072	1925
884.081	1910
884.152	2327
884.187	2649
884.233	2630
884.292	2328
884.314	2060
884.394	1048
884.398	1010
884.475	1098
884.504	985
884.555	1096
884.610	1258
884.636	1319
884.716	1979
884.716	1993
884.797	2470
884.821	2732
884.877	2767
884.927	2408
884.958	2079
885.033	1780
885.038	1787
885.118	1366
885.139	1334
885.199	1300
885.244	1248
885.279	1606
885.350	2286
885.359	2346
885.439	2814
885.456	2873
885.520	2656
885.561	2548
885.600	2123
885.667	1283
885.680	1412
885.760	2199
885.773	2335
885.840	2181
885.878	1899
885.920	1618
885.984	1602
886.000	1757
886.080	2143
886.089	2168
886.160	2141
886.195	2221
886.240	2163
886.300	1977
886.320	2050
886.400	2369
886.406	2374
886.480	1949
886.511	1787
886.560	1868
886.616	1904
886.640	1979
886.720	2124
886.722	2121
886.800	2057
886.827	1983
886.879	2112
886.932	2282
886.959	2416
887.038	2681
887.039	2690
887.119	2561
887.143	2506
887.198	2503
887.248	2547
887.278	2445
887.354	1861
887.358	1883
887.437	2388
887.459	2527
887.517	2997
887.564	3223
887.596	2822
887.669	2045
887.676	2033
887.755	1635
887.774	1557
887.835	1821
887.880	2001
887.914	2161
887.985	2467
887.994	2477
888.073	2421
888.090	2397
888.153	3215
888.195	3807
888.232	3482
888.300	2770
888.311	2792
888.391	2880
888.405	2889
888.470	2509
888.510	2217
888.549	2416
888.615	2836
888.628	2931
888.708	3367
888.720	3434
888.787	3486
888.825	3427
888.866	2876
888.930	2078
888.945	2140
889.024	2424
889.035	2447
889.103	2693
889.140	2826
889.182	3088
889.245	3462
889.261	3454
889.340	3325
889.349	3302
889.419	3283
889.454	3253
889.498	2966
889.559	2550
889.577	2612
889.656	2858
889.664	2875
889.735	3025
889.768	3086
889.814	3193
889.873	3313
889.978	3075
890.083	2818
890.187	3162
890.292	2971
890.397	3011
890.501	3009
890.606	2414
890.710	3530
890.815	3074
890.919	3264
891.024	3039
891.128	2151
891.233	2533
891.337	3637
891.442	3154
891.546	3214
891.650	1629
891.755	2574
891.859	2718
891.963	4008
892.068	3247
892.172	2698
892.276	2049
892.380	3369
892.484	2930
892.589	3863
892.693	3316
892.797	2602
892.901	2240
893.005	2718
893.109	3534
893.213	4045
893.317	2410
893.421	2608
893.525	800
893.629	2437
893.733	4404
893.837	2694
893.941	3437
894.045	3669
894.148	2905
894.252	6832
894.356	5002
894.460	4631
894.564	2188
894.667	2801
894.771	2393
894.875	2011
894.978	1780
895.082	3353
895.186	3034
895.289	2807
895.393	2213
895.496	3512
895.600	2043
895.703	1723
895.807	2246
895.910	2978
896.014	2393
896.117	3191
896.221	2887
896.324	2360
896.427	2444
896.531	1516
896.634	2338
896.737	2293
896.840	2449
896.944	3142
897.047	3965
897.150	2920
897.253	2286
897.356	1899
897.460	2036
897.563	1888
897.666	2649
897.769	3323
897.872	2485
897.975	1529
898.078	2421
898.181	2334
898.284	1697
898.387	2736
898.490	2592
898.593	2386
898.695	1644
898.798	1942
898.901	2339
899.004	2930
899.107	2608
899.209	2875
899.312	2413
899.415	2058
899.518	1851
899.620	1781
899.723	1933
899.826	2601
899.928	1783
900.031	1552
900.133	2222
900.236	2467
900.338	2691
900.441	2698
900.543	1279
900.646	2284
900.748	2389
900.851	3878
900.953	2085
901.055	2429
901.158	2064
901.260	2195
901.362	2127
901.465	1827
901.567	2612
901.669	2833
901.771	1939
901.873	1901
901.976	2068
902.078	2153
902.180	2311
902.282	2380
902.384	2424
902.486	2695
902.588	3422
902.690	2313
902.792	1545
902.894	2580
902.996	2564
903.098	2802
903.200	2286
903.302	2915
903.404	2547
903.505	1481
903.607	2483
903.709	3056
903.811	2908
903.913	2461
904.014	1727
904.116	2076
904.218	1980
904.319	1949
904.421	3027
904.523	3649
904.624	2060
904.726	2001
904.827	1091
904.929	1752
905.030	1945
905.132	3217
905.233	2624
905.335	1480
905.436	2193
905.537	1744
905.639	1758
905.740	2952
905.841	2987
905.943	2244
906.044	2464
906.145	1869
906.247	2484
906.348	1679
906.449	2878
906.550	2327
906.651	2244
906.752	1382
906.854	2084
906.955	2505
907.056	2417
907.157	2467
907.258	2777
907.359	1615
907.460	1309
907.561	1342
907.662	1861
907.762	1719
907.863	2855
907.964	2558
908.065	3024
908.166	2459
908.267	2465
908.367	1565
908.468	1591
908.569	2258
908.670	2806
908.770	2644
908.871	2132
908.971	2439
909.072	2152
909.173	1278
909.273	2266
909.374	1874
909.474	1955
909.575	2145
909.675	1807
909.776	2496
909.876	1947
909.977	1657
910.077	2226
910.177	2552
910.278	2088
910.378	2371
910.478	1886
910.579	1488
910.679	2251
910.779	2234
910.879	2290
910.980	2010
911.080	2821
911.180	1716
911.280	1813
911.380	1985
911.480	1728
911.580	1959
911.680	2136
911.780	2368
911.880	2010
911.980	1314
912.080	1801
912.180	2079
912.280	1919
912.380	3064
912.480	1216
912.580	1936
912.679	1591
912.779	2567
912.879	2363
912.979	2147
913.078	1543
913.178	2128
913.278	1066
913.377	1907
913.477	1296
913.577	1819
913.676	2903
913.776	2787
913.875	1600
913.975	2099
914.074	1808
914.174	2689
914.273	2082
914.373	2658
914.472	1706
914.572	1382
914.671	2004
914.770	1996
914.870	1600
914.969	2096
915.068	1972
915.167	2693
915.267	1319
915.366	1848
915.465	1556
915.564	2383
915.663	2335
915.763	2578
915.862	2533
915.961	2170
916.060	1732
916.159	2449
916.258	1906
916.357	2514
916.456	2396
916.555	2647
916.654	1990
916.752	2167
916.851	2393
916.950	1799
917.049	1479
917.148	1789
917.247	2731
917.345	1520
917.444	1480
917.543	1821
917.642	2262
917.740	2095
917.839	2628
917.937	2957
918.036	2211
918.135	2484
918.233	2469
918.332	1915
918.430	2139
918.529	2301
918.627	1684
918.726	2320
918.824	2591
918.923	2242
919.021	1715
919.119	1726
919.218	1873
919.316	2005
919.414	1925
919.512	2674
919.611	2636
919.709	2955
919.807	2723
919.905	3094
920.003	3088
920.102	2806
920.200	2373
920.298	2679
920.396	2979
920.494	3259
920.592	2364
920.690	2573
920.788	2728
920.886	2116
920.984	3215
921.082	2813
921.180	3506
921.277	3376
921.375	3540
921.473	5395
921.571	4112
921.669	4226
921.766	3250
921.864	4773
921.962	5284
922.060	4181
922.157	4594
922.255	5494
922.352	4574
922.450	4738
922.548	5404
922.645	4903
922.743	6764
922.840	9887
922.938	11544
923.035	10083
923.133	10167
923.230	10788
923.327	12679
923.425	11598
923.522	12590
923.619	11568
923.717	9703
923.814	9293
923.911	10038
924.008	10744
924.106	9941
924.203	9146
924.300	9504
924.397	9607
924.494	10044
924.591	9987
924.688	8979
924.786	10406
924.883	9197
924.979	9388
925.077	10008
925.173	9482
925.270	9257
925.367	9501
925.464	10679
925.561	9952
925.658	9527
925.755	8436
925.852	8996
925.948	10148
926.045	9619
926.142	9780
926.239	9203
926.335	8445
926.432	8991
926.529	10769
926.625	10491
926.722	9372
926.818	8331
926.915	10035
927.011	10247
927.108	9114
927.204	9015
927.301	8138
927.397	9162
927.494	10632
927.590	7174
927.687	7652
927.783	9721
927.879	9764
927.976	8547
928.072	8214
928.168	8910
928.264	9055
928.361	7964
928.457	10457
928.553	7064
928.649	8507
928.745	8851
928.841	7900
928.937	8511
929.033	8153
929.129	8042
929.225	8968
929.321	7951
929.417	7082
929.513	8639
929.609	7196
929.705	6995
929.801	8651
929.897	7684
929.993	7287
930.089	8402
930.184	6544
930.280	8175
930.376	10185
930.471	7557
930.567	6242
930.663	7172
930.758	6718
930.854	7273
930.950	7359
931.045	7045
931.141	6883
931.236	8801
931.332	7908
931.427	6003
931.523	9271
931.618	7788
931.714	6630
931.809	6896
931.905	9463
932.000	6249
932.095	5359
932.191	7926
932.286	9307
932.381	7205
932.476	6212
932.572	6548
932.667	6800
932.762	5786
932.857	7464
932.952	8036
933.047	7354
933.142	6190
933.237	7133
933.332	6841
933.427	7644
933.522	6661
933.617	5517
933.712	5711
933.807	6512
933.902	7912
933.997	7896
934.092	5278
934.187	5474
934.282	7184
934.376	6839
934.471	6927
934.566	5973
934.661	4900
934.755	6824
934.850	8033
934.945	5513
935.039	5747
935.134	4649
935.228	5675
935.323	7754
935.417	7388
935.512	4315
935.606	4869
935.701	5867
935.795	7394
935.890	6036
935.984	5334
936.079	3504
936.173	5817
936.267	5393
936.362	5063
936.456	5926
936.550	7478
936.644	6660
936.738	4826
936.833	4648
936.927	3443
937.021	5126
937.115	5204
937.209	5993
937.303	6133
937.397	4128
937.491	4950
937.585	6557
937.679	5600
937.773	5064
937.867	4214
937.961	4764
938.055	6560
938.149	6207
938.243	4598
938.337	4492
938.430	4122
938.524	6280
938.618	5602
938.712	5316
938.805	4481
938.899	5711
938.993	7246
939.086	5283
939.180	4579
939.274	5389
939.367	5448
939.461	6583
939.554	4790
939.648	4399
939.741	4225
939.835	5313
939.928	6026
940.022	6459
940.115	4051
940.208	5620
940.302	6403
940.395	7903
940.488	4348
940.582	4843
940.675	3683
940.768	4771
940.861	5522
940.954	5998
941.048	3261
941.141	3727
941.234	4345
941.327	5162
941.420	5402
941.513	5257
941.606	4384
941.699	4884
941.792	5467
941.885	4952
941.978	4968
942.071	5111
942.164	3885
942.257	3715
942.349	4245
942.442	4785
942.535	3359
942.628	3149
942.721	4485
942.813	3740
942.906	4284
942.999	4758
943.091	3735
943.184	4196
943.277	3736
943.369	3594
943.462	3174
943.554	5077
943.647	4365
943.739	5307
943.832	5273
943.924	2633
944.017	2901
944.109	3001
944.201	2546
944.294	4064
944.386	4669
944.478	3599
944.571	3737
944.663	3441
944.755	4397
944.847	5588
944.940	3920
945.032	2422
945.124	2986
945.216	4727
945.308	3105
945.400	4382
945.492	3249
945.584	4714
945.676	5036
945.768	3990
945.860	4017
945.952	4581
946.044	4449
946.136	3953
946.228	4008
946.320	3456
946.412	4005
946.503	4654
946.595	5286
946.687	3163
946.779	2453
946.870	3182
946.962	3356
947.054	3730
947.145	3613
947.237	3560
947.329	3198
947.420	3805
947.512	4165
947.603	2554
947.695	2967
947.786	2796
947.878	3120
947.969	3364
948.061	4950
948.152	3815
948.243	2562
948.335	2648
948.426	2557
948.517	3795
948.609	4657
948.700	3877
948.791	3238
948.882	3539
948.973	2670
949.065	3112
949.156	3544
949.247	2549
949.338	3451
949.429	2573
949.520	1700
949.611	2703
949.702	4543
949.793	3128
949.884	3037
949.975	3722
950.066	1907
950.157	2336
950.247	3361
950.338	3083
950.429	2249
950.520	3152
950.611	1768
950.701	2539
950.792	4436
950.883	3837
950.973	2872
951.064	3379
951.155	3864
951.245	3192
951.336	3478
951.427	2914
951.517	4858
951.608	4239
951.698	2403
951.788	2605
951.879	1815
951.969	2918
952.060	3002
952.150	3776
952.240	4028
952.331	2631
952.421	3656
952.511	2368
952.602	2512
952.692	2331
952.782	2771
952.872	2676
952.962	3308
953.052	2952
953.143	1472
953.233	2751
953.323	2208
953.413	2923
953.503	4099
953.593	3052
953.683	2638
953.773	2590
953.863	2501
953.953	1538
954.042	2612
954.132	3024
954.222	2977
954.312	2536
954.402	3211
954.492	2943
954.581	2448
954.671	2172
954.761	1876
954.850	3597
954.940	2180
955.030	2064
955.119	1811
955.209	2386
955.298	1669
955.388	3146
955.477	3809
955.567	2649
955.656	2338
955.746	3278
955.835	1622
955.925	1915
956.014	3013
956.103	3028
956.193	3954
956.282	3733
956.371	2194
956.461	2935
956.550	3511
956.639	2118
956.728	1804
956.817	2718
956.906	3863
956.995	3969
957.085	2373
957.174	3587
957.263	2734
957.352	3166
957.441	2354
957.530	3029
957.619	2749
957.708	2640
957.796	1982
957.885	2892
957.974	2096
958.063	2797
958.152	1108
958.241	2371
958.329	2203
958.418	2184
958.507	1573
958.596	4039
958.684	2352
958.773	3162
958.861	2748
958.950	2200
959.039	3414
959.127	2637
959.216	3816
959.304	3620
959.393	2206
959.481	3970
959.570	2828
959.658	2715
959.746	2378
959.835	2472
959.923	2345
960.011	3210
960.100	2655
960.188	3352
960.276	2965
960.365	2293
960.453	1563
960.541	1975
960.629	2353
960.717	1924
960.805	1514
960.893	2485
960.981	2767
961.069	3824
961.158	3501
961.245	4661
961.333	3668
961.421	2515
961.509	2567
961.597	2166
961.685	1921
961.773	2057
961.861	2331
961.949	3499
962.036	1302
962.124	2196
962.212	1600
962.299	2591
962.387	1896
962.475	1561
962.562	1819
962.650	1946
962.738	2042
962.825	1393
962.913	1676
963.000	873
963.088	2289
963.175	3025
963.263	2151
963.350	2289
963.438	2037
963.525	1283
963.612	2405
963.700	2233
963.787	2498
963.874	2779
963.962	1278
964.049	1930
964.136	1114
964.223	1444
964.310	1443
964.398	2032
964.485	2113
964.572	1761
964.659	1562
964.746	1603
964.833	1831
964.920	1982
965.007	1653
965.094	2810
965.181	1357
965.268	2893
965.355	2135
965.441	1821
965.528	1049
965.615	2793
965.702	1924
965.789	2235
965.875	2072
965.962	2225
966.049	1740
966.136	2317
966.222	1644
966.309	2835
966.395	2440
966.482	2141
966.569	1759
966.655	2683
966.742	1927
966.828	2025
966.915	1219
967.001	1326
967.087	418
967.174	1293
967.260	1178
967.347	2049
967.433	2195
967.519	2151
967.605	1650
967.692	1391
967.778	1458
967.864	1380
967.950	998
968.036	2350
968.123	1950
968.209	1332
968.295	1376
968.381	2252
968.467	1285
968.553	996
968.639	2209
968.725	1587
968.811	1967
968.897	1898
968.983	2342
969.069	675
969.154	1711
969.240	2092
969.326	889
969.412	1274
969.497	1172
969.583	1133
969.669	2946
969.755	2579
969.840	1532
969.926	2985
970.012	4089
970.097	4003
970.183	1987
970.268	2595
970.354	2744
970.439	1511
970.525	2052
970.610	937
970.696	2200
970.781	2118
970.866	676
970.952	2659
971.037	1530
971.122	2013
971.208	1465
971.293	1872
971.378	1059
971.463	1811
971.549	2471
971.634	1538
971.719	1812
971.804	2156
971.889	2459
971.974	1564
972.059	1535
972.144	1735
972.229	1620
972.314	1333
972.399	1482
972.484	494
972.569	1394
972.654	885
972.739	2420
972.824	1346
972.908	1799
972.993	1522
973.078	949
973.163	1637
973.247	1369
973.332	363
973.417	2470
973.501	1366
973.586	1630
973.671	2226
973.755	2342
973.840	2699
973.924	1342
974.009	1839
974.093	1525
974.178	3293
974.262	2578
974.346	1615
974.431	1792
974.515	1518
974.600	2243
974.684	2469
974.768	1255
974.852	2261
974.937	898
975.021	1913
975.105	1736
975.189	2171
975.273	1652
975.358	1506
975.442	1616
975.526	1897
975.610	1507
975.694	1176
975.778	1977
975.862	1252
975.946	-545
976.030	3192
976.114	1962
976.198	1735
976.281	1552
976.365	2929
976.449	1249
976.533	1606
976.617	1588
976.700	1149
976.784	1324
976.868	767
976.951	1818
977.035	1498
977.119	1074
977.202	1789
977.286	1570
977.369	2198
977.453	3814
977.536	2605
977.620	1849
977.703	2460
977.787	824
977.870	2572
977.953	2255
978.037	821
978.120	1935
978.203	2248
978.287	1363
978.370	2321
978.453	1898
978.536	1901
978.620	2355
978.703	1740
978.786	758
978.869	1065
978.952	392
979.035	3422
979.118	1625
979.201	1573
979.284	1228
979.367	1788
979.450	2118
979.533	1105
979.616	1160
979.699	726
979.782	2302
979.865	1032
979.948	724
980.030	1456
980.113	1157
980.196	1055
980.279	1631
980.361	1011
980.444	781
980.526	2401
980.609	1888
980.692	2969
980.774	3511
980.857	1747
980.939	2945
981.022	1778
981.104	2119
981.187	1082
981.269	1942
981.352	2552
981.434	1115
981.516	1685
981.599	2646
981.681	1411
981.763	1661
981.846	1705
981.928	1916
982.010	1896
982.092	1322
982.174	1321
982.256	1467
982.339	1731
982.421	1284
982.503	2293
982.585	811
982.667	1518
982.749	1193
982.831	1192
982.913	579
982.995	2374
983.077	1061
983.158	2026
983.240	1262
983.322	2772
983.404	4037
983.486	2969
983.568	3347
983.649	2226
983.731	2694
983.813	2708
983.894	1772
983.976	1216
984.058	1796
984.139	2584
984.221	1228
984.302	1741
984.384	2307
984.465	1393
984.547	2431
984.628	1890
984.710	2750
984.791	2118
984.872	2756
984.954	818
985.035	2167
985.116	1358
985.198	2128
985.279	3172
985.360	1696
985.441	1716
985.522	1996
985.604	1926
985.685	135
985.766	2513
985.847	2683
985.928	1345
986.009	1573
986.090	1854
986.171	2358
986.252	1398
986.333	2243
986.414	2096
986.495	2576
986.576	2372
986.656	2819
986.737	2613
986.818	1864
986.899	2145
986.980	2275
987.060	3364
987.141	2929
987.222	3241
987.302	3139
987.383	3529
987.464	2996
987.544	3318
987.625	2514
987.705	3087
987.786	3157
987.866	3260
987.947	2562
988.027	3100
988.108	2650
988.188	2625
988.268	2225
988.349	2268
988.429	2524
988.509	2750
988.589	2005
988.670	2127
988.750	2907
988.830	2313
988.910	2037
988.990	2581
989.070	2750
989.151	2793
989.231	1514
989.311	2732
989.391	1118
989.471	1892
989.551	1972
989.631	1695
989.711	2270
989.791	1704
989.870	1525
989.950	2726
990.030	2628
990.110	2803
990.190	1216
990.269	1518
990.349	2994
990.429	1866
990.509	2432
990.588	1219
990.668	1893
990.747	2945
990.827	1814
990.907	2139
990.986	2334
991.066	2161
991.145	1038
991.225	2027
991.304	1791
991.383	2198
991.463	2077
991.542	1687
991.622	1009
991.701	1065
991.780	1559
991.859	1715
991.939	1595
992.018	1947
992.097	1438
992.176	2097
992.256	127
992.335	1430
992.414	1692
992.493	1456
992.572	114
992.651	2025
992.730	1118
992.809	1018
992.888	1324
992.967	1466
993.046	1571
993.125	621
993.203	771
993.282	1431
993.361	1886
993.440	1021
993.519	259
993.597	2001
993.676	1249
993.755	2239
993.834	1904
993.912	383
993.991	1925
994.069	751
994.148	838
994.226	338
994.305	847
994.384	900
994.462	1909
994.540	1449
994.619	220
994.697	1247
994.776	486
994.854	1972
994.932	498
995.011	879
995.089	290
995.167	1179
995.245	1175
995.324	-38
995.402	1333
995.480	495
995.558	812
995.636	51
995.714	933
995.792	2048
995.870	100
995.948	404
996.026	797
996.104	129
996.182	1508
996.260	-23
996.338	539
996.416	655
996.494	928
996.572	1283
996.649	914
996.727	358
996.805	801
996.883	770
996.960	31
997.038	831
997.116	707
997.193	343
997.271	655
997.348	157
997.426	543
997.504	437
997.581	1526
997.658	352
997.736	-522
997.813	62
997.891	1031
997.968	869
998.046	313
998.123	650
998.200	1784
998.277	539
998.355	986
998.432	-433
998.509	-505
998.586	921
998.663	1154
998.741	273
998.818	266
998.895	369
998.972	31
999.049	1197
999.126	-27
999.203	569
999.280	122
999.357	1062
999.434	410
999.511	695
999.587	98
999.664	-24
999.741	996
999.818	1472
999.895	554
999.971	441
1000.048	593
1000.125	1188
1000.202	-377
1000.278	608
1000.355	220
1000.431	339
1000.508	-544
1000.584	434
1000.661	349
1000.738	596
1000.814	161
1000.890	837
1000.967	744
1001.043	606
1001.120	-680
1001.196	1038
1001.272	-885
1001.349	603
1001.425	568
1001.501	663
1001.577	-19
1001.654	566
1001.730	450
1001.806	315
1001.882	-875
1001.958	888
1002.034	665
1002.110	211
1002.186	-603
1002.262	-113
1002.338	-375
1002.414	795
1002.490	724
1002.566	293
1002.642	-343
1002.718	748
1002.794	324
1002.870	-43
1002.945	-376
1003.021	392
1003.097	-51
1003.173	979
1003.248	-527
1003.324	115
1003.400	654
1003.475	-109
1003.551	406
1003.626	83
1003.702	163
1003.777	587
1003.853	-724
1003.928	-587
1004.004	-223
1004.079	181
1004.155	592
1004.230	-711
1004.305	205
1004.381	185
1004.456	-70
1004.531	-565
1004.607	83
1004.682	-9
1004.757	-249
1004.832	-54
1004.907	-184
1004.982	-141
1005.057	162
1005.133	-5
1005.208	-54
1005.283	-350
1005.358	-71
1005.433	-260
1005.508	-262
1005.583	-389
1005.657	-33
1005.732	654
1005.807	-362
1005.882	-373
1005.957	-29
1006.032	292
1006.106	120
1006.181	-493
1006.256	421
1006.331	-462
1006.405	-523
1006.480	278
1006.554	-128
1006.629	169
1006.704	-359
1006.778	-8
1006.853	730
1006.927	-179
1007.002	-1121
1007.076	933
1007.150	-187
1007.225	307
1007.299	334
1007.373	-555
1007.448	-736
1007.522	671
1007.596	-90
1007.671	-825
1007.745	580
1007.819	-505
1007.893	-454
1007.967	161
1008.041	-867
1008.115	498
1008.190	-1031
1008.264	185
1008.338	-1144
1008.412	-53
1008.486	-972
1008.560	-389
1008.633	-290
1008.707	-576
1008.781	-339
1008.855	11
1008.929	-374
1009.003	-1605
1009.076	-468
1009.150	444
1009.224	164
1009.298	248
1009.371	-1248
1009.445	600
1009.519	-262
1009.592	-192
1009.666	-1029
1009.739	-871
1009.813	-221
1009.886	-5
1009.960	-1161
1010.033	891
1010.107	396
1010.180	-1420
1010.253	-192
1010.327	-523
1010.400	39
1010.473	-760
1010.547	749
1010.620	-383
1010.693	-498
1010.766	-943
1010.840	596
1010.913	-647
1010.986	-1153
1011.059	-259
1011.132	-533
1011.205	285
1011.278	-1222
1011.351	224
1011.424	546
1011.497	-423
1011.570	-669
1011.643	-107
1011.716	-222
1011.789	-762
1011.862	-496
1011.934	152
1012.007	-2046
1012.080	-637
1012.153	-19
1012.225	343
1012.298	-543
1012.371	109
1012.443	-590
1012.516	-390
1012.588	317
1012.661	72
1012.733	-377
1012.806	611
1012.879	-702
1012.951	-334
1013.023	-276
1013.096	-498
1013.168	-624
1013.241	0
1013.313	-828
1013.385	-1148
1013.458	-1440
1013.530	-25
1013.602	-1123
1013.674	-806
1013.746	-1942
1013.819	-922
1013.891	187
1013.963	-675
1014.035	-982
1014.107	-72
1014.179	-219
1014.251	-1427
1014.323	-286
1014.395	-3
1014.467	-625
1014.539	-86
1014.611	-366
1014.683	103
1014.754	-705
1014.826	-423
1014.898	-635
1014.970	-581
1015.042	185
1015.113	-948
1015.185	-898
1015.257	-1145
1015.328	-10
1015.400	-832
1015.471	-738
1015.543	-1172
1015.615	-879
1015.686	-462
1015.757	-305
1015.829	-1006
1015.901	-1227
1015.972	-289
1016.043	-899
1016.115	-1063
1016.186	-1528
1016.257	-1251
1016.328	-846
1016.400	-278
1016.471	-1181
1016.542	-675
1016.613	-1133
1016.685	16
1016.756	-576
1016.827	-987
1016.898	-1283
1016.969	-493
1017.040	-832
1017.111	-229
1017.182	-880
1017.253	-307
1017.324	-998
1017.395	-100
1017.466	-718
1017.537	-787
1017.608	-380
1017.678	-521
1017.749	-1676
1017.820	-631
1017.891	-750
1017.961	-909
1018.032	-1855
1018.103	-68
1018.173	-494
1018.244	-334
1018.315	-1080
1018.385	-353
1018.456	-258
1018.526	-1724
1018.597	-974
1018.667	-989
1018.738	-866
1018.808	-1016
1018.878	-992
1018.949	-717
1019.019	142
1019.089	-674
1019.160	-543
1019.230	-780
1019.300	-216
1019.371	-1848
1019.441	-262
1019.511	82
1019.581	-827
1019.651	87
1019.721	-1092
1019.791	-440
1019.861	-1009
1019.931	-1212
1020.001	-1663
1020.071	-1057
1020.141	-798
1020.211	-930
1020.281	-1291
1020.351	-1137
1020.421	-910
1020.491	-916
1020.560	-1121
1020.630	-67
1020.700	-1183
1020.770	-1157
1020.839	-1049
1020.909	-230
1020.979	-1001
1021.048	-1099
1021.118	-1920
1021.187	-372
1021.257	-281
1021.326	680
1021.396	-817
1021.465	-671
1021.535	-1398
1021.604	-973
1021.674	-719
1021.743	-574
1021.812	-547
1021.882	-666
1021.951	-973
1022.020	-424
1022.089	25
1022.159	-728
1022.228	-384
1022.297	-593
1022.366	-1059
1022.435	-430
1022.504	-785
1022.573	-277
1022.642	-589
1022.711	-600
1022.781	-301
1022.849	-773
1022.918	-1438
1022.987	-707
1023.056	-1547
1023.125	-703
1023.194	-835
1023.263	-381
1023.331	-725
1023.400	-1190
1023.469	-994
1023.538	-324
1023.606	-1674
1023.675	-1016
1023.744	-465
1023.812	-1053
1023.881	-172
1023.949	-285
1024.018	-809
1024.086	-873
1024.155	-1078
1024.223	-836
1024.292	-1349
1024.360	-717
1024.429	-1407
1024.497	-991
1024.565	-787
1024.634	-872
1024.702	-421
1024.770	-969
1024.838	-1035
1024.907	-300
1024.975	-1052
1025.043	-176
1025.111	-1611
1025.179	-355
1025.247	-954
1025.315	-800
1025.383	-1039
1025.451	-691
1025.519	-1655
1025.587	-768
1025.655	-1348
1025.723	-1100
1025.791	-1305
1025.859	-968
1025.927	-1136
1025.995	-1061
1026.062	-329
1026.130	-588
1026.198	-433
1026.266	-971
1026.333	-584
1026.401	-736
1026.469	-1472
1026.536	-1140
1026.604	-360
1026.671	-778
1026.739	-621
1026.806	-1098
1026.874	-1579
1026.941	-1218
1027.009	-1032
1027.076	-1582
1027.144	-590
1027.211	-1282
1027.278	-1074
1027.345	-957
1027.413	-1277
1027.480	-319
1027.547	-1354
1027.614	-1867
1027.682	-159
1027.749	-1343
1027.816	-529
1027.883	-460
1027.950	-1116
1028.017	-1051
1028.084	-121
1028.151	-1147
1028.218	-382
1028.285	-813
1028.352	-826
1028.419	-458
1028.486	-533
1028.553	-582
1028.619	-1651
1028.686	-1395
1028.753	-1777
1028.820	-982
1028.886	-788
1028.953	-1068
1029.020	-884
1029.086	-1173
1029.153	-923
1029.220	-756
1029.286	-429
1029.353	-216
1029.419	-1392
1029.486	-1439
1029.552	-770
1029.619	-1106
1029.685	-1494
1029.751	-999
1029.818	-506
1029.884	-923
1029.951	-339
1030.017	-661
1030.083	-1396
1030.149	-585
1030.216	-138
1030.282	-184
1030.348	-394
1030.414	-630
1030.480	-721
1030.546	-242
1030.612	-738
1030.678	-869
1030.744	-1171
1030.810	-1026
1030.876	-1763
1030.942	-601
1031.008	-1565
1031.074	-1793
1031.140	-1742
1031.206	278
1031.272	-1211
1031.337	-1066
1031.403	-831
1031.469	-508
1031.534	-992
1031.600	57
1031.666	-574
1031.731	-447
1031.797	-1340
1031.863	-1151
1031.928	-1104
1031.994	-1187
1032.059	-1387
1032.125	-1083
1032.190	-638
1032.256	-889
1032.321	-1473
1032.386	-1819
1032.452	-592
1032.517	-851
1032.582	-1572
1032.647	-1072
1032.713	-1083
1032.778	-801
1032.843	-1084
1032.908	-1244
1032.974	-817
1033.039	-567
1033.104	-669
1033.169	-1160
1033.234	-2038
1033.299	222
1033.364	-1732
1033.429	-992
1033.494	-791
1033.559	-1248
1033.624	-926
1033.688	179
1033.753	-1131
1033.818	-1208
1033.883	-622
1033.948	-353
1034.013	-676
1034.077	-1001
1034.142	-533
1034.207	-544
1034.271	407
1034.336	1966
1034.400	857
1034.465	-212
1034.530	-388
1034.594	-790
1034.658	-668
1034.723	-746
1034.787	-1175
1034.852	-685
1034.916	-816
1034.981	-955
1035.045	35
1035.109	-1077
1035.173	-1112
1035.238	-1027
1035.302	-686
1035.366	-1559
1035.430	-1163
1035.495	60
1035.559	-675
1035.623	-807
1035.687	-877
1035.751	-340
1035.815	-1126
1035.879	-1112
1035.943	-555
1036.007	-1026
1036.071	-1167
1036.135	-601
1036.198	-1312
1036.262	-804
1036.326	-1361
1036.390	-701
1036.454	-397
1036.517	-382
1036.581	-648
1036.645	-841
1036.709	-1196
1036.772	-1572
1036.836	-971
1036.900	-905
1036.963	-1241
1037.026	-805
1037.090	-812
1037.154	-866
1037.217	-954
1037.280	-632
1037.344	-1434
1037.407	-1485
1037.471	-138
1037.534	-1009
1037.597	-905
1037.661	300
1037.724	-555
1037.787	-1032
1037.850	-898
1037.913	-1260
1037.977	-1216
1038.040	-1411
1038.103	-911
1038.166	-557
1038.229	-877
1038.292	-1100
1038.355	-1330
1038.418	-1149
1038.481	-932
1038.544	-1500
1038.607	-1000
1038.670	-427
1038.732	-795
1038.795	-1814
1038.858	-933
1038.921	-410
1038.984	123
1039.046	-1239
1039.109	-993
1039.172	-4
1039.234	-1545
1039.297	-694
1039.360	-891
1039.422	-872
1039.485	-978
1039.547	-1100
1039.610	-1503
1039.672	-1358
1039.734	-1276
1039.797	-289
1039.859	-223
1039.922	-1099
1039.984	-1042
1040.046	-1086
1040.109	-228
1040.171	-937
1040.233	-1143
1040.295	-1478
1040.358	-1658
1040.420	-645
1040.482	-1346
1040.544	-1682
1040.606	-249
1040.668	-504
1040.730	-780
1040.792	-1042
1040.854	-1581
1040.916	-546
1040.978	-764
1041.040	-697
1041.102	-1039
1041.164	-977
1041.225	-734
1041.287	-1202
1041.349	-754
1041.411	-1046
1041.472	-1438
1041.534	-806
1041.596	-1212
1041.657	-399
1041.719	-1624
1041.781	-1159
1041.842	-1709
1041.904	-1383
1041.965	-1237
1042.027	-1575
1042.088	-893
1042.150	-1240
1042.211	-1092
1042.272	253
1042.334	-693
1042.395	-925
1042.456	-438
1042.518	-586
1042.579	-756
1042.640	-866
1042.701	-1190
1042.763	-991
1042.824	-1161
1042.885	-249
1042.946	-333
1043.007	-432
1043.068	-1397
1043.129	-886
1043.190	-1063
1043.251	154
1043.312	-1545
1043.373	-519
1043.434	-733
1043.495	-868
1043.556	-276
1043.616	-1111
1043.677	-24
1043.738	-174
1043.799	-1284
1043.859	-748
1043.920	-1012
1043.981	-809
1044.041	-1039
1044.102	-424
1044.162	-290
1044.223	-800
1044.284	-907
1044.344	-734
1044.405	-1365
1044.465	8
1044.525	-1062
1044.586	356
1044.646	-676
1044.707	347
1044.767	-628
1044.827	-1314
1044.887	-1030
1044.948	-671
1045.008	-1297
1045.068	-523
1045.128	-1372
1045.188	-761
1045.249	-731
1045.309	-926
1045.369	-120
1045.429	-261
1045.489	-942
1045.549	116
1045.609	-892
1045.669	-725
1045.729	-546
1045.789	-720
1045.848	-793
1045.908	-180
1045.968	-415
1046.028	-220
1046.088	-1111
1046.147	539
1046.207	-420
1046.267	-364
1046.326	-592
1046.386	-472
1046.446	180
1046.505	-419
1046.565	-557
1046.624	97
1046.684	-310
1046.743	515
1046.803	795
1046.862	555
1046.922	0
