'Start Wavelength	183.907
'End Wavelength	1046.922
'Gate Delay	5.000
'Gate Width (ms)	1.050
'Laser Output Level	0.000
'X Position	0.000
'Y Position	0.000
'Z Position	0.000
'Grid Point Number	1.000
'Shot Number	100.000
183.907	825.000
183.977	-167.000
184.047	293
184.116	-217
184.186	300
184.256	-193
184.325	-133
184.395	-1278
184.465	938
184.534	-235
184.604	213
184.674	16
184.743	567
184.813	-21
184.883	-86
184.952	298
185.022	895
185.092	-125
185.161	740
185.231	-441
185.301	289
185.370	1555
185.440	282
185.509	-409
185.579	311
185.649	-204
185.718	130
185.788	406
185.857	633
185.927	70
185.996	758
186.066	-66
186.136	-708
186.205	418
186.275	879
186.344	98
186.414	177
186.483	-443
186.553	817
186.622	273
186.692	-277
186.761	-428
186.831	21
186.900	-141
186.970	670
187.039	-84
187.109	221
187.178	414
187.248	460
187.317	-43
187.387	-158
187.456	166
187.526	39
187.595	-265
187.664	-229
187.734	-18
187.803	-8
187.873	658
187.942	-394
188.012	534
188.081	448
188.150	-906
188.220	605
188.289	-77
188.358	983
188.428	448
188.497	575
188.567	623
188.636	-501
188.705	-306
188.775	807
188.844	-696
188.913	991
188.983	-34
189.052	41
189.121	161
189.191	688
189.260	1037
189.329	-384
189.399	427
189.468	851
189.537	-820
189.606	791
189.676	488
189.745	634
189.814	311
189.883	-264
189.953	-455
190.022	329
190.091	180
190.161	1006
190.230	839
190.299	159
190.368	-355
190.437	-418
190.507	-7
190.576	-38
190.645	104
190.714	-315
190.783	-184
190.853	886
190.922	-75
190.991	315
191.060	404
191.129	485
191.198	-497
191.268	415
191.337	220
191.406	719
191.475	-571
191.544	-627
191.613	154
191.682	224
191.752	822
191.821	-754
191.890	-227
191.959	344
192.028	40
192.097	84
192.166	402
192.235	341
192.304	-148
192.373	985
192.442	-640
192.511	458
192.580	226
192.650	449
192.719	130
192.788	330
192.857	181
192.926	-169
192.995	-276
193.064	256
193.133	763
193.202	1418
193.271	-19
193.340	1581
193.409	707
193.478	1655
193.547	726
193.615	1478
193.684	1130
193.753	796
193.822	508
193.891	794
193.960	399
194.029	615
194.098	369
194.167	-28
194.236	490
194.305	325
194.374	212
194.443	196
194.512	404
194.580	1110
194.649	678
194.718	1055
194.787	533
194.856	-591
194.925	673
194.994	775
195.062	93
195.131	32
195.200	299
195.269	833
195.338	426
195.407	803
195.475	113
195.544	1064
195.613	-1
195.682	152
195.751	347
195.819	-273
195.888	572
195.957	1427
196.026	427
196.094	641
196.163	388
196.232	342
196.301	141
196.369	608
196.438	-388
196.507	509
196.576	458
196.644	-78
196.713	-74
196.782	809
196.850	280
196.919	973
196.988	-178
197.056	-145
197.125	636
197.194	450
197.262	-3
197.331	433
197.400	224
197.468	451
197.537	-410
197.606	382
197.674	963
197.743	1940
197.812	1022
197.880	1429
197.949	60
198.017	1217
198.086	1260
198.155	1665
198.223	385
198.292	1310
198.360	1128
198.429	322
198.497	-329
198.566	756
198.635	1253
198.703	1015
198.772	216
198.840	1412
198.909	434
198.977	571
199.046	169
199.114	513
199.183	282
199.251	999
199.320	-130
199.388	-383
199.457	-304
199.525	-58
199.594	1075
199.662	652
199.731	-20
199.799	729
199.867	215
199.936	510
200.004	551
200.073	755
200.141	-279
200.210	-473
200.278	220
200.346	1202
200.415	753
200.483	658
200.552	169
200.620	-164
200.688	-737
200.757	545
200.825	217
200.893	1002
200.962	215
201.030	889
201.098	190
201.167	527
201.235	482
201.303	849
201.372	231
201.440	839
201.508	566
201.577	175
201.645	219
201.713	917
201.781	5
201.850	410
201.918	744
201.986	1261
202.055	-369
202.123	176
202.191	879
202.259	937
202.327	61
202.396	478
202.464	216
202.532	631
202.600	1292
202.669	1275
202.737	61
202.805	754
202.873	550
202.941	920
203.009	449
203.078	657
203.146	536
203.214	168
203.282	-188
203.350	646
203.418	419
203.487	1017
203.555	321
203.623	911
203.691	660
203.759	555
203.827	-181
203.895	616
203.963	569
204.031	1319
204.099	426
204.168	476
204.236	300
204.304	655
204.372	-109
204.440	282
204.508	-237
204.576	774
204.644	80
204.712	756
204.780	473
204.848	637
204.916	279
204.984	638
205.052	1333
205.120	389
205.188	469
205.256	471
205.324	468
205.392	-45
205.460	1000
205.528	317
205.596	808
205.664	0
205.732	485
205.799	1016
205.867	1883
205.935	407
206.003	694
206.071	460
206.139	1472
206.207	1052
206.275	59
206.343	826
206.411	57
206.478	450
206.546	516
206.614	1047
206.682	261
206.750	641
206.818	493
206.885	1443
206.953	-455
207.021	1138
207.089	1373
207.157	255
207.225	654
207.292	287
207.360	851
207.428	543
207.496	724
207.563	1552
207.631	1005
207.699	121
207.767	787
207.834	-121
207.902	1005
207.970	942
208.038	318
208.105	1499
208.173	701
208.241	1234
208.309	1832
208.376	1011
208.444	1676
208.512	1196
208.579	298
208.647	1791
208.715	992
208.782	1075
208.850	1514
208.918	1190
208.985	1163
209.053	1808
209.120	880
209.188	450
209.256	477
209.323	139
209.391	654
209.459	1042
209.526	983
209.594	341
209.661	1099
209.729	1237
209.796	685
209.864	1573
209.932	-758
209.999	1617
210.067	667
210.134	1712
210.202	494
210.269	2254
210.337	1317
210.404	1525
210.472	1358
210.539	1301
210.607	936
210.674	1380
210.742	1037
210.809	1074
210.877	1452
210.944	1794
211.012	520
211.079	2600
211.146	1139
211.214	1615
211.281	834
211.349	1315
211.416	979
211.484	1715
211.551	924
211.618	1211
211.686	1989
211.753	1122
211.821	1125
211.888	1128
211.955	1304
212.023	1163
212.090	1165
212.157	1317
212.225	1442
212.292	2869
212.359	2610
212.427	6362
212.494	2458
212.561	2353
212.629	1065
212.696	506
212.763	1300
212.831	847
212.898	1868
212.965	1524
213.032	1341
213.100	1757
213.167	616
213.234	2043
213.301	1088
213.369	1582
213.436	1164
213.503	577
213.570	1443
213.638	1558
213.705	941
213.772	865
213.839	939
213.906	2431
213.973	1483
214.041	670
214.108	1411
214.175	2037
214.242	1201
214.309	2001
214.376	682
214.444	1791
214.511	748
214.578	1264
214.645	1598
214.712	1765
214.779	1903
214.846	1573
214.913	1677
214.980	1904
215.048	1639
215.115	2663
215.182	1862
215.249	1741
215.316	155
215.383	1447
215.450	720
215.517	1552
215.584	1738
215.651	1391
215.718	1207
215.785	1071
215.852	207
215.919	2585
215.986	1761
216.053	703
216.120	497
216.187	898
216.254	1679
216.321	1202
216.388	1524
216.455	1414
216.522	1856
216.589	1815
216.656	2304
216.722	2297
216.789	2952
216.856	3056
216.923	2403
216.990	2026
217.057	2305
217.124	2512
217.191	1617
217.258	2730
217.324	3180
217.391	3747
217.458	2652
217.525	1941
217.592	2336
217.659	1248
217.725	2214
217.792	2312
217.859	1940
217.926	1022
217.993	452
218.059	1508
218.126	254
218.193	1458
218.260	539
218.327	1477
218.393	1284
218.460	1003
218.527	385
218.594	416
218.660	1265
218.727	1848
218.794	444
218.860	1823
218.927	-406
218.994	574
219.061	853
219.127	1191
219.194	899
219.261	1305
219.327	126
219.394	1445
219.461	-168
219.527	1083
219.594	1316
219.661	767
219.727	7
219.794	1190
219.860	272
219.927	867
219.994	1640
220.060	1649
220.127	1858
220.193	2360
220.260	2360
220.326	3219
220.393	4478
220.460	5671
220.526	4214
220.593	2692
220.659	3497
220.726	3339
220.792	4599
220.859	6021
220.925	7321
220.992	9496
221.058	7923
221.125	7038
221.191	4486
221.258	2977
221.324	2669
221.391	1191
221.457	614
221.524	784
221.590	1047
221.657	4985
221.723	2881
221.789	2574
221.856	2850
221.922	1934
221.989	1673
222.055	1517
222.121	402
222.188	2528
222.254	1109
222.321	1097
222.387	880
222.453	588
222.520	786
222.586	938
222.652	818
222.719	1155
222.785	705
222.851	912
222.918	663
222.984	1408
223.050	1238
223.116	-82
223.183	1907
223.249	-470
223.315	113
223.382	1432
223.448	583
223.514	890
223.580	434
223.647	804
223.713	466
223.779	760
223.845	622
223.911	1390
223.978	67
224.044	245
224.110	230
224.176	1024
224.242	265
224.309	275
224.375	288
224.441	348
224.507	648
224.573	162
224.639	1031
224.705	-283
224.772	753
224.838	588
224.904	397
224.970	266
225.036	106
225.102	-108
225.168	192
225.234	345
225.300	206
225.366	1101
225.432	641
225.499	642
225.565	906
225.631	722
225.697	574
225.763	870
225.829	1360
225.895	2204
225.961	2529
226.027	2075
226.093	1805
226.159	3718
226.225	4219
226.291	8282
226.357	12888
226.423	8554
226.489	4222
226.554	3010
226.620	2784
226.686	3496
226.752	5600
226.818	8268
226.884	14696
226.950	14279
227.016	7049
227.082	4496
227.148	3074
227.214	3071
227.279	1844
227.345	1801
227.411	1415
227.477	1446
227.543	2813
227.609	2682
227.674	2844
227.740	1596
227.806	910
227.872	1502
227.938	772
228.003	2849
228.069	1750
228.135	617
228.201	502
228.267	913
228.332	842
228.398	430
228.464	925
228.530	1021
228.595	-79
228.661	-23
228.727	522
228.792	2254
228.858	702
228.924	-753
228.990	2162
229.055	222
229.121	908
229.187	754
229.252	228
229.318	275
229.384	486
229.449	1120
229.515	-534
229.581	134
229.646	1659
229.712	1546
229.777	1057
229.843	975
229.909	532
229.974	3048
230.040	2667
230.105	775
230.171	45
230.236	2258
230.302	3625
230.368	1912
230.433	556
230.499	1339
230.564	3329
230.630	1533
230.695	878
230.761	1182
230.826	-406
230.892	2715
230.957	275
231.023	1063
231.088	417
231.154	1415
231.219	1229
231.284	361
231.350	1718
231.415	-592
231.481	1454
231.546	804
231.612	611
231.677	-28
231.742	-1206
231.808	2388
231.873	212
231.939	-1055
232.004	1983
232.069	1534
232.135	355
232.200	498
232.265	1213
232.331	646
232.396	287
232.461	-90
232.527	0
232.592	363
232.657	-28
232.723	599
232.788	267
232.853	654
232.918	655
232.984	653
233.049	617
233.114	365
233.179	1070
233.245	1420
233.310	1988
233.375	-182
233.440	557
233.506	511
233.571	156
233.636	726
233.701	555
233.766	1230
233.832	1199
233.897	268
233.962	-444
234.027	1423
234.092	818
234.157	952
234.222	88
234.288	1171
234.353	3368
234.418	3753
234.483	1725
234.548	1247
234.613	945
234.678	788
234.743	459
234.808	4235
234.873	1353
234.938	1902
235.004	826
235.069	1310
235.134	618
235.199	675
235.264	543
235.329	-572
235.394	882
235.459	1727
235.524	126
235.589	1953
235.654	489
235.719	112
235.784	18
235.849	1128
235.913	1404
235.978	2094
236.043	2686
236.108	1458
236.173	976
236.238	1953
236.303	377
236.368	796
236.433	2589
236.498	3344
236.563	3362
236.627	6952
236.692	17525
236.757	16793
236.822	7849
236.887	4611
236.952	5000
237.017	3074
237.081	3916
237.146	5303
237.211	11663
237.276	19084
237.341	21548
237.405	15149
237.470	7016
237.535	4895
237.600	2206
237.664	2824
237.729	1745
237.794	3209
237.859	7956
237.923	3896
237.988	1552
238.053	2442
238.118	2349
238.182	5490
238.247	5853
238.312	2453
238.376	2037
238.441	730
238.506	2805
238.570	-224
238.635	1617
238.700	459
238.764	457
238.829	2089
238.893	2348
238.958	2302
239.023	1039
239.087	1171
239.152	554
239.216	396
239.281	1244
239.346	1388
239.410	383
239.475	1249
239.539	4813
239.604	3217
239.668	1191
239.733	869
239.797	941
239.862	4000
239.926	4080
239.991	2832
240.055	919
240.120	581
240.184	1131
240.249	585
240.313	623
240.378	640
240.442	2484
240.507	4800
240.571	1820
240.635	1444
240.700	2749
240.764	385
240.829	141
240.893	-154
240.957	1073
241.022	2675
241.086	5012
241.151	1845
241.215	896
241.279	1676
241.344	1795
241.408	1318
241.472	229
241.537	2612
241.601	1777
241.665	313
241.730	444
241.794	2154
241.858	1791
241.922	1134
241.987	756
242.051	781
242.115	1231
242.179	2040
242.244	1467
242.308	1436
242.372	1430
242.436	2219
242.501	1424
242.565	287
242.629	367
242.693	1129
242.757	794
242.822	1131
242.886	1501
242.950	2130
243.014	1009
243.078	1273
243.142	858
243.206	836
243.271	1932
243.335	2275
243.399	2544
243.463	7553
243.527	21489
243.591	6913
243.655	2282
243.719	980
243.783	2026
243.847	3349
243.911	4610
243.975	3106
244.040	1746
244.104	3028
244.168	1441
244.232	957
244.296	3056
244.360	3283
244.424	314
244.488	647
244.552	1430
244.615	-318
244.679	865
244.743	688
244.807	558
244.871	676
244.935	1054
244.999	-386
245.063	725
245.127	1320
245.191	2651
245.255	2044
245.319	1604
245.383	79
245.446	1833
245.510	349
245.574	1275
245.638	1488
245.702	42
245.766	3269
245.829	2351
245.893	1452
245.957	369
246.021	1823
246.085	1214
246.149	1171
246.212	4340
246.276	5574
246.340	2306
246.404	1521
246.467	1785
246.531	1729
246.595	2801
246.659	2262
246.722	396
246.786	2267
246.850	2339
246.913	2148
246.977	-384
247.041	1710
247.104	633
247.168	1745
247.232	2999
247.295	7803
247.359	3310
247.423	1535
247.486	3276
247.550	3101
247.614	1105
247.677	2037
247.741	1925
247.804	1656
247.868	1239
247.932	2400
247.995	7484
248.059	2888
248.122	27
248.186	3233
248.249	3459
248.313	11083
248.376	12555
248.440	7104
248.503	1537
248.567	2840
248.630	3071
248.694	4541
248.757	6571
248.821	12353
248.884	8071
248.948	6990
249.011	9568
249.075	13384
249.138	12050
249.202	5078
249.265	2962
249.328	4452
249.392	1528
249.455	2904
249.519	1737
249.582	2724
249.645	4651
249.709	4849
249.772	4684
249.835	4160
249.899	2528
249.962	3290
250.025	1623
250.089	4377
250.152	7477
250.215	3657
250.279	2204
250.342	2990
250.405	3389
250.468	2974
250.532	3014
250.595	6081
250.658	17298
250.721	32197
250.785	11924
250.848	7273
250.911	3813
250.974	2949
251.038	3615
251.101	8693
251.164	4126
251.227	5714
251.290	3991
251.354	8153
251.417	25571
251.480	28236
251.543	19639
251.606	43781
251.669	38993
251.732	16562
251.795	12850
251.859	13895
251.922	30310
251.985	20169
252.048	9534
252.111	6690
252.174	4653
252.237	8466
252.300	15096
252.363	18520
252.426	38298
252.489	18433
252.552	10949
252.615	7818
252.678	5612
252.741	12444
252.804	18103
252.867	39970
252.930	23866
252.993	14511
253.056	8423
253.119	7538
253.182	4709
253.245	8135
253.308	6598
253.371	4564
253.434	5049
253.497	6247
253.559	7734
253.622	6011
253.685	5606
253.748	6824
253.811	2856
253.874	4390
253.937	3165
254.000	3361
254.062	5075
254.125	7574
254.188	10837
254.251	8801
254.314	2100
254.376	5419
254.439	5723
254.502	4859
254.565	3610
254.628	9279
254.690	5358
254.753	3126
254.816	2018
254.878	2646
254.941	4352
255.004	6319
255.067	2463
255.129	1423
255.192	1223
255.255	563
255.317	2091
255.380	1738
255.443	917
255.505	1292
255.568	582
255.631	731
255.693	1082
255.756	1011
255.819	1548
255.881	384
255.944	1063
256.006	949
256.069	959
256.132	-39
256.194	1211
256.257	3877
256.319	3384
256.382	2574
256.444	3379
256.507	2220
256.569	1466
256.632	2021
256.694	2982
256.757	10788
256.819	32348
256.882	15776
256.944	6030
257.007	4659
257.069	2552
257.132	3212
257.194	2507
257.257	2475
257.319	2658
257.381	2902
257.444	9237
257.506	32919
257.569	40120
257.631	16573
257.693	8171
257.756	3750
257.818	2554
257.880	2535
257.943	2666
258.005	1349
258.067	1988
258.130	3013
258.192	1803
258.254	3473
258.317	2306
258.379	1678
258.441	4076
258.503	4765
258.566	3780
258.628	8146
258.690	1220
258.753	2588
258.815	3394
258.877	1558
258.939	1122
259.001	1903
259.064	1096
259.126	2047
259.188	1685
259.250	2045
259.312	866
259.375	4620
259.437	2755
259.499	1658
259.561	456
259.623	2000
259.685	3263
259.747	1954
259.809	4603
259.872	9826
259.934	14750
259.996	21069
260.058	6451
260.120	2137
260.182	1636
260.244	981
260.306	530
260.368	2086
260.430	1214
260.492	6682
260.554	10522
260.616	3582
260.678	6941
260.740	10174
260.802	1320
260.864	2471
260.926	896
260.988	2814
261.050	2349
261.112	9313
261.174	21561
261.236	10522
261.298	2646
261.359	4093
261.421	6777
261.483	1974
261.545	2425
261.607	549
261.669	1267
261.731	2921
261.793	6803
261.854	2575
261.916	2680
261.978	3683
262.040	4873
262.102	2201
262.164	2254
262.225	2191
262.287	422
262.349	3065
262.411	2826
262.472	2808
262.534	1653
262.596	6056
262.658	2063
262.719	715
262.781	2505
262.843	5351
262.904	2646
262.966	1869
263.028	2429
263.090	11865
263.151	37574
263.213	16409
263.275	9773
263.336	3249
263.398	2684
263.459	1286
263.521	829
263.583	4343
263.644	2639
263.706	1268
263.767	-181
263.829	1639
263.891	-310
263.952	1149
264.014	1155
264.075	4965
264.137	15813
264.198	5845
264.260	837
264.321	1177
264.383	4700
264.444	20900
264.506	6833
264.567	3589
264.629	6928
264.690	18434
264.752	6325
264.813	2816
264.875	700
264.936	3138
264.998	2299
265.059	1940
265.120	1504
265.182	3081
265.243	18506
265.305	22493
265.366	5412
265.427	3044
265.489	2824
265.550	605
265.611	1124
265.673	1901
265.734	2603
265.795	2554
265.857	320
265.918	922
265.979	5336
266.040	28200
266.102	28176
266.163	8871
266.224	5810
266.286	3192
266.347	1079
266.408	1575
266.469	1390
266.530	1435
266.592	692
266.653	1672
266.714	2979
266.775	1415
266.836	813
266.898	682
266.959	3696
267.020	3164
267.081	1396
267.142	393
267.203	279
267.264	874
267.326	1246
267.387	671
267.448	682
267.509	702
267.570	896
267.631	129
267.692	90
267.753	1422
267.814	698
267.875	1945
267.936	5885
267.997	6633
268.058	3336
268.119	1758
268.180	577
268.241	948
268.302	265
268.363	286
268.424	786
268.485	1056
268.546	-61
268.607	373
268.668	207
268.729	-131
268.790	-266
268.851	1893
268.912	4557
268.972	5128
269.033	1896
269.094	109
269.155	1217
269.216	506
269.277	617
269.338	258
269.398	-23
269.459	1122
269.520	1238
269.581	1745
269.642	2029
269.702	1072
269.763	936
269.824	364
269.885	273
269.945	2362
270.006	923
270.067	925
270.128	503
270.188	657
270.249	348
270.310	229
270.370	895
270.431	665
270.492	-327
270.553	785
270.613	1696
270.674	4688
270.734	1295
270.795	1110
270.856	1726
270.916	1077
270.977	471
271.038	1197
271.098	819
271.159	1780
271.219	2453
271.280	1327
271.340	875
271.401	901
271.462	2823
271.522	1481
271.583	663
271.643	1211
271.704	784
271.764	868
271.825	3070
271.885	10587
271.946	15717
272.006	5560
272.066	5944
272.127	12667
272.187	3300
272.248	2309
272.308	899
272.369	8334
272.429	4402
272.489	4304
272.550	6060
272.610	4043
272.671	2803
272.731	3583
272.791	5438
272.852	2755
272.912	1956
272.972	1083
273.033	1421
273.093	2638
273.153	3971
273.214	3232
273.274	1403
273.334	11765
273.394	16701
273.455	5829
273.515	5632
273.575	14094
273.635	6170
273.696	6401
273.756	11361
273.816	5220
273.876	3332
273.936	5384
273.997	13713
274.057	4082
274.117	1933
274.177	3551
274.237	17933
274.297	16294
274.358	8310
274.418	9777
274.478	8258
274.538	4194
274.598	2313
274.658	7087
274.718	10377
274.778	3983
274.838	2899
274.898	4136
274.958	13957
275.018	12444
275.078	8711
275.138	3231
275.198	1417
275.258	1540
275.318	1553
275.378	2497
275.438	3481
275.498	2731
275.558	5437
275.618	14620
275.678	9031
275.738	6015
275.798	7824
275.858	6487
275.918	2220
275.978	2334
276.038	2079
276.098	1441
276.157	2620
276.217	9070
276.277	4804
276.337	2502
276.397	1603
276.457	2825
276.517	1509
276.576	650
276.636	1164
276.696	1781
276.756	4493
276.815	4275
276.875	1704
276.935	2126
276.995	1186
277.055	1239
277.114	1226
277.174	1885
277.234	6721
277.293	3003
277.353	1672
277.413	732
277.472	1180
277.532	1502
277.592	1759
277.651	6189
277.711	13591
277.771	4362
277.830	14217
277.890	13564
277.950	6841
278.009	25945
278.069	10439
278.128	8940
278.188	13883
278.248	5962
278.307	14111
278.367	10326
278.426	3064
278.486	2002
278.545	1104
278.605	2070
278.664	1567
278.724	1642
278.783	4069
278.843	13331
278.902	3537
278.962	2476
279.021	2273
279.081	3094
279.140	2578
279.199	1834
279.259	2489
279.318	3307
279.378	3101
279.437	5670
279.496	17444
279.556	63246
279.615	58399
279.675	14984
279.734	7580
279.793	9212
279.853	13964
279.912	6081
279.971	3483
280.031	3007
280.090	5469
280.149	9923
280.208	9061
280.268	50442
280.327	57198
280.386	12616
280.445	8162
280.505	7362
280.564	5233
280.623	5074
280.682	4509
280.742	6742
280.801	2859
280.860	2074
280.919	2621
280.978	2373
281.037	1254
281.097	1782
281.156	926
281.215	850
281.274	1729
281.333	8870
281.392	6342
281.451	1801
281.510	1732
281.569	1532
281.628	975
281.688	1854
281.747	2242
281.806	1921
281.865	1441
281.924	889
281.983	735
282.042	832
282.101	781
282.160	916
282.219	1167
282.278	1489
282.337	3356
282.396	3830
282.454	1033
282.513	1339
282.572	6263
282.631	5385
282.690	1316
282.749	1019
282.808	1580
282.867	1447
282.926	1520
282.985	355
283.043	588
283.102	1539
283.161	735
283.220	5266
283.279	11056
283.338	3660
283.396	1692
283.455	1588
283.514	1319
283.573	3347
283.631	2064
283.690	1676
283.749	802
283.808	2092
283.866	3493
283.925	1501
283.984	1947
284.043	2159
284.101	1737
284.160	1484
284.219	5501
284.277	2836
284.336	2755
284.395	10540
284.453	9940
284.512	4305
284.570	3545
284.629	3448
284.688	2724
284.746	3261
284.805	3489
284.863	5758
284.922	6772
284.981	8532
285.039	13207
285.098	21551
285.156	45227
285.215	72968
285.273	72347
285.332	53235
285.390	28674
285.449	18796
285.507	11892
285.566	8566
285.624	6911
285.683	6646
285.741	5038
285.799	3631
285.858	3317
285.916	3603
285.975	2971
286.033	2465
286.091	1565
286.150	1729
286.208	2505
286.267	3436
286.325	2383
286.383	3708
286.442	2275
286.500	2134
286.558	1232
286.616	1705
286.675	2540
286.733	1682
286.791	1331
286.850	2065
286.908	2617
286.966	4561
287.024	2026
287.083	1503
287.141	1065
287.199	1916
287.257	2452
287.315	2299
287.374	1956
287.432	5319
287.490	3938
287.548	1694
287.606	1068
287.664	2134
287.723	2339
287.781	6014
287.839	3330
287.897	3509
287.955	3500
288.013	5367
288.071	10688
288.129	39810
288.187	113181
288.245	60987
288.303	19639
288.361	10499
288.419	8406
288.477	7495
288.535	4053
288.593	3187
288.651	3460
288.709	2324
288.767	1389
288.825	1753
288.883	1683
288.941	2037
288.999	573
289.057	1573
289.115	1128
289.173	1861
289.231	2144
289.289	1158
289.346	1421
289.404	1389
289.462	3388
289.520	2848
289.578	1597
289.636	1827
289.694	977
289.751	1659
289.809	240
289.867	808
289.925	1911
289.983	2048
290.040	1166
290.098	532
290.156	1319
290.214	995
290.271	490
290.329	1383
290.387	1359
290.444	1321
290.502	217
290.560	1995
290.617	1468
290.675	1458
290.733	730
290.790	1422
290.848	1118
290.906	1578
290.963	1571
291.021	2039
291.078	975
291.136	2192
291.194	8058
291.251	21483
291.309	6336
291.366	3110
291.424	1473
291.481	1262
291.539	1936
291.596	1555
291.654	564
291.711	1096
291.769	842
291.826	2751
291.884	2455
291.941	1670
291.999	661
292.056	1289
292.114	1260
292.171	925
292.228	1341
292.286	2722
292.343	2833
292.401	3934
292.458	2921
292.515	917
292.573	1632
292.630	2177
292.687	1420
292.745	2315
292.802	4686
292.859	15395
292.917	14136
292.974	7267
293.031	2295
293.089	1568
293.146	1103
293.203	1451
293.260	1430
293.318	2115
293.375	8352
293.432	5081
293.489	962
293.546	1491
293.604	2476
293.661	5884
293.718	18073
293.775	15113
293.832	5630
293.889	3869
293.947	2579
294.004	2336
294.061	2353
294.118	5674
294.175	14723
294.232	31014
294.289	13074
294.346	5039
294.403	4196
294.460	3565
294.517	2212
294.574	2691
294.631	2305
294.688	2802
294.745	6037
294.802	23802
294.859	40703
294.916	15875
294.973	5546
295.030	4238
295.087	4132
295.144	2633
295.201	2342
295.258	1977
295.315	3268
295.372	6922
295.429	13471
295.486	7540
295.542	5884
295.599	18003
295.656	36364
295.713	22336
295.770	17901
295.827	7868
295.883	5376
295.940	4269
295.997	5236
296.054	6102
296.111	3969
296.167	3495
296.224	2220
296.281	2878
296.338	1625
296.394	2236
296.451	2514
296.508	7116
296.564	16565
296.621	14707
296.678	15850
296.734	27253
296.791	13394
296.848	6101
296.904	6022
296.961	11245
297.018	17402
297.074	16513
297.131	7206
297.187	4445
297.244	4860
297.301	12595
297.357	25532
297.414	10784
297.470	5110
297.527	4252
297.583	3392
297.640	4049
297.696	2748
297.753	2416
297.809	1781
297.866	1908
297.922	2344
297.979	2015
298.035	2553
298.092	3612
298.148	8273
298.204	10384
298.261	5487
298.317	8556
298.374	22571
298.430	13702
298.486	5043
298.543	4190
298.599	4309
298.656	5565
298.712	7243
298.768	17795
298.824	14670
298.881	5520
298.937	3686
298.993	3481
299.050	3114
299.106	2787
299.162	3152
299.218	3501
299.275	2535
299.331	3121
299.387	3682
299.443	14102
299.500	17729
299.556	9470
299.612	4105
299.668	3578
299.724	5057
299.780	6174
299.837	3335
299.893	5011
299.949	13045
300.005	18025
300.061	14825
300.117	28664
300.173	15021
300.229	5820
300.285	6358
300.341	8338
300.397	4451
300.453	3084
300.510	3054
300.566	2702
300.622	3149
300.678	9544
300.734	15962
300.790	14077
300.845	16573
300.901	11288
300.957	14307
301.013	13344
301.069	4857
301.125	3227
301.181	4201
301.237	3099
301.293	2790
301.349	3234
301.405	2510
301.461	3544
301.516	4756
301.572	4848
301.628	4629
301.684	5005
301.740	7356
301.796	12736
301.851	8419
301.907	11055
301.963	11286
302.019	14863
302.074	39627
302.130	43833
302.186	23246
302.242	11044
302.297	6463
302.353	5851
302.409	10629
302.464	10369
302.520	7959
302.576	15544
302.631	20691
302.687	12555
302.743	5816
302.798	4417
302.854	3723
302.910	4686
302.965	4446
303.021	8788
303.076	7392
303.132	7700
303.187	9608
303.243	6177
303.299	4472
303.354	3036
303.410	3009
303.465	2972
303.521	3128
303.576	3694
303.632	3179
303.687	5679
303.743	14538
303.798	14610
303.853	6482
303.909	5371
303.964	3420
304.020	4993
304.075	6532
304.130	7141
304.186	10175
304.241	12556
304.297	10188
304.352	6873
304.358	6616
304.407	4527
304.449	4583
304.463	4609
304.518	3647
304.539	3758
304.573	3916
304.629	3768
304.630	3795
304.684	5248
304.720	8689
304.739	10387
304.794	17728
304.811	15564
304.850	10381
304.902	5962
304.905	5682
304.960	4246
304.992	4276
305.015	4273
305.071	4845
305.083	4729
305.126	4344
305.173	3276
305.181	3106
305.236	3096
305.264	3297
305.292	3472
305.347	3613
305.354	3623
305.402	3717
305.445	5646
305.457	6186
305.512	5541
305.535	5338
305.567	5059
305.622	4713
305.626	4922
305.678	9252
305.716	16309
305.733	18843
305.788	21579
305.807	19024
305.843	14660
305.897	15873
305.898	15871
305.953	15952
305.988	12426
306.008	10530
306.063	6112
306.078	5731
306.118	4925
306.168	3544
306.173	3421
306.228	3822
306.259	3008
306.283	2455
306.338	2832
306.349	3009
306.393	3683
306.440	4905
306.448	5143
306.503	4880
306.530	5706
306.558	7909
306.613	18858
306.620	20322
306.668	26113
306.711	21522
306.723	20038
306.778	15442
306.801	11933
306.833	7990
306.888	4769
306.892	4641
306.943	3702
306.982	3854
306.997	3906
307.052	3819
307.072	4142
307.107	5365
307.162	7731
307.163	7794
307.217	14637
307.253	17994
307.272	18470
307.327	19821
307.343	17691
307.381	13030
307.434	9301
307.436	9412
307.491	18113
307.524	27153
307.546	29221
307.600	21766
307.614	18775
307.655	11950
307.704	7215
307.710	7077
307.765	9447
307.795	12356
307.819	15541
307.874	29499
307.885	29606
307.929	22519
307.975	14474
307.984	14049
308.038	15225
308.065	17881
308.093	27625
308.148	55220
308.156	61361
308.202	92893
308.246	112463
308.257	109958
308.312	68637
308.336	49030
308.366	36622
308.421	22512
308.426	21476
308.475	14467
308.517	11566
308.530	10821
308.585	8911
308.607	8234
308.639	8173
308.694	9993
308.697	10214
308.748	21189
308.787	33406
308.803	33668
308.857	25774
308.877	21137
308.912	16271
308.967	13058
308.967	13057
309.021	15621
309.058	18282
309.076	21531
309.130	34344
309.148	40287
309.185	71625
309.238	124781
309.239	125080
309.293	131335
309.328	124461
309.348	110803
309.402	60238
309.418	46769
309.457	33115
309.508	20383
309.511	19848
309.566	15725
309.598	14446
309.620	15087
309.674	18582
309.688	19742
309.729	18937
309.778	15441
309.783	15093
309.837	11194
309.868	9303
309.892	9928
309.946	13198
309.959	14447
310.001	18534
310.049	22724
310.055	22265
310.109	15099
310.139	10767
310.163	8841
310.218	6175
310.229	5729
310.272	5370
310.319	5534
310.326	5506
310.381	5605
310.409	5537
310.435	5645
310.489	5955
310.499	6057
310.543	6062
310.589	6105
310.598	6222
310.652	6965
310.679	7201
310.706	6077
310.760	3566
310.769	3201
310.814	2945
310.859	2868
310.868	2864
310.923	2838
310.948	2864
310.977	3280
311.031	4358
311.038	4492
311.085	3974
311.128	3369
311.139	3417
311.193	3699
311.218	3847
311.247	3555
311.301	2954
311.308	2902
311.356	3564
311.398	4154
311.410	4032
311.464	3417
311.488	3123
311.518	3033
311.572	2920
311.578	2915
311.626	3282
311.668	3658
311.680	4198
311.734	6602
311.758	7727
311.788	7255
311.842	6259
311.847	6159
311.896	8922
311.937	11467
311.950	11183
312.004	9908
312.027	9275
312.058	7252
312.112	3750
312.117	3414
312.165	3771
312.207	4100
312.297	8201
312.386	6290
312.476	4773
312.566	5325
312.656	3400
312.745	3498
312.835	3661
312.925	4571
313.015	4904
313.104	6114
313.194	4178
313.284	2484
313.374	4255
313.463	3555
313.553	2768
313.643	2311
313.732	2839
313.822	2091
313.912	3499
314.001	4260
314.091	5344
314.180	9369
314.270	5054
314.360	6680
314.449	4366
314.539	2869
314.628	4007
314.718	4656
314.808	6947
314.897	3104
314.987	3099
315.076	2868
315.166	5452
315.255	6207
315.345	4856
315.434	6358
315.524	4709
315.613	4259
315.703	3547
315.792	5076
315.881	9829
315.971	4890
316.060	10222
316.150	22405
316.239	25373
316.328	8007
316.418	3430
316.507	2188
316.597	4580
316.686	3881
316.775	9929
316.865	26358
316.954	4336
317.043	2576
317.133	3019
317.222	2349
317.311	2575
317.400	573
317.490	3947
317.579	2928
317.668	2356
317.757	3182
317.847	6301
317.936	14158
318.025	7285
318.114	4517
318.203	4080
318.293	5646
318.382	10164
318.471	8006
318.560	18648
318.649	46558
318.738	9728
318.828	4837
318.917	4840
319.006	8836
319.095	26222
319.184	53444
319.273	20832
319.362	5675
319.451	3457
319.540	3130
319.629	5364
319.718	7446
319.807	6334
319.896	15687
319.985	62424
320.074	18209
320.163	7271
320.252	15572
320.341	12508
320.430	10265
320.519	6785
320.608	4433
320.697	4189
320.786	3310
320.875	3505
320.964	3385
321.053	5138
321.142	6379
321.230	7851
321.319	10260
321.408	20696
321.497	10743
321.586	8892
321.675	21160
321.764	17593
321.852	10990
321.941	11135
322.030	6876
322.119	11459
322.207	20067
322.296	34104
322.385	14001
322.474	9426
322.562	17752
322.651	14391
322.740	8164
322.829	16229
322.917	31827
323.006	11133
323.095	7825
323.183	9817
323.272	11659
323.361	23650
323.449	77707
323.538	25483
323.626	59403
323.715	34103
323.804	15113
323.892	56430
323.981	24016
324.069	8658
324.158	34675
324.246	29017
324.335	6203
324.424	6032
324.512	3037
324.601	4131
324.689	9713
324.778	18576
324.866	21643
324.954	6076
325.043	4095
325.131	13255
325.220	28093
325.308	31852
325.397	20621
325.485	11377
325.574	2424
325.662	2647
325.750	1853
325.839	3548
325.927	2350
326.015	5052
326.104	10240
326.192	15752
326.280	3684
326.369	2664
326.457	3009
326.545	4775
326.634	2518
326.722	2382
326.810	2385
326.898	1922
326.987	2208
327.075	5383
327.163	11164
327.251	6432
327.340	7571
327.428	9983
327.516	2743
327.604	2269
327.692	3663
327.781	6417
327.869	12216
327.957	6482
328.045	2959
328.133	2687
328.221	4765
328.309	3397
328.397	1828
328.485	3262
328.574	3041
328.662	7784
328.750	10473
328.838	6065
328.926	2003
329.014	1941
329.102	4113
329.190	16845
329.278	6837
329.366	2180
329.454	2064
329.542	2879
329.630	2051
329.718	2475
329.806	2622
329.893	3950
329.981	2883
330.069	1504
330.157	2588
330.245	5799
330.333	2854
330.421	1996
330.509	3345
330.597	9171
330.684	9520
330.772	6963
330.860	15252
330.948	20377
331.036	5071
331.123	2145
331.211	3005
331.299	5924
331.387	15232
331.475	26025
331.562	6810
331.650	2872
331.738	5332
331.825	8028
331.913	3285
332.001	2341
332.089	4667
332.176	15543
332.264	35509
332.352	24981
332.439	6063
332.527	5086
332.614	4325
332.702	7493
332.790	3448
332.877	14414
332.965	31577
333.052	4536
333.140	5203
333.228	11748
333.315	2894
333.403	5237
333.490	21707
333.578	14009
333.665	7378
333.753	3527
333.840	2184
333.928	5848
334.015	21164
334.103	27097
334.190	75535
334.278	18457
334.365	9043
334.452	5364
334.540	2599
334.627	6425
334.715	9549
334.802	17224
334.889	103963
334.977	88901
335.064	8570
335.151	4834
335.239	5329
335.326	8197
335.413	35628
335.501	45402
335.588	5258
335.675	4301
335.762	8020
335.850	14355
335.937	6062
336.024	21890
336.111	104274
336.199	37532
336.286	6185
336.373	2838
336.460	2001
336.547	3323
336.635	4828
336.722	3260
336.809	3179
336.896	5757
336.983	21031
337.070	55782
337.157	73383
337.245	67540
337.332	45173
337.419	5642
337.506	3542
337.593	5848
337.680	20883
337.767	66114
337.854	15584
337.941	22673
338.028	27122
338.115	7727
338.202	10198
338.289	19925
338.376	67018
338.463	19391
338.550	37937
338.637	38314
338.724	15671
338.811	26192
338.898	4718
338.984	3144
339.071	5667
339.158	4296
339.245	7800
339.332	6616
339.419	17659
339.506	15710
339.593	2162
339.679	1567
339.766	839
339.853	3729
339.940	3425
340.027	2576
340.113	1996
340.200	2654
340.287	2454
340.374	2552
340.460	3113
340.547	2621
340.634	3303
340.720	9410
340.807	3989
340.894	1726
340.980	1540
341.067	2319
341.154	2793
341.240	2198
341.327	3702
341.414	1959
341.500	1793
341.587	3155
341.674	2068
341.760	3168
341.847	2935
341.933	1458
342.020	-154
342.106	1638
342.193	1613
342.279	2445
342.366	1244
342.452	3030
342.539	1762
342.625	3910
342.712	7689
342.798	3660
342.885	1261
342.971	791
343.058	792
343.144	1397
343.230	600
343.317	1399
343.403	1152
343.490	700
343.576	518
343.662	1906
343.749	925
343.835	1953
343.921	4109
344.008	22842
344.094	50942
344.180	10264
344.267	3543
344.353	15374
344.439	22944
344.525	6135
344.612	3726
344.698	3967
344.784	2006
344.870	1283
344.957	779
345.043	2063
345.129	476
345.215	3202
345.301	1954
345.387	2347
345.474	994
345.560	1769
345.646	3654
345.732	2212
345.818	2046
345.904	2174
345.990	1562
346.076	3820
346.162	10148
346.249	3555
346.335	305
346.421	1305
346.507	4269
346.593	18148
346.679	3564
346.765	2834
346.851	1765
346.937	1252
347.023	2140
347.108	770
347.194	678
347.280	1850
347.366	1271
347.452	5112
347.538	21620
347.624	17671
347.710	17144
347.796	3985
347.882	1665
347.967	2187
348.053	5073
348.139	2502
348.225	870
348.311	496
348.397	933
348.482	1536
348.568	1966
348.654	728
348.740	678
348.825	211
348.911	2773
348.997	11358
349.083	24435
349.168	5775
349.254	532
349.340	1899
349.425	1003
349.511	1281
349.597	2175
349.682	3306
349.768	11061
349.854	5096
349.939	2751
350.025	1614
350.110	1988
350.196	1210
350.282	130
350.367	1599
350.453	6911
350.538	5986
350.624	1817
350.709	3456
350.795	1038
350.880	945
350.966	2235
351.051	5715
351.137	4597
351.222	1427
351.308	2611
351.393	8414
351.479	1691
351.564	968
351.649	1557
351.735	1178
351.820	714
351.906	1486
351.991	1451
352.076	6686
352.162	7561
352.247	1730
352.332	1304
352.418	2213
352.503	3425
352.588	12206
352.673	8251
352.759	2459
352.844	966
352.929	1358
353.014	793
353.100	1005
353.185	943
353.270	1484
353.355	2423
353.441	1160
353.526	2810
353.611	2904
353.696	1267
353.781	2750
353.866	60
353.952	1255
354.037	2056
354.122	5226
354.207	3913
354.292	1645
354.377	294
354.462	943
354.547	721
354.632	2537
354.717	3583
354.802	1550
354.887	1419
354.972	1184
355.057	534
355.142	298
355.227	1279
355.312	870
355.397	3369
355.482	8064
355.567	3258
355.652	4427
355.737	3341
355.822	12097
355.907	8549
355.991	2165
356.076	-223
356.161	1166
356.246	825
356.331	1861
356.416	2059
356.501	25634
356.585	23525
356.670	2660
356.755	2039
356.840	2398
356.924	14323
357.009	57826
357.094	18786
357.179	3229
357.263	2014
357.348	4116
357.433	3679
357.517	2445
357.602	1786
357.687	1398
357.771	2867
357.856	14245
357.941	7811
358.025	12672
358.110	58129
358.195	23885
358.279	3058
358.364	1824
358.448	7789
358.533	20772
358.617	14284
358.702	16092
358.787	4958
358.871	2786
358.956	1243
359.040	433
359.125	119
359.209	881
359.294	6187
359.378	10648
359.462	2345
359.547	2558
359.631	3121
359.716	986
359.800	2030
359.885	6004
359.969	1607
360.053	1489
360.138	1471
360.222	1742
360.306	2621
360.391	3031
360.475	6107
360.559	13038
360.644	8771
360.728	5389
360.812	13464
360.896	37810
360.981	19536
361.065	12183
361.149	2765
361.233	1630
361.318	617
361.402	2126
361.486	1354
361.570	988
361.654	1511
361.739	3652
361.823	21950
361.907	36846
361.991	5024
362.075	2124
362.159	4501
362.243	4303
362.327	3628
362.411	6420
362.495	4593
362.580	2341
362.664	1035
362.748	1434
362.832	1344
362.916	864
363.000	9032
363.084	28669
363.168	42135
363.252	8658
363.336	3109
363.420	8466
363.503	46784
363.587	55181
363.671	6593
363.755	3552
363.839	5939
363.923	1401
364.007	2978
364.091	6054
364.175	15979
364.258	74080
364.342	35823
364.426	21046
364.510	10222
364.594	9904
364.677	9546
364.761	30768
364.845	20853
364.929	5008
365.013	3524
365.096	4047
365.180	3949
365.264	18930
365.347	77291
365.431	34491
365.515	7640
365.598	895
365.682	2455
365.766	10267
365.849	13587
365.933	3518
366.017	8213
366.100	7677
366.184	1644
366.267	2516
366.351	711
366.435	634
366.518	-507
366.602	1027
366.685	382
366.769	1285
366.852	7013
366.936	10641
367.019	2426
367.103	5321
367.186	16977
367.270	3745
367.353	-463
367.436	1103
367.520	151
367.603	628
367.687	375
367.770	2702
367.853	2009
367.937	8839
368.020	13361
368.104	1714
368.187	2401
368.270	4171
368.353	2916
368.437	13839
368.520	50591
368.603	20203
368.687	10197
368.770	16498
368.853	4016
368.936	9155
369.020	11777
369.103	2226
369.186	71
369.269	1347
369.352	2873
369.436	5616
369.519	3515
369.602	260
369.685	2522
369.768	1013
369.851	992
369.934	1116
370.018	1457
370.101	2021
370.184	4677
370.267	3765
370.350	4453
370.433	8092
370.516	16443
370.599	19512
370.682	2992
370.765	9889
370.848	11970
370.931	23789
371.014	14385
371.097	1979
371.180	1502
371.263	1074
371.346	-121
371.429	1178
371.511	25
371.594	2263
371.677	8337
371.760	14801
371.843	4403
371.926	19496
372.009	46252
372.091	15449
372.174	11451
372.257	29710
372.340	10975
372.423	16416
372.505	25021
372.588	7789
372.671	6893
372.754	20356
372.836	11077
372.919	23982
373.002	49704
373.085	10326
373.167	3183
373.250	9277
373.332	21400
373.415	30557
373.498	63634
373.580	22193
373.663	29729
373.746	40062
373.828	7198
373.911	5169
373.993	7520
374.076	47299
374.159	45437
374.241	10908
374.324	18376
374.406	12213
374.489	17752
374.571	53048
374.654	19229
374.736	10766
374.819	34705
374.901	47988
374.983	47510
375.066	7522
375.148	4561
375.231	35621
375.313	72552
375.395	27660
375.478	3751
375.560	2279
375.643	2882
375.725	11095
375.807	45809
375.890	56332
375.972	39295
376.054	18527
376.136	42008
376.219	14491
376.301	12387
376.383	34113
376.465	11245
376.548	5401
376.630	8654
376.712	27798
376.794	11189
376.877	1556
376.959	46
377.041	2706
377.123	12675
377.205	15946
377.287	1055
377.369	1424
377.452	571
377.534	311
377.616	353
377.698	707
377.780	-245
377.862	1515
377.944	1671
378.026	-151
378.108	821
378.190	966
378.272	933
378.354	-145
378.436	0
378.518	5040
378.600	22259
378.682	12291
378.764	10379
378.846	8580
378.928	4726
379.010	3213
379.091	1286
379.173	1134
379.255	-148
379.337	1169
379.419	4492
379.501	17387
379.583	6779
379.664	1929
379.746	2757
379.828	12549
379.910	14371
379.991	12954
380.073	1577
380.155	1875
380.237	419
380.318	1076
380.400	311
380.482	3216
380.564	2874
380.645	2376
380.727	2242
380.809	2521
380.890	647
380.972	-29
381.053	102
381.135	1836
381.217	3063
381.298	12284
381.380	5797
381.461	6344
381.543	27569
381.624	32201
381.706	5297
381.787	4394
381.869	4285
381.951	11837
382.032	48628
382.113	31248
382.195	5539
382.276	5344
382.358	7417
382.439	23566
382.521	29239
382.602	46172
382.684	19790
382.765	34750
382.846	34034
382.928	43506
383.009	21219
383.090	14261
383.172	62096
383.253	98524
383.334	36218
383.416	39877
383.497	18838
383.578	6884
383.659	14373
383.741	55521
383.822	152117
383.903	73260
383.984	23371
384.066	43265
384.147	23450
384.228	5830
384.309	3036
384.390	2326
384.471	2155
384.553	2270
384.634	4671
384.715	4293
384.796	1002
384.877	2202
384.958	11123
385.039	10762
385.120	3102
385.201	3484
385.282	6595
385.363	8667
385.444	4143
385.525	5114
385.606	19000
385.687	17170
385.768	6611
385.849	8187
385.930	22051
386.011	40924
386.092	9434
386.173	3775
386.254	3162
386.335	4571
386.416	2130
386.496	8177
386.577	13557
386.658	9716
386.739	5651
386.820	8997
386.901	6449
386.981	5718
387.062	1594
387.143	2954
387.224	10980
387.304	13200
387.385	6768
387.466	4884
387.547	9102
387.627	3582
387.708	4836
387.789	21244
387.869	26734
387.950	7807
388.031	2027
388.111	3164
388.192	17814
388.273	28686
388.353	13093
388.434	2833
388.514	4775
388.595	24259
388.676	27632
388.756	11496
388.837	11054
388.917	5774
388.998	421
389.078	1867
389.159	1513
389.239	71
389.320	3359
389.400	565
389.480	7593
389.561	15531
389.641	6683
389.722	3338
389.802	3250
389.883	6883
389.963	18240
390.043	18126
390.124	9404
390.204	5210
390.284	13022
390.365	9587
390.445	31916
390.525	52110
390.605	28714
390.686	5889
390.766	2164
390.846	2470
390.927	-92
391.007	351
391.087	3583
391.167	2541
391.247	1813
391.328	8473
391.408	14297
391.488	9434
391.568	658
391.648	1597
391.728	1831
391.808	2657
391.888	1138
391.969	7725
392.049	11059
392.129	10568
392.209	9219
392.289	16729
392.369	12496
392.449	26192
392.529	12045
392.609	5489
392.689	5710
392.769	14632
392.849	12594
392.929	18310
393.009	36937
393.089	17659
393.169	12225
393.248	43544
393.328	204946
393.408	228225
393.488	46774
393.568	10532
393.648	4844
393.728	3685
393.807	2785
393.887	3725
393.967	2759
394.047	3647
394.127	4249
394.206	10688
394.286	40937
394.366	175516
394.446	186387
394.525	43332
394.605	10526
394.685	11505
394.764	33478
394.844	56152
394.924	34094
395.003	5630
395.083	2886
395.163	2665
395.242	2667
395.322	2705
395.402	968
395.481	5612
395.561	18732
395.640	54362
395.720	33631
395.799	60239
395.879	47055
395.958	19500
396.038	62467
396.117	228910
396.197	250658
396.276	86196
396.356	31943
396.435	26405
396.515	12395
396.594	7773
396.673	12060
396.753	53199
396.832	194623
396.912	136954
396.991	23638
397.070	6750
397.150	1802
397.229	3618
397.308	2722
397.388	5101
397.467	3160
397.546	2118
397.625	-514
397.705	2302
397.784	943
397.863	948
397.942	643
398.022	1952
398.101	18020
398.180	59314
398.259	31634
398.338	7393
398.417	2006
398.497	2531
398.576	2211
398.655	325
398.734	882
398.813	2634
398.892	17075
398.971	60827
399.050	27827
399.129	1414
399.208	919
399.287	1723
399.366	-96
399.445	1407
399.524	1454
399.603	33
399.682	1948
399.761	11320
399.840	59145
399.919	46942
399.998	5577
400.077	820
400.156	-917
400.235	3572
400.313	1703
400.392	2110
400.471	5680
400.550	8718
400.629	1979
400.708	2708
400.786	2756
400.865	17536
400.944	16401
401.023	6623
401.102	245
401.180	1163
401.259	942
401.338	2954
401.416	2046
401.495	1609
401.574	2477
401.652	1671
401.731	3736
401.810	1502
401.888	382
401.967	-436
402.046	716
402.124	3146
402.203	2849
402.281	1260
402.360	3938
402.438	20635
402.517	14129
402.596	3716
402.674	3594
402.753	2608
402.831	1368
402.910	1247
402.988	3292
403.066	11392
403.145	5146
403.223	4370
403.302	5734
403.380	4716
403.459	3218
403.537	2460
403.615	1962
403.694	-633
403.772	177
403.850	15
403.929	-244
404.007	215
404.085	2177
404.164	177
404.242	614
404.320	6783
404.398	20968
404.477	21156
404.555	37145
404.633	32570
404.711	16085
404.789	9367
404.868	704
404.946	343
405.024	145
405.102	-237
405.180	-107
405.258	-651
405.336	1061
405.415	588
405.493	4456
405.571	3094
405.649	-510
405.727	-613
405.805	2729
405.883	2220
405.961	2738
406.039	5859
406.117	80
406.195	1651
406.273	5203
406.351	28953
406.429	20204
406.507	6363
406.585	983
406.663	463
406.740	-191
406.818	318
406.896	371
406.974	1055
407.052	579
407.130	16166
407.208	20574
407.285	3954
407.363	-1565
407.441	174
407.519	-316
407.596	547
407.674	4198
407.752	17719
407.830	24219
407.907	10524
407.985	1097
408.063	534
408.141	-72
408.218	4307
408.296	3295
408.373	180
408.451	289
408.529	430
408.606	-735
408.684	-1173
408.762	238
408.839	-968
408.917	-438
408.994	176
409.072	-1298
409.149	-1063
409.227	-85
409.304	-201
409.382	149
409.459	316
409.537	1343
409.614	395
409.692	-203
409.769	-660
409.846	867
409.924	3137
410.001	-796
410.079	393
410.156	309
410.233	-438
410.311	-494
410.388	-969
410.465	63
410.543	-344
410.620	66
410.697	-685
410.775	-665
410.852	-1436
410.929	1332
411.006	664
411.083	-163
411.161	1186
411.238	4587
411.315	3781
411.392	-802
411.469	1316
411.547	-149
411.624	-979
411.701	-479
411.778	-337
411.855	661
411.932	57
412.009	306
412.086	637
412.163	1490
412.240	1649
412.317	3188
412.394	2623
412.471	318
412.548	-247
412.625	-564
412.702	1926
412.779	2696
412.856	1791
412.933	-1522
413.010	-455
413.087	589
413.164	4752
413.241	6757
413.318	174
413.395	390
413.471	795
413.548	253
413.625	835
413.702	366
413.779	931
413.855	-834
413.932	-1190
414.009	-1496
414.086	546
414.162	16
414.239	1258
414.316	6714
414.393	11863
414.469	1752
414.546	-146
414.623	207
414.699	-622
414.776	-333
414.853	-415
414.929	267
415.006	398
415.082	2135
415.159	1285
415.236	-344
415.312	982
415.389	68
415.465	387
415.542	-384
415.618	-567
415.695	164
415.771	-273
415.848	-363
415.924	891
416.000	507
416.077	682
416.153	-1547
416.230	-975
416.306	-525
416.383	193
416.459	920
416.535	-525
416.612	-984
416.688	-170
416.764	-469
416.841	-973
416.917	127
416.993	800
417.069	1174
417.146	840
417.222	147
417.298	296
417.374	-348
417.451	494
417.527	-571
417.603	-458
417.679	-507
417.755	-48
417.831	-925
417.908	117
417.984	-432
418.060	-883
418.136	336
418.212	955
418.288	-876
418.364	195
418.440	-1165
418.516	1320
418.592	4888
418.668	5634
418.744	2018
418.820	1594
418.896	-676
418.972	-1151
419.048	-809
419.124	1342
419.200	-1250
419.276	615
419.352	-844
419.428	8
419.504	-1134
419.579	-855
419.655	-761
419.731	-621
419.807	674
419.883	2078
419.959	1102
420.034	612
420.110	1687
420.186	6109
420.262	4362
420.337	570
420.413	-329
420.489	-437
420.565	105
420.640	-510
420.716	280
420.792	-1291
420.867	166
420.943	-1001
421.019	-141
421.094	-245
421.170	-344
421.245	-380
421.321	-718
421.397	-8
421.472	2214
421.548	8190
421.623	4578
421.699	601
421.774	-218
421.850	-142
421.925	449
422.001	654
422.076	1263
422.152	692
422.227	1840
422.302	3160
422.378	3608
422.453	8061
422.529	23585
422.604	82336
422.679	156705
422.755	92166
422.830	24888
422.905	9200
422.981	3712
423.056	2551
423.131	1087
423.207	647
423.282	861
423.357	2404
423.432	683
423.508	2113
423.583	2035
423.658	2061
423.733	1492
423.808	2216
423.883	991
423.959	-346
424.034	-141
424.109	-54
424.184	-1092
424.259	49
424.334	-651
424.409	-486
424.484	-49
424.559	368
424.634	-199
424.709	-492
424.784	616
424.859	70
424.934	905
425.009	3840
425.084	7077
425.159	2613
425.234	268
425.309	301
425.384	2580
425.459	5746
425.534	1581
425.609	697
425.683	-496
425.758	196
425.833	-231
425.908	1383
425.983	2144
426.058	7817
426.132	3081
426.207	2444
426.282	6126
426.357	5774
426.431	297
426.506	880
426.581	142
426.655	959
426.730	-1116
426.805	-227
426.879	769
426.954	-711
427.029	1590
427.103	9223
427.178	21745
427.253	9962
427.327	1381
427.402	4840
427.476	12789
427.551	4234
427.625	1953
427.700	2221
427.774	109
427.849	2357
427.923	-534
427.998	614
428.072	628
428.147	3713
428.221	9867
428.296	28609
428.370	12741
428.444	3336
428.519	6785
428.593	17192
428.667	14144
428.742	17645
428.816	12889
428.890	30845
428.965	37611
429.039	17290
429.113	19762
429.188	5910
429.262	476
429.336	1777
429.410	4876
429.485	5057
429.559	13428
429.633	11228
429.707	876
429.781	6848
429.855	37744
429.930	47182
430.004	39721
430.078	72804
430.152	52845
430.226	40920
430.300	38247
430.374	4527
430.448	3070
430.522	18834
430.596	60213
430.670	29582
430.744	28224
430.818	38460
430.892	6851
430.966	554
431.040	703
431.114	-404
431.188	-1074
431.262	595
431.336	598
431.410	7223
431.484	19255
431.557	8689
431.631	-508
431.705	-299
431.779	3878
431.853	23902
431.927	16592
432.000	1609
432.074	243
432.148	2678
432.222	1385
432.295	461
432.369	101
432.443	1670
432.516	12080
432.590	26771
432.664	9646
432.737	936
432.811	-777
432.885	-961
432.958	-103
433.032	-732
433.106	-1119
433.179	-296
433.253	-554
433.326	-977
433.400	-474
433.473	15
433.547	-602
433.620	338
433.694	-988
433.767	987
433.841	299
433.914	-631
433.988	-74
434.061	-390
434.134	-802
434.208	-719
434.281	-719
434.355	-1163
434.428	-503
434.501	-246
434.575	-244
434.648	-114
434.721	-1099
434.795	-618
434.868	-747
434.941	-917
435.014	-1393
435.088	-844
435.161	-870
435.234	795
435.307	188
435.381	-1014
435.454	-352
435.527	62
435.600	-34
435.673	-288
435.746	-764
435.819	-886
435.892	-1260
435.966	-304
436.039	-709
436.112	916
436.185	-1262
436.258	-892
436.331	-1496
436.404	-997
436.477	-1606
436.550	-795
436.623	-236
436.696	-474
436.769	-732
436.842	-1087
436.915	349
436.987	971
437.060	-700
437.133	-695
437.206	-1131
437.279	-349
437.352	-1247
437.425	-583
437.498	129
437.570	579
437.643	26
437.716	-223
437.789	-1145
437.861	-370
437.934	2589
438.007	1256
438.080	-785
438.152	-498
438.225	690
438.298	11967
438.370	36418
438.443	13680
438.516	2234
438.588	-196
438.661	-746
438.734	-749
438.806	-209
438.879	470
438.951	-411
439.024	383
439.096	-1273
439.169	-611
439.241	-1314
439.314	-939
439.386	2547
439.459	3697
439.531	4991
439.604	898
439.676	338
439.749	-116
439.821	-995
439.893	-971
439.966	-367
440.038	-223
440.110	-180
440.183	-665
440.255	-1439
440.327	1016
440.400	7272
440.472	24311
440.544	14309
440.617	1467
440.689	1072
440.761	329
440.833	2062
440.905	1077
440.978	-1211
441.050	-916
441.122	-185
441.194	-1464
441.266	-1000
441.338	-588
441.411	604
441.483	5138
441.555	7550
441.627	2135
441.699	3656
441.771	3955
441.843	897
441.915	-745
441.987	-764
442.059	-97
442.131	576
442.203	2850
442.275	2656
442.347	1361
442.419	1124
442.491	8686
442.563	24141
442.635	15483
442.706	17165
442.778	11998
442.850	-27
442.922	-280
442.994	191
443.066	1473
443.137	1015
443.209	20
443.281	981
443.353	3940
443.425	14825
443.496	48136
443.568	43672
443.640	16071
443.711	3214
443.783	227
443.855	-4
443.926	-278
443.998	637
444.070	2403
444.141	929
444.213	882
444.285	352
444.356	2232
444.428	2553
444.499	542
444.571	-728
444.642	-187
444.714	-1028
444.785	718
444.857	4355
444.928	15692
445.000	7794
445.071	9796
445.143	9709
445.214	2781
445.285	6671
445.357	25180
445.428	40976
445.500	85783
445.571	61413
445.642	25142
445.714	18710
445.785	23862
445.856	3708
445.928	1350
445.999	656
446.070	999
446.141	393
446.213	1337
446.284	523
446.355	2355
446.426	571
446.497	425
446.569	3127
446.640	4400
446.711	1712
446.782	380
446.853	2412
446.924	2472
446.995	196
447.066	1409
447.138	4644
447.209	2547
447.280	-1410
447.351	-1240
447.422	-797
447.493	1103
447.564	1389
447.635	704
447.706	-414
447.777	-254
447.847	-577
447.918	-499
447.989	1519
448.060	4287
448.131	10843
448.202	7184
448.273	2076
448.344	1300
448.414	-99
448.485	69
448.556	155
448.627	-186
448.698	119
448.768	-608
448.839	362
448.910	3975
448.981	2977
449.051	1098
449.122	-548
449.193	24
449.263	-490
449.334	-532
449.405	-598
449.475	954
449.546	1084
449.616	5959
449.687	4685
449.758	1088
449.828	-164
449.899	-246
449.969	-1056
450.040	-284
450.110	1304
450.181	1720
450.251	-1199
450.322	178
450.392	451
450.463	71
450.533	-232
450.604	271
450.674	1006
450.744	570
450.815	-541
450.885	443
450.955	461
451.026	341
451.096	-329
451.166	1544
451.237	6344
451.307	19287
451.377	6422
451.447	536
451.518	-337
451.588	693
451.658	655
451.728	2979
451.799	18196
451.869	20865
451.939	3140
452.009	781
452.079	281
452.149	1525
452.219	4842
452.289	22651
452.360	14927
452.430	2132
452.500	508
452.570	1019
452.640	2797
452.710	12300
452.780	19838
452.850	6463
452.920	3043
452.990	1259
453.060	1019
453.129	1120
453.199	3208
453.269	19923
453.339	41461
453.409	63041
453.479	67894
453.549	102490
453.619	113353
453.688	41584
453.758	5664
453.828	1639
453.898	1073
453.968	1525
454.037	844
454.087	990
454.107	1014
454.168	-21
454.177	-213
454.247	66
454.249	124
454.316	566
454.330	1018
454.386	2338
454.411	5932
454.456	10898
454.492	13915
454.525	16585
454.574	7665
454.595	3888
454.655	1795
454.665	1516
454.734	3161
454.736	3406
454.804	7642
454.817	11065
454.873	21791
454.898	22649
454.943	23557
454.979	15065
455.013	8096
455.060	5653
455.082	5223
455.141	7680
455.152	7835
455.221	20579
455.222	21049
455.291	34235
455.303	33119
455.360	27092
455.384	32047
455.430	37030
455.465	29927
455.499	23527
455.546	23745
455.569	22799
455.627	13857
455.638	12648
455.707	3209
455.708	3249
455.777	2536
455.789	2589
455.846	2664
455.869	2485
455.916	2186
455.950	2403
455.985	2331
456.031	2617
456.054	2769
456.112	2211
456.124	2120
456.193	2215
456.193	2171
456.262	3593
456.274	4077
456.332	5809
456.355	5821
456.401	4888
456.436	4014
456.470	3346
456.516	2430
456.540	2054
456.597	2098
456.609	2067
456.678	1582
456.678	1553
456.747	2546
456.759	2463
456.817	1928
456.840	2061
456.886	2268
456.920	2477
456.955	2701
457.001	3048
457.024	3495
457.082	4600
457.093	4696
457.162	6763
457.163	6820
457.232	7759
457.243	7336
457.301	4634
457.324	3675
457.370	2601
457.405	2888
457.439	3368
457.485	3192
457.508	3079
457.566	4362
457.577	4515
457.646	4757
457.647	4794
457.715	6729
457.727	7042
457.784	8761
457.808	10012
457.853	11530
457.889	12511
457.922	11534
457.969	9221
457.991	9688
458.050	11557
458.060	11973
458.129	17173
458.130	17357
458.198	14842
458.211	13768
458.267	8793
458.292	6942
458.336	6470
458.372	6572
458.405	8290
458.453	10807
458.474	12717
458.533	19884
458.543	20374
458.611	26586
458.614	26813
458.680	17191
458.694	14199
458.749	8491
458.775	7214
458.818	6781
458.855	5961
458.887	5381
458.936	5674
458.955	5876
459.016	5562
459.024	5455
459.093	6497
459.097	6456
459.162	5483
459.177	5822
459.230	7217
459.257	7335
459.299	7193
459.338	7252
459.368	7289
459.418	7633
459.437	7422
459.499	6490
459.505	6458
459.574	6000
459.579	6044
459.643	6101
459.659	6044
459.711	6595
459.740	6894
459.780	7311
459.820	7625
459.849	7700
459.900	8752
459.917	8846
459.981	7988
459.986	7855
460.054	7095
460.061	6987
460.123	7520
460.141	7811
460.191	8654
460.222	8957
460.260	9263
460.302	10212
460.328	9874
460.382	8478
460.397	8490
460.462	8902
460.465	9112
460.534	14625
460.543	15293
460.602	34823
460.623	42160
460.671	64102
460.703	82109
460.739	68596
460.783	48586
460.808	40540
460.864	12847
460.876	11347
460.944	9522
460.945	9475
461.013	8299
461.024	8198
461.081	8778
461.104	9041
461.150	8501
461.184	7878
461.218	7891
461.264	8100
461.286	8199
461.345	8356
461.355	8420
461.423	9099
461.425	9114
461.491	10028
461.505	10382
461.559	21493
461.585	26329
461.628	40963
461.665	55468
461.696	58944
461.745	67088
461.764	57089
461.825	15734
461.832	15201
461.901	10571
461.905	10538
461.969	10209
461.985	9983
462.037	10034
462.065	10292
462.105	12538
462.145	14820
462.173	20858
462.225	32134
462.241	35435
462.305	50712
462.310	49052
462.378	22204
462.385	18648
462.446	11670
462.465	10262
462.514	10078
462.545	10128
462.582	10124
462.625	10546
462.650	10624
462.705	10405
462.718	10956
462.785	13915
462.786	14020
462.854	19782
462.865	20852
462.922	24975
462.945	26642
462.990	18983
463.025	12035
463.058	11168
463.104	10290
463.126	10215
463.184	10406
463.194	10490
463.262	10773
463.264	10794
463.330	11814
463.344	11982
463.398	13291
463.424	13930
463.466	13892
463.504	13884
463.533	13978
463.583	13922
463.601	14289
463.663	15325
463.669	15765
463.737	21304
463.743	21768
463.805	34658
463.823	38493
463.873	60841
463.903	74693
463.940	75351
463.982	76912
464.008	60820
464.062	22974
464.076	21409
464.142	13438
464.144	13370
464.211	12347
464.221	12219
464.279	12964
464.301	13224
464.347	14263
464.381	15194
464.414	17749
464.461	21085
464.482	21698
464.540	23746
464.550	22938
464.617	15963
464.620	15711
464.685	16503
464.699	16704
464.753	20105
464.779	21735
464.820	23819
464.859	25711
464.888	25823
464.938	26011
464.956	26361
465.018	27344
465.023	26906
465.091	20442
465.098	19750
465.158	19449
465.177	19376
465.226	19576
465.257	19545
465.293	19817
465.336	20217
465.361	21539
465.416	24287
465.428	26737
465.495	39940
465.496	40199
465.563	70090
465.575	75316
465.631	88246
465.654	93753
465.698	56446
465.734	24110
465.765	21382
465.813	17565
465.833	17767
465.893	18999
465.900	18866
465.968	17491
465.972	17354
466.035	17027
466.052	16934
466.102	17176
466.131	17276
466.170	17622
466.210	17809
466.237	18143
466.290	18844
466.304	19093
466.369	19872
466.372	19910
466.439	20006
466.449	19957
466.506	22269
466.528	23110
466.573	35091
466.607	43975
466.641	65325
466.687	94916
466.708	103307
466.766	126298
466.775	115839
466.842	34944
466.845	31034
466.909	23105
466.925	21290
466.977	21049
467.004	20923
467.044	22493
467.083	23978
467.111	26714
467.163	31706
467.178	32349
467.242	34689
467.245	34611
467.312	31481
467.321	30999
467.379	30816
467.400	30653
467.446	34438
467.480	37052
467.559	32382
467.638	28281
467.717	29283
467.796	29845
467.875	31280
467.955	32694
468.034	52729
468.113	115208
468.192	164744
468.271	39553
468.350	27709
468.429	27077
468.508	26433
468.588	27971
468.667	28828
468.746	28948
468.825	28916
468.904	24613
468.983	31562
469.062	49429
469.141	58768
469.220	25026
469.299	24994
469.378	30388
469.456	32999
469.535	29897
469.614	28761
469.693	31785
469.772	40562
469.851	56924
469.930	36674
470.009	26242
470.088	24495
470.166	26597
470.245	28298
470.324	30952
470.403	27651
470.482	24737
470.560	24255
470.639	24485
470.718	27978
470.797	25631
470.875	30163
470.954	43172
471.033	45971
471.111	23080
471.190	22863
471.269	21625
471.347	21535
471.426	24246
471.505	29317
471.583	29237
471.662	26335
471.740	24202
471.819	24487
471.898	23461
471.976	24244
472.055	23733
472.133	27880
472.212	36853
472.290	40251
472.369	25768
472.447	23001
472.526	21658
472.604	22890
472.683	22158
472.761	23370
472.839	23163
472.918	22521
472.996	24456
473.075	28169
473.153	26279
473.231	23702
473.310	27022
473.388	25673
473.466	24261
473.545	26030
473.623	28954
473.701	26816
473.780	22902
473.858	21817
473.936	24769
474.014	23172
474.093	27748
474.171	40488
474.249	57621
474.327	33996
474.405	20845
474.484	19312
474.562	19965
474.640	21019
474.718	22524
474.796	20674
474.874	19436
474.952	18406
475.030	18839
475.108	19402
475.187	19995
475.265	19024
475.343	21865
475.421	24397
475.499	21684
475.577	24369
475.655	32507
475.733	66502
475.811	117535
475.889	104513
475.966	61433
476.044	22058
476.122	23697
476.200	24179
476.278	22661
476.356	22190
476.434	23972
476.512	24505
476.590	26637
476.667	25124
476.745	21757
476.823	23416
476.901	22619
476.979	24677
477.056	23841
477.134	24404
477.212	23920
477.290	20980
477.367	20530
477.445	21702
477.523	20790
477.601	20892
477.678	21833
477.756	28665
477.834	29770
477.911	20572
477.989	20635
478.066	21069
478.144	25119
478.222	21568
478.299	22209
478.377	22606
478.454	19734
478.532	19695
478.609	19723
478.687	21212
478.764	19517
478.842	20449
478.919	21297
478.997	21309
479.074	20234
479.152	24964
479.229	33264
479.307	20766
479.384	17845
479.461	18801
479.539	20946
479.616	25311
479.694	20538
479.771	24353
479.848	25509
479.926	35109
480.003	35406
480.080	18729
480.157	18440
480.235	18294
480.312	19285
480.389	23996
480.467	40324
480.544	49644
480.621	24497
480.698	21504
480.775	26017
480.853	27445
480.930	22213
481.007	24036
481.084	28173
481.161	30167
481.238	27936
481.315	20588
481.392	20249
481.470	21113
481.547	21972
481.624	21583
481.701	20003
481.778	21104
481.855	24907
481.932	38980
482.009	65998
482.086	40266
482.163	19698
482.240	21083
482.317	22555
482.393	21854
482.470	21225
482.547	21356
482.624	20133
482.701	20091
482.778	19788
482.855	17666
482.932	17860
483.009	17679
483.085	19482
483.162	22983
483.239	21708
483.316	17758
483.393	18530
483.469	18786
483.546	23268
483.623	25737
483.699	20386
483.776	20431
483.853	24682
483.930	36257
484.006	95407
484.083	159408
484.160	70518
484.236	91703
484.313	67695
484.389	54320
484.466	48444
484.543	45691
484.619	47781
484.696	50465
484.772	55260
484.849	59219
484.925	46161
485.002	44356
485.078	47893
485.155	46592
485.231	43054
485.308	43397
485.384	45334
485.461	57037
485.537	98369
485.614	111397
485.690	45206
485.766	41182
485.843	41423
485.919	48070
485.995	50049
486.072	37328
486.148	38221
486.224	37522
486.301	41013
486.377	46305
486.453	44319
486.530	43966
486.606	58554
486.682	63018
486.758	82906
486.835	94295
486.911	73700
486.987	117584
487.063	89396
487.139	86151
487.215	65786
487.292	43813
487.368	41031
487.444	45583
487.520	50336
487.596	46106
487.672	55559
487.748	93421
487.824	121539
487.900	64055
487.976	45645
488.052	45656
488.128	49769
488.204	42933
488.280	40239
488.356	51187
488.432	111478
488.508	163839
488.584	50110
488.660	35564
488.736	35347
488.812	35733
488.888	43118
488.964	48931
489.039	78982
489.115	107941
489.191	67087
489.267	37927
489.343	38640
489.418	31959
489.494	32973
489.570	30940
489.646	32640
489.722	32665
489.797	36268
489.873	59574
489.949	129607
490.024	97406
490.100	31855
490.176	31512
490.251	34293
490.327	39060
490.403	28588
490.478	28943
490.554	25566
490.629	27174
490.705	26839
490.781	28965
490.856	29210
490.932	32393
491.007	28939
491.083	29742
491.158	29602
491.234	45006
491.309	98407
491.385	94804
491.460	31632
491.536	31684
491.611	26780
491.686	28412
491.762	32811
491.837	53593
491.913	86575
491.988	118149
492.063	123214
492.139	62784
492.214	44322
492.289	24050
492.365	24178
492.440	27803
492.515	30022
492.590	30370
492.666	24110
492.741	37284
492.816	57397
492.891	29779
492.967	23185
493.042	21208
493.117	23988
493.192	25257
493.267	45636
493.342	130570
493.418	161465
493.493	30925
493.568	21031
493.643	21304
493.718	29059
493.793	42867
493.868	35519
493.943	22662
494.018	22792
494.093	22231
494.168	22130
494.243	19322
494.318	18693
494.393	19468
494.468	18963
494.543	17351
494.618	20857
494.693	19505
494.768	21297
494.842	21500
494.917	17230
494.992	18586
495.067	17266
495.142	17407
495.217	19787
495.292	18833
495.366	22674
495.441	27208
495.516	33487
495.591	41111
495.665	100533
495.740	199608
495.815	76402
495.890	30452
495.964	26684
496.039	28712
496.114	27349
496.188	29158
496.263	28435
496.338	25722
496.412	31238
496.487	34685
496.561	30735
496.636	31631
496.710	28294
496.785	32279
496.860	36481
496.934	26075
497.009	25671
497.083	25131
497.158	26932
497.232	31579
497.307	38601
497.381	29381
497.455	39071
497.530	52525
497.604	32280
497.679	33408
497.753	56023
497.827	63138
497.902	42651
497.976	56977
498.050	155900
498.125	571600
498.199	499369
498.273	61153
498.348	37997
498.422	32986
498.496	35238
498.570	32363
498.645	29736
498.719	30800
498.793	40427
498.867	70076
498.941	96776
499.016	257905
499.090	639142
499.164	186486
499.238	32269
499.312	27499
499.386	31832
499.460	31730
499.534	30983
499.609	38706
499.683	62106
499.757	56393
499.831	127624
499.905	461913
499.979	382445
500.053	76741
500.127	70585
500.201	38170
500.275	31272
500.349	30526
500.422	33542
500.496	45866
500.570	86680
500.644	259492
500.718	474090
500.792	91326
500.866	36092
500.940	48749
501.013	37472
501.087	35619
501.161	50078
501.235	73588
501.309	191110
501.382	488638
501.456	359268
501.530	95241
501.603	176036
501.677	59411
501.751	28720
501.825	34963
501.898	76717
501.972	213525
502.046	112836
502.119	37980
502.193	91388
502.266	224774
502.340	97054
502.413	106994
502.487	199222
502.561	110073
502.634	33332
502.708	23435
502.781	22335
502.855	19806
502.928	20091
503.002	20642
503.075	21540
503.149	23229
503.222	24230
503.295	26463
503.369	31513
503.442	47951
503.516	162422
503.589	395371
503.662	231599
503.736	76927
503.809	186659
503.882	137920
503.956	203290
504.029	158128
504.102	60638
504.175	61305
504.249	32436
504.322	33767
504.395	29384
504.468	20756
504.542	23070
504.615	17669
504.688	16838
504.761	15952
504.834	22286
504.907	21549
504.980	28038
505.053	20609
505.127	20615
505.200	28572
505.273	37096
505.346	21685
505.419	18460
505.492	16163
505.565	13527
505.638	14229
505.711	15334
505.784	15655
505.857	15490
505.930	17281
506.003	15495
506.076	18912
506.149	26249
506.221	32299
506.294	28858
506.367	83752
506.440	266653
506.513	114385
506.586	34584
506.659	19093
506.731	16256
506.804	19596
506.877	24595
506.950	19756
507.022	16344
507.095	23843
507.168	26790
507.241	15855
507.313	13547
507.386	15114
507.459	17817
507.531	13195
507.604	12722
507.677	13836
507.749	11372
507.822	18074
507.894	30496
507.967	35179
508.040	22776
508.112	20949
508.185	20360
508.257	18492
508.330	24349
508.402	20400
508.475	22644
508.547	23608
508.620	24892
508.692	39332
508.765	22544
508.837	17251
508.909	16804
508.982	17512
509.054	17348
509.127	16782
509.199	15990
509.271	15183
509.344	15287
509.416	15990
509.488	16588
509.560	16369
509.633	17618
509.705	18415
509.777	20761
509.849	24884
509.922	19876
509.994	18658
510.066	20236
510.138	21953
510.210	37612
510.283	30812
510.355	27114
510.427	24535
510.499	23092
510.571	22542
510.643	22049
510.715	27952
510.787	22514
510.859	22427
510.931	26637
511.003	27956
511.076	25417
511.148	20730
511.219	23890
511.291	40971
511.363	44354
511.435	21518
511.507	19073
511.579	19927
511.651	19560
511.723	18597
511.795	17976
511.867	19598
511.939	26221
512.010	55825
512.082	38880
512.154	19118
512.226	19542
512.298	28520
512.369	35486
512.441	28002
512.513	26093
512.585	21066
512.656	23864
512.728	24839
512.800	19498
512.871	19652
512.943	19816
513.015	17618
513.086	19856
513.158	19679
513.230	20372
513.301	26228
513.373	24325
513.444	18774
513.516	16842
513.588	17687
513.659	19174
513.731	21419
513.802	18733
513.874	32218
513.945	44280
514.016	20580
514.088	18145
514.159	18752
514.231	24664
514.302	31594
514.374	25924
514.445	28306
514.516	61183
514.588	40324
514.659	28802
514.730	53939
514.802	31766
514.873	17710
514.944	20386
515.016	20878
515.087	22902
515.158	35910
515.229	48228
515.301	18411
515.372	19036
515.443	16102
515.514	16997
515.585	15511
515.656	18327
515.728	16684
515.799	16680
515.870	16767
515.941	17636
516.012	18482
516.083	24121
516.154	23874
516.225	26248
516.296	24934
516.367	21856
516.438	23510
516.509	26779
516.580	37126
516.651	92352
516.722	266374
516.793	104094
516.864	42201
516.935	41048
517.006	43666
517.077	52988
517.148	103699
517.219	296365
517.289	414303
517.360	274707
517.431	87164
517.502	30646
517.573	29182
517.643	29262
517.714	32610
517.785	31664
517.856	31105
517.926	34062
517.997	34620
518.068	37663
518.138	45204
518.209	63994
518.280	202449
518.350	621332
518.421	196465
518.492	42524
518.562	35480
518.633	37571
518.703	32443
518.774	45739
518.845	77267
518.915	66260
518.986	38961
519.056	38821
519.127	53539
519.197	92326
519.268	264040
519.338	151662
519.408	42211
519.479	35984
519.549	26064
519.620	25488
519.690	19990
519.760	21852
519.831	21272
519.901	20440
519.971	18651
520.042	23433
520.112	27112
520.182	25814
520.253	25669
520.323	23607
520.393	32228
520.463	40249
520.534	33378
520.604	59336
520.674	29909
520.744	35133
520.814	65749
520.885	53885
520.955	93235
521.025	316624
521.095	100430
521.165	26575
521.235	23728
521.305	21648
521.375	19112
521.445	21168
521.515	21245
521.585	24903
521.655	21680
521.725	22431
521.795	23348
521.865	19039
521.935	35484
522.005	29144
522.075	18169
522.145	21800
522.215	24806
522.285	35917
522.355	49935
522.424	96536
522.494	74146
522.564	30371
522.634	42359
522.704	93092
522.774	31998
522.843	19468
522.913	17591
522.983	20514
523.053	16953
523.122	18413
523.192	21142
523.262	53844
523.331	43217
523.401	18673
523.471	15105
523.540	17518
523.610	13092
523.680	15642
523.749	16614
523.819	23518
523.888	21989
523.958	15428
524.027	16369
524.097	19232
524.166	16205
524.236	16030
524.305	18273
524.375	15653
524.444	14871
524.514	18908
524.583	18655
524.653	24990
524.722	27290
524.791	17565
524.861	16800
524.930	14613
524.999	16007
525.069	21715
525.138	21407
525.207	27411
525.277	17472
525.346	16408
525.415	16663
525.484	17672
525.554	22153
525.623	20993
525.692	18057
525.761	18481
525.830	17911
525.900	19742
525.969	28431
526.038	34659
526.107	52436
526.176	126171
526.245	92028
526.314	46570
526.383	80254
526.452	91005
526.522	161434
526.591	153519
526.660	58052
526.729	32700
526.797	36083
526.867	73235
526.935	261860
527.004	356950
527.073	155951
527.142	27920
527.211	19529
527.280	20464
527.349	18722
527.418	13731
527.487	14470
527.555	13880
527.624	12936
527.693	11870
527.762	14309
527.831	12156
527.899	13489
527.968	13555
528.037	11980
528.106	15807
528.174	23839
528.243	24188
528.312	35276
528.380	35459
528.449	15430
528.518	13997
528.586	10106
528.655	12768
528.723	12787
528.792	11871
528.861	13796
528.929	11984
528.998	13490
529.066	12536
529.135	15319
529.203	13936
529.272	16387
529.340	19158
529.409	19063
529.477	17410
529.545	23552
529.614	26414
529.682	29176
529.751	32066
529.819	32691
529.887	26142
529.956	20852
530.024	22391
530.092	18171
530.161	20070
530.229	23742
530.297	19765
530.365	20078
530.434	20811
530.502	18713
530.570	19662
530.638	17071
530.707	18412
530.775	20019
530.843	18241
530.911	18687
530.979	18243
531.047	19940
531.115	20971
531.183	19100
531.252	19876
531.320	19167
531.388	18442
531.456	20586
531.524	18254
531.592	20919
531.660	24376
531.728	19935
531.796	19508
531.864	19290
531.932	20083
532.000	20270
532.067	21620
532.135	22464
532.203	24863
532.271	26223
532.339	33880
532.407	53211
532.475	33754
532.542	26269
532.610	27806
532.678	32803
532.746	88486
532.814	155886
532.881	43512
532.949	24132
533.017	21541
533.084	21511
533.152	20426
533.220	20325
533.287	21139
533.355	21270
533.423	21396
533.490	20754
533.558	21724
533.625	21143
533.693	22697
533.761	21963
533.828	23576
533.896	22728
533.963	34407
534.031	35749
534.098	41065
534.166	26673
534.233	22523
534.300	26406
534.368	23811
534.435	21774
534.503	21839
534.570	21987
534.637	20702
534.705	20524
534.772	22566
534.840	27490
534.907	69063
534.974	69767
535.041	23086
535.109	24005
535.176	17981
535.243	17671
535.310	17283
535.378	15877
535.445	17280
535.512	14449
535.579	16691
535.646	15266
535.714	17326
535.781	19983
535.848	21232
535.915	24257
535.982	25501
536.049	23132
536.116	23442
536.183	18805
536.250	18807
536.317	18624
536.384	19829
536.451	22865
536.518	21354
536.585	18704
536.652	23466
536.719	25293
536.786	19738
536.853	19078
536.920	26339
536.987	32690
537.053	30978
537.120	91130
537.187	59789
537.254	16946
537.321	15400
537.388	16415
537.454	14454
537.521	13122
537.588	14459
537.654	17160
537.721	17429
537.788	16658
537.855	14812
537.921	15648
537.988	15032
538.055	15821
538.121	14881
538.188	15915
538.254	18932
538.321	27838
538.388	20016
538.454	16438
538.521	14182
538.587	13597
538.654	15115
538.720	13580
538.787	14256
538.853	16014
538.920	18474
538.986	20268
539.053	17654
539.119	15682
539.185	14713
539.252	17793
539.318	19626
539.385	19303
539.451	17790
539.517	17669
539.583	19725
539.650	37633
539.716	67687
539.782	19431
539.849	14165
539.915	15248
539.981	15094
540.047	17051
540.114	15279
540.180	16506
540.246	14901
540.312	18817
540.378	29554
540.444	27422
540.510	33716
540.576	69322
540.643	22627
540.709	12829
540.775	15068
540.841	15014
540.907	22771
540.973	33367
541.039	22058
541.105	19695
541.171	15026
541.237	14444
541.303	15832
541.369	16801
541.435	18723
541.500	24116
541.566	16093
541.632	13036
541.698	12526
541.764	13780
541.830	12928
541.896	13417
541.961	14419
542.027	12890
542.093	14389
542.159	14541
542.224	15494
542.290	20781
542.356	27072
542.421	26537
542.487	17856
542.553	15886
542.618	19195
542.684	15142
542.750	14417
542.815	18125
542.881	27861
542.947	66896
543.012	37602
543.078	14035
543.143	13886
543.209	14479
543.274	14658
543.340	16537
543.405	31389
543.471	35532
543.536	14722
543.602	15192
543.667	12816
543.732	14400
543.798	13547
543.863	15089
543.928	13527
543.994	12024
544.059	13520
544.124	12524
544.190	13801
544.255	13202
544.320	13905
544.386	13913
544.451	17053
544.516	17406
544.581	20274
544.646	47015
544.712	53855
544.777	19401
544.842	19866
544.907	22916
544.972	18595
545.037	18429
545.102	20976
545.168	19994
545.233	21453
545.298	21287
545.363	25371
545.428	24301
545.493	33567
545.558	52163
545.623	25443
545.688	19650
545.753	19439
545.818	19370
545.883	19503
545.947	19967
546.012	22473
546.077	22464
546.142	19959
546.207	19735
546.272	22623
546.337	21665
546.401	20674
546.466	20621
546.531	19858
546.596	20735
546.661	20824
546.725	19601
546.790	18989
546.855	20400
546.919	19680
546.984	21322
547.049	22862
547.113	28347
547.178	23656
547.243	26659
547.307	29771
547.372	33998
547.436	36121
547.501	27379
547.565	29050
547.630	28620
547.695	31117
547.759	38368
547.823	31897
547.888	26228
547.952	26955
548.017	28555
548.081	34099
548.146	42889
548.210	36566
548.274	28202
548.339	26587
548.403	26027
548.468	25100
548.532	25241
548.596	26378
548.660	25703
548.725	29304
548.789	33934
548.853	34944
548.917	29928
548.982	41546
549.046	39003
549.110	25806
549.174	25366
549.238	26215
549.303	25845
549.367	27999
549.431	25276
549.495	25321
549.559	26652
549.623	28747
549.687	32445
549.751	36576
549.815	34575
549.879	33886
549.943	31392
550.007	34597
550.071	34509
550.135	34711
550.199	31106
550.263	32285
550.327	34650
550.391	45722
550.455	34471
550.519	32742
550.582	35454
550.646	40314
550.710	39113
550.774	36977
550.838	37587
550.901	39230
550.965	42189
551.029	42929
551.093	48570
551.156	60534
551.220	103614
551.284	98417
551.347	60624
551.411	119360
551.475	114661
551.538	43591
551.602	35971
551.666	34622
551.729	32313
551.793	33788
551.856	33150
551.920	33812
551.983	33862
552.047	32141
552.110	31899
552.174	31389
552.237	32545
552.301	30939
552.364	29746
552.428	30352
552.491	31156
552.554	30913
552.618	31007
552.681	33019
552.745	32056
552.808	39028
552.871	40542
552.934	36027
552.998	32557
553.061	35463
553.124	32738
553.187	32793
553.251	34868
553.314	37431
553.377	37740
553.440	54843
553.503	130615
553.567	164409
553.630	42258
553.693	34202
553.756	33791
553.819	32581
553.882	31677
553.945	31941
554.008	31621
554.071	31301
554.134	31129
554.197	30995
554.260	28775
554.323	31189
554.386	31327
554.449	31107
554.512	30685
554.575	30004
554.638	31621
554.701	29323
554.764	29699
554.827	29341
554.889	27726
554.952	26161
555.015	26183
555.078	27245
555.141	26384
555.203	25595
555.266	27145
555.329	29032
555.391	25054
555.454	26422
555.517	25666
555.580	24988
555.642	23198
555.705	24030
555.768	23650
555.830	25092
555.893	23222
555.955	21895
556.018	22052
556.080	23276
556.143	22903
556.206	22656
556.268	24745
556.330	23936
556.393	23052
556.455	25135
556.518	35455
556.580	31634
556.643	21356
556.705	20640
556.767	20681
556.830	21701
556.892	21248
556.955	25884
557.017	21506
557.079	20772
557.142	19720
557.204	21784
557.266	29968
557.328	26081
557.391	19702
557.453	18816
557.515	19940
557.577	21430
557.639	20889
557.701	18459
557.764	17194
557.826	20176
557.888	20827
557.950	20284
558.012	20977
558.074	25555
558.136	45667
558.198	81155
558.260	33106
558.322	23271
558.384	23099
558.446	24590
558.508	26262
558.570	32074
558.632	43158
558.694	56581
558.756	69824
558.818	188858
558.880	371451
558.942	102808
559.003	86893
559.065	42141
559.127	25820
559.189	25891
559.251	29780
559.312	41212
559.374	90983
559.436	243992
559.498	98493
559.559	27952
559.621	26003
559.683	34308
559.744	56280
559.806	137704
559.868	155973
559.929	38739
559.991	31440
560.052	42053
560.114	85746
560.176	53006
560.237	55434
560.299	72548
560.360	24469
560.422	21228
560.483	20406
560.545	19674
560.606	19775
560.667	19074
560.729	18252
560.790	19016
560.852	18397
560.913	18417
560.974	17657
561.036	17883
561.097	18322
561.158	18571
561.220	17393
561.281	18045
561.342	17680
561.403	20442
561.465	21801
561.526	36850
561.587	37719
561.648	20918
561.709	18521
561.771	18866
561.832	18948
561.893	17081
561.954	18227
562.015	16592
562.076	18018
562.137	17483
562.198	16975
562.259	18163
562.320	17467
562.381	18328
562.442	21111
562.503	18920
562.564	17148
562.625	16599
562.686	17131
562.747	18101
562.808	16820
562.869	19580
562.930	23951
562.991	21985
563.051	20137
563.112	19629
563.173	18406
563.234	17268
563.294	17411
563.355	17522
563.416	18569
563.477	19256
563.537	18717
563.598	21119
563.659	19336
563.720	19247
563.780	18474
563.841	19297
563.901	17984
563.962	18174
564.023	17725
564.083	18775
564.144	18861
564.204	19365
564.265	20648
564.325	26345
564.386	48531
564.446	39856
564.507	17955
564.567	17797
564.628	16798
564.688	18652
564.749	18099
564.809	22049
564.869	25591
564.930	17980
564.990	17622
565.050	17258
565.111	16675
565.171	17229
565.231	16677
565.292	17218
565.352	15610
565.412	17857
565.472	17111
565.532	16100
565.593	15821
565.653	16398
565.713	17260
565.773	17948
565.833	18074
565.893	21122
565.953	15860
566.013	16251
566.074	18522
566.134	26825
566.194	41797
566.254	37289
566.314	22933
566.374	18601
566.434	18051
566.494	18349
566.554	16461
566.614	17255
566.673	16661
566.733	17126
566.793	17757
566.853	19276
566.913	17882
566.973	18897
567.033	18150
567.092	18005
567.152	18548
567.212	19596
567.272	18972
567.331	19823
567.391	18600
567.451	21085
567.511	30062
567.570	28283
567.630	17164
567.690	17536
567.749	16924
567.809	16414
567.868	17226
567.928	18454
567.988	20064
568.047	17571
568.107	17244
568.166	16489
568.226	17654
568.285	19798
568.345	18352
568.404	18351
568.464	17823
568.523	16598
568.582	17011
568.642	17967
568.701	17942
568.761	19209
568.820	21757
568.879	24063
568.939	28155
568.998	21398
569.057	17543
569.116	16932
569.176	15900
569.235	15810
569.294	16662
569.353	16167
569.413	16190
569.472	17043
569.531	14767
569.590	16100
569.649	14729
569.708	14513
569.767	16743
569.827	16694
569.886	16738
569.945	15366
570.004	15992
570.063	17234
570.122	17310
570.181	18243
570.240	20942
570.299	19859
570.358	16770
570.417	14929
570.475	14416
570.534	15243
570.593	15398
570.652	15479
570.711	15472
570.770	16517
570.829	18632
570.887	15070
570.946	16094
571.005	14048
571.064	14933
571.122	16951
571.181	18915
571.240	16429
571.299	15346
571.357	17648
571.416	18100
571.475	21865
571.533	22198
571.592	16357
571.650	19199
571.709	15389
571.768	15503
571.826	15243
571.885	14995
571.943	14821
572.002	15353
572.060	15461
572.119	14091
572.177	14014
572.236	14021
572.294	13186
572.352	13071
572.411	13835
572.469	13507
572.528	13938
572.586	14837
572.644	14831
572.703	16139
572.761	14579
572.819	14740
572.877	12985
572.936	13498
572.994	13279
573.052	12908
573.110	13802
573.169	13096
573.227	13074
573.285	13104
573.343	12818
573.401	13014
573.459	13087
573.517	12970
573.576	13157
573.634	13787
573.692	13300
573.750	12583
573.808	13531
573.866	15300
573.924	20710
573.982	18793
574.040	13242
574.098	14391
574.155	12770
574.213	12785
574.271	13599
574.329	12053
574.387	13002
574.445	11071
574.503	12618
574.560	10816
574.618	12290
574.676	10672
574.734	11619
574.792	12004
574.849	11335
574.907	10368
574.965	11588
575.022	10044
575.080	11472
575.138	11036
575.195	12271
575.253	12362
575.311	12530
575.368	11529
575.426	10951
575.483	11905
575.541	11650
575.598	12257
575.656	13155
575.713	12032
575.771	10973
575.828	11802
575.886	11937
575.943	13472
576.001	14173
576.058	12622
576.115	14529
576.173	17643
576.230	17964
576.287	17339
576.345	14750
576.402	14356
576.459	14107
576.517	14864
576.574	15942
576.631	16848
576.688	13857
576.746	13953
576.803	13887
576.860	13206
576.917	13940
576.974	13520
577.031	13290
577.089	12769
577.146	14029
577.203	13653
577.260	14899
577.317	15699
577.374	17595
577.431	15922
577.488	14122
577.545	12604
577.602	14269
577.659	14292
577.716	14092
577.773	14838
577.830	14860
577.886	14689
577.943	13523
578.000	14397
578.057	16057
578.114	16003
578.171	19633
578.227	24137
578.284	22706
578.341	19803
578.398	17221
578.454	17149
578.511	18902
578.568	19546
578.625	15622
578.681	13291
578.738	13331
578.794	12925
578.851	12473
578.908	13178
578.964	13800
579.021	13169
579.077	12822
579.134	13165
579.190	11361
579.247	11729
579.303	12308
579.360	11314
579.416	11782
579.473	11448
579.529	11903
579.586	13156
579.642	13044
579.698	13129
579.755	14113
579.811	13739
579.867	14597
579.924	15277
579.980	16537
580.036	19019
580.093	22272
580.149	31221
580.205	34327
580.261	27072
580.317	22952
580.374	20061
580.430	21252
580.486	18481
580.542	15957
580.598	14339
580.619	14374
580.654	14450
580.692	14153
580.710	14032
580.765	13913
580.767	13924
580.823	14061
580.838	13753
580.879	12984
580.911	13087
580.935	13183
580.984	13259
580.991	13294
581.047	14236
581.057	14516
581.103	15807
581.130	16196
581.159	16625
581.203	17659
581.215	17963
581.270	17478
581.276	17379
581.326	16565
581.349	16372
581.382	16083
581.422	15633
581.438	15483
581.494	14994
581.494	14982
581.550	14835
581.567	14728
581.606	14541
581.640	15010
581.661	15315
581.713	14820
581.717	14792
581.773	14227
581.786	14261
581.829	14384
581.859	14569
581.885	14809
581.932	14457
581.940	14392
581.996	14842
582.004	14732
582.052	14048
582.077	14236
582.107	14523
582.150	14488
582.163	14483
582.219	14820
582.223	14708
582.274	13529
582.296	14471
582.330	15913
582.368	15473
582.386	15317
582.441	14188
582.441	14191
582.497	15111
582.514	15020
582.552	15031
582.587	15568
582.608	15798
582.659	15101
582.663	15060
582.719	15279
582.732	15265
582.774	15166
582.805	15194
582.830	15246
582.877	15475
582.885	15535
582.941	15987
582.950	16057
582.996	16134
583.023	17040
583.052	18429
583.095	19592
583.107	19852
583.162	22831
583.168	22933
583.218	23654
583.240	22269
583.273	20032
583.313	19032
583.328	18755
583.384	17064
583.385	17025
583.439	15718
583.458	15677
583.494	15671
583.531	14854
583.549	14516
583.603	14636
583.605	14624
583.660	13883
583.676	13579
583.715	13144
583.748	14162
583.770	14887
583.820	14486
583.825	14393
583.881	13690
583.893	13662
583.936	13970
583.965	13966
583.991	13841
584.038	14135
584.046	14237
584.101	14249
584.110	14333
584.156	14321
584.183	14045
584.211	13764
584.255	12828
584.266	12618
584.321	13310
584.328	13367
584.376	13933
584.400	13880
584.431	13600
584.472	13073
584.486	12929
584.541	13733
584.545	13687
584.596	12694
584.617	13012
584.651	14224
584.689	14825
584.706	14650
584.761	14091
584.762	14086
584.816	13612
584.834	14060
584.871	15052
584.906	14827
584.926	14613
584.978	15012
584.980	15029
585.035	14903
585.051	15047
585.090	15660
585.123	16079
585.145	16080
585.195	16554
585.200	16638
585.254	16800
585.267	17230
585.309	18952
585.340	20780
585.364	21892
585.412	20816
585.419	20542
585.473	19758
585.484	20109
585.528	22921
585.556	25576
585.583	29639
585.628	40633
585.637	43871
585.692	74008
585.700	79478
585.747	102898
585.772	86871
585.801	57745
585.845	28551
585.856	24208
585.910	19019
585.917	18540
585.965	16813
585.989	16495
586.019	16489
586.061	16150
586.074	16013
586.128	16329
586.133	16384
586.183	17350
586.205	17508
586.237	17679
586.277	18182
586.292	18227
586.346	18017
586.349	18024
586.401	18048
586.421	18432
586.455	19835
586.493	21894
586.509	24115
586.564	33188
586.565	33605
586.618	56228
586.637	56809
586.672	42858
586.709	27212
586.727	22484
586.781	17473
586.781	17462
586.835	16332
586.853	16090
586.889	16077
586.925	15614
586.944	15370
586.996	15294
586.998	15301
587.052	16630
587.068	16696
587.106	16424
587.140	16340
587.161	16287
587.212	16200
587.215	16228
587.269	17278
587.284	17386
587.323	16518
587.356	16101
587.377	16367
587.427	17093
587.431	17109
587.485	16585
587.499	16795
587.539	17371
587.571	17389
587.593	17579
587.643	18631
587.648	18692
587.702	18755
587.715	18854
587.755	19190
587.786	19370
587.810	19222
587.858	18647
587.864	18682
587.917	19824
587.930	20139
587.971	21908
588.001	23286
588.025	23103
588.073	21266
588.079	21167
588.133	21445
588.145	21661
588.187	23156
588.217	23865
588.241	24341
588.288	26451
588.295	26739
588.348	28480
588.360	28992
588.402	30843
588.431	32635
588.456	34471
588.503	37639
588.510	38085
588.564	43515
588.575	44894
588.617	50153
588.646	54490
588.671	58906
588.718	71684
588.725	74442
588.778	101942
588.789	110091
588.832	172996
588.861	225868
588.886	314108
588.932	507624
588.939	526709
588.993	630779
589.004	628107
589.047	374042
589.075	214717
589.100	153105
589.147	80152
589.154	76496
589.207	60944
589.218	58691
589.261	57612
589.290	58814
589.314	61225
589.361	70482
589.368	73804
589.421	107848
589.433	117490
589.475	207081
589.504	283450
589.528	372355
589.576	542529
589.582	528381
589.635	297953
589.647	250274
589.689	126447
589.718	61244
589.742	51856
589.790	39206
589.795	39151
589.849	41464
589.861	42768
589.902	47885
589.932	49129
589.955	42174
590.004	26644
590.009	26099
590.062	23080
590.075	22395
590.115	21435
590.146	20889
590.168	20936
590.218	20966
590.222	20984
590.275	21507
590.289	21647
590.328	21942
590.360	22064
590.381	21572
590.431	20451
590.435	20433
590.488	20255
590.503	20239
590.541	20365
590.574	20607
590.594	20443
590.645	19742
590.647	19739
590.700	19946
590.716	19988
590.753	19503
590.787	19035
590.806	18933
590.859	18850
590.859	18845
590.912	18766
590.930	18678
590.965	18828
591.001	19179
591.018	19001
591.071	18350
591.072	18348
591.124	18612
591.143	18676
591.177	18842
591.214	19114
591.230	19331
591.283	19968
591.285	19995
591.336	19769
591.356	19690
591.389	19618
591.427	19545
591.442	19514
591.495	19214
591.498	19202
591.547	18929
591.569	18835
591.600	18864
591.640	18918
591.653	19089
591.706	19794
591.711	19888
591.759	22542
591.782	23900
591.811	25461
591.853	27662
591.864	26716
591.917	21509
591.924	20797
591.969	20238
591.995	19904
592.022	20345
592.066	21145
592.075	21841
592.127	26140
592.137	26961
592.180	30508
592.208	32638
592.233	29406
592.279	23086
592.285	22777
592.338	20359
592.350	19805
592.390	19665
592.421	19594
592.443	19562
592.491	19528
592.495	19562
592.548	20130
592.562	20300
592.600	20251
592.633	20204
592.653	19803
592.704	18681
592.705	18804
592.775	19691
592.846	20285
592.916	19921
592.987	20438
593.058	20174
593.128	20781
593.199	19945
593.270	18400
593.341	19673
593.411	19341
593.482	18551
593.553	20106
593.623	18148
593.694	20463
593.764	22748
593.835	20545
593.906	18729
593.976	20699
594.047	21882
594.117	28382
594.188	28781
594.258	19301
594.329	19405
594.399	20016
594.470	19641
594.540	18931
594.611	19700
594.681	19536
594.751	19492
594.822	21454
594.892	21261
594.963	23490
595.033	23744
595.103	23237
595.174	26536
595.244	41810
595.314	52211
595.384	25629
595.455	23513
595.525	24611
595.595	24224
595.665	24405
595.736	23135
595.806	23733
595.876	23720
595.946	23611
596.016	22675
596.087	24586
596.157	23379
596.227	24713
596.297	25086
596.367	25988
596.437	30100
596.507	41574
596.577	52557
596.647	28878
596.717	26041
596.787	25768
596.857	25667
596.927	26381
596.997	26326
597.067	27170
597.137	29320
597.207	27722
597.277	26887
597.347	26735
597.417	26522
597.487	26588
597.557	27329
597.626	28198
597.696	30191
597.766	36894
597.836	51081
597.906	32117
597.975	26834
598.045	26226
598.115	25820
598.185	25748
598.254	29118
598.324	30279
598.394	28152
598.464	28478
598.533	27825
598.603	26555
598.672	27326
598.742	28324
598.812	27480
598.881	28067
598.951	28391
599.020	27901
599.090	27309
599.159	28638
599.229	27682
599.299	26975
599.368	28884
599.437	28376
599.507	28145
599.576	29605
599.646	28700
599.715	28532
599.785	27267
599.854	30383
599.924	33673
599.993	30258
600.062	28213
600.132	27987
600.201	28769
600.270	31873
600.340	30464
600.409	29321
600.478	30452
600.547	31443
600.617	31049
600.686	27995
600.755	27882
600.824	27806
600.894	27721
600.963	27464
601.032	26863
601.101	27551
601.170	27077
601.239	27063
601.308	27973
601.378	27425
601.447	28504
601.516	26511
601.585	26395
601.654	29004
601.723	28530
601.792	29086
601.861	29986
601.930	32206
601.999	31402
602.068	29401
602.137	29863
602.206	30327
602.275	29522
602.343	31481
602.412	30965
602.481	30962
602.550	30722
602.619	30600
602.688	30796
602.756	31334
602.825	31369
602.894	31952
602.963	31828
603.032	33518
603.100	31109
603.169	30916
603.238	32592
603.307	31439
603.375	31639
603.444	31856
603.513	30623
603.581	31251
603.650	32742
603.719	29861
603.787	28242
603.856	29480
603.924	29747
603.993	31008
604.061	29980
604.130	31913
604.198	32141
604.267	32094
604.335	32340
604.404	33280
604.472	32169
604.541	32805
604.609	33742
604.678	33866
604.746	34767
604.815	35506
604.883	34878
604.951	34848
605.020	34657
605.088	34400
605.156	33635
605.225	33116
605.293	31994
605.361	33898
605.429	34247
605.498	33300
605.566	33699
605.634	33948
605.702	36012
605.771	35738
605.839	35694
605.907	34265
605.975	34654
606.043	34487
606.111	32965
606.180	35459
606.248	36143
606.316	38356
606.384	36053
606.452	37873
606.520	31270
606.588	30194
606.656	29094
606.724	28687
606.792	27779
606.860	26415
606.928	23670
606.996	24886
607.064	23890
607.132	24189
607.200	25289
607.267	26779
607.335	25485
607.403	26483
607.471	25185
607.539	25037
607.607	25359
607.674	23477
607.742	24337
607.810	23839
607.878	22093
607.946	23418
608.013	25081
608.081	24363
608.149	23782
608.216	23749
608.284	26496
608.352	26051
608.419	26932
608.487	38335
608.555	29174
608.622	25073
608.690	24972
608.757	27661
608.825	27953
608.893	27934
608.960	27433
609.028	31966
609.095	40245
609.163	28864
609.230	25801
609.298	24620
609.365	22699
609.432	23713
609.500	25007
609.567	26674
609.635	30643
609.702	31916
609.769	32734
609.837	30749
609.904	25054
609.971	23865
610.039	26408
610.106	33847
610.173	60652
610.241	137149
610.308	98893
610.375	48170
610.442	26819
610.509	24909
610.577	24546
610.644	24635
610.711	24308
610.778	26749
610.845	25346
610.912	27988
610.980	30472
611.047	35089
611.114	30481
611.181	26985
611.248	25989
611.315	28742
611.382	27447
611.449	28109
611.516	29546
611.583	28517
611.650	27968
611.717	29879
611.784	30033
611.851	30892
611.918	33403
611.984	39870
612.051	57831
612.118	118062
612.185	288826
612.252	184815
612.319	46140
612.386	36812
612.452	33096
612.519	36913
612.586	47702
612.653	38989
612.719	31857
612.786	31965
612.853	29419
612.919	28340
612.986	29275
613.053	27952
613.120	25852
613.186	24985
613.253	27111
613.319	26308
613.386	25789
613.453	26663
613.519	27912
613.586	26749
613.652	30189
613.719	28602
613.785	28051
613.852	28074
613.918	26846
613.985	29043
614.051	35673
614.118	56347
614.184	55497
614.250	28597
614.317	27655
614.383	27179
614.449	26445
614.516	27389
614.582	29149
614.648	27116
614.715	26384
614.781	26588
614.847	27897
614.914	28486
614.980	26767
615.046	26572
615.112	27107
615.179	26138
615.245	25329
615.311	26185
615.377	26599
615.443	27400
615.509	28312
615.575	30015
615.642	28207
615.708	30816
615.774	31189
615.840	35882
615.906	39721
615.972	47026
616.038	69673
616.104	150985
616.170	374516
616.236	325603
616.302	74008
616.368	51244
616.434	39852
616.500	37667
616.565	40464
616.631	45879
616.697	39784
616.763	40000
616.829	53426
616.895	89043
616.961	84336
617.026	44012
617.092	33026
617.158	32298
617.224	31123
617.289	29831
617.355	29646
617.421	31691
617.487	31916
617.552	29580
617.618	28225
617.684	27880
617.749	29934
617.815	28970
617.880	26698
617.946	27767
618.012	27569
618.077	27855
618.143	27324
618.208	27892
618.274	29066
618.339	30227
618.405	26517
618.470	28336
618.536	28182
618.601	31846
618.667	30692
618.732	26927
618.798	26605
618.863	27232
618.928	26134
618.994	28916
619.059	28553
619.124	30342
619.190	27663
619.255	28399
619.320	27609
619.386	27091
619.451	25516
619.516	27289
619.581	27056
619.647	27333
619.712	26782
619.777	26425
619.842	26072
619.907	27306
619.972	25620
620.038	27361
620.103	26871
620.168	25193
620.233	26810
620.298	26508
620.363	26134
620.428	27693
620.493	27516
620.558	27740
620.623	26476
620.688	26134
620.753	26752
620.818	26720
620.883	27250
620.948	27450
621.013	27886
621.078	28121
621.143	27656
621.207	30551
621.272	29026
621.337	29938
621.402	32946
621.467	43113
621.532	43760
621.596	34249
621.661	31814
621.726	30743
621.791	30572
621.855	30519
621.920	31975
621.985	36050
622.049	39678
622.114	37748
622.179	33741
622.243	34964
622.308	33741
622.373	36150
622.437	34573
622.502	33213
622.566	33223
622.631	32507
622.695	33534
622.760	33980
622.824	32364
622.889	32637
622.953	31809
623.018	35729
623.082	33796
623.147	33289
623.211	31834
623.276	31907
623.340	30335
623.404	30172
623.469	30888
623.533	31131
623.597	29018
623.662	30128
623.726	28804
623.790	28813
623.854	27644
623.919	28312
623.983	28178
624.047	29732
624.111	28178
624.176	28945
624.240	29346
624.304	31621
624.368	29274
624.432	29065
624.496	29222
624.560	28968
624.625	28898
624.689	30055
624.753	28113
624.817	28164
624.881	27302
624.945	26954
625.009	25879
625.073	26576
625.137	26974
625.201	28507
625.265	28797
625.329	26862
625.393	26888
625.456	28364
625.520	28663
625.584	31935
625.648	38679
625.712	61009
625.776	136486
625.839	152985
625.903	60220
625.967	34052
626.031	56656
626.095	89235
626.158	34122
626.222	23714
626.286	22506
626.349	22079
626.413	21206
626.477	22902
626.540	21475
626.604	21006
626.668	22586
626.731	20466
626.795	23164
626.858	22547
626.922	20888
626.986	20579
627.049	19350
627.113	21730
627.176	19254
627.240	19754
627.303	19668
627.366	19750
627.430	19252
627.493	20699
627.557	21265
627.620	21726
627.684	20346
627.747	21627
627.810	18295
627.874	20694
627.937	17861
628.000	21458
628.064	19705
628.127	17375
628.190	18071
628.253	18931
628.317	17979
628.380	17527
628.443	16836
628.506	17238
628.569	16778
628.632	15886
628.696	16775
628.759	15916
628.822	15371
628.885	16245
628.948	15482
629.011	15848
629.074	15408
629.137	15024
629.200	14514
629.263	17658
629.326	14553
629.389	14021
629.452	14946
629.515	15550
629.578	15194
629.641	16198
629.704	14785
629.767	16160
629.830	14632
629.892	14361
629.955	12822
630.018	15340
630.081	13140
630.144	16176
630.207	13166
630.269	17510
630.332	17651
630.395	15779
630.458	13418
630.520	13226
630.583	13745
630.646	13648
630.708	11602
630.771	13209
630.834	13971
630.896	13105
630.959	12610
631.021	12048
631.084	13494
631.146	14922
631.209	18445
631.272	13808
631.334	12199
631.397	12220
631.459	11886
631.522	12824
631.584	12207
631.646	13512
631.709	12342
631.771	14755
631.834	13921
631.896	12443
631.958	10799
632.021	12652
632.083	10939
632.145	12900
632.208	11186
632.270	12275
632.332	10626
632.395	10747
632.457	12914
632.519	11558
632.581	11892
632.643	10946
632.706	11966
632.768	10271
632.830	11459
632.892	11931
632.954	10576
633.016	12572
633.078	10459
633.141	10726
633.203	11680
633.265	11581
633.327	11191
633.389	10123
633.451	11695
633.513	11643
633.575	14273
633.637	11894
633.698	11139
633.760	11963
633.822	10622
633.884	11302
633.946	10874
634.008	10588
634.070	11181
634.132	12701
634.193	11424
634.255	12075
634.317	10692
634.379	11613
634.441	10923
634.502	10536
634.564	10047
634.626	9230
634.687	10288
634.749	10645
634.811	10157
634.873	9076
634.934	9401
634.996	10743
635.057	9439
635.119	9864
635.181	10279
635.242	10893
635.304	7622
635.365	11708
635.427	9572
635.488	10361
635.550	9705
635.611	10540
635.673	8742
635.734	11989
635.796	9733
635.857	11580
635.918	9525
635.980	11963
636.041	10117
636.102	11556
636.164	10298
636.225	11504
636.286	9279
636.348	11512
636.409	8820
636.470	9597
636.531	9693
636.593	12012
636.654	11937
636.715	9789
636.776	9338
636.838	8681
636.899	9512
636.960	8514
637.021	8222
637.082	9256
637.143	8682
637.204	7988
637.265	8411
637.326	8970
637.387	7798
637.448	7167
637.509	8136
637.570	8127
637.631	9222
637.692	7694
637.753	6491
637.814	7702
637.875	7774
637.936	8302
637.997	6423
638.058	7568
638.119	9747
638.179	8438
638.240	7880
638.301	8712
638.362	8078
638.423	9166
638.483	8481
638.544	6774
638.605	8702
638.666	7030
638.726	7527
638.787	8436
638.848	7271
638.908	7981
638.969	8344
639.030	8038
639.090	5935
639.151	6834
639.211	8407
639.272	7897
639.332	9970
639.393	8902
639.453	7180
639.514	8451
639.574	8383
639.635	6929
639.695	7485
639.756	7482
639.816	7096
639.877	6538
639.937	8563
639.997	10455
640.058	6720
640.118	6478
640.178	7546
640.239	6922
640.299	6737
640.359	5865
640.420	6839
640.480	8406
640.540	7388
640.600	6710
640.661	8357
640.721	7267
640.781	8746
640.841	6771
640.901	8322
640.961	7443
641.021	7243
641.082	6573
641.142	7194
641.202	8115
641.262	5806
641.322	8679
641.382	6179
641.442	7945
641.502	6880
641.562	7846
641.622	6532
641.682	7495
641.742	6342
641.802	7789
641.861	7680
641.921	7959
641.981	7240
642.041	7787
642.101	7189
642.161	6132
642.221	6748
642.280	7239
642.340	6749
642.400	6073
642.460	7266
642.519	7052
642.579	6344
642.639	8379
642.698	4769
642.758	8603
642.818	6698
642.877	6395
642.937	7082
642.997	7527
643.056	7345
643.116	6285
643.175	9044
643.235	5829
643.294	7062
643.354	6529
643.414	6807
643.473	8168
643.532	7810
643.592	9952
643.651	14868
643.711	25757
643.770	47454
643.830	112065
643.889	242996
643.948	56641
644.008	12394
644.067	8237
644.126	7474
644.186	7424
644.245	7172
644.304	5133
644.363	7653
644.423	5391
644.482	6378
644.541	6570
644.600	4674
644.659	7505
644.719	7495
644.778	10600
644.837	13438
644.896	24137
644.955	49817
645.014	19681
645.073	9043
645.132	7489
645.191	6376
645.250	5719
645.309	7150
645.368	5989
645.427	7666
645.486	8112
645.545	13414
645.604	5899
645.663	6450
645.722	6133
645.781	6168
645.840	7313
645.898	6982
645.957	10275
646.016	12202
646.075	23112
646.134	42388
646.192	108802
646.251	164576
646.310	24269
646.369	8969
646.427	8328
646.486	6092
646.545	6840
646.603	6292
646.662	5747
646.721	5700
646.779	4682
646.838	4458
646.896	6751
646.955	6643
647.014	10217
647.072	13106
647.131	32777
647.189	16848
647.248	6069
647.306	5450
647.365	6284
647.423	4374
647.481	6508
647.540	3179
647.598	5337
647.657	4498
647.715	6694
647.773	4446
647.832	5531
647.890	3877
647.948	4335
648.007	5343
648.065	4646
648.123	4840
648.181	6537
648.240	7118
648.298	5955
648.356	5710
648.414	5206
648.472	5762
648.531	5761
648.589	4390
648.647	4704
648.705	5254
648.763	4798
648.821	4928
648.879	4371
648.937	5387
648.995	6265
649.053	5554
649.111	8425
649.169	11578
649.227	17537
649.285	32519
649.343	91069
649.401	44160
649.459	12006
649.516	10249
649.574	8943
649.632	19204
649.690	22944
649.748	10882
649.806	11709
649.863	17613
649.921	23996
649.979	15626
650.037	6096
650.094	3363
650.152	4955
650.210	4272
650.268	5413
650.325	5052
650.383	4630
650.440	3346
650.498	4737
650.556	4695
650.613	4003
650.671	4608
650.728	4787
650.786	5639
650.843	5231
650.901	1173
650.958	3881
651.016	3690
651.073	3841
651.131	3930
651.188	3402
651.246	4512
651.303	3911
651.360	3956
651.418	4357
651.475	4303
651.532	2752
651.590	4426
651.647	2242
651.704	3812
651.762	4255
651.819	4248
651.876	3583
651.933	3310
651.990	4496
652.048	2699
652.105	3191
652.162	3999
652.219	3212
652.276	4226
652.333	3858
652.390	2598
652.448	4188
652.505	3332
652.562	4221
652.619	4075
652.676	6933
652.733	7375
652.790	4198
652.847	1820
652.904	3929
652.961	2991
653.017	2397
653.074	3169
653.131	3193
653.188	2634
653.245	3498
653.302	3059
653.359	3165
653.415	3710
653.472	3149
653.529	3334
653.586	2607
653.642	2855
653.699	4382
653.756	1765
653.813	2419
653.869	3628
653.926	3061
653.983	2437
654.039	3709
654.096	2964
654.152	4450
654.209	2824
654.266	4397
654.322	3277
654.379	4936
654.435	4868
654.492	4805
654.548	5647
654.605	9457
654.661	5817
654.717	3808
654.774	4734
654.830	4288
654.887	3879
654.943	3962
655.000	4257
655.056	4336
655.112	3889
655.168	3070
655.225	3737
655.281	5641
655.337	7634
655.394	12643
655.450	8338
655.506	7277
655.562	12444
655.618	9852
655.675	3092
655.731	3258
655.787	2718
655.843	4477
655.899	2005
655.955	3805
656.011	3588
656.067	2724
656.123	3406
656.179	4532
656.235	4191
656.291	1787
656.347	4612
656.403	3867
656.459	3966
656.515	5322
656.571	4337
656.627	3684
656.683	3252
656.739	4373
656.795	3316
656.850	3686
656.906	4066
656.962	4716
657.018	2301
657.074	3035
657.129	3022
657.185	4847
657.241	4826
657.297	3399
657.352	4204
657.408	3848
657.464	4882
657.519	4081
657.575	2683
657.630	4230
657.686	2786
657.742	2774
657.797	3257
657.853	3634
657.908	3631
657.964	2500
658.019	3527
658.075	4576
658.130	3854
658.186	2426
658.241	3510
658.297	2305
658.352	3565
658.407	3604
658.463	3208
658.518	4375
658.573	3280
658.629	1870
658.684	2296
658.739	3531
658.795	1988
658.850	2382
658.905	3190
658.960	3365
659.016	2658
659.071	3400
659.126	3486
659.181	3403
659.236	4692
659.291	4925
659.346	3623
659.401	3999
659.457	4935
659.512	5155
659.567	4596
659.622	3504
659.677	3400
659.732	2292
659.787	3819
659.842	4734
659.897	6234
659.952	4199
660.007	3033
660.061	3620
660.116	3132
660.171	2853
660.226	2941
660.281	4386
660.336	2498
660.391	3415
660.445	2205
660.500	3115
660.555	3925
660.610	3735
660.664	2925
660.719	2924
660.774	3256
660.828	2737
660.883	3230
660.938	4856
660.992	2368
661.047	3026
661.101	2501
661.156	3186
661.211	1678
661.265	3250
661.320	3304
661.374	3858
661.429	2324
661.483	4002
661.538	1930
661.592	3568
661.647	3764
661.701	4133
661.755	2937
661.810	4318
661.864	2447
661.919	2903
661.973	3462
662.027	3114
662.081	2265
662.136	4378
662.190	3544
662.244	3716
662.299	2768
662.353	3918
662.407	2837
662.461	3079
662.515	2773
662.569	4306
662.624	4623
662.678	2832
662.732	3301
662.786	3506
662.840	3439
662.894	3705
662.948	2900
663.002	3510
663.056	3993
663.110	2974
663.164	3047
663.218	3089
663.272	3051
663.326	4186
663.380	2857
663.434	4431
663.488	3335
663.542	4244
663.595	3260
663.649	3555
663.703	3722
663.757	3587
663.811	3149
663.864	3589
663.918	3954
663.972	3151
664.026	2954
664.079	2722
664.133	3955
664.187	3607
664.240	2525
664.294	3486
664.348	3326
664.401	3704
664.455	2616
664.508	3021
664.562	3699
664.615	3298
664.669	3050
664.722	3981
664.776	3538
664.829	3692
664.883	2871
664.936	2763
664.990	4183
665.043	4035
665.097	4614
665.150	4766
665.203	3960
665.257	4068
665.310	2933
665.363	4221
665.417	4328
665.470	3535
665.523	3552
665.576	4529
665.630	3851
665.683	3663
665.736	3990
665.789	3736
665.842	3944
665.895	4404
665.949	3561
666.002	3814
666.055	2929
666.108	4357
666.161	4098
666.214	4308
666.267	3152
666.320	4309
666.373	4084
666.426	3932
666.479	3632
666.532	5011
666.585	5017
666.638	6838
666.691	5300
666.744	6151
666.796	5013
666.849	5543
666.902	3932
666.955	3631
667.008	2840
667.060	3126
667.113	3360
667.166	3654
667.219	3672
667.271	3086
667.324	3219
667.377	4369
667.430	2506
667.482	4597
667.535	4183
667.587	3964
667.640	3788
667.693	4117
667.745	4592
667.798	5302
667.850	3714
667.903	4720
667.955	3624
668.008	3675
668.060	4606
668.113	5130
668.165	5718
668.218	4830
668.270	5020
668.322	4028
668.375	4219
668.427	4916
668.479	4174
668.532	4341
668.584	4327
668.636	4816
668.689	5197
668.741	4512
668.793	4076
668.845	3266
668.898	4311
668.950	4396
669.002	4328
669.054	4552
669.106	4491
669.158	4707
669.211	3743
669.263	4636
669.315	5234
669.367	5396
669.419	4851
669.471	4886
669.523	4512
669.575	5796
669.627	5093
669.679	4230
669.731	4136
669.783	4668
669.835	5447
669.886	4731
669.938	4537
669.990	4601
670.042	3760
670.094	4328
670.146	4891
670.197	4821
670.249	5794
670.301	5265
670.353	6446
670.404	8393
670.456	10564
670.508	16457
670.560	26972
670.611	46870
670.663	81551
670.715	196581
670.766	313036
670.818	93760
670.869	18655
670.921	10493
670.972	8286
671.024	7947
671.075	6070
671.127	5496
671.178	4512
671.230	4753
671.281	4741
671.333	4733
671.384	5133
671.436	5476
671.487	5488
671.538	6201
671.590	6480
671.641	8645
671.692	11264
671.744	17846
671.795	13515
671.846	6823
671.897	6089
671.949	6367
672.000	5059
672.051	5159
672.102	5123
672.153	4790
672.204	4560
672.256	4964
672.307	4684
672.358	5161
672.409	3642
672.460	4965
672.511	4135
672.562	5135
672.613	3974
672.664	3810
672.715	4231
672.766	4711
672.817	4160
672.868	4414
672.919	4007
672.970	4137
673.021	4656
673.071	3548
673.122	4397
673.173	4054
673.224	5005
673.275	4157
673.326	4370
673.376	5017
673.427	3427
673.478	4285
673.528	3443
673.579	4385
673.630	3583
673.680	5245
673.731	3562
673.782	3621
673.832	3763
673.883	5609
673.934	3999
673.984	3731
674.035	4055
674.085	4909
674.136	4647
674.186	4445
674.237	6177
674.287	10464
674.338	5588
674.388	4668
674.438	4047
674.489	4688
674.539	4095
674.589	3851
674.640	4133
674.690	4308
674.740	4079
674.791	5442
674.841	4644
674.891	5134
674.942	4785
674.992	4175
675.042	3373
675.092	3822
675.142	3651
675.193	4218
675.243	3679
675.293	5054
675.343	4349
675.393	4315
675.443	4528
675.493	3503
675.543	2616
675.593	4412
675.643	4278
675.693	4218
675.743	3730
675.793	3839
675.843	3963
675.893	4465
675.943	4257
675.993	4323
676.043	3986
676.093	4061
676.142	3564
676.192	3743
676.242	4249
676.292	3105
676.341	4022
676.391	3925
676.441	4040
676.491	3792
676.540	3383
676.590	4648
676.640	3732
676.689	2932
676.739	2856
676.789	3196
676.838	3271
676.888	3707
676.937	3470
676.987	3437
677.037	3385
677.086	2602
677.136	2972
677.185	3386
677.235	2416
677.284	3415
677.333	2635
677.383	2211
677.432	2372
677.482	2796
677.531	2718
677.580	3788
677.630	2633
677.679	2552
677.728	2941
677.778	3413
677.827	2695
677.876	3194
677.925	2438
677.975	3173
678.024	2975
678.073	3602
678.122	3857
678.171	3670
678.220	3732
678.269	4737
678.319	4109
678.368	3199
678.417	3590
678.466	4319
678.515	3622
678.564	4105
678.613	3588
678.662	3942
678.711	4358
678.760	3430
678.809	2496
678.857	2786
678.906	3376
678.955	3895
679.004	4134
679.053	3418
679.102	3172
679.151	3466
679.199	3025
679.248	3115
679.297	3275
679.346	3452
679.394	3106
679.443	3763
679.492	3706
679.540	3198
679.589	4234
679.638	4331
679.686	2496
679.735	3450
679.784	2502
679.832	2436
679.881	2383
679.929	2686
679.978	2521
680.026	3271
680.075	2623
680.123	3102
680.172	2806
680.220	2948
680.268	3750
680.317	2075
680.365	2626
680.414	2333
680.462	2666
680.510	3114
680.559	2925
680.607	2732
680.655	3124
680.703	3183
680.752	2333
680.800	2824
680.848	3124
680.896	2336
680.945	3184
680.993	2790
681.041	2724
681.089	3430
681.137	2464
681.185	2677
681.233	2266
681.258	2752
681.281	3172
681.329	2424
681.377	2726
681.380	2766
681.425	2711
681.473	4371
681.502	3699
681.521	3151
681.569	3897
681.617	4074
681.624	4030
681.665	3433
681.713	3436
681.745	3464
681.761	3413
681.809	3679
681.857	3768
681.867	3924
681.904	4332
681.952	4792
681.989	4049
682.000	3770
682.048	4621
682.096	3512
682.111	3799
682.143	4284
682.191	3797
682.233	5249
682.239	5430
682.286	3938
682.334	4787
682.354	4634
682.382	4315
682.430	4463
682.476	4619
682.477	4587
682.525	5070
682.572	4229
682.598	4302
682.620	4328
682.667	4798
682.715	5848
682.720	5809
682.763	5039
682.810	5260
682.841	5151
682.857	5029
682.905	5127
682.952	4909
682.963	5082
683.000	5687
683.047	4984
683.085	6134
683.095	6364
683.142	5117
683.190	5696
683.206	5527
683.237	5214
683.284	5866
683.328	5883
683.332	5846
683.379	5874
683.426	6072
683.449	6012
683.473	5923
683.521	5759
683.568	5919
683.571	5937
683.615	5800
683.662	6454
683.693	5924
683.709	5591
683.757	6360
683.804	6326
683.814	6396
683.851	6548
683.898	5768
683.936	6421
683.945	6539
683.992	6329
684.039	6288
684.057	6665
684.086	7258
684.133	7389
684.179	6177
684.180	6112
684.227	7105
684.274	7249
684.300	7250
684.321	7219
684.368	6930
684.415	8238
684.422	8067
684.462	6869
684.509	7182
684.543	7136
684.556	7117
684.603	7516
684.649	7113
684.665	7342
684.696	7772
684.743	7176
684.786	8159
684.790	8236
684.837	8225
684.883	9237
684.908	9542
684.930	9720
684.977	10137
685.023	9780
685.029	9757
685.070	9148
685.117	8911
685.150	9272
685.164	9541
685.210	10161
685.257	10936
685.272	10767
685.303	9863
685.350	9969
685.393	9257
685.396	9221
685.443	9697
685.490	9506
685.514	9452
685.536	9366
685.583	10151
685.629	9997
685.636	10093
685.675	10300
685.722	9978
685.757	9717
685.768	9726
685.815	10471
685.861	10256
685.878	10519
685.908	10957
685.954	10457
686.000	11106
686.000	11114
686.047	12418
686.093	14057
686.121	14007
686.139	13363
686.185	12895
686.232	11712
686.242	11639
686.278	11559
686.324	11046
686.363	11168
686.370	11240
686.416	10872
686.463	11248
686.484	10991
686.509	10719
686.555	11597
686.601	10928
686.606	11022
686.647	11739
686.693	10649
686.727	10996
686.739	11182
686.785	11161
686.831	11617
686.848	11504
686.877	10964
686.923	10958
686.969	10432
686.969	10430
687.015	10812
687.061	10886
687.090	11600
687.107	11854
687.153	11210
687.199	12167
687.211	11870
687.245	11250
687.291	11631
687.332	12153
687.336	12213
687.382	12347
687.428	12576
687.453	12538
687.474	12209
687.520	11611
687.565	11434
687.574	11419
687.611	11771
687.657	11700
687.695	11624
687.702	11667
687.748	12527
687.794	13103
687.816	13029
687.839	12524
687.885	12264
687.931	11774
687.937	11653
687.976	11337
688.022	11798
688.058	11673
688.067	11694
688.113	11948
688.158	12010
688.179	12287
688.204	12690
688.249	12806
688.295	13690
688.300	13700
688.340	13675
688.386	14156
688.421	13664
688.431	13441
688.477	13070
688.522	13285
688.542	13014
688.567	13035
688.613	13170
688.658	13287
688.663	13304
688.703	13112
688.749	13414
688.784	12897
688.794	12833
688.839	13090
688.884	13267
688.905	13248
688.930	13125
688.975	12832
689.020	13173
689.026	13164
689.065	13388
689.110	13238
689.146	13124
689.155	13067
689.201	13380
689.246	13614
689.267	13382
689.291	13300
689.336	13234
689.381	13321
689.388	13355
689.426	13476
689.471	13353
689.509	13473
689.516	13496
689.561	13337
689.606	13233
689.630	13095
689.651	13106
689.696	13228
689.741	13503
689.750	13521
689.785	13519
689.830	13328
689.871	12919
689.875	12892
689.920	12885
689.965	12832
689.992	12711
690.010	12839
690.054	13520
690.099	13742
690.112	13774
690.144	13647
690.189	14168
690.233	13735
690.233	13751
690.278	13969
690.323	13854
690.354	13661
690.367	13767
690.412	13883
690.457	14661
690.474	14911
690.501	15094
690.546	15212
690.590	15341
690.595	15339
690.635	15975
690.680	16258
690.716	16670
690.724	16955
690.769	18487
690.813	20458
690.836	21136
690.857	22944
690.902	26621
690.946	31445
690.957	32320
690.991	42674
691.035	57530
691.077	72327
691.080	72394
691.124	67852
691.168	63792
691.198	61146
691.213	57029
691.257	45426
691.301	33366
691.318	28616
691.346	26383
691.390	22771
691.434	19000
691.439	18609
691.478	18169
691.522	17643
691.559	16844
691.567	16839
691.611	17075
691.655	16743
691.680	16808
691.699	16858
691.743	16333
691.787	16107
691.800	16041
691.831	16294
691.875	16526
691.919	16654
691.921	16641
691.964	17084
692.008	16981
692.041	17256
692.052	17390
692.096	17333
692.139	17903
692.162	17752
692.183	17484
692.227	17392
692.271	17222
692.282	17113
692.315	16929
692.359	16666
692.402	16744
692.403	16778
692.447	16685
692.490	16978
692.523	16959
692.534	16992
692.578	17092
692.622	17012
692.643	17145
692.666	17220
692.709	17025
692.753	16686
692.763	16603
692.797	16583
692.840	16656
692.884	16743
692.884	16781
692.928	17268
692.971	17728
693.004	17915
693.015	17850
693.059	17779
693.102	17343
693.124	17219
693.146	17577
693.189	18226
693.233	18718
693.245	19004
693.276	20164
693.320	20869
693.363	21656
693.365	21653
693.407	23046
693.450	24192
693.485	25122
693.493	25895
693.537	29951
693.580	33401
693.605	35714
693.624	40167
693.667	50167
693.710	61118
693.725	64648
693.753	84781
693.797	117268
693.840	149572
693.845	152950
693.883	144930
693.926	135085
693.966	126736
693.970	124149
694.013	94658
694.056	65262
694.086	45131
694.099	43296
694.142	37063
694.185	30628
694.206	27607
694.229	26865
694.272	25192
694.315	23776
694.326	23256
694.358	22334
694.401	21135
694.444	20093
694.446	19997
694.487	19832
694.530	19534
694.566	19265
694.573	19168
694.616	18054
694.659	17249
694.686	16635
694.702	16619
694.745	16390
694.787	16237
694.806	16091
694.830	16238
694.873	16678
694.916	16660
694.926	16704
694.959	16668
695.002	16390
695.044	16162
695.046	16116
695.087	16137
695.130	16007
695.166	16110
695.172	16255
695.215	16573
695.258	17238
695.286	17489
695.301	17415
695.343	17101
695.386	16660
695.406	16552
695.428	16555
695.471	16113
695.514	15965
695.526	15857
695.556	16185
695.599	16717
695.641	17107
695.646	17115
695.684	16813
695.726	16297
695.766	16051
695.769	16122
695.811	16328
695.854	16547
695.886	16747
695.896	16715
695.938	16431
695.981	16056
696.005	15876
696.023	16004
696.065	15934
696.108	16107
696.125	16133
696.150	16509
696.192	17104
696.235	17656
696.245	17743
696.277	17457
696.319	16861
696.361	16650
696.365	16554
696.404	16521
696.446	16799
696.485	16863
696.488	16916
696.530	17091
696.572	17246
696.604	17354
696.614	17282
696.656	16679
696.698	16325
696.724	15866
696.740	15808
696.783	15684
696.825	15667
696.844	15569
696.867	15843
696.909	16281
696.951	16873
696.964	16920
696.992	16510
697.034	16129
697.076	15536
697.083	15411
697.118	15869
697.160	16347
697.202	16858
697.203	16826
697.244	16623
697.286	16518
697.323	16212
697.327	16207
697.369	15860
697.411	15499
697.442	15189
697.453	15316
697.494	15619
697.536	15919
697.562	16141
697.578	16195
697.620	16186
697.661	16069
697.682	16029
697.703	16073
697.744	15928
697.786	15989
697.801	15920
697.828	16122
697.869	16401
697.911	16621
697.921	16645
697.952	16602
697.994	16492
698.035	16345
698.040	16282
698.077	16133
698.118	15942
698.160	15727
698.160	15681
698.201	15975
698.243	16233
698.279	16408
698.284	16451
698.325	16439
698.367	16460
698.399	16360
698.408	16286
698.449	15812
698.491	15301
698.518	14945
698.532	15147
698.573	15601
698.614	16064
698.638	16284
698.656	16392
698.697	16557
698.738	16720
698.757	16750
698.779	16827
698.820	16869
698.862	16932
698.877	16907
698.903	17213
698.944	17636
698.985	18057
698.996	18127
699.026	18218
699.067	18276
699.116	18299
699.235	16110
699.354	15646
699.474	16066
699.593	19699
699.713	18314
699.832	16175
699.951	15938
700.070	15954
700.190	15238
700.309	16153
700.428	17078
700.547	16185
700.667	15405
700.786	17783
700.905	15152
701.024	16922
701.143	15970
701.262	13180
701.381	14186
701.500	14960
701.619	12981
701.738	13380
701.857	13283
701.976	13691
702.095	13444
702.214	15201
702.333	13703
702.452	14265
702.571	13618
702.690	13410
702.809	12638
702.928	13249
703.047	12491
703.165	13539
703.284	12403
703.403	13327
703.522	14058
703.640	15119
703.759	17190
703.878	25716
703.997	15191
704.115	13360
704.234	12206
704.353	11662
704.471	12452
704.590	11408
704.708	11981
704.827	11810
704.946	13321
705.064	14459
705.183	13142
705.301	17913
705.420	27972
705.538	24299
705.656	19668
705.775	19635
705.893	30107
706.012	38180
706.130	20872
706.249	20866
706.367	20988
706.485	22048
706.604	20153
706.722	21084
706.840	22827
706.958	25791
707.077	19515
707.195	18444
707.313	17528
707.431	17584
707.549	17074
707.668	18436
707.786	17421
707.904	16708
708.022	16296
708.140	17059
708.258	16290
708.376	16815
708.494	16995
708.612	18834
708.730	29058
708.848	28513
708.966	23879
709.084	22282
709.202	21658
709.320	23542
709.438	22466
709.556	23788
709.674	23040
709.791	23125
709.909	21118
710.027	22321
710.145	22749
710.263	23146
710.380	21938
710.498	21596
710.616	21963
710.733	21672
710.851	23199
710.969	23945
711.086	21015
711.204	21036
711.322	21602
711.439	21098
711.557	21390
711.674	21244
711.792	20092
711.909	21175
712.027	22119
712.144	19050
712.262	19823
712.379	23447
712.497	34137
712.614	34471
712.732	27761
712.849	26284
712.966	27314
713.084	31053
713.201	27918
713.318	27464
713.436	26928
713.553	28478
713.670	27616
713.787	29753
713.905	30066
714.022	26631
714.139	25699
714.256	26530
714.373	28779
714.490	34083
714.608	52378
714.725	169396
714.842	183663
714.959	30492
715.076	25174
715.193	22284
715.310	22033
715.427	21999
715.544	20578
715.661	22262
715.778	21095
715.895	25074
716.011	24070
716.128	22094
716.245	21101
716.362	20773
716.479	22437
716.596	21405
716.713	21313
716.829	20546
716.946	19837
717.063	20398
717.180	19281
717.296	19393
717.413	20367
717.530	18242
717.646	18097
717.763	18835
717.880	18216
717.996	18361
718.113	17927
718.229	17513
718.346	17019
718.462	17226
718.579	18367
718.695	21041
718.812	24024
718.928	26345
719.045	19480
719.161	16198
719.277	16129
719.394	16329
719.510	17435
719.626	18103
719.743	21722
719.859	20494
719.975	24378
720.092	52871
720.208	108835
720.324	26528
720.440	17343
720.557	20032
720.673	21787
720.789	36269
720.905	84455
721.021	30827
721.137	16641
721.253	17410
721.369	18017
721.486	20118
721.602	28100
721.718	16554
721.834	13905
721.950	15561
722.066	13754
722.181	14366
722.297	14910
722.413	14003
722.529	13250
722.645	13935
722.761	13050
722.877	13332
722.993	12921
723.108	14385
723.224	13008
723.340	14276
723.456	12440
723.571	13646
723.687	12283
723.803	13041
723.918	11561
724.034	12945
724.150	12719
724.265	15413
724.381	31478
724.497	41101
724.612	13259
724.728	11935
724.843	12582
724.959	14869
725.074	29543
725.190	36579
725.305	13750
725.421	11756
725.536	10501
725.651	11127
725.767	11359
725.882	10845
725.997	10160
726.113	11536
726.228	10166
726.343	10669
726.459	9674
726.574	12066
726.689	10325
726.804	10394
726.920	11254
727.035	11520
727.150	10897
727.265	10449
727.380	10506
727.495	10484
727.610	9031
727.725	10539
727.841	11076
727.956	17095
728.071	16015
728.186	10049
728.301	8682
728.416	10062
728.531	8758
728.645	7987
728.760	9144
728.875	9655
728.990	9165
729.105	8734
729.220	8059
729.335	9092
729.449	7951
729.564	7923
729.679	6826
729.794	8345
729.908	10243
730.023	9293
730.138	7523
730.253	7837
730.367	7609
730.482	7988
730.596	7763
730.711	8649
730.826	7988
730.940	7817
731.055	8368
731.169	7383
731.284	7611
731.398	7327
731.513	9457
731.627	8790
731.742	9843
731.856	11747
731.970	6924
732.085	7618
732.199	9073
732.313	11320
732.428	19975
732.542	47867
732.656	31373
732.771	10552
732.885	8125
732.999	8801
733.113	9129
733.227	8912
733.342	7371
733.456	6754
733.570	6556
733.684	7841
733.798	6803
733.912	7359
734.026	5975
734.140	6573
734.254	7575
734.368	15940
734.482	20901
734.596	7255
734.710	6909
734.824	7312
734.938	5360
735.052	6626
735.166	7772
735.280	6505
735.393	6467
735.507	7288
735.621	9748
735.735	20787
735.849	8841
735.962	5947
736.076	7315
736.190	7698
736.303	10440
736.417	14821
736.531	6481
736.644	7620
736.758	5345
736.872	5549
736.985	5121
737.099	5392
737.212	5520
737.326	5219
737.439	6014
737.553	5625
737.666	5677
737.780	5089
737.893	5108
738.007	5026
738.120	4504
738.233	5990
738.347	5338
738.460	5001
738.573	6153
738.687	5417
738.800	5026
738.913	5616
739.026	4628
739.140	6494
739.253	6125
739.366	6078
739.479	5002
739.592	5005
739.705	4742
739.818	4946
739.932	4493
740.045	4963
740.158	3943
740.271	5325
740.384	4688
740.497	4965
740.610	5530
740.723	4502
740.836	5439
740.949	5465
741.062	4186
741.174	5699
741.287	5688
741.400	4625
741.513	4890
741.626	5396
741.739	4842
741.851	4226
741.964	4537
742.077	4530
742.189	4761
742.302	4948
742.415	3967
742.527	4385
742.640	4480
742.753	4778
742.865	4154
742.978	4560
743.090	5026
743.203	4674
743.316	4199
743.428	3785
743.541	4519
743.653	4772
743.766	4120
743.878	5101
743.990	7018
744.103	7012
744.215	4732
744.327	4620
744.440	4970
744.552	4936
744.664	3446
744.777	4249
744.889	3398
745.001	4208
745.113	4195
745.226	5099
745.338	4290
745.450	4206
745.562	3389
745.674	4222
745.786	4140
745.898	4077
746.010	4404
746.122	4641
746.234	4246
746.347	4666
746.459	4451
746.570	3944
746.682	3808
746.794	4534
746.906	4149
747.018	4314
747.130	4151
747.242	5113
747.354	3861
747.466	4192
747.577	3633
747.689	4185
747.801	4555
747.913	3973
748.024	3605
748.136	4330
748.248	3925
748.359	4172
748.471	3753
748.583	4491
748.694	3916
748.806	5594
748.918	6619
749.029	4598
749.141	4675
749.252	4703
749.364	3558
749.475	5822
749.587	6576
749.698	4070
749.809	4312
749.921	4299
750.032	3371
750.144	3524
750.255	3488
750.366	4072
750.478	3665
750.589	4241
750.700	3945
750.811	3575
750.923	4870
751.034	5116
751.145	5327
751.256	4011
751.367	4417
751.479	4366
751.590	3536
751.701	3630
751.812	2873
751.923	3981
752.034	3212
752.145	4082
752.256	4205
752.367	3227
752.478	3950
752.589	4240
752.700	3870
752.811	4869
752.922	3646
753.032	4787
753.143	4146
753.254	3844
753.365	4652
753.476	3611
753.586	4159
753.697	4551
753.808	4392
753.919	3871
754.029	3586
754.140	4343
754.251	4036
754.361	4155
754.472	4391
754.582	4355
754.693	4327
754.804	4139
754.914	4735
755.025	4283
755.135	4512
755.246	4887
755.356	4465
755.466	4697
755.577	5052
755.687	5576
755.798	4056
755.908	4325
756.018	4322
756.129	4615
756.239	4234
756.349	5094
756.460	4886
756.570	4743
756.680	4570
756.790	5459
756.900	4285
757.011	4781
757.121	5077
757.231	3986
757.341	4463
757.451	4386
757.561	4834
757.671	4744
757.781	5067
757.891	5795
758.001	4690
758.111	5857
758.221	6010
758.331	5955
758.441	5975
758.551	5141
758.661	5804
758.771	5852
758.880	6446
758.990	6131
759.100	6491
759.210	6835
759.320	6553
759.429	6235
759.539	7351
759.649	6257
759.758	6679
759.868	7787
759.978	7659
760.087	7755
760.197	7498
760.307	7731
760.416	7587
760.526	7694
760.635	7856
760.745	8469
760.854	8095
760.964	8643
761.073	8922
761.182	8053
761.292	9242
761.401	10805
761.511	9658
761.620	9185
761.729	10371
761.839	10560
761.948	10523
762.057	10040
762.166	10337
762.276	11014
762.385	12559
762.494	11940
762.603	11460
762.712	12658
762.822	13253
762.931	14790
763.040	12992
763.149	14566
763.258	14884
763.367	16299
763.476	17664
763.585	16718
763.694	18932
763.803	19821
763.912	21268
764.021	22327
764.130	23441
764.238	25474
764.347	26791
764.456	29351
764.565	30048
764.674	33497
764.783	36990
764.891	39521
765.000	46587
765.109	51469
765.217	58594
765.326	69880
765.435	81993
765.543	97157
765.652	119879
765.761	152003
765.869	196899
765.978	264558
766.086	364112
766.195	503141
766.303	625851
766.412	509709
766.520	466921
766.629	603964
766.737	490167
766.846	354120
766.954	256103
767.062	193028
767.171	150206
767.279	116823
767.387	93819
767.496	80113
767.604	68132
767.712	60317
767.820	53369
767.928	48623
768.037	45904
768.145	43282
768.253	40649
768.361	38763
768.469	39968
768.577	39972
768.685	42680
768.793	45153
768.901	50037
769.009	58483
769.117	68539
769.225	86959
769.333	116282
769.441	166049
769.549	254345
769.657	406240
769.765	553712
769.873	446617
769.981	518292
770.088	402754
770.196	254939
770.304	173583
770.412	126754
770.519	97765
770.627	76301
770.735	64101
770.842	53631
770.950	47477
771.058	40854
771.165	37551
771.273	33114
771.380	29967
771.488	27177
771.595	25422
771.703	22818
771.810	22720
771.918	20525
772.025	19570
772.133	18010
772.240	16976
772.348	16605
772.455	16882
772.562	15441
772.670	14027
772.777	14447
772.884	12990
772.991	12403
773.099	12157
773.206	10945
773.313	11498
773.420	12168
773.528	11044
773.635	10668
773.742	10775
773.849	10675
773.956	9768
774.063	9660
774.170	8893
774.277	9876
774.384	8562
774.491	7687
774.598	8961
774.705	8824
774.812	8718
774.919	9132
775.026	9320
775.133	8718
775.239	8849
775.346	8487
775.453	7434
775.560	6482
775.667	7631
775.773	6702
775.880	7385
775.987	7173
776.093	7403
776.200	6592
776.307	6358
776.413	6594
776.520	6400
776.627	6379
776.733	7446
776.840	5439
776.946	7339
777.053	6421
777.159	6513
777.266	4326
777.372	7278
777.478	5223
777.585	6415
777.691	5008
777.798	5522
777.904	5948
778.010	7646
778.117	6201
778.223	5801
778.329	5435
778.435	5707
778.542	4856
778.648	5317
778.754	4854
778.860	4576
778.966	5656
779.072	5814
779.178	5066
779.284	4542
779.391	5508
779.497	4810
779.603	8424
779.708	9269
779.815	20287
779.920	65933
780.026	138515
780.132	25343
780.238	7392
780.344	6108
780.450	5958
780.556	5181
780.661	4490
780.767	4774
780.873	3758
780.979	4446
781.085	3596
781.190	4348
781.296	4122
781.402	4032
781.507	3243
781.613	4104
781.719	3853
781.824	4120
781.930	4501
782.035	4301
782.141	3652
782.246	4119
782.352	3959
782.457	4074
782.563	3466
782.668	3389
782.773	3636
782.879	3979
782.984	4027
783.090	5146
783.195	4422
783.300	3642
783.405	4211
783.511	4364
783.616	4305
783.721	3740
783.826	3334
783.932	4194
784.037	4048
784.142	3925
784.247	3512
784.352	3748
784.457	3047
784.562	3700
784.667	2825
784.772	3406
784.877	2968
784.982	2500
785.087	3679
785.192	3765
785.297	2437
785.402	3318
785.507	3372
785.611	3143
785.716	3224
785.821	3080
785.926	2674
786.031	2623
786.135	2883
786.240	3297
786.345	2105
786.450	3447
786.554	3071
786.659	2668
786.763	1263
786.868	3168
786.973	3072
787.077	2601
787.182	2401
787.286	2379
787.391	2524
787.495	2475
787.600	2494
787.704	1671
787.809	2668
787.913	2246
788.017	3313
788.122	2648
788.226	2288
788.330	2101
788.435	2142
788.539	2619
788.643	1479
788.747	1986
788.852	1807
788.956	1845
789.060	2463
789.164	2947
789.268	1537
789.372	2442
789.476	2574
789.580	1499
789.684	1628
789.788	2982
789.892	2392
789.996	3137
790.100	1322
790.204	2794
790.308	2059
790.412	2994
790.516	2537
790.620	2024
790.724	2367
790.828	2963
790.931	1591
791.035	4102
791.139	2245
791.242	1256
791.346	2704
791.450	1350
791.554	2069
791.657	1033
791.761	2990
791.864	2998
791.968	2053
792.072	2222
792.175	1972
792.279	2087
792.382	2265
792.486	2670
792.589	2005
792.693	2996
792.796	1596
792.899	2223
793.003	2020
793.106	952
793.209	1548
793.313	3077
793.416	83
793.519	3733
793.623	3013
793.726	2143
793.829	1516
793.932	1851
794.035	687
794.138	3165
794.242	2449
794.345	4052
794.448	5643
794.551	10758
794.654	36666
794.757	83794
794.860	18235
794.963	4209
795.066	2083
795.169	3746
795.272	1985
795.375	1652
795.477	1396
795.580	1741
795.683	316
795.786	2137
795.889	921
795.991	3906
796.094	3840
796.197	1668
796.300	2389
796.402	1269
796.505	1017
796.608	1601
796.710	1465
796.813	1419
796.915	1335
797.018	1135
797.120	1426
797.223	227
797.326	1710
797.428	1161
797.530	1597
797.633	1547
797.735	2767
797.838	5070
797.940	4451
798.042	1263
798.145	1291
798.247	1532
798.349	14
798.452	1715
798.554	780
798.656	245
798.758	2022
798.860	572
798.962	363
799.065	1104
799.167	951
799.269	2458
799.371	1806
799.473	1818
799.575	1708
799.677	2587
799.779	2209
799.881	561
799.983	1141
800.085	1585
800.187	1527
800.289	950
800.390	998
800.492	1269
800.594	2198
800.696	1174
800.798	833
800.899	721
801.001	1484
801.103	650
801.205	545
801.306	682
801.408	360
801.509	723
801.611	909
801.713	1071
801.814	855
801.916	1793
802.017	1168
802.119	977
802.220	981
802.322	60
802.423	3459
802.525	1277
802.626	1582
802.727	918
802.829	1453
802.930	-912
803.031	1283
803.133	829
803.234	1177
803.335	1009
803.436	477
803.538	682
803.639	-49
803.740	1374
803.841	184
803.942	673
804.043	1669
804.144	412
804.245	360
804.346	568
804.447	1121
804.548	296
804.649	2477
804.750	448
804.851	197
804.952	617
805.053	199
805.154	526
805.255	802
805.355	622
805.456	328
805.557	454
805.658	-531
805.758	1343
805.859	813
805.960	185
806.061	751
806.161	834
806.262	862
806.362	992
806.463	866
806.564	1449
806.664	1222
806.765	2472
806.865	1906
806.966	1101
807.066	228
807.166	1868
807.267	756
807.367	637
807.468	674
807.568	-1151
807.668	801
807.769	1968
807.869	952
807.969	1173
808.069	628
808.170	194
808.270	105
808.370	1379
808.470	946
808.570	-243
808.670	503
808.770	1119
808.870	-401
808.970	1148
809.070	188
809.170	-77
809.271	735
809.370	138
809.470	16
809.570	789
809.670	-81
809.770	1221
809.870	693
809.970	1208
810.070	-200
810.169	108
810.269	-1357
810.369	1214
810.469	385
810.568	265
810.668	-1391
810.768	276
810.867	619
810.967	-343
811.066	-519
811.166	123
811.265	892
811.365	-54
811.464	-332
811.564	124
811.663	16
811.763	-336
811.862	180
811.962	1249
812.061	-133
812.160	-305
812.260	760
812.359	969
812.458	396
812.557	1754
812.657	3204
812.756	1842
812.855	426
812.954	195
813.053	-223
813.153	632
813.252	-590
813.351	552
813.450	320
813.549	227
813.648	908
813.747	-122
813.846	947
813.945	-340
814.044	231
814.143	669
814.242	698
814.341	-671
814.439	90
814.538	134
814.637	106
814.736	302
814.835	476
814.933	-440
815.032	223
815.131	-481
815.229	-184
815.328	510
815.427	484
815.525	1119
815.624	397
815.722	785
815.821	693
815.919	650
816.018	-519
816.116	-142
816.215	-84
816.313	566
816.412	-153
816.510	-210
816.609	1104
816.707	500
816.805	428
816.904	166
817.002	393
817.100	1082
817.198	204
817.296	463
817.395	347
817.493	1403
817.591	-128
817.689	447
817.787	-78
817.885	1949
817.983	1425
818.081	4267
818.179	8031
818.277	21535
818.375	20771
818.473	5537
818.571	2196
818.669	1838
818.767	1395
818.865	821
818.963	1389
819.061	1738
819.158	3208
819.256	8762
819.354	17311
819.452	46106
819.549	31182
819.647	7537
819.745	2230
819.842	1566
819.940	914
820.038	1043
820.135	131
820.233	1985
820.330	417
820.428	-250
820.525	1221
820.623	1226
820.720	-48
820.818	847
820.915	593
821.012	727
821.110	-906
821.207	817
821.304	270
821.402	491
821.499	860
821.596	1316
821.693	-241
821.791	168
821.888	1
821.985	1286
822.082	566
822.179	345
822.276	8
822.373	125
822.470	55
822.567	-355
822.664	-439
822.761	433
822.858	131
822.955	230
823.052	-74
823.149	-265
823.246	-308
823.343	-1122
823.440	730
823.536	479
823.633	-234
823.730	-634
823.827	135
823.923	190
824.020	1104
824.117	827
824.213	-481
824.310	840
824.407	281
824.503	477
824.600	-527
824.696	-553
824.793	877
824.889	-86
824.986	93
825.082	3
825.179	162
825.275	-472
825.371	193
825.468	1330
825.564	-684
825.660	513
825.757	-439
825.853	926
825.949	-541
826.045	214
826.142	283
826.238	438
826.334	142
826.430	-772
826.526	963
826.622	-512
826.718	-544
826.814	-296
826.910	585
827.006	829
827.102	-349
827.198	934
827.294	103
827.390	-67
827.486	-473
827.582	-424
827.678	-1225
827.774	234
827.869	-538
827.965	1278
828.061	-979
828.157	145
828.252	390
828.348	-693
828.444	885
828.539	-201
828.635	-18
828.731	666
828.826	-587
828.922	1243
829.017	306
829.113	473
829.208	-878
829.304	-603
829.399	1071
829.495	-886
829.590	1064
829.685	-829
829.781	91
829.876	211
829.971	101
830.066	-467
830.162	-450
830.257	-673
830.352	-351
830.447	582
830.543	-75
830.638	-1003
830.733	506
830.828	-309
830.923	-55
831.018	47
831.113	385
831.208	-504
831.303	-344
831.398	515
831.493	-655
831.588	818
831.683	-504
831.778	190
831.873	16
831.967	195
832.062	-995
832.157	-710
832.252	338
832.346	-836
832.441	111
832.536	390
832.631	363
832.725	804
832.820	-1269
832.914	-180
833.009	-1065
833.104	-489
833.198	15
833.293	-373
833.387	116
833.482	-238
833.576	-686
833.670	122
833.765	-1610
833.859	-397
833.954	587
834.048	-323
834.142	2
834.237	-332
834.331	-700
834.425	-207
834.519	-728
834.613	564
834.708	-238
834.802	551
834.896	-1068
834.990	15
835.084	712
835.178	-186
835.272	-822
835.366	-374
835.460	-264
835.554	-95
835.648	308
835.742	-74
835.836	-763
835.930	-437
836.024	-524
836.117	417
836.211	194
836.305	1767
836.399	2804
836.493	-747
836.586	837
836.680	-574
836.774	-682
836.867	1463
836.961	-971
837.055	-185
837.148	72
837.242	-338
837.335	-324
837.429	174
837.522	-95
837.616	737
837.709	3327
837.803	2312
837.896	135
837.989	-221
838.083	2243
838.176	4852
838.269	4056
838.363	1709
838.456	-662
838.549	905
838.642	-291
838.735	1322
838.829	1152
838.922	-890
839.015	350
839.108	-247
839.201	-1042
839.294	-219
839.387	444
839.480	-590
839.573	1210
839.666	1663
839.759	272
839.852	-119
839.945	-43
840.038	-452
840.131	-1048
840.223	-125
840.316	-364
840.409	-44
840.502	-1509
840.594	711
840.687	-699
840.780	202
840.873	0
840.965	17
841.058	1435
841.150	3719
841.243	2039
841.336	431
841.428	-376
841.521	-294
841.613	-752
841.706	539
841.798	-413
841.890	-977
841.983	-1023
842.075	588
842.167	-856
842.260	520
842.352	1901
842.444	1878
842.537	4995
842.629	8927
842.721	946
842.813	385
842.905	-1550
842.997	392
843.090	1052
843.182	2197
843.274	4553
843.366	12448
843.458	24762
843.550	17017
843.642	1568
843.734	437
843.826	928
843.918	433
844.009	-149
844.101	151
844.193	492
844.285	-859
844.377	408
844.469	280
844.560	-768
844.652	-240
844.744	131
844.835	622
844.927	-284
845.019	512
845.110	220
845.202	-671
845.293	-858
845.385	-712
845.476	-634
845.568	712
845.659	-411
845.751	-367
845.842	-478
845.934	-1563
846.025	-651
846.116	-69
846.208	-528
846.299	-372
846.390	-970
846.482	-224
846.573	882
846.664	306
846.755	1640
846.846	1008
846.937	-1609
847.029	-325
847.120	-931
847.211	-853
847.302	1059
847.393	-1426
847.484	18
847.575	-506
847.666	-954
847.757	-257
847.847	-693
847.938	360
848.029	-379
848.120	-1159
848.211	-602
848.302	-553
848.392	-718
848.483	112
848.574	-729
848.664	-1084
848.755	-901
848.846	-536
848.936	-1034
849.027	-233
849.118	-22
849.208	-422
849.299	745
849.389	523
849.480	1326
849.570	2211
849.661	3635
849.751	8945
849.841	1986
849.932	54
850.022	-331
850.112	594
850.203	-499
850.293	-624
850.383	-480
850.474	-588
850.564	-1197
850.654	540
850.744	-166
850.834	-771
850.924	-247
851.014	146
851.104	-555
851.194	114
851.284	-527
851.374	267
851.464	175
851.554	568
851.644	121
851.734	1997
851.824	-28
851.914	721
852.004	2271
852.094	1686
852.183	674
852.273	551
852.363	-815
852.452	-185
852.542	88
852.632	-1262
852.721	-277
852.811	-380
852.901	-316
852.990	-738
853.080	-463
853.169	-163
853.259	-400
853.348	-84
853.438	-476
853.527	479
853.617	385
853.706	2458
853.795	3647
853.885	9696
853.974	17897
854.063	33022
854.152	55504
854.242	19996
854.331	2898
854.420	-37
854.509	38
854.598	187
854.687	629
854.777	1482
854.866	-647
854.955	817
855.044	102
855.133	-229
855.222	-51
855.311	-985
855.400	180
855.488	-499
855.577	-542
855.666	-74
855.755	-439
855.844	257
855.933	16
856.021	635
856.110	-821
856.199	-631
856.288	-415
856.376	-399
856.465	-1391
856.554	-327
856.642	-1477
856.731	-310
856.819	-227
856.908	-956
856.996	-1699
857.085	-574
857.173	-445
857.262	-387
857.350	-806
857.438	-48
857.527	-346
857.615	-144
857.703	335
857.792	-787
857.880	-113
857.968	-284
858.056	-1087
858.145	-695
858.233	-653
858.321	-908
858.409	-41
858.497	-564
858.585	-1095
858.673	-17
858.761	-1215
858.849	-219
858.937	-1168
859.025	-395
859.113	-536
859.201	-1342
859.289	269
859.377	-1023
859.465	-430
859.552	-944
859.640	-126
859.728	-547
859.816	-426
859.903	-175
859.991	-793
860.079	-1032
860.166	-442
860.254	-479
860.342	-995
860.429	-1137
860.517	-708
860.604	-224
860.692	-236
860.779	-250
860.867	-1004
860.954	92
861.042	-468
861.129	-442
861.216	-415
861.304	-1059
861.391	-493
861.478	69
861.565	-634
861.653	553
861.740	-1025
861.827	-779
861.914	-1225
862.001	-292
862.089	-978
862.176	-1176
862.263	-1454
862.350	-205
862.437	-1498
862.524	-1011
862.611	-724
862.698	-850
862.785	189
862.871	-304
862.958	-843
863.045	28
863.132	-1566
863.219	-771
863.306	-1164
863.392	-296
863.479	-552
863.566	-1500
863.652	-465
863.739	-779
863.826	-63
863.912	-605
863.999	-1054
864.086	-193
864.172	-509
864.259	-367
864.345	-749
864.432	27
864.518	-976
864.604	-508
864.691	-599
864.777	-626
864.863	-2
864.950	-289
865.036	-1245
865.122	-154
865.209	-325
865.295	-68
865.381	-790
865.467	152
865.553	-52
865.639	21
865.726	766
865.812	4336
865.898	7968
865.984	12930
866.070	23351
866.156	28699
866.242	6499
866.328	450
866.414	-564
866.499	491
866.585	-901
866.671	-886
866.757	-753
866.843	-178
866.928	-634
867.014	-1002
867.100	-407
867.186	91
867.271	433
867.357	1471
867.442	1799
867.528	83
867.614	-1137
867.699	-468
867.785	-1012
867.870	-274
867.956	-650
868.041	-29
868.127	-186
868.212	407
868.297	-976
868.383	16
868.468	184
868.553	22
868.639	-23
868.724	153
868.809	823
868.894	-425
868.979	-1038
869.065	145
869.150	-506
869.235	-246
869.320	-1327
869.405	-1088
869.490	-499
869.575	103
869.660	-460
869.745	279
869.830	-1343
869.915	-475
870.000	-1053
870.085	-1107
870.169	-354
870.254	28
870.339	-1606
870.424	-606
870.509	-210
870.593	-79
870.678	98
870.763	-1120
870.847	-1058
870.932	-452
871.016	-336
871.101	-640
871.186	-713
871.270	-424
871.355	-768
871.439	-1182
871.523	-631
871.608	-228
871.692	-1055
871.777	-685
871.861	-561
871.945	-1510
872.030	-936
872.114	-185
872.198	-504
872.282	-1646
872.367	-733
872.451	-669
872.535	-445
872.619	-828
872.703	-1292
872.787	-1488
872.871	-1171
872.955	-1258
873.039	-728
873.123	-1158
873.207	-1217
873.291	-275
873.375	-600
873.459	-1020
873.543	-1666
873.627	-1254
873.711	-1270
873.794	-355
873.878	-1480
873.962	-914
874.045	-1075
874.129	-1318
874.137	-1330
874.213	-1449
874.245	-1240
874.296	-909
874.352	-1463
874.380	-1733
874.460	-1026
874.464	-999
874.547	-731
874.568	-812
874.631	-1050
874.676	-1147
874.714	-1226
874.784	-775
874.798	-690
874.881	376
874.892	102
874.965	-1785
874.999	-1468
875.048	-1043
875.107	-1095
875.131	-1089
875.215	-911
875.215	-911
875.298	-1114
875.323	-1015
875.381	-705
875.430	-958
875.465	-1152
875.538	-767
875.548	-722
875.631	-1267
875.646	-1180
875.714	-666
875.753	-305
875.798	101
875.861	-909
875.881	-1245
875.964	-832
875.968	-809
876.047	-320
876.076	-385
876.130	-540
876.183	-747
876.213	-851
876.291	-19
876.296	32
876.379	-695
876.398	-715
876.462	-769
876.506	-565
876.545	-337
876.613	24
876.628	95
876.711	-1163
876.721	-1083
876.794	-536
876.828	-451
876.877	-277
876.935	-574
876.960	-691
877.043	-444
877.043	-444
877.125	-246
877.150	-106
877.208	229
877.258	208
877.291	190
877.365	-791
877.374	-911
877.456	-452
877.472	-506
877.539	-555
877.579	-540
877.622	-743
877.687	-331
877.704	-137
877.787	185
877.794	133
877.869	-493
877.901	-113
877.952	412
878.008	-216
878.034	-457
878.115	-491
878.117	-488
878.199	-532
878.222	-352
878.282	-69
878.329	-392
878.364	-588
878.437	-186
878.447	-125
878.529	-374
878.544	-306
878.611	-27
878.651	-322
878.694	-703
878.758	-177
878.776	28
878.858	-170
878.865	-210
878.941	-933
878.972	-822
879.023	-653
879.078	-982
879.105	-888
879.185	-379
879.187	-375
879.269	311
879.292	174
879.351	-367
879.399	-635
879.433	-779
879.506	-635
879.516	-579
879.598	158
879.613	162
879.680	-96
879.720	-207
879.762	-266
879.827	-285
879.844	-289
879.926	164
879.933	118
880.007	-45
880.040	-153
880.089	-520
880.147	-283
880.171	-146
880.253	950
880.254	947
880.335	571
880.360	740
880.417	1345
880.467	1942
880.499	2342
880.574	3087
880.580	3055
880.662	1054
880.680	724
880.744	40
880.787	-100
880.825	-180
880.893	-321
880.907	-339
880.989	-98
881.000	-105
881.070	71
881.106	-21
881.152	-275
881.213	59
881.233	191
881.315	-420
881.319	-383
881.396	266
881.426	166
881.478	48
881.532	-95
881.559	-162
881.639	-690
881.641	-697
881.722	266
881.745	204
881.803	123
881.852	191
881.885	90
881.958	-58
881.966	-49
882.047	-229
882.064	-171
882.129	264
882.171	389
882.210	398
882.277	469
882.291	462
882.372	162
882.383	78
882.454	-180
882.489	-39
882.535	-33
882.596	-17
882.616	55
882.697	127
882.702	130
882.778	134
882.808	124
882.859	-148
882.914	-357
882.940	-204
883.020	-6
883.021	-2
883.102	269
883.127	391
883.183	376
883.233	-176
883.264	-395
883.339	52
883.345	97
883.426	126
883.445	156
883.507	248
883.551	187
883.587	102
883.657	274
883.668	349
883.749	571
883.763	621
883.830	283
883.869	26
883.910	68
883.975	264
883.991	255
884.072	105
884.081	86
884.152	249
884.187	198
884.233	-36
884.292	40
884.314	146
884.394	405
884.398	394
884.475	-164
884.504	-278
884.555	-85
884.610	228
884.636	328
884.716	432
884.716	440
884.797	666
884.821	841
884.877	471
884.927	26
884.958	139
885.033	597
885.038	609
885.118	631
885.139	641
885.199	275
885.244	-138
885.279	-40
885.350	304
885.359	318
885.439	127
885.456	104
885.520	232
885.561	511
885.600	503
885.667	292
885.680	321
885.760	382
885.773	359
885.840	182
885.878	315
885.920	575
885.984	615
886.000	628
886.080	793
886.089	800
886.160	533
886.195	455
886.240	579
886.300	593
886.320	573
886.400	694
886.406	675
886.480	79
886.511	-83
886.560	313
886.616	718
886.640	693
886.720	612
886.722	602
886.800	696
886.827	819
886.879	789
886.932	512
886.959	681
887.038	1361
887.039	1358
887.119	324
887.143	94
887.198	388
887.248	491
887.278	545
887.354	747
887.358	781
887.437	1392
887.459	1537
887.517	1524
887.564	1459
887.596	1274
887.669	925
887.676	941
887.755	923
887.774	940
887.835	1142
887.880	1297
887.914	1153
887.985	766
887.994	762
888.073	741
888.090	710
888.153	865
888.195	990
888.232	1076
888.300	1240
888.311	1225
888.391	1038
888.405	987
888.470	1154
888.510	1271
888.549	1140
888.615	921
888.628	945
888.708	1013
888.720	1027
888.787	1308
888.825	1405
888.866	1135
888.930	797
888.945	873
889.024	1172
889.035	1209
889.103	1257
889.140	1274
889.182	1141
889.245	951
889.261	819
889.340	142
889.349	67
889.419	1567
889.454	2293
889.498	1708
889.559	895
889.577	899
889.656	910
889.664	910
889.735	1723
889.768	2103
889.814	1603
889.873	931
889.978	1438
890.083	831
890.187	1466
890.292	734
890.397	-54
890.501	1298
890.606	909
890.710	965
890.815	1408
890.919	1264
891.024	1108
891.128	958
891.233	1269
891.337	1160
891.442	1141
891.546	794
891.650	806
891.755	1144
891.859	2408
891.963	1468
892.068	1710
892.172	428
892.276	400
892.380	694
892.484	1189
892.589	76
892.693	1297
892.797	1158
892.901	1547
893.005	715
893.109	1034
893.213	777
893.317	1333
893.421	1004
893.525	-113
893.629	1026
893.733	1105
893.837	847
893.941	1516
894.045	1551
894.148	1024
894.252	3074
894.356	3322
894.460	1142
894.564	1042
894.667	1092
894.771	1289
894.875	528
894.978	1355
895.082	521
895.186	955
895.289	1414
895.393	1454
895.496	852
895.600	262
895.703	752
895.807	400
895.910	183
896.014	1115
896.117	918
896.221	842
896.324	526
896.427	1201
896.531	1046
896.634	-209
896.737	712
896.840	938
896.944	240
897.047	1113
897.150	720
897.253	1199
897.356	830
897.460	719
897.563	187
897.666	439
897.769	425
897.872	-78
897.975	180
898.078	464
898.181	353
898.284	337
898.387	1098
898.490	727
898.593	223
898.695	625
898.798	460
898.901	1435
899.004	693
899.107	1712
899.209	987
899.312	-21
899.415	558
899.518	223
899.620	123
899.723	599
899.826	-356
899.928	1709
900.031	368
900.133	123
900.236	519
900.338	-157
900.441	281
900.543	801
900.646	846
900.748	500
900.851	-48
900.953	891
901.055	605
901.158	412
901.260	-26
901.362	-116
901.465	736
901.567	1496
901.669	214
901.771	596
901.873	386
901.976	1309
902.078	395
902.180	156
902.282	677
902.384	245
902.486	662
902.588	713
902.690	770
902.792	1062
902.894	467
902.996	491
903.098	-219
903.200	-223
903.302	311
903.404	130
903.505	545
903.607	801
903.709	824
903.811	698
903.913	542
904.014	982
904.116	792
904.218	697
904.319	847
904.421	736
904.523	914
904.624	1502
904.726	574
904.827	988
904.929	423
905.030	402
905.132	1106
905.233	209
905.335	1401
905.436	74
905.537	586
905.639	1097
905.740	1022
905.841	-22
905.943	640
906.044	215
906.145	691
906.247	508
906.348	314
906.449	483
906.550	521
906.651	1406
906.752	765
906.854	105
906.955	590
907.056	260
907.157	-435
907.258	1250
907.359	854
907.460	656
907.561	311
907.662	748
907.762	429
907.863	112
907.964	512
908.065	1134
908.166	-583
908.267	495
908.367	341
908.468	212
908.569	1279
908.670	906
908.770	1115
908.871	792
908.971	636
909.072	1516
909.173	-166
909.273	561
909.374	878
909.474	522
909.575	370
909.675	3
909.776	455
909.876	10
909.977	-301
910.077	1361
910.177	-550
910.278	231
910.378	7
910.478	-59
910.579	499
910.679	421
910.779	90
910.879	1159
910.980	533
911.080	689
911.180	-198
911.280	499
911.380	664
911.480	87
911.580	398
911.680	198
911.780	93
911.880	839
911.980	225
912.080	290
912.180	68
912.280	558
912.380	436
912.480	408
912.580	-18
912.679	487
912.779	1448
912.879	638
912.979	-83
913.078	576
913.178	-164
913.278	807
913.377	765
913.477	360
913.577	143
913.676	525
913.776	179
913.875	226
913.975	850
914.074	995
914.174	211
914.273	-865
914.373	885
914.472	283
914.572	-38
914.671	562
914.770	1318
914.870	455
914.969	12
915.068	-556
915.167	-204
915.267	-384
915.366	102
915.465	812
915.564	521
915.663	-118
915.763	808
915.862	282
915.961	891
916.060	269
916.159	323
916.258	-366
916.357	439
916.456	617
916.555	688
916.654	204
916.752	721
916.851	259
916.950	939
917.049	85
917.148	-186
917.247	1338
917.345	835
917.444	-40
917.543	6
917.642	102
917.740	495
917.839	-132
917.937	1228
918.036	595
918.135	-57
918.233	137
918.332	409
918.430	-441
918.529	198
918.627	-632
918.726	212
918.824	775
918.923	412
919.021	-21
919.119	-177
919.218	-650
919.316	247
919.414	-399
919.512	366
919.611	504
919.709	596
919.807	57
919.905	-669
920.003	728
920.102	106
920.200	660
920.298	-247
920.396	295
920.494	36
920.592	-346
920.690	285
920.788	957
920.886	-273
920.984	45
921.082	-534
921.180	623
921.277	710
921.375	138
921.473	-256
921.571	172
921.669	84
921.766	663
921.864	403
921.962	-85
922.060	-105
922.157	796
922.255	475
922.352	363
922.450	851
922.548	-21
922.645	134
922.743	239
922.840	-14
922.938	903
923.035	1133
923.133	648
923.230	551
923.327	746
923.425	625
923.522	1396
923.619	709
923.717	1244
923.814	-286
923.911	425
924.008	1447
924.106	331
924.203	646
924.300	1021
924.397	678
924.494	664
924.591	787
924.688	-362
924.786	1085
924.883	466
924.979	-79
925.077	1099
925.173	768
925.270	1334
925.367	374
925.464	815
925.561	593
925.658	525
925.755	461
925.852	129
925.948	224
926.045	1114
926.142	1153
926.239	799
926.335	-363
926.432	478
926.529	339
926.625	286
926.722	-360
926.818	594
926.915	515
927.011	-45
927.108	463
927.204	-150
927.301	810
927.397	247
927.494	665
927.590	305
927.687	549
927.783	1007
927.879	930
927.976	344
928.072	487
928.168	167
928.264	298
928.361	389
928.457	709
928.553	-329
928.649	514
928.745	639
928.841	492
928.937	1105
929.033	821
929.129	-285
929.225	1095
929.321	841
929.417	-55
929.513	-50
929.609	343
929.705	253
929.801	158
929.897	130
929.993	595
930.089	851
930.184	310
930.280	81
930.376	774
930.471	-486
930.567	1034
930.663	599
930.758	189
930.854	296
930.950	-21
931.045	651
931.141	-200
931.236	811
931.332	130
931.427	858
931.523	82
931.618	1123
931.714	-56
931.809	160
931.905	696
932.000	-159
932.095	-684
932.191	-625
932.286	452
932.381	-596
932.476	573
932.572	452
932.667	-137
932.762	227
932.857	1303
932.952	262
933.047	44
933.142	322
933.237	988
933.332	942
933.427	-1
933.522	254
933.617	113
933.712	443
933.807	466
933.902	-248
933.997	175
934.092	1
934.187	54
934.282	-103
934.376	459
934.471	204
934.566	-206
934.661	700
934.755	75
934.850	1426
934.945	1129
935.039	485
935.134	795
935.228	-561
935.323	110
935.417	534
935.512	-25
935.606	-310
935.701	-145
935.795	-814
935.890	-64
935.984	533
936.079	-330
936.173	-73
936.267	124
936.362	590
936.456	-162
936.550	390
936.644	371
936.738	65
936.833	539
936.927	784
937.021	915
937.115	-120
937.209	-849
937.303	768
937.397	-875
937.491	33
937.585	768
937.679	-2
937.773	-147
937.867	-363
937.961	-388
938.055	-108
938.149	252
938.243	277
938.337	325
938.430	-108
938.524	-277
938.618	-778
938.712	517
938.805	521
938.899	-537
938.993	-167
939.086	-348
939.180	-155
939.274	-89
939.367	-203
939.461	-91
939.554	-254
939.648	402
939.741	237
939.835	-22
939.928	-33
940.022	1058
940.115	-547
940.208	735
940.302	687
940.395	695
940.488	324
940.582	-18
940.675	65
940.768	-147
940.861	122
940.954	87
941.048	486
941.141	135
941.234	98
941.327	766
941.420	823
941.513	442
941.606	557
941.699	347
941.792	408
941.885	-268
941.978	-349
942.071	411
942.164	-499
942.257	-302
942.349	265
942.442	-452
942.535	333
942.628	463
942.721	698
942.813	-1441
942.906	326
942.999	-26
943.091	-117
943.184	-1479
943.277	-77
943.369	38
943.462	174
943.554	340
943.647	221
943.739	102
943.832	130
943.924	97
944.017	34
944.109	-247
944.201	-409
944.294	-19
944.386	696
944.478	-427
944.571	7
944.663	-868
944.755	-832
944.847	204
944.940	355
945.032	-460
945.124	-574
945.216	275
945.308	-235
945.400	75
945.492	671
945.584	73
945.676	111
945.768	528
945.860	-386
945.952	-258
946.044	362
946.136	49
946.228	6
946.320	-365
946.412	-399
946.503	-514
946.595	878
946.687	-34
946.779	-211
946.870	-625
946.962	265
947.054	242
947.145	266
947.237	266
947.329	-193
947.420	-103
947.512	296
947.603	-672
947.695	386
947.786	-71
947.878	-155
947.969	-297
948.061	118
948.152	-797
948.243	-162
948.335	-529
948.426	-362
948.517	-340
948.609	613
948.700	-721
948.791	-401
948.882	45
948.973	-221
949.065	-1099
949.156	507
949.247	-1253
949.338	703
949.429	-697
949.520	-92
949.611	-951
949.702	655
949.793	-169
949.884	-117
949.975	-507
950.066	-689
950.157	-716
950.247	-811
950.338	79
950.429	-581
950.520	-48
950.611	-344
950.701	605
950.792	185
950.883	618
950.973	-18
951.064	588
951.155	-190
951.245	882
951.336	294
951.427	-1814
951.517	-77
951.608	466
951.698	-468
951.788	-469
951.879	-530
951.969	-904
952.060	82
952.150	-743
952.240	80
952.331	-728
952.421	1087
952.511	17
952.602	-127
952.692	-600
952.782	147
952.872	-990
952.962	-353
953.052	-287
953.143	-492
953.233	334
953.323	-1114
953.413	-784
953.503	-111
953.593	-50
953.683	-336
953.773	-648
953.863	292
953.953	-840
954.042	-407
954.132	-527
954.222	546
954.312	-408
954.402	260
954.492	551
954.581	2781
954.671	23
954.761	-784
954.850	-75
954.940	-321
955.030	8
955.119	-20
955.209	-53
955.298	-485
955.388	-174
955.477	-169
955.567	-392
955.656	424
955.746	211
955.835	308
955.925	-920
956.014	89
956.103	-267
956.193	448
956.282	-445
956.371	-109
956.461	203
956.550	-1019
956.639	213
956.728	-1133
956.817	-654
956.906	-502
956.995	1104
957.085	205
957.174	636
957.263	-341
957.352	286
957.441	172
957.530	369
957.619	134
957.708	276
957.796	132
957.885	426
957.974	-352
958.063	135
958.152	-1276
958.241	-84
958.329	298
958.418	-611
958.507	154
958.596	950
958.684	-354
958.773	391
958.861	405
958.950	373
959.039	553
959.127	812
959.216	1777
959.304	719
959.393	222
959.481	410
959.570	1124
959.658	800
959.746	1539
959.835	1896
959.923	4118
960.011	1251
960.100	1278
960.188	12
960.276	211
960.365	-341
960.453	18
960.541	-274
960.629	-37
960.717	223
960.805	947
960.893	-41
960.981	-702
961.069	857
961.158	-1328
961.245	-6
961.333	978
961.421	-725
961.509	49
961.597	584
961.685	-705
961.773	-654
961.861	-26
961.949	378
962.036	-636
962.124	214
962.212	-578
962.299	-815
962.387	-878
962.475	-133
962.562	-536
962.650	769
962.738	-475
962.825	-24
962.913	173
963.000	-598
963.088	-37
963.175	-406
963.263	-705
963.350	-991
963.438	247
963.525	-1004
963.612	1924
963.700	4715
963.787	16000
963.874	7175
963.962	-40
964.049	-396
964.136	-1002
964.223	-707
964.310	-682
964.398	-417
964.485	-1165
964.572	-229
964.659	1928
964.746	1470
964.833	-520
964.920	-531
965.007	-277
965.094	-849
965.181	-449
965.268	-282
965.355	-421
965.441	-407
965.528	-1091
965.615	-208
965.702	-528
965.789	-1413
965.875	-571
965.962	-810
966.049	-1757
966.136	297
966.222	-824
966.309	-1013
966.395	-766
966.482	-333
966.569	-1221
966.655	-649
966.742	-745
966.828	-1189
966.915	-1197
967.001	-1199
967.087	-978
967.174	-69
967.260	318
967.347	534
967.433	3261
967.519	11185
967.605	3187
967.692	32
967.778	-785
967.864	-1270
967.950	-1098
968.036	-1542
968.123	-222
968.209	-1486
968.295	-1321
968.381	-91
968.467	-922
968.553	-1831
968.639	334
968.725	-720
968.811	884
968.897	1514
968.983	-1349
969.069	-966
969.154	-545
969.240	-542
969.326	-782
969.412	-1721
969.497	-1427
969.583	-2113
969.669	-454
969.755	-1293
969.840	-1396
969.926	-859
970.012	-1114
970.097	-734
970.183	-1285
970.268	-199
970.354	456
970.439	1082
970.525	6973
970.610	662
970.696	-215
970.781	-532
970.866	-1091
970.952	426
971.037	-1745
971.122	-893
971.208	-1084
971.293	-272
971.378	-1213
971.463	-1011
971.549	-787
971.634	-692
971.719	-1267
971.804	-509
971.889	691
971.974	-1318
972.059	-852
972.144	-693
972.229	-1624
972.314	-811
972.399	-430
972.484	-1184
972.569	-65
972.654	-837
972.739	2381
972.824	3161
972.908	-373
972.993	-684
973.078	-1652
973.163	-1147
973.247	-762
973.332	-2117
973.417	-115
973.501	-1037
973.586	-798
973.671	-928
973.755	-1287
973.840	-339
973.924	-1189
974.009	-882
974.093	-1616
974.178	453
974.262	2239
974.346	1566
974.431	410
974.515	-705
974.600	-1373
974.684	-966
974.768	-1146
974.852	-603
974.937	-2247
975.021	-114
975.105	-1576
975.189	-1971
975.273	-166
975.358	-1197
975.442	-1689
975.526	397
975.610	-1228
975.694	-1543
975.778	-363
975.862	-1213
975.946	-2255
976.030	-100
976.114	-1239
976.198	-1040
976.281	-1421
976.365	-416
976.449	-897
976.533	-376
976.617	-1459
976.700	-1480
976.784	-397
976.868	-986
976.951	-217
977.035	-684
977.119	-568
977.202	-921
977.286	-792
977.369	-1327
977.453	-1091
977.536	-892
977.620	-1872
977.703	-1519
977.787	-1730
977.870	-291
977.953	-538
978.037	-2437
978.120	-271
978.203	1047
978.287	2929
978.370	861
978.453	-661
978.536	-653
978.620	611
978.703	1265
978.786	-141
978.869	-1697
978.952	-2568
979.035	172
979.118	-470
979.201	-1689
979.284	-1144
979.367	-1374
979.450	-1715
979.533	-1264
979.616	-1130
979.699	-1869
979.782	-841
979.865	-757
979.948	-1302
980.030	-825
980.113	-1574
980.196	-2268
980.279	-1306
980.361	-1790
980.444	-1746
980.526	-1164
980.609	-1380
980.692	-1438
980.774	85
980.857	-2121
980.939	-545
981.022	-1757
981.104	-1166
981.187	-2058
981.269	-988
981.352	-222
981.434	-1584
981.516	-1040
981.599	-657
981.681	-631
981.763	-865
981.846	-1532
981.928	-1219
982.010	-2072
982.092	-2001
982.174	-672
982.256	-1766
982.339	-1886
982.421	-1174
982.503	-1154
982.585	-1507
982.667	-1363
982.749	-1221
982.831	-1026
982.913	-2077
982.995	-1077
983.077	-1509
983.158	-110
983.240	-2380
983.322	-1130
983.404	-985
983.486	-2323
983.568	-1413
983.649	-1595
983.731	-928
983.813	-1171
983.894	-1729
983.976	-1229
984.058	-1738
984.139	-121
984.221	-1518
984.302	-490
984.384	-1835
984.465	-1741
984.547	-1133
984.628	-1383
984.710	-488
984.791	-1290
984.872	-1601
984.954	-1835
985.035	-591
985.116	-1557
985.198	-2035
985.279	-757
985.360	-1127
985.441	-1922
985.522	-1505
985.604	-1308
985.685	-2754
985.766	-791
985.847	605
985.928	-2096
986.009	-1975
986.090	-906
986.171	-1814
986.252	-889
986.333	-1153
986.414	-1608
986.495	-1561
986.576	-851
986.656	-1214
986.737	-809
986.818	-681
986.899	-1014
986.980	-1822
987.060	-362
987.141	-1340
987.222	-1147
987.302	-1710
987.383	-1139
987.464	-1446
987.544	-1122
987.625	-1743
987.705	-440
987.786	-626
987.866	-1681
987.947	-870
988.027	-1330
988.108	-1411
988.188	-1184
988.268	-1048
988.349	-1006
988.429	-1456
988.509	-950
988.589	-2090
988.670	-2402
988.750	605
988.830	-1087
988.910	-608
988.990	-1709
989.070	-1012
989.151	-937
989.231	-1769
989.311	-960
989.391	-1622
989.471	-1620
989.551	-1330
989.631	-1920
989.711	-158
989.791	-1658
989.870	-1558
989.950	-920
990.030	-1340
990.110	-2071
990.190	-1612
990.269	-1262
990.349	-1244
990.429	-1288
990.509	-1435
990.588	-2525
990.668	-864
990.747	-1838
990.827	-1403
990.907	-1645
990.986	-1520
991.066	-1048
991.145	-1491
991.225	-1205
991.304	-1868
991.383	-390
991.463	-2034
991.542	-524
991.622	-2040
991.701	-2196
991.780	-1414
991.859	-1733
991.939	-1168
992.018	-1138
992.097	-1339
992.176	-1038
992.256	-1367
992.335	-2719
992.414	-1872
992.493	-2055
992.572	-1114
992.651	-279
992.730	-1518
992.809	-1879
992.888	-2216
992.967	-1441
993.046	-724
993.125	-2801
993.203	-1107
993.282	-978
993.361	-1146
993.440	-694
993.519	-1654
993.597	-1099
993.676	-2360
993.755	32
993.834	-1428
993.912	-1670
993.991	-65
994.069	-2022
994.148	-1764
994.226	-2356
994.305	-1675
994.384	-2723
994.462	-1241
994.540	-2165
994.619	-2345
994.697	-893
994.776	-1627
994.854	-1123
994.932	-1286
995.011	-1134
995.089	-1195
995.167	-1631
995.245	-514
995.324	-1697
995.402	-1428
995.480	-1504
995.558	-737
995.636	-2256
995.714	-1079
995.792	-694
995.870	-1632
995.948	-1561
996.026	-1445
996.104	-2695
996.182	-801
996.260	-1858
996.338	-1404
996.416	-1698
996.494	-1936
996.572	-1294
996.649	-1619
996.727	-1591
996.805	-1142
996.883	-2141
996.960	-2072
997.038	-892
997.116	-1667
997.193	-2464
997.271	-984
997.348	-1980
997.426	-1619
997.504	-2643
997.581	-554
997.658	-312
997.736	-2851
997.813	-2191
997.891	-640
997.968	-1701
998.046	-2063
998.123	-2107
998.200	-2010
998.277	-2918
998.355	-929
998.432	-2775
998.509	-1576
998.586	-1300
998.663	-1199
998.741	-1592
998.818	-1900
998.895	-1868
998.972	-768
999.049	-1233
999.126	-1857
999.203	-765
999.280	-1944
999.357	-2903
999.434	-2144
999.511	-1811
999.587	-1196
999.664	-1408
999.741	-800
999.818	-53
999.895	-1605
999.971	-1673
1000.048	-1560
1000.125	-1261
1000.202	-2476
1000.278	-1481
1000.355	-854
1000.431	-2106
1000.508	-1580
1000.584	-2245
1000.661	-904
1000.738	-2391
1000.814	-2121
1000.890	-1377
1000.967	-1751
1001.043	-1566
1001.120	-1641
1001.196	-1725
1001.272	-1399
1001.349	-1470
1001.425	-1141
1001.501	-1185
1001.577	-1911
1001.654	-1331
1001.730	-1567
1001.806	-1216
1001.882	-1951
1001.958	-1349
1002.034	-1739
1002.110	-2022
1002.186	-2771
1002.262	-1727
1002.338	-2324
1002.414	-1749
1002.490	-1220
1002.566	-2251
1002.642	-1658
1002.718	-593
1002.794	-796
1002.870	-1808
1002.945	-1591
1003.021	-531
1003.097	-1448
1003.173	-960
1003.248	-1727
1003.324	-1970
1003.400	-1352
1003.475	-1951
1003.551	-2214
1003.626	-1888
1003.702	-1839
1003.777	-1333
1003.853	-1092
1003.928	-2264
1004.004	-2580
1004.079	-1824
1004.155	-1309
1004.230	-2181
1004.305	-1129
1004.381	-2445
1004.456	-1229
1004.531	-1888
1004.607	-1916
1004.682	-1377
1004.757	-2120
1004.832	-1903
1004.907	-2062
1004.982	-1564
1005.057	-1568
1005.133	-1770
1005.208	-2442
1005.283	-2646
1005.358	-710
1005.433	-2063
1005.508	-2080
1005.583	-2393
1005.657	-2245
1005.732	-666
1005.807	-2345
1005.882	-1689
1005.957	-1895
1006.032	-1778
1006.106	-1794
1006.181	-1915
1006.256	-2073
1006.331	-2088
1006.405	-1912
1006.480	-1343
1006.554	-1749
1006.629	-1594
1006.704	-1861
1006.778	-1812
1006.853	-1110
1006.927	-1432
1007.002	-1488
1007.076	-1581
1007.150	-1774
1007.225	-1807
1007.299	-1358
1007.373	-2156
1007.448	-1840
1007.522	-674
1007.596	-1731
1007.671	-1597
1007.745	-1807
1007.819	-2136
1007.893	-1615
1007.967	-1990
1008.041	-1895
1008.115	-1554
1008.190	-2229
1008.264	-1270
1008.338	-2124
1008.412	-2403
1008.486	-1490
1008.560	-1503
1008.633	-2220
1008.707	-2873
1008.781	-1774
1008.855	-2603
1008.929	-2309
1009.003	-2060
1009.076	-1355
1009.150	-1740
1009.224	-1535
1009.298	-1691
1009.371	-2823
1009.445	-1651
1009.519	-1196
1009.592	-2647
1009.666	-2161
1009.739	-1301
1009.813	-2705
1009.886	-803
1009.960	-3292
1010.033	-1422
1010.107	-1868
1010.180	-1767
1010.253	-2597
1010.327	-2539
1010.400	-2149
1010.473	-2225
1010.547	-512
1010.620	-1860
1010.693	-1110
1010.766	-1873
1010.840	-1803
1010.913	-1986
1010.986	-2685
1011.059	-1708
1011.132	-1783
1011.205	-1440
1011.278	-2090
1011.351	-1091
1011.424	-2746
1011.497	-2052
1011.570	-1819
1011.643	-2429
1011.716	-1401
1011.789	-1915
1011.862	-1047
1011.934	-433
1012.007	-2702
1012.080	-1200
1012.153	-1301
1012.225	-925
1012.298	-1803
1012.371	-2245
1012.443	-1605
1012.516	-2134
1012.588	-1690
1012.661	-1611
1012.733	-2335
1012.806	-1531
1012.879	-2300
1012.951	-1486
1013.023	-1864
1013.096	-1860
1013.168	-2058
1013.241	-1557
1013.313	-1767
1013.385	-2554
1013.458	-1944
1013.530	-1714
1013.602	-2075
1013.674	-441
1013.746	-2856
1013.819	-2359
1013.891	-1391
1013.963	-1604
1014.035	-1106
1014.107	-1831
1014.179	-2189
1014.251	-2398
1014.323	-1649
1014.395	-2399
1014.467	-949
1014.539	-2075
1014.611	-2245
1014.683	-1736
1014.754	-1232
1014.826	-2243
1014.898	-1541
1014.970	-2118
1015.042	-1567
1015.113	-1805
1015.185	-1621
1015.257	-2437
1015.328	-1414
1015.400	-2334
1015.471	-2470
1015.543	-3068
1015.615	-1771
1015.686	-2902
1015.757	-3455
1015.829	-2440
1015.901	-2074
1015.972	-1494
1016.043	-1083
1016.115	-1808
1016.186	-2212
1016.257	-2449
1016.328	-2157
1016.400	-1746
1016.471	-2825
1016.542	-1590
1016.613	-2254
1016.685	-2116
1016.756	-1561
1016.827	-2136
1016.898	-2247
1016.969	-1239
1017.040	-1973
1017.111	-2370
1017.182	-1825
1017.253	-1752
1017.324	-1745
1017.395	-2237
1017.466	-1476
1017.537	-2103
1017.608	-1831
1017.678	-1762
1017.749	-1534
1017.820	-2066
1017.891	-2599
1017.961	-1690
1018.032	-1508
1018.103	-1819
1018.173	-1834
1018.244	-2595
1018.315	-1265
1018.385	-1246
1018.456	-1867
1018.526	-2872
1018.597	-1469
1018.667	-1907
1018.738	-2360
1018.808	-2053
1018.878	-1915
1018.949	-1862
1019.019	-1938
1019.089	-2128
1019.160	-2204
1019.230	-1850
1019.300	-1875
1019.371	-2407
1019.441	-2103
1019.511	-1828
1019.581	-2550
1019.651	-2598
1019.721	-1618
1019.791	-1833
1019.861	-2168
1019.931	-1894
1020.001	-2830
1020.071	-1931
1020.141	-2683
1020.211	-2012
1020.281	-2818
1020.351	-2244
1020.421	-2762
1020.491	-2382
1020.560	-2463
1020.630	-1795
1020.700	-2794
1020.770	-2218
1020.839	-2291
1020.909	-2685
1020.979	-1903
1021.048	-2101
1021.118	-1381
1021.187	-2279
1021.257	-1280
1021.326	-1693
1021.396	-2162
1021.465	-2070
1021.535	-1649
1021.604	-3051
1021.674	-2697
1021.743	-2430
1021.812	-2063
1021.882	-1881
1021.951	-2534
1022.020	-2702
1022.089	-2263
1022.159	-2337
1022.228	-1420
1022.297	-2061
1022.366	-2472
1022.435	-2497
1022.504	-1933
1022.573	-2656
1022.642	-2556
1022.711	-2220
1022.781	-1747
1022.849	-1934
1022.918	-2187
1022.987	-1964
1023.056	-2598
1023.125	-1969
1023.194	-2009
1023.263	-2335
1023.331	-2068
1023.400	-2166
1023.469	-2038
1023.538	-1909
1023.606	-2474
1023.675	-1825
1023.744	-1832
1023.812	-2428
1023.881	-1805
1023.949	-1851
1024.018	-2162
1024.086	-2330
1024.155	-2353
1024.223	-2041
1024.292	-1773
1024.360	-2062
1024.429	-1955
1024.497	-2617
1024.565	-1768
1024.634	-2094
1024.702	-2213
1024.770	-2063
1024.838	-2241
1024.907	-1779
1024.975	-1347
1025.043	-2241
1025.111	-1852
1025.179	-1851
1025.247	-1697
1025.315	-2068
1025.383	-1940
1025.451	-1361
1025.519	-2518
1025.587	-2599
1025.655	-1766
1025.723	-2231
1025.791	-1601
1025.859	-1949
1025.927	-2170
1025.995	-2678
1026.062	-2284
1026.130	-2061
1026.198	-2492
1026.266	-1923
1026.333	-1211
1026.401	-2078
1026.469	-2456
1026.536	-1310
1026.604	-1839
1026.671	-3370
1026.739	-1408
1026.806	-2032
1026.874	-2687
1026.941	-2132
1027.009	-2524
1027.076	-2429
1027.144	-1283
1027.211	-2389
1027.278	-2494
1027.345	-2073
1027.413	-1495
1027.480	-2883
1027.547	-2261
1027.614	-2571
1027.682	-2372
1027.749	-2155
1027.816	-2986
1027.883	-2320
1027.950	-1225
1028.017	-1165
1028.084	-1723
1028.151	-2612
1028.218	-2064
1028.285	-2065
1028.352	-2577
1028.419	-3156
1028.486	-3060
1028.553	-2430
1028.619	-2697
1028.686	-1521
1028.753	-2093
1028.820	-1790
1028.886	-1932
1028.953	-2021
1029.020	-1928
1029.086	-2530
1029.153	-1987
1029.220	-2292
1029.286	-1863
1029.353	-2322
1029.419	-2546
1029.486	-1713
1029.552	-1627
1029.619	-2691
1029.685	-2255
1029.751	-2462
1029.818	-1691
1029.884	-1938
1029.951	-1535
1030.017	-2061
1030.083	-2011
1030.149	-1723
1030.216	-2725
1030.282	-2313
1030.348	-2679
1030.414	-1884
1030.480	-2130
1030.546	-2338
1030.612	-2080
1030.678	-2524
1030.744	-3251
1030.810	-2195
1030.876	-2158
1030.942	-2376
1031.008	-2101
1031.074	-2439
1031.140	-1832
1031.206	-2197
1031.272	-2880
1031.337	-1607
1031.403	-1815
1031.469	-2666
1031.534	-1477
1031.600	-2214
1031.666	-1928
1031.731	-2250
1031.797	-1674
1031.863	-2191
1031.928	-1737
1031.994	-2391
1032.059	-2374
1032.125	-2214
1032.190	-2523
1032.256	-2613
1032.321	-2938
1032.386	-1603
1032.452	-2100
1032.517	-1681
1032.582	-2458
1032.647	-2646
1032.713	-2239
1032.778	-1375
1032.843	-2710
1032.908	-1654
1032.974	-2812
1033.039	-2447
1033.104	-1766
1033.169	-1757
1033.234	-2474
1033.299	-1503
1033.364	-1971
1033.429	-2367
1033.494	-539
1033.559	-1763
1033.624	-2144
1033.688	-1985
1033.753	-2614
1033.818	-1480
1033.883	-2197
1033.948	-2145
1034.013	-2383
1034.077	-1784
1034.142	-1554
1034.207	-1919
1034.271	-1616
1034.336	-1685
1034.400	-965
1034.465	-1483
1034.530	-1562
1034.594	-2007
1034.658	-1371
1034.723	-2095
1034.787	-2150
1034.852	-1897
1034.916	-2278
1034.981	-2422
1035.045	-2541
1035.109	-2394
1035.173	-1251
1035.238	-1998
1035.302	-1656
1035.366	-2011
1035.430	-1879
1035.495	-1683
1035.559	-2017
1035.623	-2084
1035.687	-2320
1035.751	-2075
1035.815	-2216
1035.879	-2021
1035.943	-2383
1036.007	-2140
1036.071	-1996
1036.135	-2111
1036.198	-1799
1036.262	-2118
1036.326	-1589
1036.390	-1624
1036.454	-1336
1036.517	-2058
1036.581	-2103
1036.645	-1591
1036.709	-1588
1036.772	-2176
1036.836	-1807
1036.900	-2249
1036.963	-2858
1037.026	-2525
1037.090	-2347
1037.154	-1192
1037.217	-2372
1037.280	-1851
1037.344	-1950
1037.407	-2400
1037.471	-1507
1037.534	-2478
1037.597	-2173
1037.661	-3304
1037.724	-2090
1037.787	-1595
1037.850	-2092
1037.913	-1511
1037.977	-1239
1038.040	-2237
1038.103	-2188
1038.166	-2139
1038.229	-2016
1038.292	-2293
1038.355	-2168
1038.418	-2260
1038.481	-1374
1038.544	-2938
1038.607	-1793
1038.670	-1882
1038.732	-1346
1038.795	-2798
1038.858	-2236
1038.921	-1674
1038.984	-1875
1039.046	-2471
1039.109	-2298
1039.172	-2132
1039.234	-2092
1039.297	-2299
1039.360	-2528
1039.422	-1297
1039.485	-1995
1039.547	-2396
1039.610	-1637
1039.672	-1939
1039.734	-2151
1039.797	-2882
1039.859	-2627
1039.922	-2288
1039.984	-2085
1040.046	-2662
1040.109	-2006
1040.171	-2635
1040.233	-1330
1040.295	-2860
1040.358	-2405
1040.420	-1819
1040.482	-1890
1040.544	-1349
1040.606	-1825
1040.668	-2525
1040.730	-2064
1040.792	-1707
1040.854	-2380
1040.916	-2534
1040.978	-2036
1041.040	-1580
1041.102	-2337
1041.164	-2567
1041.225	-2088
1041.287	-2467
1041.349	-2827
1041.411	-2095
1041.472	-2742
1041.534	-2064
1041.596	-2410
1041.657	-1776
1041.719	-2144
1041.781	-2483
1041.842	-1846
1041.904	-2110
1041.965	-2430
1042.027	-1713
1042.088	-2063
1042.150	-1648
1042.211	-2427
1042.272	-1754
1042.334	-1973
1042.395	-1936
1042.456	-1869
1042.518	-1619
1042.579	-1824
1042.640	-1516
1042.701	-2472
1042.763	-2531
1042.824	-2091
1042.885	-2261
1042.946	-2113
1043.007	-2622
1043.068	-2158
1043.129	-2647
1043.190	-2468
1043.251	-1672
1043.312	-1961
1043.373	-1883
1043.434	-1979
1043.495	-2156
1043.556	-2260
1043.616	-2191
1043.677	-2461
1043.738	-2159
1043.799	-2407
1043.859	-1632
1043.920	-2886
1043.981	-2483
1044.041	-2151
1044.102	-2289
1044.162	-1721
1044.223	-2457
1044.284	-2236
1044.344	-2183
1044.405	-2975
1044.465	-2250
1044.525	-1942
1044.586	-2482
1044.646	-2130
1044.707	-1493
1044.767	-1289
1044.827	-2461
1044.887	-2391
1044.948	-2292
1045.008	-2465
1045.068	-2657
1045.128	-2364
1045.188	-2003
1045.249	-1017
1045.309	-2114
1045.369	-1841
1045.429	-2113
1045.489	-2034
1045.549	-1932
1045.609	-2051
1045.669	-2344
1045.729	-1594
1045.789	-1570
1045.848	-2025
1045.908	-2297
1045.968	-1724
1046.028	-1823
1046.088	-1727
1046.147	-1525
1046.207	-2048
1046.267	-2647
1046.326	-1446
1046.386	-1536
1046.446	-1610
1046.505	-1506
1046.565	-1124
1046.624	-1384
1046.684	-456
1046.743	-148
1046.803	-504
1046.862	-167
1046.922	0
