'Start Wavelength	183.907
'End Wavelength	1046.922
'Gate Delay	5.000
'Gate Width (ms)	1.050
'Laser Output Level	0.000
'X Position	0.000
'Y Position	0.000
'Z Position	0.000
'Grid Point Number	1.000
'Shot Number	100.000
183.907	-313.000
183.977	96.000
184.047	42
184.116	1270
184.186	339
184.256	-59
184.325	34
184.395	24
184.465	764
184.534	150
184.604	10
184.674	-337
184.743	531
184.813	284
184.883	247
184.952	467
185.022	785
185.092	29
185.161	-195
185.231	-529
185.301	-249
185.370	186
185.440	160
185.509	-430
185.579	-95
185.649	311
185.718	77
185.788	869
185.857	8
185.927	531
185.996	329
186.066	326
186.136	412
186.205	271
186.275	559
186.344	844
186.414	112
186.483	-494
186.553	897
186.622	1196
186.692	-670
186.761	1088
186.831	994
186.900	201
186.970	991
187.039	853
187.109	637
187.178	677
187.248	819
187.317	-304
187.387	265
187.456	312
187.526	240
187.595	1128
187.664	69
187.734	1250
187.803	37
187.873	452
187.942	787
188.012	1211
188.081	-43
188.150	234
188.220	954
188.289	507
188.358	210
188.428	639
188.497	451
188.567	433
188.636	-258
188.705	132
188.775	930
188.844	-351
188.913	578
188.983	7
189.052	564
189.121	333
189.191	743
189.260	690
189.329	-209
189.399	299
189.468	687
189.537	434
189.606	723
189.676	435
189.745	-5
189.814	162
189.883	716
189.953	507
190.022	-140
190.091	417
190.161	781
190.230	1293
190.299	257
190.368	-43
190.437	402
190.507	949
190.576	137
190.645	741
190.714	638
190.783	324
190.853	286
190.922	890
190.991	-251
191.060	1061
191.129	404
191.198	744
191.268	581
191.337	85
191.406	505
191.475	720
191.544	250
191.613	623
191.682	660
191.752	393
191.821	628
191.890	974
191.959	489
192.028	-230
192.097	44
192.166	799
192.235	-527
192.304	393
192.373	149
192.442	548
192.511	143
192.580	527
192.650	824
192.719	157
192.788	1168
192.857	889
192.926	-79
192.995	31
193.064	401
193.133	796
193.202	-308
193.271	675
193.340	975
193.409	1122
193.478	388
193.547	862
193.615	196
193.684	412
193.753	663
193.822	589
193.891	204
193.960	575
194.029	238
194.098	494
194.167	372
194.236	770
194.305	159
194.374	895
194.443	6
194.512	401
194.580	116
194.649	715
194.718	703
194.787	936
194.856	855
194.925	804
194.994	317
195.062	725
195.131	398
195.200	20
195.269	853
195.338	559
195.407	914
195.475	876
195.544	681
195.613	342
195.682	433
195.751	146
195.819	-153
195.888	347
195.957	1076
196.026	630
196.094	685
196.163	-65
196.232	356
196.301	114
196.369	-120
196.438	83
196.507	481
196.576	636
196.644	-68
196.713	269
196.782	344
196.850	57
196.919	400
196.988	269
197.056	-290
197.125	-184
197.194	863
197.262	907
197.331	107
197.400	-302
197.468	72
197.537	5
197.606	636
197.674	565
197.743	804
197.812	231
197.880	225
197.949	-71
198.017	751
198.086	258
198.155	527
198.223	400
198.292	774
198.360	699
198.429	365
198.497	311
198.566	747
198.635	388
198.703	1220
198.772	1165
198.840	661
198.909	405
198.977	177
199.046	-280
199.114	-32
199.183	845
199.251	-21
199.320	531
199.388	338
199.457	363
199.525	606
199.594	885
199.662	-72
199.731	683
199.799	452
199.867	550
199.936	467
200.004	671
200.073	986
200.141	-357
200.210	891
200.278	646
200.346	929
200.415	1071
200.483	586
200.552	949
200.620	287
200.688	560
200.757	891
200.825	659
200.893	617
200.962	490
201.030	45
201.098	173
201.167	655
201.235	667
201.303	761
201.372	-428
201.440	692
201.508	719
201.577	162
201.645	326
201.713	64
201.781	544
201.850	332
201.918	322
201.986	368
202.055	206
202.123	-102
202.191	208
202.259	-56
202.327	432
202.396	501
202.464	639
202.532	646
202.600	1124
202.669	203
202.737	634
202.805	142
202.873	975
202.941	601
203.009	392
203.078	320
203.146	474
203.214	515
203.282	458
203.350	336
203.418	860
203.487	392
203.555	598
203.623	688
203.691	476
203.759	2
203.827	758
203.895	953
203.963	499
204.031	158
204.099	269
204.168	558
204.236	318
204.304	740
204.372	696
204.440	173
204.508	2
204.576	637
204.644	921
204.712	67
204.780	-146
204.848	748
204.916	201
204.984	1502
205.052	1026
205.120	208
205.188	244
205.256	892
205.324	164
205.392	-463
205.460	1197
205.528	136
205.596	584
205.664	415
205.732	292
205.799	301
205.867	1226
205.935	-119
206.003	626
206.071	67
206.139	-138
206.207	405
206.275	273
206.343	157
206.411	490
206.478	608
206.546	1116
206.614	165
206.682	496
206.750	650
206.818	816
206.885	621
206.953	-381
207.021	1032
207.089	715
207.157	150
207.225	1898
207.292	771
207.360	475
207.428	29
207.496	719
207.563	469
207.631	265
207.699	-379
207.767	672
207.834	-69
207.902	-299
207.970	587
208.038	565
208.105	133
208.173	604
208.241	56
208.309	1089
208.376	485
208.444	1011
208.512	658
208.579	-542
208.647	1087
208.715	1072
208.782	-440
208.850	985
208.918	297
208.985	428
209.053	-16
209.120	390
209.188	-344
209.256	1201
209.323	764
209.391	70
209.459	623
209.526	200
209.594	176
209.661	571
209.729	947
209.796	1044
209.864	797
209.932	-345
209.999	1163
210.067	273
210.134	1452
210.202	958
210.269	1514
210.337	1526
210.404	871
210.472	380
210.539	345
210.607	139
210.674	692
210.742	1283
210.809	540
210.877	164
210.944	40
211.012	-182
211.079	1212
211.146	952
211.214	783
211.281	716
211.349	826
211.416	1080
211.484	1059
211.551	78
211.618	1327
211.686	1075
211.753	305
211.821	910
211.888	509
211.955	320
212.023	735
212.090	774
212.157	738
212.225	448
212.292	853
212.359	530
212.427	2793
212.494	718
212.561	490
212.629	1054
212.696	741
212.763	284
212.831	434
212.898	1001
212.965	613
213.032	1256
213.100	555
213.167	786
213.234	515
213.301	711
213.369	-276
213.436	673
213.503	-71
213.570	1247
213.638	-194
213.705	613
213.772	-49
213.839	652
213.906	625
213.973	821
214.041	310
214.108	859
214.175	423
214.242	542
214.309	788
214.376	438
214.444	517
214.511	1016
214.578	596
214.645	1079
214.712	395
214.779	186
214.846	1200
214.913	1152
214.980	754
215.048	1331
215.115	1655
215.182	722
215.249	682
215.316	622
215.383	754
215.450	1204
215.517	740
215.584	1262
215.651	386
215.718	1156
215.785	883
215.852	215
215.919	1019
215.986	1128
216.053	1000
216.120	250
216.187	837
216.254	822
216.321	457
216.388	869
216.455	984
216.522	1107
216.589	901
216.656	1290
216.722	1031
216.789	1463
216.856	392
216.923	354
216.990	1320
217.057	1004
217.124	922
217.191	974
217.258	575
217.324	899
217.391	939
217.458	1031
217.525	945
217.592	1457
217.659	285
217.725	1462
217.792	663
217.859	1176
217.926	-272
217.993	792
218.059	556
218.126	618
218.193	246
218.260	946
218.327	-38
218.393	-255
218.460	597
218.527	926
218.594	-264
218.660	566
218.727	1149
218.794	41
218.860	739
218.927	322
218.994	1066
219.061	236
219.127	326
219.194	529
219.261	798
219.327	-117
219.394	416
219.461	-651
219.527	586
219.594	930
219.661	696
219.727	248
219.794	1608
219.860	989
219.927	991
219.994	1780
220.060	2849
220.127	2729
220.193	2787
220.260	1189
220.326	2125
220.393	1223
220.460	1587
220.526	1619
220.593	828
220.659	2759
220.726	1204
220.792	2205
220.859	1539
220.925	1857
220.992	3235
221.058	2544
221.125	2567
221.191	1540
221.258	936
221.324	1303
221.391	655
221.457	458
221.524	1182
221.590	1736
221.657	2181
221.723	754
221.789	1012
221.856	1482
221.922	330
221.989	936
222.055	175
222.121	342
222.188	2615
222.254	1409
222.321	1074
222.387	343
222.453	884
222.520	1209
222.586	232
222.652	717
222.719	134
222.785	496
222.851	383
222.918	558
222.984	31
223.050	305
223.116	-427
223.183	1468
223.249	-74
223.315	319
223.382	150
223.448	338
223.514	573
223.580	224
223.647	-35
223.713	-384
223.779	104
223.845	638
223.911	1041
223.978	-99
224.044	225
224.110	387
224.176	129
224.242	838
224.309	-694
224.375	1066
224.441	645
224.507	276
224.573	3
224.639	1115
224.705	59
224.772	1016
224.838	180
224.904	1506
224.970	498
225.036	696
225.102	-209
225.168	-153
225.234	1158
225.300	735
225.366	1135
225.432	-69
225.499	951
225.565	1076
225.631	-72
225.697	635
225.763	193
225.829	1113
225.895	1193
225.961	892
226.027	1275
226.093	1226
226.159	2023
226.225	3413
226.291	4857
226.357	6009
226.423	2538
226.489	2272
226.554	1727
226.620	2021
226.686	2318
226.752	2618
226.818	3562
226.884	7717
226.950	6990
227.016	3563
227.082	2733
227.148	1644
227.214	1901
227.279	1487
227.345	1286
227.411	1779
227.477	2584
227.543	5083
227.609	5353
227.674	3890
227.740	1533
227.806	1664
227.872	1155
227.938	1413
228.003	1564
228.069	937
228.135	-50
228.201	1385
228.267	295
228.332	919
228.398	-202
228.464	815
228.530	-712
228.595	636
228.661	-370
228.727	56
228.792	890
228.858	-216
228.924	-847
228.990	1831
229.055	38
229.121	2272
229.187	-34
229.252	627
229.318	333
229.384	388
229.449	270
229.515	-816
229.581	-593
229.646	1331
229.712	48
229.777	327
229.843	299
229.909	1360
229.974	995
230.040	392
230.105	629
230.171	306
230.236	838
230.302	1130
230.368	677
230.433	385
230.499	358
230.564	1389
230.630	171
230.695	737
230.761	969
230.826	-370
230.892	1405
230.957	467
231.023	547
231.088	837
231.154	1188
231.219	1180
231.284	338
231.350	696
231.415	-616
231.481	1121
231.546	755
231.612	1239
231.677	900
231.742	-527
231.808	1551
231.873	-37
231.939	-1162
232.004	1122
232.069	806
232.135	653
232.200	218
232.265	1201
232.331	324
232.396	134
232.461	329
232.527	584
232.592	-167
232.657	507
232.723	799
232.788	540
232.853	1610
232.918	319
232.984	297
233.049	159
233.114	-97
233.179	648
233.245	1280
233.310	127
233.375	-295
233.440	1011
233.506	363
233.571	-31
233.636	202
233.701	933
233.766	911
233.832	1204
233.897	114
233.962	-754
234.027	1435
234.092	722
234.157	1083
234.222	475
234.288	677
234.353	418
234.418	867
234.483	1461
234.548	1136
234.613	951
234.678	323
234.743	240
234.808	1279
234.873	-27
234.938	1630
235.004	664
235.069	283
235.134	1074
235.199	744
235.264	658
235.329	-721
235.394	1583
235.459	1081
235.524	212
235.589	1151
235.654	1038
235.719	49
235.784	1365
235.849	528
235.913	864
235.978	548
236.043	434
236.108	732
236.173	84
236.238	1384
236.303	292
236.368	430
236.433	1619
236.498	1216
236.563	2186
236.627	2762
236.692	10419
236.757	9079
236.822	3679
236.887	1231
236.952	2345
237.017	618
237.081	2825
237.146	1805
237.211	5124
237.276	9590
237.341	15357
237.405	7339
237.470	3330
237.535	1538
237.600	1560
237.664	1228
237.729	902
237.794	1528
237.859	3733
237.923	1826
237.988	1136
238.053	1001
238.118	599
238.182	1685
238.247	2707
238.312	468
238.376	996
238.441	-67
238.506	2656
238.570	-804
238.635	2002
238.700	1199
238.764	614
238.829	1677
238.893	-6
238.958	1325
239.023	1175
239.087	1302
239.152	852
239.216	168
239.281	1821
239.346	830
239.410	1206
239.475	340
239.539	2331
239.604	165
239.668	2654
239.733	2463
239.797	6135
239.862	10392
239.926	9138
239.991	3602
240.055	3435
240.120	1357
240.184	1596
240.249	375
240.313	155
240.378	661
240.442	476
240.507	1566
240.571	183
240.635	65
240.700	487
240.764	202
240.829	1018
240.893	5
240.957	949
241.022	769
241.086	618
241.151	-62
241.215	274
241.279	1192
241.344	123
241.408	1781
241.472	933
241.537	2233
241.601	1520
241.665	72
241.730	-130
241.794	2167
241.858	1105
241.922	21
241.987	1416
242.051	643
242.115	577
242.179	1233
242.244	581
242.308	954
242.372	1175
242.436	365
242.501	1079
242.565	103
242.629	657
242.693	2058
242.757	509
242.822	507
242.886	1443
242.950	1166
243.014	125
243.078	841
243.142	1619
243.206	141
243.271	565
243.335	241
243.399	1811
243.463	3594
243.527	9528
243.591	2777
243.655	1380
243.719	493
243.783	1592
243.847	1152
243.911	1755
243.975	302
244.040	442
244.104	1603
244.168	1336
244.232	760
244.296	811
244.360	1663
244.424	186
244.488	428
244.552	983
244.615	-636
244.679	940
244.743	430
244.807	616
244.871	271
244.935	863
244.999	-1212
245.063	1000
245.127	1039
245.191	1073
245.255	736
245.319	1202
245.383	-206
245.446	1932
245.510	388
245.574	658
245.638	1490
245.702	288
245.766	1905
245.829	1036
245.893	201
245.957	578
246.021	1278
246.085	430
246.149	1025
246.212	3042
246.276	2657
246.340	1639
246.404	796
246.467	1955
246.531	-154
246.595	2017
246.659	980
246.722	-221
246.786	433
246.850	880
246.913	1014
246.977	582
247.041	1322
247.104	692
247.168	703
247.232	1454
247.295	3753
247.359	2201
247.423	644
247.486	1533
247.550	2045
247.614	492
247.677	1261
247.741	1400
247.804	652
247.868	1182
247.932	1075
247.995	4577
248.059	1367
248.122	357
248.186	1694
248.249	1870
248.313	6429
248.376	7571
248.440	4308
248.503	758
248.567	2415
248.630	1468
248.694	2777
248.757	4022
248.821	7752
248.884	6008
248.948	3132
249.011	6148
249.075	7874
249.138	6987
249.202	2262
249.265	1697
249.328	1817
249.392	1171
249.455	1259
249.519	1404
249.582	1465
249.645	3053
249.709	2174
249.772	1541
249.835	1298
249.899	1765
249.962	2210
250.025	1200
250.089	2619
250.152	3397
250.215	1758
250.279	1069
250.342	1354
250.405	936
250.468	1034
250.532	1429
250.595	3038
250.658	7943
250.721	14238
250.785	5065
250.848	4282
250.911	1135
250.974	2338
251.038	2064
251.101	4566
251.164	2428
251.227	2465
251.290	2231
251.354	3925
251.417	13052
251.480	12682
251.543	7961
251.606	24362
251.669	17004
251.732	6645
251.795	6336
251.859	7041
251.922	15249
251.985	8638
252.048	3697
252.111	2587
252.174	2277
252.237	4411
252.300	8977
252.363	7389
252.426	19912
252.489	7223
252.552	3726
252.615	1733
252.678	3321
252.741	5773
252.804	8247
252.867	19755
252.930	10088
252.993	4504
253.056	3742
253.119	2028
253.182	1280
253.245	1471
253.308	3022
253.371	1048
253.434	1736
253.497	2082
253.559	4807
253.622	1584
253.685	2370
253.748	2002
253.811	1255
253.874	2184
253.937	1181
254.000	1107
254.062	1548
254.125	3433
254.188	3978
254.251	2114
254.314	1527
254.376	1005
254.439	2733
254.502	1500
254.565	2426
254.628	5067
254.690	1296
254.753	766
254.816	1065
254.878	1186
254.941	3509
255.004	2452
255.067	1056
255.129	541
255.192	861
255.255	-236
255.317	1285
255.380	1262
255.443	842
255.505	1460
255.568	157
255.631	384
255.693	1396
255.756	661
255.819	2879
255.881	261
255.944	1077
256.006	884
256.069	1126
256.132	840
256.194	1034
256.257	1314
256.319	1655
256.382	1755
256.444	3048
256.507	2754
256.569	1281
256.632	1510
256.694	1402
256.757	6283
256.819	18588
256.882	7005
256.944	3135
257.007	1888
257.069	1804
257.132	1402
257.194	2427
257.257	435
257.319	870
257.381	871
257.444	5275
257.506	20147
257.569	21834
257.631	7520
257.693	3693
257.756	1981
257.818	1738
257.880	1499
257.943	2054
258.005	2
258.067	910
258.130	1128
258.192	892
258.254	1167
258.317	1076
258.379	2116
258.441	2323
258.503	3255
258.566	1337
258.628	1415
258.690	354
258.753	2586
258.815	1862
258.877	699
258.939	1573
259.001	1519
259.064	1846
259.126	1297
259.188	1510
259.250	1766
259.312	1133
259.375	1680
259.437	785
259.499	1048
259.561	1014
259.623	1339
259.685	882
259.747	598
259.809	1566
259.872	3349
259.934	4591
259.996	3968
260.058	2161
260.120	615
260.182	1245
260.244	1631
260.306	1163
260.368	1087
260.430	1043
260.492	1574
260.554	3329
260.616	2408
260.678	2122
260.740	1918
260.802	677
260.864	1847
260.926	390
260.988	1876
261.050	1198
261.112	2400
261.174	4019
261.236	2157
261.298	1955
261.359	2218
261.421	2996
261.483	948
261.545	1971
261.607	558
261.669	1680
261.731	2182
261.793	1782
261.854	577
261.916	1712
261.978	957
262.040	1692
262.102	1391
262.164	1323
262.225	1693
262.287	1618
262.349	1967
262.411	1445
262.472	2426
262.534	885
262.596	1181
262.658	2339
262.719	-77
262.781	1733
262.843	645
262.904	1677
262.966	1252
263.028	1158
263.090	3449
263.151	6724
263.213	3965
263.275	2206
263.336	1863
263.398	1487
263.459	1287
263.521	1392
263.583	2519
263.644	2365
263.706	1000
263.767	338
263.829	1094
263.891	810
263.952	440
264.014	1227
264.075	1104
264.137	2842
264.198	1292
264.260	980
264.321	641
264.383	1751
264.444	4438
264.506	1296
264.567	1183
264.629	2283
264.690	2569
264.752	2380
264.813	691
264.875	557
264.936	1972
264.998	1394
265.059	1236
265.120	2163
265.182	2231
265.243	9254
265.305	10404
265.366	3069
265.427	2300
265.489	2224
265.550	413
265.611	1822
265.673	1231
265.734	1893
265.795	1442
265.857	437
265.918	356
265.979	3333
266.040	15985
266.102	13287
266.163	3422
266.224	2258
266.286	1484
266.347	763
266.408	991
266.469	1593
266.530	1679
266.592	1452
266.653	1493
266.714	1946
266.775	776
266.836	1652
266.898	908
266.959	1294
267.020	679
267.081	1480
267.142	338
267.203	1128
267.264	97
267.326	1635
267.387	536
267.448	295
267.509	1265
267.570	1265
267.631	811
267.692	455
267.753	1157
267.814	1279
267.875	2034
267.936	2961
267.997	76
268.058	1081
268.119	136
268.180	1037
268.241	642
268.302	1368
268.363	-563
268.424	1282
268.485	1040
268.546	211
268.607	417
268.668	745
268.729	182
268.790	906
268.851	616
268.912	2233
268.972	1872
269.033	504
269.094	-98
269.155	1214
269.216	579
269.277	432
269.338	717
269.398	1869
269.459	265
269.520	567
269.581	1859
269.642	1536
269.702	394
269.763	1096
269.824	1172
269.885	1026
269.945	1999
270.006	1327
270.067	1177
270.128	973
270.188	135
270.249	1297
270.310	680
270.370	1932
270.431	229
270.492	742
270.553	1357
270.613	1486
270.674	2653
270.734	1364
270.795	1693
270.856	1074
270.916	718
270.977	1281
271.038	923
271.098	1355
271.159	1296
271.219	1216
271.280	445
271.340	1137
271.401	9
271.462	1738
271.522	1770
271.583	700
271.643	1447
271.704	1029
271.764	1132
271.825	2176
271.885	6631
271.946	8849
272.006	2851
272.066	4241
272.127	8093
272.187	8087
272.248	2868
272.308	1800
272.369	5689
272.429	3157
272.489	1551
272.550	1815
272.610	2450
272.671	1837
272.731	1397
272.791	1231
272.852	1281
272.912	1427
272.972	1451
273.033	1417
273.093	1464
273.153	1549
273.214	830
273.274	1301
273.334	3789
273.394	7610
273.455	1806
273.515	2972
273.575	4163
273.635	2599
273.696	3178
273.756	5681
273.816	2729
273.876	1880
273.936	1507
273.997	2916
274.057	430
274.117	947
274.177	2518
274.237	7226
274.297	6580
274.358	3002
274.418	4593
274.478	3090
274.538	1431
274.598	799
274.658	1954
274.718	2426
274.778	1043
274.838	1053
274.898	1597
274.958	2503
275.018	5306
275.078	4236
275.138	1868
275.198	1002
275.258	1098
275.318	1001
275.378	1200
275.438	2148
275.498	1282
275.558	2008
275.618	3715
275.678	4282
275.738	2997
275.798	2266
275.858	1909
275.918	968
275.978	1644
276.038	973
276.098	1702
276.157	2217
276.217	3925
276.277	2348
276.337	1491
276.397	1341
276.457	1327
276.517	1852
276.576	466
276.636	1677
276.696	1144
276.756	2464
276.815	1845
276.875	1820
276.935	849
276.995	1956
277.055	1169
277.114	2591
277.174	2215
277.234	3451
277.293	1400
277.353	1056
277.413	1882
277.472	837
277.532	1108
277.592	1696
277.651	4124
277.711	6802
277.771	2575
277.830	8691
277.890	6777
277.950	5100
278.009	14316
278.069	6116
278.128	5598
278.188	7318
278.248	3649
278.307	9041
278.367	4891
278.426	2428
278.486	2023
278.545	1738
278.605	1279
278.664	1645
278.724	1537
278.783	3909
278.843	6826
278.902	3000
278.962	2163
279.021	2488
279.081	1731
279.140	1895
279.199	2031
279.259	2881
279.318	3397
279.378	3773
279.437	4098
279.496	12676
279.556	33225
279.615	24953
279.675	6735
279.734	4583
279.793	5138
279.853	10371
279.912	4743
279.971	2250
280.031	3009
280.090	6298
280.149	8173
280.208	5375
280.268	21580
280.327	21134
280.386	4557
280.445	3758
280.505	3721
280.564	2804
280.623	2032
280.682	3242
280.742	3221
280.801	2149
280.860	1578
280.919	1517
280.978	1265
281.037	1404
281.097	1187
281.156	2640
281.215	2074
281.274	2916
281.333	5930
281.392	3357
281.451	1995
281.510	1708
281.569	1084
281.628	1847
281.688	1212
281.747	1688
281.806	2087
281.865	1509
281.924	1184
281.983	2375
282.042	1075
282.101	1333
282.160	1214
282.219	1304
282.278	1416
282.337	2706
282.396	2040
282.454	1717
282.513	1744
282.572	4477
282.631	2360
282.690	1995
282.749	691
282.808	1996
282.867	1009
282.926	2074
282.985	1644
283.043	2230
283.102	1310
283.161	1959
283.220	2626
283.279	3980
283.338	2960
283.396	1687
283.455	1725
283.514	1829
283.573	2431
283.631	2140
283.690	2410
283.749	1791
283.808	2620
283.866	2253
283.925	2483
283.984	2863
284.043	2012
284.101	2754
284.160	1730
284.219	2667
284.277	2898
284.336	2507
284.395	6584
284.453	5387
284.512	3522
284.570	4220
284.629	3513
284.688	3065
284.746	3157
284.805	4433
284.863	4650
284.922	6113
284.981	7391
285.039	10706
285.098	17946
285.156	36771
285.215	56646
285.273	60283
285.332	41515
285.390	22465
285.449	13087
285.507	10033
285.566	7272
285.624	5847
285.683	5317
285.741	4763
285.799	4553
285.858	3526
285.916	2668
285.975	3587
286.033	2903
286.091	3232
286.150	2765
286.208	2528
286.267	2990
286.325	2756
286.383	2619
286.442	3126
286.500	1986
286.558	2845
286.616	2168
286.675	2561
286.733	2282
286.791	2300
286.850	2427
286.908	3270
286.966	4026
287.024	3011
287.083	2108
287.141	2845
287.199	2687
287.257	2292
287.315	2617
287.374	3018
287.432	3822
287.490	3231
287.548	2058
287.606	2681
287.664	2521
287.723	2918
287.781	2270
287.839	2968
287.897	2540
287.955	2819
288.013	3453
288.071	5854
288.129	19018
288.187	50196
288.245	22920
288.303	8030
288.361	4486
288.419	3637
288.477	2754
288.535	3568
288.593	2860
288.651	2281
288.709	3422
288.767	2266
288.825	2122
288.883	2187
288.941	1620
288.999	2384
289.057	2035
289.115	1549
289.173	1904
289.231	2865
289.289	2451
289.346	2638
289.404	2553
289.462	2865
289.520	1916
289.578	2202
289.636	1952
289.694	2751
289.751	2770
289.809	2392
289.867	2375
289.925	2611
289.983	2098
290.040	3232
290.098	2131
290.156	2949
290.214	1728
290.271	1930
290.329	2844
290.387	2493
290.444	2532
290.502	2204
290.560	2462
290.617	2078
290.675	1988
290.733	2444
290.790	2606
290.848	2909
290.906	2123
290.963	3207
291.021	1858
291.078	1920
291.136	2138
291.194	3583
291.251	6110
291.309	2729
291.366	2928
291.424	1791
291.481	2086
291.539	1933
291.596	2247
291.654	2381
291.711	2076
291.769	2790
291.826	2999
291.884	1606
291.941	1834
291.999	1936
292.056	1992
292.114	1213
292.171	1753
292.228	2947
292.286	2523
292.343	2217
292.401	3131
292.458	3095
292.515	2410
292.573	3131
292.630	1781
292.687	2413
292.745	2073
292.802	2085
292.859	3228
292.917	5541
292.974	2921
293.031	2545
293.089	1664
293.146	2076
293.203	2822
293.260	2081
293.318	2172
293.375	2515
293.432	2719
293.489	2631
293.546	2426
293.604	3018
293.661	4086
293.718	9908
293.775	4795
293.832	2398
293.889	3284
293.947	1995
294.004	2166
294.061	2078
294.118	3535
294.175	6462
294.232	7998
294.289	4495
294.346	3375
294.403	3589
294.460	2071
294.517	1959
294.574	3020
294.631	3163
294.688	2482
294.745	4137
294.802	10617
294.859	10169
294.916	5173
294.973	3324
295.030	2023
295.087	2158
295.144	2852
295.201	3144
295.258	2016
295.315	3072
295.372	4554
295.429	7608
295.486	4558
295.542	3114
295.599	6365
295.656	8099
295.713	6192
295.770	7920
295.827	4023
295.883	2262
295.940	2271
295.997	2703
296.054	1742
296.111	3177
296.167	1696
296.224	1969
296.281	1842
296.338	2189
296.394	2714
296.451	2413
296.508	4140
296.564	6964
296.621	5566
296.678	8640
296.734	10954
296.791	5876
296.848	2669
296.904	2879
296.961	4632
297.018	8769
297.074	6670
297.131	4204
297.187	3491
297.244	3718
297.301	7968
297.357	14554
297.414	6961
297.470	4101
297.527	2233
297.583	2791
297.640	2561
297.696	2259
297.753	2249
297.809	2718
297.866	1589
297.922	2298
297.979	1772
298.035	2182
298.092	2247
298.148	5495
298.204	5986
298.261	3262
298.317	5087
298.374	9852
298.430	6278
298.486	3734
298.543	2474
298.599	2835
298.656	2527
298.712	2943
298.768	5967
298.824	5638
298.881	2538
298.937	2030
298.993	2954
299.050	2541
299.106	2476
299.162	2257
299.218	3402
299.275	2249
299.331	3203
299.387	4119
299.443	10980
299.500	19775
299.556	13764
299.612	6482
299.668	5778
299.724	13691
299.780	16344
299.837	6469
299.893	5391
299.949	14423
300.005	17842
300.061	15121
300.117	22365
300.173	11807
300.229	5506
300.285	4167
300.341	4238
300.397	3787
300.453	3179
300.510	3553
300.566	3826
300.622	6359
300.678	21375
300.734	26416
300.790	15497
300.845	13004
300.901	13937
300.957	20185
301.013	11050
301.069	5603
301.125	3502
301.181	3011
301.237	3575
301.293	1880
301.349	2504
301.405	2421
301.461	3195
301.516	2848
301.572	2445
301.628	2489
301.684	3068
301.740	3457
301.796	5783
301.851	4440
301.907	5020
301.963	5072
302.019	9558
302.074	22533
302.130	22861
302.186	11684
302.242	5622
302.297	4158
302.353	4545
302.409	5427
302.464	5004
302.520	4982
302.576	8301
302.631	10088
302.687	6375
302.743	4272
302.798	3438
302.854	2712
302.910	2454
302.965	3402
303.021	3962
303.076	4228
303.132	3701
303.187	3697
303.243	2980
303.299	2823
303.354	2509
303.410	3374
303.465	2861
303.521	3095
303.576	2543
303.632	2875
303.687	4410
303.743	8455
303.798	7924
303.853	4732
303.909	2949
303.964	2995
304.020	3056
304.075	4247
304.130	3654
304.186	4984
304.241	5836
304.297	3616
304.352	3127
304.358	3193
304.407	3727
304.449	3667
304.463	3650
304.518	3027
304.539	2825
304.573	2495
304.629	2774
304.630	2784
304.684	3334
304.720	5818
304.739	7058
304.794	9516
304.811	8580
304.850	6169
304.902	3829
304.905	3691
304.960	2837
304.992	3046
305.015	3175
305.071	3151
305.083	3115
305.126	3018
305.173	2342
305.181	2228
305.236	1725
305.264	2017
305.292	2318
305.347	2168
305.354	2265
305.402	2849
305.445	2557
305.457	2482
305.512	2924
305.535	2989
305.567	3103
305.622	3529
305.626	3546
305.678	4689
305.716	7665
305.733	8527
305.788	10793
305.807	9636
305.843	8049
305.897	10125
305.898	10135
305.953	9279
305.988	6514
306.008	5209
306.063	4302
306.078	3731
306.118	2396
306.168	2374
306.173	2373
306.228	2220
306.259	2481
306.283	2742
306.338	2664
306.349	2702
306.393	2924
306.440	3239
306.448	3255
306.503	3866
306.530	3139
306.558	2837
306.613	4728
306.620	4982
306.668	6750
306.711	8554
306.723	8593
306.778	6981
306.801	5803
306.833	4711
306.888	3071
306.892	3049
306.943	3117
306.982	3394
306.997	3549
307.052	3033
307.072	3048
307.107	3187
307.162	3678
307.163	3677
307.217	3694
307.253	3931
307.272	4063
307.327	3650
307.343	3779
307.381	3860
307.434	3480
307.436	3554
307.491	5986
307.524	7457
307.546	7532
307.600	7925
307.614	7350
307.655	5310
307.704	4226
307.710	4278
307.765	4252
307.795	4903
307.819	5502
307.874	6807
307.885	7047
307.929	7771
307.975	8481
307.984	9078
308.038	13708
308.065	16484
308.093	28075
308.148	56152
308.156	61784
308.202	91235
308.246	111539
308.257	106611
308.312	59269
308.336	38935
308.366	29302
308.421	16101
308.426	15091
308.475	10715
308.517	7982
308.530	7515
308.585	6880
308.607	6657
308.639	6684
308.694	6390
308.697	6403
308.748	8214
308.787	9909
308.803	9858
308.857	8643
308.877	8291
308.912	8818
308.967	9887
308.967	9894
309.021	13871
309.058	16912
309.076	21326
309.130	36257
309.148	41854
309.185	76690
309.238	134574
309.239	135084
309.293	142503
309.328	136089
309.348	118020
309.402	59813
309.418	44223
309.457	32121
309.508	19094
309.511	18770
309.566	15861
309.598	14163
309.620	14830
309.674	17728
309.688	18570
309.729	18080
309.778	15962
309.783	15660
309.837	11967
309.868	9953
309.892	10633
309.946	12943
309.959	13611
310.001	16217
310.049	18640
310.055	18080
310.109	11747
310.139	8320
310.163	7234
310.218	5676
310.229	5283
310.272	4822
310.319	4416
310.326	4366
310.381	3973
310.409	4025
310.435	4004
310.489	3423
310.499	3396
310.543	4077
310.589	4481
310.598	4389
310.652	4113
310.679	3821
310.706	4014
310.760	4311
310.769	4386
310.814	4132
310.859	3833
310.868	3905
310.923	4076
310.948	4246
310.977	4469
311.031	4810
311.038	4854
311.085	4464
311.128	3925
311.139	3935
311.193	4160
311.218	4226
311.247	4350
311.301	4495
311.308	4499
311.356	4427
311.398	4439
311.410	4509
311.464	4697
311.488	4787
311.518	4388
311.572	3586
311.578	3496
311.626	4165
311.668	4743
311.680	4839
311.734	5202
311.758	5344
311.788	5350
311.842	5338
311.847	5330
311.896	6179
311.937	6855
311.950	6718
312.004	6054
312.027	5748
312.058	5255
312.112	4363
312.117	4265
312.165	4702
312.207	5060
312.297	5122
312.386	6059
312.476	4759
312.566	6157
312.656	4731
312.745	4481
312.835	6071
312.925	5586
313.015	5145
313.104	5416
313.194	5715
313.284	5917
313.374	6922
313.463	5827
313.553	6374
313.643	6988
313.732	6640
313.822	6478
313.912	7703
314.001	8292
314.091	8246
314.180	9218
314.270	8530
314.360	8414
314.449	8351
314.539	7402
314.628	7772
314.718	8613
314.808	8394
314.897	9050
314.987	8930
315.076	9728
315.166	8711
315.255	8849
315.345	8418
315.434	8121
315.524	8145
315.613	9547
315.703	10721
315.792	20001
315.881	58847
315.971	21665
316.060	10892
316.150	10750
316.239	8952
316.328	8151
316.418	7973
316.507	8565
316.597	10434
316.686	10909
316.775	9804
316.865	10599
316.954	7865
317.043	7521
317.133	6817
317.222	7436
317.311	6192
317.400	5339
317.490	6940
317.579	7424
317.668	7524
317.757	11443
317.847	30272
317.936	93661
318.025	31109
318.114	23618
318.203	14357
318.293	11162
318.382	16909
318.471	16700
318.560	19125
318.649	29681
318.738	9629
318.828	6742
318.917	6658
319.006	7306
319.095	11818
319.184	31606
319.273	15593
319.362	8999
319.451	6264
319.540	6979
319.629	7119
319.718	9356
319.807	8742
319.896	13202
319.985	38110
320.074	14715
320.163	7136
320.252	8128
320.341	8295
320.430	8998
320.519	9127
320.608	8185
320.697	10087
320.786	9858
320.875	11393
320.964	12764
321.053	13988
321.142	15905
321.230	17705
321.319	19164
321.408	24350
321.497	19099
321.586	16672
321.675	15135
321.764	15091
321.852	15064
321.941	16308
322.030	15746
322.119	17128
322.207	23759
322.296	23230
322.385	22545
322.474	24837
322.562	29937
322.651	21763
322.740	16902
322.829	17292
322.917	14648
323.006	12270
323.095	11997
323.183	10807
323.272	12135
323.361	13563
323.449	23105
323.538	12148
323.626	18030
323.715	13348
323.804	9055
323.892	14425
323.981	11016
324.069	8028
324.158	10874
324.246	11080
324.335	8706
324.424	8958
324.512	7132
324.601	7334
324.689	7850
324.778	8833
324.866	8452
324.954	5886
325.043	6632
325.131	6599
325.220	9964
325.308	8904
325.397	8047
325.485	7281
325.574	6584
325.662	6499
325.750	6216
325.839	6829
325.927	6141
326.015	6557
326.104	6790
326.192	7366
326.280	6283
326.369	5592
326.457	6597
326.545	7478
326.634	6505
326.722	5625
326.810	6995
326.898	7810
326.987	7732
327.075	7943
327.163	8583
327.251	6736
327.340	7353
327.428	10355
327.516	10861
327.604	8616
327.692	7524
327.781	6033
327.869	6861
327.957	6535
328.045	5838
328.133	6587
328.221	5689
328.309	5904
328.397	6830
328.485	7543
328.574	10664
328.662	18212
328.750	12142
328.838	7815
328.926	7330
329.014	6520
329.102	6660
329.190	10322
329.278	8323
329.366	6656
329.454	6046
329.542	6249
329.630	6014
329.718	5976
329.806	5562
329.893	6947
329.981	5994
330.069	7520
330.157	13965
330.245	27116
330.333	14338
330.421	6508
330.509	6999
330.597	11864
330.684	9156
330.772	6985
330.860	7093
330.948	9652
331.036	7572
331.123	5850
331.211	5684
331.299	6700
331.387	8867
331.475	11234
331.562	7383
331.650	6140
331.738	6942
331.825	7125
331.913	6037
332.001	6216
332.089	6577
332.176	7850
332.264	10149
332.352	8633
332.439	6630
332.527	6450
332.614	6215
332.702	6742
332.790	6956
332.877	7922
332.965	10350
333.052	8205
333.140	7783
333.228	11822
333.315	7832
333.403	6462
333.490	9724
333.578	9909
333.665	14605
333.753	10650
333.840	8848
333.928	9532
334.015	12103
334.103	19953
334.190	44270
334.278	25790
334.365	27425
334.452	27463
334.540	20687
334.627	20390
334.715	24431
334.802	34617
334.889	64129
334.977	75085
335.064	42846
335.151	24770
335.239	18374
335.326	16293
335.413	30771
335.501	36327
335.588	17914
335.675	17608
335.762	22790
335.850	30225
335.937	40776
336.024	65635
336.111	105241
336.199	82097
336.286	41041
336.373	24231
336.460	18064
336.547	15249
336.635	13759
336.722	11156
336.809	9994
336.896	9844
336.983	15830
337.070	31273
337.157	44232
337.245	21691
337.332	16086
337.419	10437
337.506	9464
337.593	8947
337.680	15190
337.767	29759
337.854	12421
337.941	11929
338.028	10477
338.115	8181
338.202	9381
338.289	10744
338.376	17020
338.463	9680
338.550	18931
338.637	19536
338.724	9084
338.811	9557
338.898	6817
338.984	6913
339.071	7759
339.158	7815
339.245	10188
339.332	7751
339.419	8368
339.506	8605
339.593	6014
339.679	7017
339.766	7043
339.853	6973
339.940	7827
340.027	6276
340.113	6595
340.200	7357
340.287	5788
340.374	6809
340.460	8226
340.547	6002
340.634	8217
340.720	13106
340.807	9148
340.894	6477
340.980	6917
341.067	6654
341.154	7004
341.240	7980
341.327	10034
341.414	7541
341.500	6966
341.587	7173
341.674	6851
341.760	7771
341.847	8705
341.933	7025
342.020	6151
342.106	6568
342.193	7721
342.279	7668
342.366	6876
342.452	8704
342.539	6353
342.625	8260
342.712	13161
342.798	8444
342.885	6984
342.971	5892
343.058	6584
343.144	6773
343.230	6861
343.317	6065
343.403	5819
343.490	7163
343.576	6669
343.662	6601
343.749	6059
343.835	6756
343.921	8965
344.008	30243
344.094	63573
344.180	15935
344.267	9003
344.353	18935
344.439	18370
344.525	9512
344.612	11556
344.698	10423
344.784	8755
344.870	6867
344.957	5525
345.043	7153
345.129	6242
345.215	8159
345.301	6435
345.387	5754
345.474	5759
345.560	6376
345.646	5963
345.732	5925
345.818	6761
345.904	5994
345.990	6590
346.076	6288
346.162	6215
346.249	7652
346.335	6348
346.421	7227
346.507	11582
346.593	27279
346.679	9810
346.765	8729
346.851	12017
346.937	9412
347.023	8096
347.108	7718
347.194	7299
347.280	7168
347.366	9373
347.452	23155
347.538	46592
347.624	28120
347.710	18596
347.796	8037
347.882	7084
347.967	7565
348.053	7758
348.139	6706
348.225	6475
348.311	6730
348.397	6843
348.482	7669
348.568	8458
348.654	10357
348.740	26375
348.825	30546
348.911	15784
348.997	20251
349.083	31174
349.168	9368
349.254	8292
349.340	7672
349.425	7085
349.511	7811
349.597	8276
349.682	9343
349.768	19477
349.854	12837
349.939	7460
350.025	7122
350.110	8851
350.196	6946
350.282	5930
350.367	6620
350.453	7319
350.538	7494
350.624	6845
350.709	7172
350.795	6874
350.880	5928
350.966	8009
351.051	7486
351.137	7544
351.222	6980
351.308	8776
351.393	15085
351.479	8599
351.564	6624
351.649	7511
351.735	7099
351.820	6468
351.906	6703
351.991	7163
352.076	11162
352.162	14943
352.247	6783
352.332	7204
352.418	8158
352.503	8298
352.588	18703
352.673	15099
352.759	6947
352.844	7490
352.929	7190
353.014	6629
353.100	7169
353.185	8177
353.270	7793
353.355	7798
353.441	6812
353.526	6607
353.611	6904
353.696	8125
353.781	8394
353.866	5963
353.952	7636
354.037	8035
354.122	10506
354.207	8809
354.292	7865
354.377	7086
354.462	7253
354.547	6240
354.632	7077
354.717	7840
354.802	8777
354.887	6483
354.972	6977
355.057	6612
355.142	6326
355.227	6712
355.312	7367
355.397	8911
355.482	13076
355.567	10066
355.652	8763
355.737	10424
355.822	19131
355.907	16472
355.991	8175
356.076	6920
356.161	7324
356.246	6235
356.331	6908
356.416	10148
356.501	34697
356.585	34400
356.670	9537
356.755	9485
356.840	9493
356.924	23950
357.009	68475
357.094	27518
357.179	9469
357.263	8802
357.348	8652
357.433	8574
357.517	9268
357.602	7615
357.687	8769
357.771	10110
357.856	19181
357.941	14118
358.025	20660
358.110	71825
358.195	34630
358.279	10173
358.364	9344
358.448	14251
358.533	30043
358.617	21791
358.702	23503
358.787	12266
358.871	9804
358.956	9910
359.040	7639
359.125	8100
359.209	8334
359.294	13284
359.378	20420
359.462	13852
359.547	8773
359.631	7857
359.716	7100
359.800	7426
359.885	9046
359.969	7485
360.053	7834
360.138	7708
360.222	8265
360.306	8590
360.391	9138
360.475	12446
360.559	18256
360.644	14616
360.728	12281
360.812	21922
360.896	50133
360.981	21285
361.065	12734
361.149	9380
361.233	8646
361.318	9133
361.402	9069
361.486	10170
361.570	8464
361.654	10214
361.739	12467
361.823	34262
361.907	53574
361.991	16949
362.075	16000
362.159	21889
362.243	35674
362.327	76662
362.411	104058
362.495	45791
362.580	23729
362.664	21393
362.748	25201
362.832	36967
362.916	75698
363.000	187114
363.084	256857
363.168	134748
363.252	42693
363.336	24945
363.420	21503
363.503	38732
363.587	43137
363.671	17811
363.755	16504
363.839	19543
363.923	18564
364.007	24680
364.091	31887
364.175	49425
364.258	124935
364.342	232328
364.426	351785
364.510	196050
364.594	67032
364.677	38573
364.761	56937
364.845	39994
364.929	19030
365.013	16167
365.096	13553
365.180	13513
365.264	19709
365.347	53668
365.431	25620
365.515	11931
365.598	9110
365.682	11161
365.766	10825
365.849	12639
365.933	10472
366.017	11988
366.100	10645
366.184	9248
366.267	10104
366.351	9134
366.435	8902
366.518	9279
366.602	9293
366.685	9355
366.769	9277
366.852	10809
366.936	12253
367.019	10434
367.103	10176
367.186	13898
367.270	10141
367.353	8835
367.436	11248
367.520	10682
367.603	10046
367.687	9188
367.770	10589
367.853	11178
367.937	18252
368.020	25189
368.104	10682
368.187	10406
368.270	11514
368.353	10882
368.437	10961
368.520	13808
368.603	11534
368.687	15877
368.770	26458
368.853	10720
368.936	11839
369.020	11446
369.103	8285
369.186	7840
369.269	8052
369.352	9716
369.436	10105
369.519	9087
369.602	6521
369.685	9923
369.768	7238
369.851	8399
369.934	8046
370.018	8107
370.101	8515
370.184	10111
370.267	8407
370.350	9917
370.433	12962
370.516	29891
370.599	49954
370.682	20777
370.765	17070
370.848	19537
370.931	31691
371.014	17242
371.097	8180
371.180	7670
371.263	7771
371.346	6750
371.429	8381
371.511	7757
371.594	8641
371.677	10777
371.760	12597
371.843	11222
371.926	31212
372.009	62732
372.091	25290
372.174	17153
372.257	36921
372.340	18027
372.423	12677
372.505	15336
372.588	10727
372.671	14466
372.754	30646
372.836	19473
372.919	18603
373.002	29742
373.085	12585
373.167	11749
373.250	16755
373.332	33231
373.415	43221
373.498	80955
373.580	36480
373.663	67112
373.746	82031
373.828	20644
373.911	13072
373.993	11926
374.076	28887
374.159	27970
374.241	15400
374.324	27472
374.406	21878
374.489	29912
374.571	72378
374.654	32269
374.736	19175
374.819	48009
374.901	63674
374.983	63529
375.066	18089
375.148	12825
375.231	26996
375.313	45039
375.395	20369
375.478	13304
375.560	12860
375.643	12203
375.725	20212
375.807	56204
375.890	41653
375.972	15511
376.054	13184
376.136	14384
376.219	11466
376.301	21257
376.383	47724
376.465	21282
376.548	12633
376.630	16422
376.712	38913
376.794	22239
376.877	9282
376.959	7182
377.041	8215
377.123	10283
377.205	11488
377.287	7661
377.369	8435
377.452	8489
377.534	8068
377.616	8295
377.698	8926
377.780	8008
377.862	7640
377.944	9444
378.026	7487
378.108	8426
378.190	7868
378.272	8595
378.354	7536
378.436	7091
378.518	8633
378.600	13999
378.682	13512
378.764	19682
378.846	16794
378.928	9440
379.010	9986
379.091	8819
379.173	8168
379.255	7338
379.337	8229
379.419	12917
379.501	26107
379.583	13891
379.664	8045
379.746	10023
379.828	19171
379.910	23891
379.991	22842
380.073	9109
380.155	8008
380.237	8046
380.318	7096
380.400	6966
380.482	8747
380.564	9606
380.645	10093
380.727	10421
380.809	8582
380.890	7630
380.972	6312
381.053	7717
381.135	8152
381.217	9982
381.298	19861
381.380	12563
381.461	12126
381.543	36709
381.624	43804
381.706	12077
381.787	10367
381.869	10923
381.951	20849
382.032	63385
382.113	42959
382.195	11581
382.276	11281
382.358	16579
382.439	36663
382.521	42055
382.602	62306
382.684	30532
382.765	46041
382.846	53180
382.928	75268
383.009	45431
383.090	37626
383.172	116416
383.253	163192
383.334	60715
383.416	57623
383.497	34608
383.578	20704
383.659	34120
383.741	108078
383.822	248161
383.903	126708
383.984	44495
384.066	61214
384.147	38305
384.228	16512
384.309	15721
384.390	15601
384.471	14524
384.553	12722
384.634	12623
384.715	12792
384.796	10681
384.877	11858
384.958	21485
385.039	22405
385.120	13646
385.201	11329
385.282	12227
385.363	13293
385.444	13828
385.525	16652
385.606	34944
385.687	32044
385.768	15752
385.849	15025
385.930	37310
386.011	58153
386.092	23172
386.173	14482
386.254	12905
386.335	13603
386.416	13763
386.496	18684
386.577	24100
386.658	15373
386.739	13562
386.820	14656
386.901	14119
386.981	15252
387.062	15637
387.143	18219
387.224	28576
387.304	28629
387.385	22442
387.466	19930
387.547	22715
387.627	20815
387.708	25643
387.789	43151
387.869	49346
387.950	25092
388.031	17375
388.111	14567
388.192	19194
388.273	20107
388.353	16550
388.434	13634
388.514	15481
388.595	39020
388.676	44621
388.756	22774
388.837	20532
388.917	15704
388.998	10067
389.078	11010
389.159	11166
389.239	9376
389.320	12825
389.400	9253
389.480	15404
389.561	25360
389.641	17708
389.722	11323
389.802	11751
389.883	15559
389.963	29189
390.043	20642
390.124	11294
390.204	13838
390.284	21781
390.365	16668
390.445	21336
390.525	40091
390.605	35159
390.686	16403
390.766	12834
390.846	11766
390.927	10043
391.007	10127
391.087	12486
391.167	10911
391.247	10743
391.328	12299
391.408	13972
391.488	13801
391.568	10732
391.648	12393
391.728	14223
391.808	14159
391.888	14782
391.969	20901
392.049	27272
392.129	20592
392.209	22307
392.289	35252
392.369	27580
392.449	26529
392.529	24852
392.609	25421
392.689	30253
392.769	46127
392.849	49403
392.929	53574
393.009	81849
393.089	102803
393.169	166246
393.248	368462
393.328	685094
393.408	679013
393.488	380375
393.568	166785
393.648	88956
393.728	58398
393.807	41702
393.887	35394
393.967	30355
394.047	26766
394.127	25617
394.206	32006
394.286	72975
394.366	253413
394.446	278315
394.525	81207
394.605	29289
394.685	23071
394.764	28971
394.844	49074
394.924	52865
395.003	23553
395.083	15270
395.163	15337
395.242	14600
395.322	15395
395.402	14000
395.481	18107
395.561	25142
395.640	65584
395.720	106708
395.799	76798
395.879	46676
395.958	39247
396.038	104102
396.117	323952
396.197	360444
396.276	130528
396.356	54763
396.435	46026
396.515	50085
396.594	67029
396.673	129285
396.753	330556
396.832	623863
396.912	499900
396.991	198058
397.070	83857
397.150	48680
397.229	43725
397.308	77240
397.388	143450
397.467	73326
397.546	26516
397.625	17985
397.705	18827
397.784	16053
397.863	15186
397.942	13484
398.022	12430
398.101	18596
398.180	34726
398.259	21588
398.338	12920
398.417	10956
398.497	10097
398.576	10067
398.655	8401
398.734	9819
398.813	9890
398.892	15761
398.971	35199
399.050	20864
399.129	8344
399.208	8138
399.287	8934
399.366	7768
399.445	8863
399.524	8084
399.603	6535
399.682	8496
399.761	13219
399.840	37033
399.919	30152
399.998	9527
400.077	6722
400.156	5727
400.235	9535
400.313	6824
400.392	6857
400.471	13365
400.550	15507
400.629	7795
400.708	7148
400.786	6483
400.865	10267
400.944	9904
401.023	9066
401.102	6175
401.180	5773
401.259	6589
401.338	6485
401.416	6966
401.495	6127
401.574	6711
401.652	5374
401.731	7243
401.810	5231
401.888	5964
401.967	5210
402.046	6765
402.124	6460
402.203	5627
402.281	6641
402.360	6483
402.438	11323
402.517	8309
402.596	6722
402.674	5685
402.753	5523
402.831	6741
402.910	6251
402.988	13134
403.066	31820
403.145	21288
403.223	13054
403.302	27875
403.380	21262
403.459	21785
403.537	11218
403.615	8763
403.694	5351
403.772	7571
403.850	6396
403.929	6392
404.007	6092
404.085	8084
404.164	7616
404.242	8425
404.320	17417
404.398	48275
404.477	42210
404.555	50702
404.633	48844
404.711	36386
404.789	23031
404.868	9128
404.946	5490
405.024	5762
405.102	4890
405.180	5914
405.258	4393
405.336	6170
405.415	4002
405.493	7026
405.571	7643
405.649	5504
405.727	5323
405.805	8107
405.883	6436
405.961	7396
406.039	6385
406.117	4976
406.195	6655
406.273	11368
406.351	36045
406.429	23341
406.507	7055
406.585	5321
406.663	5490
406.740	5924
406.818	4774
406.896	5401
406.974	6087
407.052	6083
407.130	21116
407.208	29164
407.285	9629
407.363	5519
407.441	5631
407.519	5283
407.596	6962
407.674	24116
407.752	92414
407.830	74005
407.907	14989
407.985	6326
408.063	6479
408.141	4685
408.218	7091
408.296	5659
408.373	6375
408.451	7440
408.529	6761
408.606	6802
408.684	7559
408.762	7668
408.839	7519
408.917	8256
408.994	8238
409.072	9238
409.149	10797
409.227	17249
409.304	24181
409.382	29284
409.459	29893
409.537	37744
409.614	38945
409.692	31103
409.769	29048
409.846	37721
409.924	47829
410.001	38125
410.079	27970
410.156	21704
410.233	16466
410.311	12982
410.388	11777
410.465	11476
410.543	10761
410.620	11522
410.697	10160
410.775	9818
410.852	8917
410.929	10810
411.006	10843
411.083	9922
411.161	10166
411.238	11514
411.315	8613
411.392	7729
411.469	8758
411.547	8203
411.624	5908
411.701	6580
411.778	7019
411.855	7286
411.932	6533
412.009	6075
412.086	6193
412.163	6475
412.240	5359
412.317	7658
412.394	6192
412.471	6662
412.548	5775
412.625	5387
412.702	6023
412.779	6606
412.856	6878
412.933	5280
413.010	6105
413.087	6410
413.164	9214
413.241	12435
413.318	5655
413.395	6471
413.471	5578
413.548	5733
413.625	5561
413.702	4391
413.779	4967
413.855	4795
413.932	4802
414.009	3626
414.086	4713
414.162	4446
414.239	5235
414.316	9018
414.393	16409
414.469	7638
414.546	4183
414.623	4706
414.699	5351
414.776	3987
414.853	4504
414.929	4825
415.006	3733
415.082	4438
415.159	4607
415.236	4729
415.312	4854
415.389	4838
415.465	4210
415.542	4587
415.618	3479
415.695	4878
415.771	3726
415.848	3957
415.924	3759
416.000	3928
416.077	4559
416.153	3018
416.230	4135
416.306	4426
416.383	4505
416.459	4799
416.535	3982
416.612	3817
416.688	4218
416.764	3425
416.841	3490
416.917	4093
416.993	4392
417.069	5030
417.146	4777
417.222	6082
417.298	4315
417.374	3823
417.451	4435
417.527	3531
417.603	4567
417.679	4485
417.755	3894
417.831	3504
417.908	4207
417.984	5050
418.060	3275
418.136	5621
418.212	5408
418.288	5301
418.364	4451
418.440	4244
418.516	5591
418.592	6268
418.668	6293
418.744	6365
418.820	6524
418.896	4731
418.972	4123
419.048	5175
419.124	6589
419.200	5005
419.276	5252
419.352	4435
419.428	5093
419.504	5294
419.579	6348
419.655	5423
419.731	5895
419.807	7985
419.883	7736
419.959	8741
420.034	7216
420.110	8095
420.186	14242
420.262	13546
420.337	8357
420.413	8855
420.489	8824
420.565	10227
420.640	9704
420.716	11050
420.792	9536
420.867	12859
420.943	11593
421.019	12771
421.094	14148
421.170	15127
421.245	14105
421.321	17273
421.397	19077
421.472	34582
421.548	75279
421.623	54237
421.699	29895
421.774	30394
421.850	33159
421.925	40831
422.001	47410
422.076	57010
422.152	73126
422.227	95491
422.302	130823
422.378	187897
422.453	287075
422.529	406356
422.604	394441
422.679	268876
422.755	388211
422.830	428475
422.905	301134
422.981	202778
423.056	142570
423.131	105786
423.207	79962
423.282	65583
423.357	53937
423.432	44482
423.508	40862
423.583	35165
423.658	31514
423.733	27550
423.808	24519
423.883	24544
423.959	25041
424.034	27630
424.109	26072
424.184	20220
424.259	16708
424.334	15276
424.409	14149
424.484	12929
424.559	11510
424.634	10906
424.709	10141
424.784	10417
424.859	10038
424.934	9686
425.009	13043
425.084	16821
425.159	10329
425.234	9173
425.309	7358
425.384	9895
425.459	12362
425.534	9427
425.609	6985
425.683	6964
425.758	6976
425.833	6582
425.908	7402
425.983	8637
426.058	14703
426.132	9526
426.207	6082
426.282	7516
426.357	6900
426.431	6116
426.506	6486
426.581	5524
426.655	5978
426.730	5194
426.805	4899
426.879	5957
426.954	5947
427.029	6367
427.103	13627
427.178	30362
427.253	15616
427.327	5891
427.402	6039
427.476	10590
427.551	7010
427.625	5226
427.700	5965
427.774	4553
427.849	5899
427.923	5844
427.998	6040
428.072	6951
428.147	16118
428.221	58433
428.296	166024
428.370	99583
428.444	18285
428.519	9958
428.593	11103
428.667	10437
428.742	12640
428.816	25416
428.890	103901
428.965	159535
429.039	46369
429.113	13987
429.188	7159
429.262	5882
429.336	6729
429.410	8400
429.485	8727
429.559	9348
429.633	9235
429.707	9579
429.781	22114
429.855	100242
429.930	145989
430.004	50500
430.078	42288
430.152	81113
430.226	217194
430.300	215965
430.374	56850
430.448	18428
430.522	17186
430.596	33918
430.670	43535
430.744	134915
430.818	152196
430.892	32336
430.966	8510
431.040	6636
431.114	4679
431.188	4956
431.262	4525
431.336	3773
431.410	6624
431.484	8914
431.557	7782
431.631	6465
431.705	11122
431.779	45579
431.853	158082
431.927	110480
432.000	20023
432.074	6565
432.148	5141
432.222	3867
432.295	3057
432.369	2482
432.443	2862
432.516	12556
432.590	28789
432.664	11917
432.737	3127
432.811	1995
432.885	1751
432.958	2995
433.032	1270
433.106	1800
433.179	2033
433.253	3480
433.326	2868
433.400	2108
433.473	2133
433.547	1987
433.620	2118
433.694	3010
433.767	3305
433.841	2507
433.914	2508
433.988	2780
434.061	3011
434.134	3052
434.208	2539
434.281	2538
434.355	1985
434.428	2913
434.501	1858
434.575	2047
434.648	2261
434.721	2654
434.795	2134
434.868	2379
434.941	2212
435.014	3160
435.088	3715
435.161	3966
435.234	5410
435.307	7302
435.381	7454
435.454	10410
435.527	16390
435.600	19538
435.673	18126
435.746	14319
435.819	10351
435.892	8514
435.966	6873
436.039	5553
436.112	5370
436.185	4103
436.258	3078
436.331	2529
436.404	3319
436.477	3219
436.550	2996
436.623	3035
436.696	2230
436.769	2749
436.842	3092
436.915	2924
436.987	2528
437.060	3157
437.133	2510
437.206	2243
437.279	3658
437.352	2686
437.425	1555
437.498	3525
437.570	3296
437.643	3163
437.716	2896
437.789	2229
437.861	3663
437.934	4352
438.007	2864
438.080	1986
438.152	2563
438.225	3567
438.298	16683
438.370	44878
438.443	18649
438.516	4767
438.588	2323
438.661	1548
438.734	2810
438.806	2974
438.879	3047
438.951	2945
439.024	2816
439.096	1904
439.169	2696
439.241	1851
439.314	2309
439.386	1848
439.459	3556
439.531	3079
439.604	2267
439.676	2338
439.749	1959
439.821	2218
439.893	2683
439.966	2800
440.038	2428
440.110	2313
440.183	2299
440.255	1548
440.327	3391
440.400	7996
440.472	24303
440.544	15964
440.617	3050
440.689	4638
440.761	3989
440.833	4526
440.905	4239
440.978	2879
441.050	2879
441.122	3495
441.194	1991
441.266	2557
441.338	2182
441.411	3924
441.483	8207
441.555	11032
441.627	5040
441.699	3969
441.771	4041
441.843	3589
441.915	3984
441.987	4296
442.059	4635
442.131	5402
442.203	7524
442.275	9852
442.347	13845
442.419	31927
442.491	130907
442.563	264031
442.635	114585
442.706	28655
442.778	15800
442.850	9271
442.922	8155
442.994	7972
443.066	8444
443.137	10357
443.209	14450
443.281	23039
443.353	48091
443.425	149734
443.496	375713
443.568	404054
443.640	182874
443.711	44993
443.783	20120
443.855	13252
443.926	9637
443.998	8450
444.070	7727
444.141	6149
444.213	6426
444.285	6055
444.356	5207
444.428	5073
444.499	5052
444.571	5201
444.642	5841
444.714	6671
444.785	6428
444.857	9160
444.928	9894
445.000	10887
445.071	12410
445.143	15594
445.214	22954
445.285	37445
445.357	93972
445.428	262015
445.500	428954
445.571	376271
445.642	256311
445.714	94007
445.785	35068
445.856	17457
445.928	11908
445.999	9252
446.070	7109
446.141	6983
446.213	5836
446.284	4662
446.355	5615
446.426	4156
446.497	3873
446.569	4662
446.640	4104
446.711	4001
446.782	2869
446.853	2938
446.924	3380
446.995	2122
447.066	2975
447.138	3898
447.209	3540
447.280	1784
447.351	1583
447.422	2183
447.493	2353
447.564	2063
447.635	2456
447.706	2020
447.777	1454
447.847	1728
447.918	1430
447.989	2311
448.060	2603
448.131	3316
448.202	3538
448.273	1885
448.344	2373
448.414	1815
448.485	1725
448.556	2044
448.627	1445
448.698	1441
448.768	510
448.839	1320
448.910	2325
448.981	3274
449.051	1249
449.122	1865
449.193	705
449.263	1892
449.334	1325
449.405	1885
449.475	2916
449.546	3190
449.616	3793
449.687	3781
449.758	3131
449.828	1521
449.899	1371
449.969	2214
450.040	1768
450.110	1562
450.181	2050
450.251	1681
450.322	1884
450.392	1958
450.463	1394
450.533	1157
450.604	2277
450.674	2031
450.744	2617
450.815	3086
450.885	2772
450.955	3449
451.026	2888
451.096	2926
451.166	2284
451.237	3980
451.307	7343
451.377	4853
451.447	2362
451.518	2344
451.588	2591
451.658	2508
451.728	2474
451.799	6268
451.869	6992
451.939	2591
452.009	2065
452.079	2882
452.149	2573
452.219	3064
452.289	7178
452.360	5876
452.430	3743
452.500	4147
452.570	7354
452.640	16677
452.710	37733
452.780	45097
452.850	25281
452.920	12050
452.990	7308
453.060	4842
453.129	3682
453.199	4151
453.269	8664
453.339	15474
453.409	22332
453.479	21054
453.549	30331
453.619	31097
453.688	12000
453.758	3964
453.828	2168
453.898	1990
453.968	2131
454.037	2308
454.087	1766
454.107	1523
454.168	1550
454.177	1524
454.247	2398
454.249	2398
454.316	1860
454.330	1990
454.386	2377
454.411	2929
454.456	3684
454.492	4557
454.525	5309
454.574	3882
454.595	3249
454.655	2317
454.665	2155
454.734	2698
454.736	2755
454.804	3658
454.817	4330
454.873	6749
454.898	6896
454.943	6978
454.979	5071
455.013	3418
455.060	3065
455.082	2949
455.141	3168
455.152	3210
455.221	6253
455.222	6365
455.291	10985
455.303	11465
455.360	12796
455.384	17780
455.430	25036
455.465	18928
455.499	13553
455.546	9187
455.569	7142
455.627	5379
455.638	5078
455.707	2745
455.708	2772
455.777	2931
455.789	2973
455.846	3021
455.869	2882
455.916	2650
455.950	2924
455.985	3036
456.031	2919
456.054	2935
456.112	2913
456.124	2866
456.193	3370
456.193	3344
456.262	3366
456.274	3543
456.332	4153
456.355	3965
456.401	3489
456.436	3594
456.470	3630
456.516	3310
456.540	3223
456.597	3570
456.609	3550
456.678	4057
456.678	4037
456.747	2979
456.759	3129
456.817	3849
456.840	3932
456.886	4037
456.920	4144
456.955	4172
457.001	4449
457.024	4528
457.082	4830
457.093	4867
457.162	4655
457.163	4684
457.232	5359
457.243	5331
457.301	4923
457.324	4964
457.370	5173
457.405	5891
457.439	6607
457.485	6805
457.508	7025
457.566	8145
457.577	8643
457.646	12527
457.647	12624
457.715	25398
457.727	28425
457.784	49025
457.808	64240
457.853	83439
457.889	98550
457.922	98221
457.969	67026
457.991	66049
458.050	75921
458.060	78559
458.129	134372
458.130	136100
458.198	143159
458.211	130872
458.267	73756
458.292	51129
458.336	33929
458.372	31553
458.405	40865
458.453	60290
458.474	75616
458.533	132656
458.543	137347
458.611	216264
458.614	217548
458.680	142194
458.694	115079
458.749	53639
458.775	37371
458.818	22416
458.855	17438
458.887	14460
458.936	12131
458.955	11411
459.016	10166
459.024	10051
459.093	9101
459.097	9084
459.162	8266
459.177	8240
459.230	8420
459.257	8480
459.299	8316
459.338	8128
459.368	8147
459.418	8642
459.437	8614
459.499	7388
459.505	7265
459.574	7094
459.579	7087
459.643	7135
459.659	7343
459.711	7963
459.740	7770
459.780	7357
459.820	7639
459.849	8083
459.900	8385
459.917	8224
459.981	7929
459.986	7906
460.054	7612
460.061	7627
460.123	8032
460.141	8112
460.191	8519
460.222	8668
460.260	8740
460.302	9250
460.328	9738
460.382	10654
460.397	10953
460.462	12359
460.465	12816
460.534	23382
460.543	24867
460.602	63540
460.623	78707
460.671	118234
460.703	156955
460.739	147074
460.783	116234
460.808	97077
460.864	26137
460.876	19992
460.944	10786
460.945	10700
461.013	9454
461.024	9298
461.081	8347
461.104	8152
461.150	8239
461.184	8505
461.218	8652
461.264	8444
461.286	8245
461.345	8142
461.355	8220
461.423	8324
461.425	8337
461.491	7993
461.505	7984
461.559	9616
461.585	10178
461.628	11684
461.665	13475
461.696	14218
461.745	15887
461.764	14820
461.825	9248
461.832	9103
461.901	8500
461.905	8469
461.969	7745
461.985	7613
462.037	8105
462.065	8500
462.105	8698
462.145	8793
462.173	9447
462.225	10484
462.241	10848
462.305	12995
462.310	12871
462.378	10835
462.385	10490
462.446	9349
462.465	9021
462.514	8614
462.545	8822
462.582	9258
462.625	9349
462.650	9077
462.705	8373
462.718	8453
462.785	8785
462.786	8787
462.854	9159
462.865	9160
462.922	9847
462.945	10171
462.990	9368
463.025	8657
463.058	8865
463.104	9090
463.126	8933
463.184	8703
463.194	8799
463.262	9181
463.264	9197
463.330	8975
463.344	8911
463.398	9580
463.424	9823
463.466	9105
463.504	8615
463.533	9069
463.583	9347
463.601	9181
463.663	8984
463.669	8974
463.737	8931
463.743	8906
463.805	11421
463.823	12164
463.873	14622
463.903	16142
463.940	16348
463.982	16705
464.008	15016
464.062	10928
464.076	10803
464.142	9671
464.144	9660
464.211	9636
464.221	9596
464.279	9530
464.301	9446
464.347	9855
464.381	10289
464.414	10161
464.461	9981
464.482	10133
464.540	10426
464.550	10435
464.617	10565
464.620	10542
464.685	11176
464.699	11355
464.753	12944
464.779	13749
464.820	15074
464.859	16404
464.888	15488
464.938	13611
464.956	13845
465.018	14487
465.023	14420
465.091	13400
465.098	13282
465.158	13276
465.177	13215
465.226	12714
465.257	12395
465.293	13051
465.336	13876
465.361	14056
465.416	14273
465.428	14525
465.495	15886
465.496	15931
465.563	19286
465.575	19848
465.631	21508
465.654	22244
465.698	17903
465.734	14061
465.765	13676
465.813	12966
465.833	12997
465.893	13203
465.900	13267
465.968	13720
465.972	13724
466.035	13361
466.052	13261
466.102	12723
466.131	12351
466.170	12818
466.210	13283
466.237	13380
466.290	13436
466.304	13517
466.369	13818
466.372	13842
466.439	13868
466.449	13836
466.506	13925
466.528	13942
466.573	15771
466.607	17069
466.641	19605
466.687	23088
466.708	24520
466.766	28460
466.775	27120
466.842	16534
466.845	16003
466.909	14979
466.925	14721
466.977	14947
467.004	15067
467.044	15460
467.083	15769
467.111	17379
467.163	20350
467.178	20704
467.242	21976
467.245	21934
467.312	20236
467.321	19975
467.379	19974
467.400	19915
467.446	20213
467.480	20360
467.559	19422
467.638	18521
467.717	18640
467.796	20190
467.875	19725
467.955	19681
468.034	23954
468.113	34219
468.192	43857
468.271	31571
468.350	38113
468.429	45440
468.508	47317
468.588	33742
468.667	26134
468.746	22417
468.825	20150
468.904	18847
468.983	19324
469.062	20681
469.141	22416
469.220	16209
469.299	17212
469.378	18266
469.456	21337
469.535	20604
469.614	18725
469.693	19515
469.772	20777
469.851	22120
469.930	19393
470.009	18519
470.088	17857
470.166	19137
470.245	19721
470.324	20853
470.403	19173
470.482	19164
470.560	17261
470.639	17335
470.718	18554
470.797	16787
470.875	17320
470.954	19633
471.033	20436
471.111	16990
471.190	16943
471.269	15884
471.347	15798
471.426	16196
471.505	17996
471.583	18603
471.662	19303
471.740	16816
471.819	17606
471.898	18378
471.976	17679
472.055	16768
472.133	20449
472.212	25957
472.290	20721
472.369	16146
472.447	16847
472.526	16400
472.604	17488
472.683	17687
472.761	17750
472.839	16928
472.918	16329
472.996	16448
473.075	17985
473.153	17287
473.231	16793
473.310	17989
473.388	18008
473.466	17772
473.545	18228
473.623	19579
473.701	19086
473.780	19164
473.858	17056
473.936	18352
474.014	18386
474.093	21611
474.171	26173
474.249	24309
474.327	18599
474.405	16016
474.484	17035
474.562	16012
474.640	16541
474.718	16664
474.796	16744
474.874	16208
474.952	15592
475.030	16516
475.108	15608
475.187	17337
475.265	16738
475.343	17829
475.421	18393
475.499	16804
475.577	17568
475.655	18070
475.733	21189
475.811	27651
475.889	25750
475.966	21961
476.044	16101
476.122	17041
476.200	16951
476.278	16467
476.356	15180
476.434	15923
476.512	16417
476.590	17121
476.667	17745
476.745	15096
476.823	15929
476.901	16073
476.979	16037
477.056	15955
477.134	15363
477.212	15728
477.290	16012
477.367	15259
477.445	15664
477.523	15265
477.601	15583
477.678	15234
477.756	15619
477.834	16199
477.911	15491
477.989	14884
478.066	14878
478.144	16206
478.222	17047
478.299	19343
478.377	22501
478.454	19279
478.532	15033
478.609	14756
478.687	14584
478.764	14708
478.842	16081
478.919	14425
478.997	14394
479.074	14122
479.152	15955
479.229	16135
479.307	14921
479.384	14464
479.461	14175
479.539	14312
479.616	14808
479.694	14937
479.771	14276
479.848	15203
479.926	15524
480.003	16675
480.080	14652
480.157	14924
480.235	14745
480.312	14535
480.389	15108
480.467	16987
480.544	19954
480.621	16451
480.698	17637
480.775	17471
480.853	16895
480.930	16697
481.007	17644
481.084	26151
481.161	40825
481.238	27577
481.315	14909
481.392	14888
481.470	16251
481.547	16307
481.624	15148
481.701	15447
481.778	16306
481.855	17592
481.932	19551
482.009	22971
482.086	21105
482.163	21008
482.240	22024
482.317	24425
482.393	21877
482.470	19319
482.547	18787
482.624	18086
482.701	18062
482.778	16900
482.855	17415
482.932	17195
483.009	18519
483.085	24633
483.162	33963
483.239	32788
483.316	22515
483.393	21920
483.469	20520
483.546	19012
483.623	18849
483.699	17131
483.776	16920
483.853	16469
483.930	18840
484.006	25764
484.083	38998
484.160	37489
484.236	58457
484.313	46779
484.389	38016
484.466	37367
484.543	40332
484.619	42809
484.696	44928
484.772	39394
484.849	34525
484.925	32309
485.002	32225
485.078	30657
485.155	30191
485.231	28453
485.308	28282
485.384	29301
485.461	31815
485.537	35202
485.614	36164
485.690	27828
485.766	27454
485.843	26951
485.919	28774
485.995	28209
486.072	26222
486.148	26220
486.224	27728
486.301	27341
486.377	27374
486.453	26640
486.530	29989
486.606	36225
486.682	40480
486.758	39094
486.835	40639
486.911	36592
486.987	42374
487.063	40970
487.139	47313
487.215	55132
487.292	48790
487.368	42649
487.444	49193
487.520	63413
487.596	91691
487.672	171991
487.748	471386
487.824	747546
487.900	308748
487.976	92899
488.052	55603
488.128	45462
488.204	36125
488.280	31895
488.356	33775
488.432	38503
488.508	44959
488.584	29134
488.660	27013
488.736	27853
488.812	25852
488.888	29318
488.964	30865
489.039	33748
489.115	42666
489.191	37489
489.267	28153
489.343	25266
489.418	24438
489.494	23297
489.570	23156
489.646	24835
489.722	23952
489.797	24226
489.873	27251
489.949	35288
490.024	33774
490.100	22708
490.176	23323
490.251	23047
490.327	24569
490.403	21790
490.478	23279
490.554	20409
490.629	22027
490.705	20692
490.781	23023
490.856	21386
490.932	23090
491.007	20854
491.083	22780
491.158	20374
491.234	22735
491.309	29169
491.385	28582
491.460	20628
491.536	21735
491.611	19818
491.686	19069
491.762	21255
491.837	23694
491.913	30687
491.988	34920
492.063	38789
492.139	24389
492.214	20460
492.289	18260
492.365	17951
492.440	19993
492.515	18677
492.590	20101
492.666	17477
492.741	20213
492.816	22492
492.891	18280
492.967	19119
493.042	17617
493.117	18489
493.192	18431
493.267	26470
493.342	59330
493.418	78756
493.493	23321
493.568	17458
493.643	16798
493.718	18851
493.793	17845
493.868	19606
493.943	17926
494.018	17814
494.093	16350
494.168	16861
494.243	16497
494.318	15956
494.393	16185
494.468	16413
494.543	16410
494.618	16014
494.693	16710
494.768	15701
494.842	17315
494.917	16631
494.992	16100
495.067	15945
495.142	16186
495.217	17130
495.292	16087
495.366	16954
495.441	16508
495.516	18592
495.591	19556
495.665	31365
495.740	51703
495.815	30957
495.890	18252
495.964	16192
496.039	19917
496.114	24008
496.188	41507
496.263	36549
496.338	17536
496.412	17255
496.487	18016
496.561	17945
496.636	18946
496.710	17868
496.785	21586
496.860	19804
496.934	16907
497.009	15738
497.083	16183
497.158	17185
497.232	18343
497.307	18371
497.381	16996
497.455	17665
497.530	19800
497.604	18149
497.679	17533
497.753	20606
497.827	21972
497.902	20316
497.976	23737
498.050	46072
498.125	145648
498.199	146547
498.273	26296
498.348	19898
498.422	19282
498.496	19860
498.570	19240
498.645	18112
498.719	17312
498.793	18616
498.867	22402
498.941	27556
499.016	62926
499.090	155552
499.164	61582
499.238	18323
499.312	17243
499.386	17898
499.460	18884
499.534	17569
499.609	19038
499.683	20784
499.757	20897
499.831	33894
499.905	103243
499.979	96444
500.053	23174
500.127	21582
500.201	17537
500.275	16342
500.349	17769
500.422	17752
500.496	19719
500.570	27058
500.644	59413
500.718	103920
500.792	31345
500.866	17813
500.940	18666
501.013	17612
501.087	15980
501.161	20462
501.235	21917
501.309	38764
501.382	87273
501.456	79690
501.530	25060
501.603	34443
501.677	21047
501.751	13925
501.825	17286
501.898	22340
501.972	39588
502.046	28791
502.119	16352
502.193	24225
502.266	41600
502.340	26631
502.413	24868
502.487	37294
502.561	24681
502.634	16997
502.708	15346
502.781	14456
502.855	15760
502.928	14108
503.002	15474
503.075	14575
503.149	14715
503.222	15540
503.295	15726
503.369	17673
503.442	19326
503.516	35555
503.589	67594
503.662	51503
503.736	31655
503.809	48439
503.882	50770
503.956	76511
504.029	122400
504.102	269170
504.175	408259
504.249	187861
504.322	71409
504.395	41691
504.468	28836
504.542	23226
504.615	19643
504.688	18221
504.761	15446
504.834	17678
504.907	17386
504.980	17650
505.053	15119
505.127	12879
505.200	17462
505.273	15393
505.346	13481
505.419	12379
505.492	14374
505.565	13116
505.638	13146
505.711	12094
505.784	11987
505.857	11741
505.930	14224
506.003	11020
506.076	14932
506.149	13261
506.221	12797
506.294	14661
506.367	20265
506.440	49269
506.513	31720
506.586	14126
506.659	11862
506.731	11707
506.804	11271
506.877	12134
506.950	13017
507.022	12711
507.095	12034
507.168	13393
507.241	12770
507.313	11232
507.386	10596
507.459	12557
507.531	11505
507.604	10883
507.677	12530
507.749	10221
507.822	13208
507.894	18671
507.967	25959
508.040	18746
508.112	17518
508.185	16185
508.257	14010
508.330	17067
508.402	15488
508.475	16550
508.547	15959
508.620	15626
508.692	17631
508.765	15274
508.837	14504
508.909	13672
508.982	14132
509.054	14869
509.127	12802
509.199	14215
509.271	12970
509.344	14192
509.416	13556
509.488	13127
509.560	15567
509.633	13784
509.705	13864
509.777	15392
509.849	16811
509.922	15303
509.994	15400
510.066	16270
510.138	15815
510.210	26570
510.283	24130
510.355	21973
510.427	19207
510.499	18051
510.571	17375
510.643	16499
510.715	19063
510.787	17159
510.859	17872
510.931	17178
511.003	19214
511.076	18937
511.148	16282
511.219	17608
511.291	19634
511.363	20211
511.435	17060
511.507	15341
511.579	17049
511.651	17173
511.723	16131
511.795	15064
511.867	14993
511.939	16098
512.010	20052
512.082	18757
512.154	15891
512.226	16302
512.298	21565
512.369	26830
512.441	22340
512.513	20421
512.585	17364
512.656	18663
512.728	18297
512.800	16696
512.871	16140
512.943	17645
513.015	15897
513.086	16945
513.158	16371
513.230	15811
513.301	17269
513.373	18263
513.444	16825
513.516	16469
513.588	16483
513.659	16364
513.731	16634
513.802	15634
513.874	19571
513.945	20787
514.016	16431
514.088	16126
514.159	15505
514.231	18057
514.302	23459
514.374	20978
514.445	18752
514.516	25078
514.588	19598
514.659	19071
514.730	20559
514.802	20326
514.873	17029
514.944	19468
515.016	18811
515.087	16792
515.158	18347
515.229	21695
515.301	16526
515.372	18193
515.443	17030
515.514	15997
515.585	17044
515.656	19063
515.728	17897
515.799	15758
515.870	17634
515.941	17587
516.012	17368
516.083	22281
516.154	21051
516.225	21515
516.296	20668
516.367	19532
516.438	20283
516.509	21797
516.580	27514
516.651	55507
516.722	149906
516.793	79150
516.864	27501
516.935	26830
517.006	27344
517.077	31143
517.148	57136
517.219	189257
517.289	304593
517.360	88874
517.431	37646
517.502	20932
517.573	22807
517.643	22155
517.714	24241
517.785	25239
517.856	25524
517.926	29281
517.997	29371
518.068	31831
518.138	38199
518.209	49646
518.280	141806
518.350	458738
518.421	216459
518.492	55150
518.562	53089
518.633	68160
518.703	98981
518.774	210695
518.845	501699
518.915	496916
518.986	166172
519.056	72273
519.127	52152
519.197	49743
519.268	69008
519.338	53498
519.408	27996
519.479	25126
519.549	22851
519.620	21953
519.690	19187
519.760	19217
519.831	17922
519.901	18175
519.971	19248
520.042	20858
520.112	19144
520.182	19593
520.253	18978
520.323	18268
520.393	18932
520.463	24827
520.534	17764
520.604	26918
520.674	20321
520.744	19817
520.814	26876
520.885	27136
520.955	28868
521.025	66134
521.095	35382
521.165	19103
521.235	18096
521.305	16328
521.375	17418
521.445	18332
521.515	18390
521.585	19622
521.655	17608
521.725	18519
521.795	17561
521.865	15212
521.935	20034
522.005	17785
522.075	16617
522.145	18598
522.215	19625
522.285	20751
522.355	21297
522.424	26259
522.494	25318
522.564	21204
522.634	21417
522.704	35837
522.774	23805
522.843	17608
522.913	18374
522.983	19380
523.053	17647
523.122	18120
523.192	17617
523.262	23283
523.331	23286
523.401	17918
523.471	15884
523.540	17612
523.610	16120
523.680	17176
523.749	18025
523.819	23256
523.888	22506
523.958	18568
524.027	17554
524.097	16651
524.166	17169
524.236	16461
524.305	19096
524.375	16711
524.444	16850
524.514	19443
524.583	17758
524.653	18410
524.722	19162
524.791	17568
524.861	19913
524.930	17563
524.999	17484
525.069	19902
525.138	19675
525.207	20210
525.277	20908
525.346	20446
525.415	22757
525.484	23537
525.554	26561
525.623	33055
525.692	43166
525.761	43569
525.830	45842
525.900	58272
525.969	89282
526.038	172037
526.107	338278
526.176	934730
526.245	793336
526.314	245490
526.383	461258
526.452	674601
526.522	837735
526.591	833315
526.660	171161
526.729	88300
526.797	92423
526.867	139847
526.935	394230
527.004	1187451
527.073	849256
527.142	146476
527.211	59996
527.280	42306
527.349	34086
527.418	28246
527.487	25704
527.555	22715
527.624	21445
527.693	20716
527.762	22604
527.831	18532
527.899	19677
527.968	18537
528.037	16686
528.106	18533
528.174	19317
528.243	20039
528.312	19745
528.380	20492
528.449	16401
528.518	19036
528.586	16184
528.655	18098
528.723	16804
528.792	17128
528.861	17745
528.929	16932
528.998	19295
529.066	24991
529.135	39762
529.203	37390
529.272	46288
529.340	59767
529.409	52774
529.477	48193
529.545	47483
529.614	51750
529.682	58053
529.751	66059
529.819	68539
529.887	77947
529.956	73655
530.024	69003
530.092	63843
530.161	63365
530.229	63359
530.297	71020
530.365	70942
530.434	73244
530.502	78230
530.570	68668
530.638	61331
530.707	58633
530.775	55168
530.843	55831
530.911	64391
530.979	62377
531.047	71233
531.115	71356
531.183	63239
531.252	60652
531.320	57708
531.388	56602
531.456	65405
531.524	69794
531.592	71561
531.660	81170
531.728	74163
531.796	70403
531.864	68284
531.932	68635
532.000	69227
532.067	75492
532.135	81216
532.203	81333
532.271	88843
532.339	86434
532.407	88243
532.475	82727
532.542	78587
532.610	77531
532.678	80967
532.746	101133
532.814	132051
532.881	100695
532.949	83330
533.017	78766
533.084	76840
533.152	74393
533.220	72062
533.287	73698
533.355	78299
533.423	78706
533.490	81129
533.558	78780
533.625	74346
533.693	73108
533.761	70684
533.828	69888
533.896	68539
533.963	79936
534.031	80750
534.098	86284
534.166	83697
534.233	76706
534.300	78119
534.368	76318
534.435	72940
534.503	72429
534.570	77718
534.637	82157
534.705	87383
534.772	96112
534.840	137567
534.907	425808
534.974	565260
535.041	119169
535.109	71165
535.176	64805
535.243	65817
535.310	65700
535.378	65346
535.445	60826
535.512	60323
535.579	57877
535.646	54618
535.714	56472
535.781	58524
535.848	60375
535.915	61773
535.982	61100
536.049	63143
536.116	58403
536.183	54043
536.250	52782
536.317	51727
536.384	52835
536.451	52775
536.518	54630
536.585	53448
536.652	55885
536.719	55005
536.786	50705
536.853	47990
536.920	51311
536.987	51876
537.053	50045
537.120	69601
537.187	69323
537.254	52420
537.321	51079
537.388	50794
537.454	47680
537.521	47583
537.588	45404
537.654	47828
537.721	49373
537.788	49451
537.855	45862
537.921	49106
537.988	46745
538.055	45496
538.121	42962
538.188	42388
538.254	39885
538.321	41642
538.388	43220
538.454	45124
538.521	46591
538.587	46515
538.654	46389
538.720	45070
538.787	45526
538.853	43986
538.920	42368
538.986	39843
539.053	39468
539.119	41457
539.185	40776
539.252	42108
539.318	44702
539.385	47550
539.451	46220
539.517	44327
539.583	44478
539.650	45294
539.716	56505
539.782	43771
539.849	39750
539.915	40674
539.981	40499
540.047	40244
540.114	39643
540.180	41598
540.246	41929
540.312	44350
540.378	44300
540.444	44946
540.510	46068
540.576	57816
540.643	44821
540.709	39047
540.775	41197
540.841	40169
540.907	39434
540.973	42494
541.039	41544
541.105	41165
541.171	42150
541.237	42302
541.303	41046
541.369	43118
541.435	41538
541.500	41553
541.566	38671
541.632	37814
541.698	37289
541.764	39762
541.830	39006
541.896	37184
541.961	38734
542.027	38289
542.093	40611
542.159	42318
542.224	39597
542.290	42683
542.356	40579
542.421	41310
542.487	38203
542.553	37396
542.618	37818
542.684	37513
542.750	37543
542.815	38315
542.881	40938
542.947	53966
543.012	51377
543.078	38073
543.143	36172
543.209	37964
543.274	36140
543.340	38052
543.405	42190
543.471	47392
543.536	40395
543.602	39653
543.667	37888
543.732	40341
543.798	37615
543.863	40682
543.928	39672
543.994	37268
544.059	38968
544.124	40025
544.190	40277
544.255	41008
544.320	42005
544.386	39624
544.451	42242
544.516	41916
544.581	42920
544.646	49346
544.712	57813
544.777	44565
544.842	43744
544.907	43359
544.972	43959
545.037	45304
545.102	47562
545.168	46201
545.233	46372
545.298	48293
545.363	47381
545.428	49930
545.493	51300
545.558	59068
545.623	51965
545.688	48757
545.753	49598
545.818	52314
545.883	54800
545.947	55560
546.012	57518
546.077	58425
546.142	61221
546.207	62258
546.272	65446
546.337	67081
546.401	69420
546.466	72677
546.531	72181
546.596	80687
546.661	80992
546.725	85328
546.790	88734
546.855	95481
546.919	103381
546.984	115800
547.049	123175
547.113	139998
547.178	154234
547.243	171170
547.307	197657
547.372	219837
547.436	220986
547.501	230112
547.565	248251
547.630	231259
547.695	220807
547.759	223059
547.823	222540
547.888	227004
547.952	234808
548.017	244232
548.081	261019
548.146	252198
548.210	252331
548.274	269128
548.339	267147
548.403	243927
548.468	229672
548.532	227460
548.596	232430
548.660	232652
548.725	252325
548.789	276540
548.853	268616
548.917	256206
548.982	250216
549.046	227660
549.110	209015
549.174	209859
549.238	241895
549.303	268194
549.367	274585
549.431	263763
549.495	248995
549.559	247693
549.623	279027
549.687	311372
549.751	300547
549.815	354183
549.879	364142
549.943	351244
550.007	363623
550.071	365701
550.135	332199
550.199	312507
550.263	309764
550.327	294058
550.391	302258
550.455	335711
550.519	346263
550.582	365458
550.646	411345
550.710	417158
550.774	411078
550.838	413479
550.901	427441
550.965	448435
551.029	466580
551.093	495212
551.156	531740
551.220	572283
551.284	591716
551.347	500546
551.411	455898
551.475	437796
551.538	448035
551.602	423813
551.666	399295
551.729	379892
551.793	368511
551.856	365076
551.920	361597
551.983	361177
552.047	355484
552.110	357900
552.174	365692
552.237	373585
552.301	346599
552.364	330030
552.428	322013
552.491	332942
552.554	341025
552.618	335138
552.681	341846
552.745	328529
552.808	340549
552.871	355543
552.934	350141
552.998	343670
553.061	334957
553.124	323308
553.187	322148
553.251	330604
553.314	333129
553.377	337681
553.440	363438
553.503	417124
553.567	463835
553.630	372040
553.693	356855
553.756	358801
553.819	352730
553.882	341568
553.945	340375
554.008	346074
554.071	346816
554.134	351719
554.197	334111
554.260	325808
554.323	329996
554.386	330390
554.449	346704
554.512	345840
554.575	331014
554.638	330834
554.701	330067
554.764	328210
554.827	316176
554.889	307546
554.952	289224
555.015	282333
555.078	290557
555.141	293117
555.203	285564
555.266	286516
555.329	286434
555.391	272729
555.454	270800
555.517	261313
555.580	252137
555.642	244287
555.705	243761
555.768	241394
555.830	235692
555.893	224965
555.955	217776
556.018	214343
556.080	215405
556.143	220821
556.206	218032
556.268	211824
556.330	207228
556.393	202644
556.455	199401
556.518	196472
556.580	190559
556.643	184560
556.705	178721
556.767	174772
556.830	172884
556.892	170908
556.955	167776
557.017	163788
557.079	162196
557.142	156910
557.204	156427
557.266	155265
557.328	147118
557.391	139860
557.453	136640
557.515	133746
557.577	136251
557.639	136328
557.701	135343
557.764	132747
557.826	134017
557.888	136189
557.950	139233
558.012	149630
558.074	179065
558.136	317272
558.198	685076
558.260	317824
558.322	144744
558.384	138647
558.446	139502
558.508	145725
558.570	158611
558.632	180174
558.694	221084
558.756	337968
558.818	775297
558.880	1503539
558.942	789567
559.003	726113
559.065	412307
559.127	171099
559.189	159285
559.251	173141
559.312	228886
559.374	451576
559.436	1144696
559.498	708538
559.559	201582
559.621	157392
559.683	175218
559.744	259052
559.806	648844
559.868	969414
559.929	296194
559.991	176747
560.052	252741
560.114	633452
560.176	470993
560.237	375686
560.299	612153
560.360	184129
560.422	84502
560.483	73457
560.545	69912
560.606	67751
560.667	64251
560.729	63346
560.790	59981
560.852	59995
560.913	59000
560.974	56871
561.036	56872
561.097	57573
561.158	57116
561.220	54459
561.281	52990
561.342	52454
561.403	53507
561.465	52795
561.526	55136
561.587	56816
561.648	49707
561.709	49811
561.771	48548
561.832	48021
561.893	46525
561.954	46806
562.015	45738
562.076	46089
562.137	46028
562.198	44987
562.259	45654
562.320	44423
562.381	45901
562.442	45086
562.503	44577
562.564	43136
562.625	42763
562.686	43349
562.747	42778
562.808	42366
562.869	42430
562.930	42264
562.991	40730
563.051	41076
563.112	39786
563.173	40171
563.234	39436
563.294	39769
563.355	38789
563.416	38771
563.477	38580
563.537	39420
563.598	38335
563.659	39902
563.720	37776
563.780	38613
563.841	38044
563.901	37772
563.962	37787
564.023	36789
564.083	37386
564.144	37660
564.204	36427
564.265	37559
564.325	36644
564.386	40969
564.446	38786
564.507	35916
564.567	34748
564.628	34656
564.688	35388
564.749	34858
564.809	36263
564.869	36544
564.930	35842
564.990	35253
565.050	35046
565.111	34479
565.171	34754
565.231	33599
565.292	35230
565.352	33984
565.412	34510
565.472	34326
565.532	33818
565.593	35180
565.653	34722
565.713	34179
565.773	35185
565.833	35001
565.893	37783
565.953	34651
566.013	33800
566.074	33325
566.134	33705
566.194	34957
566.254	35954
566.314	35323
566.374	33088
566.434	33176
566.494	33181
566.554	33630
566.614	34803
566.673	34553
566.733	34953
566.793	35031
566.853	35272
566.913	36111
566.973	35456
567.033	35910
567.092	34323
567.152	34660
567.212	34442
567.272	35321
567.331	36705
567.391	36721
567.451	38044
567.511	38126
567.570	37889
567.630	36273
567.690	35423
567.749	35093
567.809	35216
567.868	34779
567.928	35717
567.988	36929
568.047	37169
568.107	37315
568.166	38589
568.226	40723
568.285	44111
568.345	44177
568.404	41846
568.464	40035
568.523	38928
568.582	39827
568.642	39155
568.701	39284
568.761	43009
568.820	49236
568.879	50398
568.939	48560
568.998	44085
569.057	41449
569.116	37375
569.176	37201
569.235	37228
569.294	36376
569.353	34304
569.413	34701
569.472	34510
569.531	33549
569.590	34672
569.649	33557
569.708	32489
569.767	34061
569.827	34371
569.886	34308
569.945	33924
570.004	33803
570.063	33642
570.122	34318
570.181	34800
570.240	35006
570.299	37645
570.358	34818
570.417	34835
570.475	35385
570.534	35075
570.593	35262
570.652	35731
570.711	34944
570.770	34564
570.829	33880
570.887	35409
570.946	35692
571.005	35306
571.064	35554
571.122	33940
571.181	34192
571.240	33139
571.299	32857
571.357	33156
571.416	32647
571.475	33639
571.533	34171
571.592	35719
571.650	35625
571.709	35085
571.768	37959
571.826	38661
571.885	37156
571.943	34718
572.002	33842
572.060	34328
572.119	33474
572.177	33281
572.236	33587
572.294	33434
572.352	34676
572.411	33624
572.469	34485
572.528	33005
572.586	32968
572.644	32482
572.703	33385
572.761	31340
572.819	31774
572.877	31286
572.936	28891
572.994	30080
573.052	30565
573.110	31132
573.169	31760
573.227	31513
573.285	31330
573.343	30658
573.401	32287
573.459	31387
573.517	31200
573.576	32686
573.634	32122
573.692	31825
573.750	30884
573.808	31181
573.866	29887
573.924	30797
573.982	30929
574.040	30278
574.098	30223
574.155	28967
574.213	29678
574.271	28994
574.329	31382
574.387	28769
574.445	27911
574.503	28036
574.560	27975
574.618	27624
574.676	27735
574.734	27865
574.792	27075
574.849	26645
574.907	24578
574.965	25231
575.022	24829
575.080	25435
575.138	25349
575.195	23839
575.253	25289
575.311	25221
575.368	24501
575.426	23148
575.483	25261
575.541	25055
575.598	25340
575.656	24509
575.713	24416
575.771	25662
575.828	24499
575.886	24891
575.943	24508
576.001	24380
576.058	23604
576.115	23620
576.173	24682
576.230	24496
576.287	25645
576.345	24643
576.402	25167
576.459	25552
576.517	24421
576.574	23824
576.631	24507
576.688	23123
576.746	22957
576.803	23416
576.860	22807
576.917	23086
576.974	23914
577.031	23724
577.089	24823
577.146	23051
577.203	22973
577.260	21687
577.317	23110
577.374	23240
577.431	23453
577.488	22650
577.545	22332
577.602	23821
577.659	24156
577.716	23729
577.773	25057
577.830	24199
577.886	23646
577.943	23034
578.000	23658
578.057	23571
578.114	24603
578.171	26103
578.227	29923
578.284	30143
578.341	26860
578.398	23729
578.454	25578
578.511	24392
578.568	24830
578.625	23913
578.681	23695
578.738	22800
578.794	23807
578.851	24320
578.908	24607
578.964	23431
579.021	23645
579.077	24075
579.134	23140
579.190	22809
579.247	23950
579.303	22813
579.360	22628
579.416	23525
579.473	23931
579.529	23372
579.586	24434
579.642	24342
579.698	24310
579.755	25400
579.811	25228
579.867	25697
579.924	25520
579.980	27808
580.036	29157
580.093	31897
580.149	38494
580.205	43224
580.261	35842
580.317	32718
580.374	29824
580.430	29500
580.486	28926
580.542	28473
580.598	28312
580.619	28223
580.654	28098
580.692	28484
580.710	28725
580.765	27820
580.767	27821
580.823	28630
580.838	29007
580.879	30134
580.911	29685
580.935	29404
580.984	28829
580.991	28786
581.047	30673
581.057	30518
581.103	29936
581.130	30067
581.159	30272
581.203	31304
581.215	31609
581.270	30771
581.276	30732
581.326	30576
581.349	30879
581.382	31399
581.422	30412
581.438	30038
581.494	30578
581.494	30555
581.550	30277
581.567	30340
581.606	30524
581.640	30660
581.661	30810
581.713	31608
581.717	31683
581.773	31154
581.786	31222
581.829	31552
581.859	31681
581.885	31898
581.932	32210
581.940	32256
581.996	32181
582.004	32248
582.052	32795
582.077	32686
582.107	32542
582.150	32722
582.163	32814
582.219	32165
582.223	32240
582.274	33323
582.296	33132
582.330	32882
582.368	33567
582.386	33889
582.441	34699
582.441	34708
582.497	34618
582.514	34878
582.552	35693
582.587	36242
582.608	36519
582.659	36009
582.663	35982
582.719	36849
582.732	36978
582.774	37447
582.805	37707
582.830	38022
582.877	40468
582.885	40881
582.941	42337
582.950	43024
582.996	46638
583.023	49199
583.052	52175
583.095	53624
583.107	53836
583.162	52909
583.168	52709
583.218	50805
583.240	48872
583.273	45814
583.313	43796
583.328	43213
583.384	41461
583.385	41403
583.439	39289
583.458	38985
583.494	38774
583.531	37608
583.549	36989
583.603	36767
583.605	36752
583.660	35748
583.676	35763
583.715	35981
583.748	35653
583.770	35390
583.820	35868
583.825	35901
583.881	35784
583.893	35624
583.936	35262
583.965	35819
583.991	36316
584.038	36580
584.046	36621
584.101	35909
584.110	36189
584.156	37463
584.183	37707
584.211	38043
584.255	37715
584.266	37609
584.321	39004
584.328	39075
584.376	39601
584.400	39647
584.431	39792
584.472	40014
584.486	40024
584.541	41648
584.545	41663
584.596	41961
584.617	42201
584.651	42748
584.689	43599
584.706	43870
584.761	44599
584.762	44616
584.816	46068
584.834	46271
584.871	46613
584.906	47008
584.926	47237
584.978	48302
584.980	48351
585.035	50528
585.051	50881
585.090	52075
585.123	53787
585.145	54845
585.195	57727
585.200	58177
585.254	63546
585.267	65168
585.309	70759
585.340	75235
585.364	79172
585.412	89184
585.419	90926
585.473	109790
585.484	115038
585.528	145464
585.556	173793
585.583	226862
585.628	347683
585.637	393669
585.692	762501
585.700	828527
585.747	1099964
585.772	1023592
585.801	725675
585.845	321488
585.856	263285
585.910	132051
585.917	119249
585.965	92429
585.989	82516
586.019	76394
586.061	69992
586.074	68642
586.128	64232
586.133	63754
586.183	59774
586.205	58669
586.237	57472
586.277	55615
586.292	54993
586.346	53438
586.349	53363
586.401	53075
586.421	52990
586.455	52322
586.493	51596
586.509	51985
586.564	52557
586.565	52636
586.618	59043
586.637	60502
586.672	61991
586.709	63749
586.727	65325
586.781	71314
586.781	71336
586.835	60983
586.853	58202
586.889	53502
586.925	49943
586.944	49202
586.996	47476
586.998	47467
587.052	47123
587.068	47154
587.106	47700
587.140	47700
587.161	47601
587.212	47344
587.215	47367
587.269	48550
587.284	48727
587.323	49356
587.356	49491
587.377	49475
587.427	50633
587.431	50775
587.485	51274
587.499	51539
587.539	52816
587.571	53931
587.593	54589
587.643	56413
587.648	56622
587.702	57429
587.715	57828
587.755	58818
587.786	59136
587.810	59081
587.858	59260
587.864	59421
587.917	60681
587.930	60925
587.971	62183
588.001	63209
588.025	63971
588.073	65230
588.079	65408
588.133	66596
588.145	67027
588.187	69190
588.217	70708
588.241	73028
588.288	77079
588.295	77614
588.348	83470
588.360	84419
588.402	88729
588.431	92398
588.456	95889
588.503	103297
588.510	104739
588.564	117153
588.575	120012
588.617	132874
588.646	142979
588.671	154769
588.718	181414
588.725	188311
588.778	251859
588.789	267974
588.832	403781
588.861	509918
588.886	673760
588.932	1010194
588.939	1038196
588.993	1164760
589.004	1173777
589.047	843997
589.075	600387
589.100	462868
589.147	250592
589.154	240097
589.207	184687
589.218	175222
589.261	167803
589.290	165600
589.314	170871
589.361	187533
589.368	195113
589.421	266687
589.433	284898
589.475	461889
589.504	602665
589.528	753324
589.576	1030802
589.582	1008552
589.635	697342
589.647	623610
589.689	360081
589.718	199446
589.742	167183
589.790	118139
589.795	116086
589.849	100389
589.861	97177
589.902	91264
589.932	87015
589.955	83907
590.004	77541
590.009	77232
590.062	73590
590.075	72748
590.115	71279
590.146	70164
590.168	69525
590.218	67878
590.222	67988
590.275	68932
590.289	69164
590.328	69675
590.360	69779
590.381	69443
590.431	68464
590.435	68518
590.488	68553
590.503	68410
590.541	68776
590.574	69197
590.594	70066
590.645	72033
590.647	72130
590.700	72517
590.716	72547
590.753	73622
590.787	74493
590.806	75038
590.859	76426
590.859	76517
590.912	76536
590.930	76509
590.965	77295
591.001	78024
591.018	78099
591.071	77455
591.072	77355
591.124	77298
591.143	77087
591.177	77145
591.214	77072
591.230	77524
591.283	78845
591.285	78787
591.336	77853
591.356	77454
591.389	77638
591.427	77566
591.442	77357
591.495	76077
591.498	75907
591.547	77275
591.569	77757
591.600	78779
591.640	79834
591.653	80078
591.706	80696
591.711	80653
591.759	82952
591.782	84054
591.811	85579
591.853	87382
591.864	87369
591.917	86603
591.924	86387
591.969	85952
591.995	85464
592.022	86526
592.066	88098
592.075	88720
592.127	91788
592.137	92236
592.180	94320
592.208	95393
592.233	95674
592.279	95823
592.285	96219
592.338	98403
592.350	98737
592.390	97744
592.421	96759
592.443	97389
592.491	98340
592.495	98644
592.548	100873
592.562	101348
592.600	101428
592.633	101205
592.653	100880
592.704	99108
592.705	99729
592.775	102456
592.846	106785
592.916	106826
592.987	107400
593.058	107487
593.128	110144
593.199	110175
593.270	110516
593.341	112675
593.411	114323
593.482	118579
593.553	122407
593.623	123527
593.694	126608
593.764	129885
593.835	126944
593.906	129617
593.976	131657
594.047	134675
594.117	142488
594.188	145595
594.258	144799
594.329	143053
594.399	148473
594.470	151953
594.540	155566
594.611	159827
594.681	159626
594.751	159224
594.822	164901
594.892	172250
594.963	175176
595.033	178976
595.103	184476
595.174	188337
595.244	194579
595.314	203109
595.384	201483
595.455	205040
595.525	211462
595.595	217102
595.665	219361
595.736	213519
595.806	220678
595.876	222250
595.946	224350
596.016	231079
596.087	238489
596.157	242641
596.227	241419
596.297	250417
596.367	269080
596.437	282161
596.507	284692
596.577	286464
596.647	291454
596.717	303462
596.787	309677
596.857	308826
596.927	310402
596.997	315264
597.067	317279
597.137	324730
597.207	326221
597.277	326726
597.347	315992
597.417	304638
597.487	307529
597.557	314786
597.626	320059
597.696	325314
597.766	326654
597.836	313703
597.906	297565
597.975	291563
598.045	297255
598.115	306921
598.185	326369
598.254	358213
598.324	387925
598.394	396285
598.464	385166
598.533	381108
598.603	360131
598.672	349171
598.742	359689
598.812	361868
598.881	372340
598.951	370802
599.020	376295
599.090	385279
599.159	391163
599.229	381194
599.299	375982
599.368	385903
599.437	385161
599.507	360704
599.576	351314
599.646	350037
599.715	348724
599.785	348271
599.854	337606
599.924	336611
599.993	339831
600.062	344892
600.132	352186
600.201	369228
600.270	415295
600.340	437944
600.409	433793
600.478	431188
600.547	440673
600.617	416268
600.686	354687
600.755	330992
600.824	318951
600.894	317553
600.963	319267
601.032	319435
601.101	318705
601.170	310805
601.239	308336
601.308	308966
601.378	315641
601.447	317548
601.516	321782
601.585	327585
601.654	335411
601.723	338028
601.792	347829
601.861	356701
601.930	373737
601.999	381662
602.068	376301
602.137	378108
602.206	383773
602.275	389788
602.343	390273
602.412	394785
602.481	398235
602.550	401489
602.619	410902
602.688	410015
602.756	416411
602.825	416408
602.894	422714
602.963	430229
603.032	434046
603.100	435597
603.169	431921
603.238	443089
603.307	432186
603.375	433469
603.444	448343
603.513	435182
603.581	440488
603.650	459060
603.719	420491
603.787	413318
603.856	423527
603.924	430227
603.993	442219
604.061	455723
604.130	473363
604.198	481947
604.267	489018
604.335	497335
604.404	501979
604.472	510825
604.541	512078
604.609	521292
604.678	532468
604.746	533658
604.815	554521
604.883	551111
604.951	539602
605.020	552175
605.088	541587
605.156	538210
605.225	543239
605.293	540139
605.361	541555
605.429	545477
605.498	557493
605.566	558755
605.634	585790
605.702	597263
605.771	606973
605.839	616875
605.907	594244
605.975	586468
606.043	573775
606.111	565656
606.180	585709
606.248	563337
606.316	552399
606.384	569442
606.452	528496
606.520	510877
606.588	527736
606.656	528357
606.724	520230
606.792	492813
606.860	451501
606.928	414899
606.996	396720
607.064	390713
607.132	399685
607.200	422159
607.267	438412
607.335	443004
607.403	453781
607.471	441256
607.539	427122
607.607	431801
607.674	386005
607.742	384075
607.810	379655
607.878	381932
607.946	387621
608.013	404169
608.081	412486
608.149	416292
608.216	429845
608.284	437298
608.352	437634
608.419	434840
608.487	429633
608.555	418759
608.622	432580
608.690	452646
608.757	491049
608.825	505768
608.893	491080
608.960	467827
609.028	447414
609.095	447529
609.163	445497
609.230	407270
609.298	371772
609.365	390458
609.432	418146
609.500	449713
609.567	506706
609.635	570890
609.702	602274
609.769	579817
609.837	466810
609.904	404588
609.971	418329
610.039	455406
610.106	550322
610.173	898118
610.241	1751968
610.308	1335963
610.375	599718
610.442	461551
610.509	428154
610.577	425452
610.644	426426
610.711	438111
610.778	447945
610.845	466774
610.912	488504
610.980	511078
611.047	518068
611.114	505475
611.181	486269
611.248	487520
611.315	507288
611.382	525131
611.449	538864
611.516	548547
611.583	542030
611.650	544474
611.717	552640
611.784	562592
611.851	582548
611.918	607948
611.984	685619
612.051	861421
612.118	1361749
612.185	2443222
612.252	2084727
612.319	955521
612.386	744369
612.452	666370
612.519	626704
612.586	610946
612.653	616069
612.719	632679
612.786	614079
612.853	572897
612.919	558528
612.986	568002
613.053	542669
613.120	509625
613.186	493301
613.253	499085
613.319	497702
613.386	501347
613.453	509113
613.519	513694
613.586	503295
613.652	511782
613.719	503034
613.785	510433
613.852	516243
613.918	518974
613.985	517257
614.051	544684
614.118	554513
614.184	540272
614.250	514407
614.317	526763
614.383	519193
614.449	526698
614.516	524530
614.582	527280
614.648	520413
614.715	515191
614.781	506337
614.847	503853
614.914	503142
614.980	490811
615.046	493044
615.112	505756
615.179	509146
615.245	515397
615.311	507919
615.377	513239
615.443	526106
615.509	526690
615.575	542795
615.642	539904
615.708	550475
615.774	572037
615.840	600631
615.906	632494
615.972	726259
616.038	965672
616.104	1595669
616.170	2644966
616.236	2577223
616.302	1320283
616.368	987801
616.434	755911
616.500	669835
616.565	712673
616.631	875413
616.697	779328
616.763	749781
616.829	1008208
616.895	1657283
616.961	1727352
617.026	928934
617.092	624285
617.158	566169
617.224	545327
617.289	511697
617.355	486648
617.421	481006
617.487	478828
617.552	458425
617.618	453680
617.684	452529
617.749	457087
617.815	438963
617.880	433309
617.946	431178
618.012	437405
618.077	447678
618.143	432780
618.208	431732
618.274	458454
618.339	463771
618.405	401454
618.470	396310
618.536	398825
618.601	391939
618.667	369848
618.732	356284
618.798	352702
618.863	351431
618.928	348822
618.994	353685
619.059	351293
619.124	355075
619.190	350049
619.255	349775
619.320	346249
619.386	350381
619.451	349271
619.516	340147
619.581	345365
619.647	353013
619.712	352183
619.777	344621
619.842	344393
619.907	350106
619.972	353545
620.038	353093
620.103	343903
620.168	343701
620.233	350872
620.298	353485
620.363	354623
620.428	360699
620.493	368925
620.558	372211
620.623	378397
620.688	378228
620.753	373295
620.818	379720
620.883	381157
620.948	381322
621.013	380529
621.078	376086
621.143	377853
621.207	381224
621.272	375081
621.337	368279
621.402	368093
621.467	365404
621.532	364910
621.596	366420
621.661	357052
621.726	353710
621.791	356597
621.855	358353
621.920	353477
621.985	360534
622.049	366839
622.114	364913
622.179	367131
622.243	373811
622.308	384022
622.373	393725
622.437	389646
622.502	372811
622.566	369156
622.631	367649
622.695	372230
622.760	371248
622.824	369076
622.889	373301
622.953	371796
623.018	388907
623.082	393611
623.147	386204
623.211	381842
623.276	380525
623.340	368852
623.404	360641
623.469	360291
623.533	361852
623.597	357238
623.662	354386
623.726	336752
623.790	320124
623.854	312582
623.919	316235
623.983	317852
624.047	324221
624.111	326258
624.176	329186
624.240	332124
624.304	338049
624.368	329571
624.432	331943
624.496	333787
624.560	346412
624.625	350752
624.689	343476
624.753	359649
624.817	344451
624.881	337261
624.945	311818
625.009	300644
625.073	306059
625.137	311759
625.201	323852
625.265	323629
625.329	311167
625.393	315533
625.456	316025
625.520	318982
625.584	323460
625.648	331810
625.712	341991
625.776	353368
625.839	345557
625.903	287057
625.967	263229
626.031	278096
626.095	322379
626.158	298008
626.222	246265
626.286	228092
626.349	223663
626.413	210886
626.477	207952
626.540	209304
626.604	208776
626.668	202505
626.731	200338
626.795	201654
626.858	200436
626.922	195814
626.986	193827
627.049	193970
627.113	200921
627.176	196217
627.240	188381
627.303	189161
627.366	183977
627.430	187226
627.493	186358
627.557	182294
627.620	186339
627.684	191272
627.747	191911
627.810	178614
627.874	163656
627.937	157622
628.000	160560
628.064	158920
628.127	145224
628.190	141935
628.253	138213
628.317	132827
628.380	128949
628.443	125123
628.506	124147
628.569	119573
628.632	114557
628.696	114049
628.759	113322
628.822	108938
628.885	106391
628.948	106284
629.011	104209
629.074	101943
629.137	97547
629.200	96770
629.263	96074
629.326	92702
629.389	93716
629.452	92111
629.515	90844
629.578	90370
629.641	91651
629.704	91296
629.767	88788
629.830	89009
629.892	85840
629.955	83203
630.018	87556
630.081	85143
630.144	84233
630.207	82538
630.269	84206
630.332	81477
630.395	80839
630.458	79119
630.520	75549
630.583	77098
630.646	77923
630.708	78162
630.771	79962
630.834	82714
630.896	81000
630.959	80791
631.021	78764
631.084	79133
631.146	80160
631.209	80333
631.272	80006
631.334	81592
631.397	81705
631.459	81330
631.522	85848
631.584	89185
631.646	93627
631.709	96015
631.771	96703
631.834	93054
631.896	88494
631.958	83010
632.021	82376
632.083	77252
632.145	79482
632.208	76124
632.270	75268
632.332	74692
632.395	74598
632.457	74164
632.519	73175
632.581	73778
632.643	72115
632.706	73389
632.768	70708
632.830	71849
632.892	73958
632.954	74233
633.016	76259
633.078	72720
633.141	75490
633.203	73196
633.265	74275
633.327	73934
633.389	73350
633.451	75867
633.513	75402
633.575	77501
633.637	76138
633.698	76359
633.760	81044
633.822	82775
633.884	85491
633.946	86527
634.008	88245
634.070	92331
634.132	99136
634.193	103463
634.255	112181
634.317	114912
634.379	112072
634.441	101603
634.502	94913
634.564	87118
634.626	82849
634.687	76397
634.749	74342
634.811	74297
634.873	72906
634.934	73330
634.996	74077
635.057	72122
635.119	73333
635.181	74118
635.242	77152
635.304	74478
635.365	78566
635.427	75147
635.488	76407
635.550	74965
635.611	77140
635.673	77433
635.734	82197
635.796	85235
635.857	92665
635.918	99253
635.980	107180
636.041	113593
636.102	121320
636.164	122621
636.225	118069
636.286	104661
636.348	94854
636.409	85947
636.470	80705
636.531	78126
636.593	75524
636.654	73090
636.715	69930
636.776	69426
636.838	67815
636.899	66216
636.960	65853
637.021	65575
637.082	63796
637.143	63720
637.204	62282
637.265	61641
637.326	63615
637.387	64131
637.448	63265
637.509	63458
637.570	63118
637.631	62688
637.692	61093
637.753	59779
637.814	60210
637.875	59927
637.936	60797
637.997	58334
638.058	59506
638.119	60501
638.179	60573
638.240	59237
638.301	59321
638.362	58385
638.423	56498
638.483	57012
638.544	55581
638.605	57268
638.666	57043
638.726	58516
638.787	58166
638.848	56766
638.908	56841
638.969	54344
639.030	52983
639.090	51898
639.151	53854
639.211	55231
639.272	56766
639.332	57801
639.393	57473
639.453	59817
639.514	62087
639.574	55484
639.635	53280
639.695	52843
639.756	51045
639.816	52184
639.877	50822
639.937	54035
639.997	54357
640.058	50414
640.118	51716
640.178	51820
640.239	50981
640.299	51391
640.359	52125
640.420	55876
640.480	60448
640.540	69249
640.600	70146
640.661	65158
640.721	63366
640.781	72620
640.841	76166
640.901	55910
640.961	54355
641.021	55945
641.082	58547
641.142	54075
641.202	52813
641.262	49055
641.322	50905
641.382	48975
641.442	49649
641.502	48944
641.562	50127
641.622	50472
641.682	54705
641.742	60168
641.802	57871
641.861	51117
641.921	49086
641.981	47597
642.041	47005
642.101	46117
642.161	46440
642.221	46053
642.280	45185
642.340	45860
642.400	47027
642.460	48269
642.519	49316
642.579	48553
642.639	50142
642.698	47343
642.758	51948
642.818	49852
642.877	48558
642.937	49850
642.997	50135
643.056	49944
643.116	47799
643.175	50511
643.235	51540
643.294	52097
643.354	54966
643.414	58022
643.473	63695
643.532	73699
643.592	92666
643.651	130013
643.711	201334
643.770	358805
643.830	765844
643.889	1384519
643.948	588395
644.008	155978
644.067	94967
644.126	72087
644.186	63657
644.245	57029
644.304	53103
644.363	53069
644.423	50081
644.482	50371
644.541	53198
644.600	54111
644.659	64671
644.719	75423
644.778	106098
644.837	164868
644.896	309706
644.955	689505
645.014	302751
645.073	85650
645.132	64369
645.191	57952
645.250	54776
645.309	57427
645.368	62336
645.427	76919
645.486	121159
645.545	222401
645.604	85020
645.663	51341
645.722	50530
645.781	54069
645.840	58807
645.898	65949
645.957	84696
646.016	119370
646.075	192637
646.134	345208
646.192	785733
646.251	1149674
646.310	329829
646.369	111383
646.427	86560
646.486	68642
646.545	55648
646.603	49047
646.662	47542
646.721	45460
646.779	46134
646.838	48098
646.896	55697
646.955	70777
647.014	105575
647.072	186012
647.131	481706
647.189	290606
647.248	59629
647.306	45144
647.365	40504
647.423	37391
647.481	39551
647.540	33996
647.598	36401
647.657	35685
647.715	35888
647.773	33318
647.832	34789
647.890	30104
647.948	31968
648.007	32311
648.065	30121
648.123	30565
648.181	32441
648.240	32388
648.298	31225
648.356	28840
648.414	30077
648.472	29248
648.531	28925
648.589	28973
648.647	27706
648.705	28345
648.763	28245
648.821	29007
648.879	30678
648.937	33327
648.995	37734
649.053	46600
649.111	62712
649.169	96039
649.227	158846
649.285	310585
649.343	796915
649.401	497040
649.459	94824
649.516	54192
649.574	44230
649.632	51022
649.690	60451
649.748	57926
649.806	80963
649.863	140477
649.921	352508
649.979	286395
650.037	50608
650.094	31432
650.152	28259
650.210	26063
650.268	27897
650.325	28765
650.383	37219
650.440	24134
650.498	22304
650.556	22180
650.613	20600
650.671	20679
650.728	21193
650.786	23064
650.843	31004
650.901	25239
650.958	19897
651.016	17835
651.073	19491
651.131	18379
651.188	17690
651.246	17539
651.303	17693
651.360	17527
651.418	16940
651.475	17566
651.532	16605
651.590	18253
651.647	16046
651.704	16622
651.762	16117
651.819	15662
651.876	16280
651.933	16332
651.990	15845
652.048	14609
652.105	15417
652.162	15153
652.219	14491
652.276	14686
652.333	15638
652.390	14433
652.448	15515
652.505	14279
652.562	15636
652.619	15154
652.676	18209
652.733	19528
652.790	15534
652.847	12662
652.904	14268
652.961	13828
653.017	13576
653.074	14277
653.131	14602
653.188	12698
653.245	13875
653.302	14368
653.359	13553
653.415	13685
653.472	13342
653.529	13554
653.586	12649
653.642	12835
653.699	14015
653.756	12434
653.813	13527
653.869	14250
653.926	13414
653.983	12685
654.039	14014
654.096	13104
654.152	14126
654.209	11895
654.266	13960
654.322	11508
654.379	13172
654.435	13289
654.492	13266
654.548	13867
654.605	14337
654.661	15925
654.717	13822
654.774	13258
654.830	13525
654.887	13854
654.943	15017
655.000	18132
655.056	15322
655.112	13182
655.168	12934
655.225	13431
655.281	14512
655.337	13407
655.394	15439
655.450	13858
655.506	13836
655.562	14919
655.618	15091
655.675	11446
655.731	12482
655.787	11390
655.843	13282
655.899	11838
655.955	12565
656.011	13360
656.067	12263
656.123	12673
656.179	12617
656.235	13261
656.291	12120
656.347	13910
656.403	12362
656.459	12366
656.515	12464
656.571	12474
656.627	12782
656.683	11939
656.739	13079
656.795	12243
656.850	11971
656.906	12501
656.962	13453
657.018	13778
657.074	15416
657.129	19691
657.185	29961
657.241	62897
657.297	43743
657.352	15031
657.408	11581
657.464	13191
657.519	11627
657.575	10966
657.630	11141
657.686	11313
657.742	10890
657.797	11029
657.853	10938
657.908	11402
657.964	10853
658.019	11814
658.075	11480
658.130	11647
658.186	9882
658.241	11702
658.297	9229
658.352	11353
658.407	11265
658.463	10294
658.518	10802
658.573	12045
658.629	10140
658.684	10131
658.739	11482
658.795	10826
658.850	11050
658.905	10563
658.960	11592
659.016	9391
659.071	9883
659.126	10141
659.181	10534
659.236	11967
659.291	12172
659.346	10393
659.401	11818
659.457	12707
659.512	13178
659.567	12272
659.622	11021
659.677	10142
659.732	9791
659.787	10427
659.842	9962
659.897	10944
659.952	10767
660.007	10001
660.061	10987
660.116	10024
660.171	10102
660.226	10356
660.281	10584
660.336	9488
660.391	10989
660.445	9077
660.500	10501
660.555	10092
660.610	10333
660.664	9826
660.719	9717
660.774	9807
660.828	10322
660.883	10123
660.938	10673
660.992	9137
661.047	11224
661.101	9282
661.156	10250
661.211	9426
661.265	10251
661.320	10040
661.374	10349
661.429	9856
661.483	10164
661.538	10033
661.592	11095
661.647	11956
661.701	16649
661.755	11970
661.810	11348
661.864	8958
661.919	9299
661.973	10045
662.027	9544
662.081	8953
662.136	9390
662.190	9142
662.244	10733
662.299	8988
662.353	9999
662.407	9795
662.461	10253
662.515	9669
662.569	9025
662.624	9214
662.678	9076
662.732	8831
662.786	9295
662.840	9375
662.894	9370
662.948	9738
663.002	9586
663.056	9412
663.110	8967
663.164	10186
663.218	10238
663.272	9749
663.326	10119
663.380	9337
663.434	9912
663.488	8739
663.542	9955
663.595	9093
663.649	8963
663.703	9453
663.757	8958
663.811	8668
663.864	8659
663.918	10303
663.972	9497
664.026	9880
664.079	9633
664.133	10074
664.187	10279
664.240	9371
664.294	10579
664.348	10045
664.401	10116
664.455	9629
664.508	9081
664.562	9134
664.615	8795
664.669	8213
664.722	8664
664.776	7784
664.829	9784
664.883	8769
664.936	8947
664.990	9580
665.043	10082
665.097	8624
665.150	10335
665.203	8670
665.257	10018
665.310	9172
665.363	9847
665.417	10285
665.470	9573
665.523	9843
665.576	10119
665.630	10283
665.683	9552
665.736	9793
665.789	9732
665.842	9217
665.895	9200
665.949	9640
666.002	9447
666.055	10054
666.108	10455
666.161	9633
666.214	10345
666.267	10150
666.320	10699
666.373	9533
666.426	10926
666.479	10142
666.532	10911
666.585	10954
666.638	11905
666.691	10269
666.744	10430
666.796	10103
666.849	11333
666.902	10683
666.955	10683
667.008	9906
667.060	10473
667.113	9725
667.166	9726
667.219	10063
667.271	10451
667.324	11007
667.377	9999
667.430	10294
667.482	10704
667.535	10037
667.587	9994
667.640	10046
667.693	10156
667.745	10633
667.798	11383
667.850	10371
667.903	9806
667.955	9635
668.008	9396
668.060	10624
668.113	10408
668.165	9652
668.218	10390
668.270	9313
668.322	10154
668.375	9151
668.427	10296
668.479	10100
668.532	9748
668.584	9290
668.636	8747
668.689	9631
668.741	9570
668.793	9665
668.845	9759
668.898	9926
668.950	9171
669.002	9004
669.054	10093
669.106	9677
669.158	10431
669.211	9669
669.263	10197
669.315	10235
669.367	11376
669.419	9170
669.471	11374
669.523	10108
669.575	11665
669.627	10969
669.679	10023
669.731	10023
669.783	9999
669.835	10416
669.886	10326
669.938	10217
669.990	9984
670.042	10063
670.094	9760
670.146	10826
670.197	10407
670.249	11837
670.301	14105
670.353	17253
670.404	21384
670.456	27675
670.508	39539
670.560	59062
670.611	92947
670.663	157895
670.715	335645
670.766	553494
670.818	231787
670.869	50733
670.921	27478
670.972	20362
671.024	16949
671.075	14797
671.127	13180
671.178	13002
671.230	14165
671.281	14015
671.333	14656
671.384	16270
671.436	20893
671.487	27175
671.538	36495
671.590	54283
671.641	87486
671.692	145555
671.744	272522
671.795	236099
671.846	98235
671.897	45380
671.949	29800
672.000	21179
672.051	17060
672.102	14072
672.153	12738
672.204	11962
672.256	11758
672.307	11226
672.358	9752
672.409	9402
672.460	9192
672.511	9022
672.562	8474
672.613	7220
672.664	7863
672.715	7777
672.766	7605
672.817	7513
672.868	7793
672.919	7530
672.970	6400
673.021	6991
673.071	7031
673.122	6715
673.173	6420
673.224	7077
673.275	6633
673.326	6927
673.376	6864
673.427	6039
673.478	6412
673.528	7709
673.579	6832
673.630	6599
673.680	8186
673.731	6775
673.782	6947
673.832	6604
673.883	6737
673.934	6563
673.984	7100
674.035	7480
674.085	7563
674.136	6961
674.186	6597
674.237	7642
674.287	8569
674.338	7421
674.388	6930
674.438	7214
674.489	8389
674.539	7937
674.589	8447
674.640	7874
674.690	8135
674.740	7538
674.791	8199
674.841	6058
674.891	7006
674.942	5429
674.992	6308
675.042	5437
675.092	6082
675.142	5198
675.193	5888
675.243	5728
675.293	6389
675.343	6358
675.393	6806
675.443	6041
675.493	6340
675.543	5584
675.593	6044
675.643	5954
675.693	6587
675.743	6236
675.793	6164
675.843	5302
675.893	5781
675.943	6048
675.993	5432
676.043	5377
676.093	6502
676.142	5128
676.192	5779
676.242	5435
676.292	5443
676.341	6429
676.391	6227
676.441	5529
676.491	5248
676.540	5435
676.590	4926
676.640	4819
676.689	5451
676.739	4481
676.789	4633
676.838	5363
676.888	4832
676.937	4678
676.987	5071
677.037	4461
677.086	4304
677.136	4639
677.185	4850
677.235	4477
677.284	5298
677.333	4336
677.383	4845
677.432	4529
677.482	4742
677.531	4983
677.580	3845
677.630	4221
677.679	3655
677.728	5158
677.778	4914
677.827	4014
677.876	4270
677.925	4601
677.975	5985
678.024	5234
678.073	5430
678.122	5230
678.171	5678
678.220	5681
678.269	7847
678.319	7430
678.368	7387
678.417	6011
678.466	6218
678.515	5840
678.564	5602
678.613	4851
678.662	4186
678.711	5524
678.760	4418
678.809	4610
678.857	5887
678.906	6024
678.955	5154
679.004	5822
679.053	6093
679.102	7045
679.151	5113
679.199	4188
679.248	4638
679.297	4402
679.346	5443
679.394	4377
679.443	4158
679.492	4669
679.540	4802
679.589	4854
679.638	5189
679.686	4612
679.735	5682
679.784	5569
679.832	7243
679.881	5483
679.929	4821
679.978	4153
680.026	5416
680.075	5266
680.123	4391
680.172	3990
680.220	4195
680.268	4966
680.317	4459
680.365	3940
680.414	4081
680.462	3964
680.510	4674
680.559	3609
680.607	4389
680.655	3431
680.703	4398
680.752	4131
680.800	4006
680.848	3535
680.896	3711
680.945	3474
680.993	4426
681.041	3935
681.089	4417
681.137	3534
681.185	3650
681.233	4429
681.258	4461
681.281	4468
681.329	3150
681.377	4092
681.380	4136
681.425	4463
681.473	5020
681.502	4892
681.521	4757
681.569	5095
681.617	4765
681.624	4697
681.665	4049
681.713	4669
681.745	5022
681.761	5155
681.809	4433
681.857	5655
681.867	5302
681.904	3981
681.952	5789
681.989	5212
682.000	5002
682.048	5175
682.096	4643
682.111	4540
682.143	4254
682.191	4602
682.233	5354
682.239	5442
682.286	5289
682.334	4745
682.354	5069
682.382	5415
682.430	5881
682.476	4844
682.477	4799
682.525	5124
682.572	5067
682.598	4849
682.620	4639
682.667	5345
682.715	5828
682.720	5793
682.763	5198
682.810	5463
682.841	5698
682.857	5783
682.905	4694
682.952	5116
682.963	5415
683.000	6378
683.047	5228
683.085	5839
683.095	5992
683.142	6026
683.190	6573
683.206	6269
683.237	5579
683.284	5871
683.328	5443
683.332	5391
683.379	6267
683.426	6035
683.449	6054
683.473	6082
683.521	6153
683.568	6832
683.571	6805
683.615	6118
683.662	6593
683.693	6346
683.709	6136
683.757	7070
683.804	5045
683.814	5066
683.851	5199
683.898	6444
683.936	6774
683.945	6805
683.992	6269
684.039	7370
684.057	7029
684.086	6496
684.133	7709
684.179	6188
684.180	6123
684.227	6907
684.274	6698
684.300	6578
684.321	6413
684.368	5891
684.415	7367
684.422	7332
684.462	7040
684.509	6713
684.543	6764
684.556	6788
684.603	6957
684.649	7188
684.665	7364
684.696	7665
684.743	7432
684.786	7528
684.790	7517
684.837	7091
684.883	7996
684.908	7965
684.930	7951
684.977	7162
685.023	7665
685.029	7717
685.070	7952
685.117	8266
685.150	7780
685.164	7593
685.210	7942
685.257	8580
685.272	8456
685.303	8069
685.350	8553
685.393	8290
685.396	8251
685.443	7583
685.490	8094
685.514	7776
685.536	7627
685.583	8139
685.629	8678
685.636	8594
685.675	7836
685.722	8343
685.757	8324
685.768	8331
685.815	8079
685.861	8520
685.878	8521
685.908	8553
685.954	8117
686.000	8962
686.000	8971
686.047	8616
686.093	9186
686.121	9399
686.139	9346
686.185	9072
686.232	9122
686.242	9205
686.278	9725
686.324	9248
686.363	9237
686.370	9201
686.416	8384
686.463	9392
686.484	9240
686.509	9140
686.555	9003
686.601	9343
686.606	9345
686.647	9119
686.693	9015
686.727	8993
686.739	9040
686.785	8755
686.831	9429
686.848	9255
686.877	8898
686.923	8979
686.969	8694
686.969	8693
687.015	9277
687.061	9354
687.090	9858
687.107	10037
687.153	10028
687.199	10018
687.211	9911
687.245	9583
687.291	9707
687.332	10070
687.336	10128
687.382	10386
687.428	10094
687.453	10444
687.474	10680
687.520	10833
687.565	11335
687.574	11223
687.611	11172
687.657	12930
687.695	12905
687.702	13126
687.748	16087
687.794	20518
687.816	20541
687.839	18644
687.885	14853
687.931	13214
687.937	12894
687.976	12032
688.022	11924
688.058	11002
688.067	10885
688.113	10703
688.158	10577
688.179	10362
688.204	10244
688.249	10483
688.295	10606
688.300	10593
688.340	10736
688.386	11523
688.421	10928
688.431	10710
688.477	11039
688.522	11617
688.542	11556
688.567	11684
688.613	11876
688.658	12293
688.663	12276
688.703	11749
688.749	11482
688.784	11491
688.794	11544
688.839	11615
688.884	11518
688.905	11693
688.930	12058
688.975	11488
689.020	12011
689.026	11954
689.065	11395
689.110	11969
689.146	12050
689.155	12188
689.201	13227
689.246	13624
689.267	13522
689.291	12892
689.336	12566
689.381	11818
689.388	11739
689.426	11811
689.471	11868
689.509	11422
689.516	11383
689.561	11758
689.606	11613
689.630	11753
689.651	11901
689.696	12036
689.741	12344
689.750	12391
689.785	12519
689.830	12535
689.871	12195
689.875	12165
689.920	12297
689.965	12048
689.992	12063
690.010	12139
690.054	12091
690.099	12186
690.112	12163
690.144	12323
690.189	12469
690.233	12736
690.233	12750
690.278	12741
690.323	12436
690.354	12579
690.367	12701
690.412	12793
690.457	12487
690.474	12554
690.501	12690
690.546	12199
690.590	12472
690.595	12445
690.635	12557
690.680	12835
690.716	13387
690.724	13571
690.769	13575
690.813	14316
690.836	14678
690.857	15827
690.902	17575
690.946	20548
690.957	21018
690.991	25145
691.035	31626
691.077	38658
691.080	38703
691.124	35379
691.168	32037
691.198	29650
691.213	27705
691.257	23190
691.301	18258
691.318	16388
691.346	15936
691.390	15268
691.434	14739
691.439	14622
691.478	13946
691.522	13516
691.559	13201
691.567	13296
691.611	13449
691.655	13822
691.680	13982
691.699	14051
691.743	13804
691.787	13824
691.800	13824
691.831	13981
691.875	14392
691.919	14037
691.921	14028
691.964	14010
692.008	13490
692.041	13388
692.052	13506
692.096	13294
692.139	13581
692.162	13685
692.183	13535
692.227	13064
692.271	12519
692.282	12375
692.315	12438
692.359	12609
692.402	12480
692.403	12501
692.447	12402
692.490	12762
692.523	12684
692.534	12824
692.578	13296
692.622	13489
692.643	13705
692.666	13632
692.709	13335
692.753	13444
692.763	13259
692.797	13010
692.840	13500
692.884	13120
692.884	13142
692.928	13378
692.971	13304
693.004	13213
693.015	13239
693.059	13316
693.102	13652
693.124	13485
693.146	13440
693.189	13655
693.233	13743
693.245	13879
693.276	14422
693.320	14447
693.363	14673
693.365	14648
693.407	15007
693.450	15802
693.485	16320
693.493	16635
693.537	18165
693.580	19585
693.605	20422
693.624	22237
693.667	26618
693.710	30946
693.725	32492
693.753	41724
693.797	57142
693.840	72961
693.845	74437
693.883	67787
693.926	58777
693.966	51710
693.970	50723
694.013	39698
694.056	29155
694.086	21728
694.099	21158
694.142	19407
694.185	17448
694.206	16604
694.229	16462
694.272	16066
694.315	15790
694.326	15598
694.358	15331
694.401	15340
694.444	15125
694.446	15076
694.487	14878
694.530	14861
694.566	14853
694.573	14853
694.616	14498
694.659	14128
694.686	13995
694.702	14230
694.745	14726
694.787	15086
694.806	15261
694.830	15122
694.873	14926
694.916	14515
694.926	14373
694.959	14363
695.002	14605
695.044	14465
695.046	14450
695.087	15198
695.130	15062
695.166	15496
695.172	15544
695.215	15547
695.258	15522
695.286	15448
695.301	15658
695.343	16018
695.386	16516
695.406	16825
695.428	17216
695.471	17675
695.514	18233
695.526	18338
695.556	19327
695.599	20829
695.641	21882
695.646	21979
695.684	21253
695.726	20257
695.766	19495
695.769	19512
695.811	18949
695.854	18440
695.886	18148
695.896	18223
695.938	18158
695.981	18128
696.005	18125
696.023	18580
696.065	19581
696.108	20572
696.125	20883
696.150	21151
696.192	21722
696.235	22011
696.245	22103
696.277	22227
696.319	22181
696.361	22235
696.365	22174
696.404	22078
696.446	22067
696.485	21917
696.488	21949
696.530	21841
696.572	21722
696.604	21478
696.614	21477
696.656	21238
696.698	21141
696.724	20992
696.740	21068
696.783	21362
696.825	21269
696.844	21302
696.867	21541
696.909	21697
696.951	22015
696.964	22061
696.992	22145
697.034	22117
697.076	22013
697.083	21958
697.118	22622
697.160	23523
697.202	24242
697.203	24205
697.244	23705
697.286	23311
697.323	22693
697.327	22789
697.369	23350
697.411	23878
697.442	24216
697.453	24222
697.494	23881
697.536	23708
697.562	23510
697.578	23510
697.620	23364
697.661	23178
697.682	23058
697.703	23602
697.744	24554
697.786	25577
697.801	25837
697.828	25772
697.869	25697
697.911	25533
697.921	25433
697.952	25220
697.994	24921
698.035	24542
698.040	24439
698.077	24646
698.118	24856
698.160	25028
698.160	24969
698.201	25139
698.243	25237
698.279	25296
698.284	25447
698.325	26288
698.367	27114
698.399	27701
698.408	27757
698.449	27671
698.491	27616
698.518	27520
698.532	27700
698.573	28027
698.614	28357
698.638	28462
698.656	28379
698.697	28079
698.738	27722
698.757	27502
698.779	27712
698.820	27966
698.862	28235
698.877	28265
698.903	28267
698.944	28158
698.985	28053
698.996	27956
699.026	28048
699.067	28079
699.116	28048
699.235	27732
699.354	26734
699.474	26074
699.593	26677
699.713	25723
699.832	26741
699.951	27943
700.070	27760
700.190	25400
700.309	24891
700.428	24464
700.547	24423
700.667	24297
700.786	24803
700.905	23506
701.024	24659
701.143	22938
701.262	24700
701.381	24071
701.500	24998
701.619	23947
701.738	25109
701.857	23833
701.976	23148
702.095	23806
702.214	23738
702.333	22859
702.452	25340
702.571	24608
702.690	24456
702.809	24153
702.928	22713
703.047	22268
703.165	22400
703.284	22508
703.403	22568
703.522	22067
703.640	21971
703.759	21677
703.878	21577
703.997	21142
704.115	22053
704.234	20699
704.353	21897
704.471	19943
704.590	20770
704.708	20501
704.827	20132
704.946	19523
705.064	20333
705.183	19162
705.301	20618
705.420	21121
705.538	20240
705.656	19832
705.775	19722
705.893	27127
706.012	31463
706.130	19915
706.249	20402
706.367	18717
706.485	19167
706.604	17795
706.722	18973
706.840	24700
706.958	40882
707.077	29136
707.195	18320
707.313	18362
707.431	16892
707.549	16885
707.668	16633
707.786	18432
707.904	17430
708.022	17690
708.140	17793
708.258	16456
708.376	18396
708.494	15733
708.612	18026
708.730	19227
708.848	18766
708.966	17738
709.084	18067
709.202	17593
709.320	16553
709.438	17451
709.556	17428
709.674	15419
709.791	16135
709.909	15980
710.027	16731
710.145	15815
710.263	15772
710.380	15368
710.498	15178
710.616	14977
710.733	15278
710.851	14730
710.969	15573
711.086	14354
711.204	16313
711.322	15109
711.439	14856
711.557	14926
711.674	15783
711.792	14903
711.909	15380
712.027	14826
712.144	15112
712.262	15188
712.379	15167
712.497	16488
712.614	15215
712.732	15298
712.849	14753
712.966	14489
713.084	16670
713.201	14841
713.318	14897
713.436	16992
713.553	15907
713.670	17478
713.787	16300
713.905	16732
714.022	17439
714.139	17819
714.256	22837
714.373	31463
714.490	60305
714.608	155697
714.725	626526
714.842	691434
714.959	73058
715.076	27774
715.193	22070
715.310	19437
715.427	15568
715.544	15464
715.661	15271
715.778	14132
715.895	15001
716.011	14926
716.128	13975
716.245	13901
716.362	13557
716.479	13273
716.596	14396
716.713	14177
716.829	13310
716.946	12554
717.063	12801
717.180	11216
717.296	12312
717.413	12487
717.530	11672
717.646	11020
717.763	11735
717.880	10793
717.996	10697
718.113	10388
718.229	11619
718.346	10340
718.462	10624
718.579	11961
718.695	12564
718.812	11402
718.928	13158
719.045	11020
719.161	11296
719.277	11490
719.394	11536
719.510	11506
719.626	13417
719.743	17318
719.859	26471
719.975	56688
720.092	225509
720.208	532304
720.324	74697
720.440	18123
720.557	15232
720.673	13673
720.789	14909
720.905	20533
721.021	13159
721.137	9848
721.253	10601
721.369	10954
721.486	12102
721.602	10424
721.718	10337
721.834	8602
721.950	9691
722.066	9456
722.181	10076
722.297	9282
722.413	9646
722.529	9205
722.645	10218
722.761	9445
722.877	9362
722.993	10662
723.108	14447
723.224	12008
723.340	9515
723.456	9799
723.571	9393
723.687	8065
723.803	9393
723.918	8109
724.034	8861
724.150	8367
724.265	9828
724.381	9992
724.497	13354
724.612	9113
724.728	9343
724.843	7349
724.959	9785
725.074	10463
725.190	12091
725.305	8129
725.421	9046
725.536	8170
725.651	8987
725.767	8240
725.882	9082
725.997	7620
726.113	9186
726.228	7894
726.343	8479
726.459	7408
726.574	8375
726.689	8242
726.804	7602
726.920	7101
727.035	7966
727.150	7829
727.265	7968
727.380	7469
727.495	8267
727.610	7494
727.725	7755
727.841	8726
727.956	13668
728.071	11237
728.186	7925
728.301	7176
728.416	8519
728.531	8135
728.645	7481
728.760	8238
728.875	7816
728.990	7384
729.105	7340
729.220	8095
729.335	8125
729.449	7670
729.564	7457
729.679	6761
729.794	8334
729.908	7887
730.023	8009
730.138	6966
730.253	7593
730.367	6965
730.482	8225
730.596	7266
730.711	9282
730.826	13020
730.940	16671
731.055	9770
731.169	9974
731.284	10193
731.398	9978
731.513	10487
731.627	11835
731.742	14687
731.856	17148
731.970	16808
732.085	21007
732.199	31334
732.313	58479
732.428	152058
732.542	437659
732.656	275520
732.771	52621
732.885	26720
732.999	22888
733.113	22309
733.227	21570
733.342	19483
733.456	19908
733.570	18988
733.684	18587
733.798	17642
733.912	17779
734.026	17929
734.140	16757
734.254	16723
734.368	17128
734.482	18019
734.596	16109
734.710	15504
734.824	15698
734.938	15297
735.052	16250
735.166	14973
735.280	16258
735.393	13793
735.507	15927
735.621	15120
735.735	16715
735.849	15257
735.962	15110
736.076	14116
736.190	15349
736.303	14450
736.417	16624
736.531	13642
736.644	14104
736.758	13682
736.872	13726
736.985	14438
737.099	14121
737.212	12788
737.326	12978
737.439	14000
737.553	12699
737.666	13265
737.780	12962
737.893	13087
738.007	12635
738.120	12644
738.233	11763
738.347	12458
738.460	12815
738.573	12769
738.687	12275
738.800	11942
738.913	13801
739.026	12375
739.140	12053
739.253	12390
739.366	12129
739.479	11658
739.592	11940
739.705	11106
739.818	13161
739.932	11919
740.045	12034
740.158	10447
740.271	13121
740.384	11646
740.497	11199
740.610	12360
740.723	10701
740.836	10967
740.949	12040
741.062	11580
741.174	11086
741.287	10819
741.400	11723
741.513	9914
741.626	12234
741.739	10539
741.851	10693
741.964	11591
742.077	11233
742.189	10111
742.302	11100
742.415	10271
742.527	10983
742.640	10882
742.753	8781
742.865	10594
742.978	10557
743.090	9301
743.203	10152
743.316	9348
743.428	9773
743.541	10093
743.653	9476
743.766	9783
743.878	10000
743.990	9420
744.103	10286
744.215	9748
744.327	9602
744.440	10731
744.552	9335
744.664	8412
744.777	10144
744.889	8752
745.001	9049
745.113	9762
745.226	8809
745.338	8785
745.450	10294
745.562	9590
745.674	8475
745.786	8961
745.898	10071
746.010	8437
746.122	10011
746.234	9266
746.347	9290
746.459	8510
746.570	7870
746.682	9446
746.794	10399
746.906	8787
747.018	10052
747.130	9240
747.242	8404
747.354	8449
747.466	8632
747.577	7550
747.689	8996
747.801	8218
747.913	7371
748.024	8047
748.136	7917
748.248	7525
748.359	8592
748.471	8450
748.583	7429
748.694	7805
748.806	9488
748.918	7665
749.029	7861
749.141	7764
749.252	8780
749.364	7005
749.475	8537
749.587	7673
749.698	7350
749.809	8299
749.921	8193
750.032	6764
750.144	6944
750.255	7262
750.366	7168
750.478	7141
750.589	7714
750.700	6148
750.811	8192
750.923	6575
751.034	7679
751.145	8345
751.256	7309
751.367	5222
751.479	6617
751.590	6870
751.701	7394
751.812	5774
751.923	6190
752.034	7767
752.145	7726
752.256	7270
752.367	6489
752.478	6352
752.589	7768
752.700	6335
752.811	6665
752.922	6077
753.032	7803
753.143	6464
753.254	6766
753.365	7417
753.476	7700
753.586	6879
753.697	6373
753.808	6043
753.919	6669
754.029	6785
754.140	6115
754.251	6375
754.361	7547
754.472	7163
754.582	6801
754.693	6860
754.804	7617
754.914	6600
755.025	5745
755.135	6926
755.246	7536
755.356	5485
755.466	7407
755.577	6013
755.687	6498
755.798	5722
755.908	6825
756.018	5855
756.129	6835
756.239	6575
756.349	7139
756.460	6720
756.570	7793
756.680	6284
756.790	7825
756.900	7084
757.011	6411
757.121	6155
757.231	7209
757.341	6259
757.451	7380
757.561	5911
757.671	7371
757.781	6536
757.891	6974
758.001	6023
758.111	6670
758.221	8523
758.331	7843
758.441	7087
758.551	7598
758.661	7954
758.771	8459
758.880	6969
758.990	7745
759.100	7653
759.210	7370
759.320	7393
759.429	7850
759.539	8094
759.649	8698
759.758	9838
759.868	11190
759.978	10942
760.087	11945
760.197	11312
760.307	11438
760.416	9824
760.526	9709
760.635	11123
760.745	10623
760.854	11605
760.964	13792
761.073	12813
761.182	13127
761.292	11589
761.401	10994
761.511	8308
761.620	9000
761.729	9508
761.839	9026
761.948	8992
762.057	9158
762.166	9680
762.276	9329
762.385	10270
762.494	9242
762.603	9386
762.712	9861
762.822	9347
762.931	9640
763.040	8985
763.149	9572
763.258	10354
763.367	11168
763.476	11674
763.585	11521
763.694	11173
763.803	11930
763.912	12731
764.021	13106
764.130	12714
764.238	14641
764.347	15386
764.456	16383
764.565	16004
764.674	18068
764.783	20180
764.891	21167
765.000	22451
765.109	26032
765.217	28945
765.326	34579
765.435	40944
765.543	49184
765.652	61794
765.761	81824
765.869	110870
765.978	164582
766.086	253911
766.195	421665
766.303	659582
766.412	632174
766.520	619550
766.629	610321
766.737	357680
766.846	219034
766.954	147571
767.062	107167
767.171	80929
767.279	64824
767.387	49653
767.496	43009
767.604	36930
767.712	32735
767.820	30128
767.928	27384
768.037	24871
768.145	24769
768.253	23444
768.361	22153
768.469	21577
768.577	22538
768.685	23814
768.793	26044
768.901	26677
769.009	31026
769.117	37784
769.225	48697
769.333	68284
769.441	106814
769.549	175245
769.657	337504
769.765	580336
769.873	566883
769.981	530444
770.088	282925
770.196	150433
770.304	95585
770.412	67506
770.519	53100
770.627	41710
770.735	34567
770.842	29540
770.950	26707
771.058	23713
771.165	23352
771.273	20903
771.380	20647
771.488	20922
771.595	21655
771.703	19700
771.810	18507
771.918	17474
772.025	19211
772.133	19310
772.240	18865
772.348	20938
772.455	19932
772.562	17592
772.670	17342
772.777	17565
772.884	17344
772.991	15013
773.099	17224
773.206	14896
773.313	16194
773.420	15576
773.528	15725
773.635	13408
773.742	16159
773.849	13808
773.956	15553
774.063	13813
774.170	15130
774.277	15073
774.384	13774
774.491	13537
774.598	14824
774.705	13097
774.812	14029
774.919	12573
775.026	13521
775.133	13229
775.239	13407
775.346	12485
775.453	12344
775.560	11466
775.667	12648
775.773	11410
775.880	12358
775.987	11728
776.093	12396
776.200	11847
776.307	10166
776.413	10468
776.520	12053
776.627	11036
776.733	10750
776.840	8719
776.946	14062
777.053	10915
777.159	11757
777.266	9273
777.372	12047
777.478	11254
777.585	11751
777.691	9152
777.798	11822
777.904	10423
778.010	10514
778.117	11188
778.223	9961
778.329	9372
778.435	9145
778.542	11143
778.648	9013
778.754	8414
778.860	9909
778.966	9414
779.072	9461
779.178	9066
779.284	8671
779.391	7967
779.497	9681
779.603	11979
779.708	13179
779.815	22739
779.920	71299
780.026	117577
780.132	21411
780.238	9354
780.344	9211
780.450	10170
780.556	7923
780.661	7344
780.767	9894
780.873	6842
780.979	7386
781.085	8657
781.190	7685
781.296	6755
781.402	7874
781.507	6935
781.613	7042
781.719	6946
781.824	8868
781.930	7072
782.035	7487
782.141	7788
782.246	6289
782.352	6578
782.457	7207
782.563	6583
782.668	7155
782.773	6035
782.879	6008
782.984	7773
783.090	7153
783.195	7243
783.300	8291
783.405	6499
783.511	5650
783.616	6955
783.721	6892
783.826	5160
783.932	6034
784.037	6756
784.142	6372
784.247	6426
784.352	7004
784.457	6384
784.562	6064
784.667	6323
784.772	6112
784.877	4600
784.982	7276
785.087	5612
785.192	5722
785.297	4930
785.402	5993
785.507	5119
785.611	5525
785.716	4686
785.821	6248
785.926	6310
786.031	6972
786.135	5430
786.240	5070
786.345	4386
786.450	4945
786.554	4768
786.659	5455
786.763	4696
786.868	5563
786.973	6131
787.077	4353
787.182	4252
787.286	5336
787.391	6212
787.495	4337
787.600	3766
787.704	5594
787.809	5053
787.913	5588
788.017	4663
788.122	6136
788.226	3951
788.330	3245
788.435	4070
788.539	5125
788.643	4580
788.747	4386
788.852	4458
788.956	4210
789.060	4713
789.164	4990
789.268	3970
789.372	5236
789.476	3537
789.580	3840
789.684	3463
789.788	5204
789.892	4838
789.996	4677
790.100	3350
790.204	4899
790.308	5273
790.412	3292
790.516	3535
790.620	4243
790.724	4884
790.828	3883
790.931	3083
791.035	4703
791.139	3667
791.242	4011
791.346	3851
791.450	4617
791.554	3758
791.657	2942
791.761	4137
791.864	4303
791.968	4643
792.072	4466
792.175	2492
792.279	4137
792.382	3772
792.486	2868
792.589	3382
792.693	4073
792.796	3178
792.899	3949
793.003	3826
793.106	2489
793.209	4182
793.313	4184
793.416	2034
793.519	3663
793.623	4918
793.726	5001
793.829	2949
793.932	3162
794.035	2260
794.138	4934
794.242	5003
794.345	4234
794.448	4791
794.551	11149
794.654	36510
794.757	65101
794.860	12101
794.963	5008
795.066	3628
795.169	4374
795.272	2279
795.375	4664
795.477	2421
795.580	3221
795.683	1923
795.786	3584
795.889	2444
795.991	3952
796.094	3812
796.197	2275
796.300	4121
796.402	3640
796.505	2629
796.608	2639
796.710	3933
796.813	4207
796.915	3088
797.018	4597
797.120	3992
797.223	2129
797.326	3589
797.428	2910
797.530	2961
797.633	2705
797.735	3673
797.838	3519
797.940	4527
798.042	2460
798.145	1295
798.247	2712
798.349	1392
798.452	3160
798.554	2227
798.656	2873
798.758	4804
798.860	3751
798.962	2869
799.065	2375
799.167	1353
799.269	3807
799.371	4065
799.473	4938
799.575	3728
799.677	2971
799.779	3808
799.881	2387
799.983	3501
800.085	3015
800.187	2970
800.289	1772
800.390	2254
800.492	3964
800.594	3596
800.696	2486
800.798	1939
800.899	2982
801.001	2760
801.103	3129
801.205	1926
801.306	2884
801.408	2210
801.509	3209
801.611	3050
801.713	2858
801.814	1071
801.916	1647
802.017	1854
802.119	1762
802.220	2892
802.322	1890
802.423	3007
802.525	2166
802.626	2191
802.727	3017
802.829	2368
802.930	701
803.031	3077
803.133	2155
803.234	2108
803.335	2781
803.436	1488
803.538	2789
803.639	1193
803.740	4412
803.841	2380
803.942	2925
804.043	2426
804.144	2104
804.245	2598
804.346	1512
804.447	1117
804.548	3109
804.649	2303
804.750	1543
804.851	2159
804.952	2473
805.053	1882
805.154	1335
805.255	2152
805.355	2242
805.456	1373
805.557	1967
805.658	1161
805.758	2396
805.859	1920
805.960	2579
806.061	1587
806.161	1849
806.262	1286
806.362	1273
806.463	1677
806.564	2307
806.664	2201
806.765	2004
806.865	1985
806.966	1919
807.066	718
807.166	2953
807.267	1935
807.367	2035
807.468	2725
807.568	581
807.668	2384
807.769	3100
807.869	615
807.969	2406
808.069	2339
808.170	2015
808.270	633
808.370	2082
808.470	1835
808.570	869
808.670	1286
808.770	1776
808.870	1838
808.970	2856
809.070	1714
809.170	1073
809.271	2654
809.370	1999
809.470	1818
809.570	1542
809.670	918
809.770	1225
809.870	2061
809.970	1938
810.070	1226
810.169	2801
810.269	501
810.369	2825
810.469	541
810.568	2026
810.668	642
810.768	993
810.867	1342
810.967	1220
811.066	929
811.166	1445
811.265	2192
811.365	1616
811.464	1864
811.564	1848
811.663	977
811.763	695
811.862	2325
811.962	2408
812.061	1897
812.160	1535
812.260	1433
812.359	1569
812.458	1123
812.557	4336
812.657	4480
812.756	3716
812.855	1665
812.954	1393
813.053	1158
813.153	1467
813.252	1204
813.351	2796
813.450	1006
813.549	2288
813.648	1185
813.747	2161
813.846	1917
813.945	868
814.044	2039
814.143	2346
814.242	1666
814.341	2391
814.439	1999
814.538	2361
814.637	1986
814.736	1712
814.835	2095
814.933	2590
815.032	2913
815.131	4508
815.229	6322
815.328	10615
815.427	7385
815.525	7323
815.624	5875
815.722	7007
815.821	5827
815.919	6690
816.018	5711
816.116	7454
816.215	5908
816.313	7486
816.412	8188
816.510	9563
816.609	8697
816.707	10262
816.805	9387
816.904	8406
817.002	9236
817.100	9317
817.198	9757
817.296	8400
817.395	8442
817.493	9063
817.591	6895
817.689	8548
817.787	8288
817.885	9135
817.983	8754
818.081	12132
818.179	19182
818.277	40130
818.375	33890
818.473	12424
818.571	8600
818.669	9310
818.767	9509
818.865	8349
818.963	7040
819.061	9850
819.158	10262
819.256	19823
819.354	32757
819.452	70381
819.549	44369
819.647	15521
819.745	8637
819.842	8247
819.940	8559
820.038	7379
820.135	5876
820.233	7637
820.330	6533
820.428	5787
820.525	6784
820.623	6979
820.720	5462
820.818	6841
820.915	7199
821.012	6810
821.110	4618
821.207	7104
821.304	5763
821.402	6618
821.499	6687
821.596	6252
821.693	5680
821.791	6649
821.888	5338
821.985	7669
822.082	4878
822.179	6081
822.276	6011
822.373	5115
822.470	5068
822.567	6298
822.664	4323
822.761	6109
822.858	5733
822.955	6202
823.052	4872
823.149	5323
823.246	5835
823.343	4154
823.440	3419
823.536	5521
823.633	5125
823.730	4850
823.827	4638
823.923	5401
824.020	5934
824.117	6146
824.213	5025
824.310	4608
824.407	3690
824.503	5640
824.600	4151
824.696	4464
824.793	5690
824.889	5982
824.986	4955
825.082	4054
825.179	4427
825.275	5133
825.371	5369
825.468	5365
825.564	1946
825.660	4997
825.757	6051
825.853	5232
825.949	3255
826.045	3373
826.142	4670
826.238	4523
826.334	4052
826.430	3847
826.526	2860
826.622	3712
826.718	4657
826.814	5627
826.910	5146
827.006	2988
827.102	2697
827.198	4639
827.294	4501
827.390	5165
827.486	3637
827.582	1597
827.678	2295
827.774	6229
827.869	2196
827.965	4009
828.061	2708
828.157	4175
828.252	4052
828.348	3407
828.444	3909
828.539	3090
828.635	3051
828.731	4527
828.826	2896
828.922	4238
829.017	4438
829.113	5250
829.208	2286
829.304	3880
829.399	5729
829.495	4345
829.590	2736
829.685	2953
829.781	4658
829.876	4219
829.971	1795
830.066	2689
830.162	2987
830.257	5144
830.352	3943
830.447	3516
830.543	2924
830.638	2963
830.733	4478
830.828	2679
830.923	3496
831.018	3870
831.113	4593
831.208	2819
831.303	2108
831.398	2667
831.493	2647
831.588	5660
831.683	2802
831.778	2321
831.873	2249
831.967	4116
832.062	3434
832.157	3614
832.252	3048
832.346	3102
832.441	3694
832.536	3020
832.631	3698
832.725	3245
832.820	2500
832.914	3048
833.009	2205
833.104	2429
833.198	2818
833.293	2446
833.387	3020
833.482	2973
833.576	2610
833.670	3877
833.765	2629
833.859	4243
833.954	3661
834.048	3565
834.142	2887
834.237	1944
834.331	2154
834.425	3221
834.519	1632
834.613	2787
834.708	2342
834.802	3534
834.896	1858
834.990	2161
835.084	1836
835.178	2422
835.272	1912
835.366	2920
835.460	3519
835.554	2582
835.648	2238
835.742	1378
835.836	1506
835.930	2040
836.024	2498
836.117	3365
836.211	1886
836.305	2230
836.399	1927
836.493	1663
836.586	2848
836.680	2174
836.774	1535
836.867	2481
836.961	239
837.055	1952
837.148	1210
837.242	2239
837.335	1717
837.429	2571
837.522	531
837.616	1729
837.709	1496
837.803	2380
837.896	2646
837.989	2249
838.083	1506
838.176	2278
838.269	1332
838.363	2295
838.456	1544
838.549	3172
838.642	2406
838.735	1884
838.829	2166
838.922	2104
839.015	1493
839.108	1466
839.201	1379
839.294	2311
839.387	1253
839.480	1218
839.573	1868
839.666	1531
839.759	1495
839.852	1226
839.945	1571
840.038	1396
840.131	562
840.223	1027
840.316	1615
840.409	2552
840.502	1504
840.594	2985
840.687	-475
840.780	1117
840.873	278
840.965	1289
841.058	2231
841.150	2647
841.243	1043
841.336	1607
841.428	931
841.521	1070
841.613	1261
841.706	2407
841.798	971
841.890	2045
841.983	-298
842.075	1164
842.167	728
842.260	2113
842.352	1699
842.444	2403
842.537	2121
842.629	2853
842.721	223
842.813	2280
842.905	455
842.997	2101
843.090	922
843.182	1644
843.274	780
843.366	2355
843.458	4132
843.550	3764
843.642	1682
843.734	1771
843.826	807
843.918	1971
844.009	985
844.101	1372
844.193	765
844.285	1348
844.377	1591
844.469	2012
844.560	786
844.652	1329
844.744	982
844.835	1986
844.927	1328
845.019	2151
845.110	818
845.202	1820
845.293	609
845.385	712
845.476	708
845.568	1999
845.659	421
845.751	2438
845.842	583
845.934	920
846.025	1048
846.116	1294
846.208	544
846.299	238
846.390	901
846.482	1690
846.573	1088
846.664	439
846.755	1176
846.846	2159
846.937	263
847.029	1416
847.120	336
847.211	973
847.302	1324
847.393	713
847.484	1440
847.575	853
847.666	521
847.757	1441
847.847	516
847.938	2222
848.029	1916
848.120	1168
848.211	420
848.302	763
848.392	1155
848.483	1621
848.574	992
848.664	1031
848.755	1044
848.846	826
848.936	1114
849.027	1155
849.118	1367
849.208	1977
849.299	2368
849.389	4772
849.480	8879
849.570	19352
849.661	34778
849.751	64122
849.841	27251
849.932	5422
850.022	1893
850.112	2135
850.203	1094
850.293	1038
850.383	601
850.474	1212
850.564	395
850.654	859
850.744	1181
850.834	571
850.924	835
851.014	1872
851.104	1065
851.194	1012
851.284	653
851.374	1428
851.464	874
851.554	1593
851.644	752
851.734	2002
851.824	1431
851.914	2573
852.004	2127
852.094	2107
852.183	650
852.273	1436
852.363	92
852.452	1563
852.542	1335
852.632	657
852.721	1255
852.811	1093
852.901	1866
852.990	1754
853.080	2350
853.169	1952
853.259	2051
853.348	2010
853.438	3644
853.527	4939
853.617	5844
853.706	10893
853.795	20112
853.885	42294
853.974	77027
854.063	134711
854.152	194757
854.242	100178
854.331	25871
854.420	10650
854.509	7443
854.598	5140
854.687	4272
854.777	4201
854.866	2593
854.955	2154
855.044	1705
855.133	1451
855.222	1625
855.311	1425
855.400	1292
855.488	1051
855.577	714
855.666	1480
855.755	1297
855.844	2183
855.933	1738
856.021	1438
856.110	1163
856.199	398
856.288	48
856.376	616
856.465	559
856.554	828
856.642	548
856.731	2365
856.819	727
856.908	485
856.996	604
857.085	1239
857.173	-357
857.262	89
857.350	729
857.438	1295
857.527	867
857.615	885
857.703	1242
857.792	1192
857.880	-414
857.968	410
858.056	344
858.145	563
858.233	324
858.321	586
858.409	1965
858.497	1011
858.585	66
858.673	1429
858.761	-213
858.849	378
858.937	181
859.025	989
859.113	840
859.201	678
859.289	586
859.377	1593
859.465	584
859.552	1777
859.640	-23
859.728	914
859.816	451
859.903	1071
859.991	-436
860.079	870
860.166	24
860.254	921
860.342	464
860.429	808
860.517	576
860.604	699
860.692	684
860.779	167
860.867	456
860.954	1373
861.042	526
861.129	1266
861.216	1327
861.304	1430
861.391	1314
861.478	420
861.565	1666
861.653	1473
861.740	32
861.827	1015
861.914	1052
862.001	484
862.089	641
862.176	1410
862.263	252
862.350	1215
862.437	1019
862.524	1152
862.611	930
862.698	1426
862.785	1503
862.871	1188
862.958	893
863.045	1579
863.132	982
863.219	1317
863.306	-312
863.392	1658
863.479	988
863.566	934
863.652	532
863.739	512
863.826	1427
863.912	2013
863.999	382
864.086	1073
864.172	1402
864.259	1767
864.345	749
864.432	1783
864.518	1471
864.604	2188
864.691	2183
864.777	2673
864.863	2603
864.950	4715
865.036	4774
865.122	9667
865.209	10407
865.295	9129
865.381	8731
865.467	8651
865.553	10066
865.639	12165
865.726	16101
865.812	27494
865.898	46316
865.984	68005
866.070	111943
866.156	128182
866.242	51050
866.328	17130
866.414	11252
866.499	9926
866.585	8150
866.671	8149
866.757	7837
866.843	7893
866.928	6771
867.014	7113
867.100	6528
867.186	7150
867.271	6612
867.357	7339
867.442	6675
867.528	6927
867.614	5322
867.699	6891
867.785	5901
867.870	6503
867.956	6023
868.041	6391
868.127	5657
868.212	6600
868.297	5936
868.383	6137
868.468	4826
868.553	6878
868.639	6133
868.724	6900
868.809	6474
868.894	6269
868.979	5117
869.065	6098
869.150	4315
869.235	5122
869.320	4971
869.405	5010
869.490	5771
869.575	5439
869.660	3932
869.745	5036
869.830	5676
869.915	4579
870.000	4020
870.085	4394
870.169	5533
870.254	6085
870.339	3288
870.424	4023
870.509	4352
870.593	5973
870.678	6066
870.763	4757
870.847	4171
870.932	4745
871.016	5622
871.101	3430
871.186	4355
871.270	6100
871.355	3693
871.439	4131
871.523	5850
871.608	4106
871.692	4101
871.777	4700
871.861	5024
871.945	4293
872.030	4650
872.114	5120
872.198	3740
872.282	3623
872.367	3283
872.451	4742
872.535	3677
872.619	4968
872.703	4512
872.787	4530
872.871	4501
872.955	3786
873.039	2278
873.123	3779
873.207	4987
873.291	3321
873.375	3462
873.459	4584
873.543	4370
873.627	3831
873.711	2704
873.794	4791
873.878	3626
873.962	2655
874.045	3509
874.129	3350
874.137	3369
874.213	3551
874.245	3714
874.296	3985
874.352	3193
874.380	2801
874.460	3182
874.464	3196
874.547	2759
874.568	3161
874.631	4371
874.676	4344
874.714	4286
874.784	4258
874.798	4256
874.881	3682
874.892	3510
874.965	2443
874.999	3038
875.048	3732
875.107	3736
875.131	3752
875.215	2219
875.215	2220
875.298	2569
875.323	2613
875.381	2706
875.430	4015
875.465	4855
875.538	4382
875.548	4325
875.631	2850
875.646	2734
875.714	2242
875.753	2527
875.798	2934
875.861	4473
875.881	4859
875.964	3638
875.968	3560
876.047	2480
876.076	2928
876.130	3765
876.183	3895
876.213	3942
876.291	5122
876.296	5195
876.379	3340
876.398	3301
876.462	3115
876.506	2694
876.545	2446
876.613	3943
876.628	4278
876.711	4109
876.721	4183
876.794	4739
876.828	4511
876.877	3856
876.935	3783
876.960	3907
877.043	3263
877.043	3268
877.125	4971
877.150	5159
877.208	5160
877.258	4472
877.291	4089
877.365	2839
877.374	2676
877.456	3659
877.472	3505
877.539	3460
877.579	4238
877.622	4747
877.687	4470
877.704	4457
877.787	4412
877.794	4442
877.869	4878
877.901	5158
877.952	5026
878.008	3673
878.034	3254
878.115	3387
878.117	3401
878.199	3824
878.222	4222
878.282	5232
878.329	5319
878.364	5340
878.437	5537
878.447	5457
878.529	3320
878.544	3267
878.611	3920
878.651	3960
878.694	4023
878.758	4687
878.776	4894
878.858	5266
878.865	5324
878.941	5023
878.972	4160
879.023	3174
879.078	3746
879.105	4297
879.185	5291
879.187	5307
879.269	5590
879.292	5607
879.351	5340
879.399	4913
879.433	4571
879.506	4352
879.516	4428
879.598	5348
879.613	5197
879.680	4112
879.720	4465
879.762	5071
879.827	4970
879.844	4810
879.926	5093
879.933	5010
880.007	4667
880.040	4480
880.089	4417
880.147	4802
880.171	4959
880.253	6220
880.254	6211
880.335	5636
880.360	5902
880.417	7122
880.467	7532
880.499	7722
880.574	8765
880.580	8788
880.662	7058
880.680	6701
880.744	4868
880.787	4300
880.825	4588
880.893	5235
880.907	5326
880.989	4794
881.000	4804
881.070	5488
881.106	5745
881.152	5425
881.213	5123
881.233	5137
881.315	4907
881.319	4945
881.396	6173
881.426	5978
881.478	5782
881.532	6456
881.559	6653
881.639	6015
881.641	5990
881.722	5205
881.745	4899
881.803	5728
881.852	6370
881.885	6032
881.958	5082
881.966	5114
882.047	5790
882.064	5787
882.129	4737
882.171	4389
882.210	4415
882.277	4062
882.291	4216
882.372	5778
882.383	5877
882.454	6851
882.489	7493
882.535	7445
882.596	6900
882.616	6814
882.697	7009
882.702	6953
882.778	5166
882.808	4697
882.859	4736
882.914	4679
882.940	4886
883.020	5649
883.021	5671
883.102	6388
883.127	6698
883.183	7667
883.233	8066
883.264	7248
883.339	5258
883.345	5167
883.426	3786
883.445	3590
883.507	4578
883.551	5262
883.587	5991
883.657	7476
883.668	7601
883.749	7586
883.763	7605
883.830	6239
883.869	5177
883.910	4912
883.975	5175
883.991	5420
884.072	6453
884.081	6539
884.152	8115
884.187	8714
884.233	8675
884.292	8588
884.314	7915
884.394	5169
884.398	5026
884.475	4278
884.504	3917
884.555	4252
884.610	4730
884.636	5135
884.716	6341
884.716	6374
884.797	8778
884.821	9227
884.877	8056
884.927	6933
884.958	6702
885.033	6356
885.038	6289
885.118	5018
885.139	4623
885.199	4661
885.244	4739
885.279	5517
885.350	7219
885.359	7548
885.439	10265
885.456	10606
885.520	7938
885.561	6712
885.600	6505
885.667	5982
885.680	6243
885.760	7281
885.773	7441
885.840	6292
885.878	5760
885.920	6023
885.984	6162
886.000	6378
886.080	7460
886.089	7536
886.160	7888
886.195	8150
886.240	8172
886.300	7877
886.320	7922
886.400	8383
886.406	8364
886.480	6600
886.511	5997
886.560	6188
886.616	6022
886.640	6271
886.720	7385
886.722	7383
886.800	6939
886.827	6840
886.879	7129
886.932	7262
886.959	7605
887.038	8923
887.039	8936
887.119	7335
887.143	7043
887.198	7527
887.248	7610
887.278	7569
887.354	7536
887.358	7587
887.437	8124
887.459	8265
887.517	8463
887.564	8468
887.596	7745
887.669	6067
887.676	5963
887.755	4468
887.774	4109
887.835	4996
887.880	5680
887.914	6747
887.985	8757
887.994	8938
888.073	10218
888.090	10469
888.153	11365
888.195	11831
888.232	10258
888.300	7445
888.311	7472
888.391	7369
888.405	7331
888.470	6632
888.510	6157
888.549	6570
888.615	7295
888.628	7673
888.708	9760
888.720	10052
888.787	9220
888.825	8649
888.866	7664
888.930	6180
888.945	6441
889.024	7741
889.035	7881
889.103	8748
889.140	9153
889.182	8273
889.245	7005
889.261	7326
889.340	8667
889.349	8801
889.419	8402
889.454	8145
889.498	7403
889.559	6340
889.577	6982
889.656	9711
889.664	9954
889.735	8923
889.768	8386
889.814	8572
889.873	8756
889.978	8108
890.083	7997
890.187	9457
890.292	9055
890.397	8814
890.501	8032
890.606	5720
890.710	8937
890.815	10704
890.919	8963
891.024	7555
891.128	5455
891.233	6088
891.337	9645
891.442	9256
891.546	9341
891.650	6423
891.755	6490
891.859	8422
891.963	10464
892.068	8962
892.172	7663
892.276	5495
892.380	7444
892.484	9598
892.589	8966
892.693	7598
892.797	4896
892.901	5306
893.005	7160
893.109	10745
893.213	10324
893.317	7719
893.421	5950
893.525	5336
893.629	6741
893.733	9134
893.837	8068
893.941	6981
894.045	5909
894.148	5502
894.252	9814
894.356	10519
894.460	10582
894.564	7792
894.667	7553
894.771	4980
894.875	4974
894.978	7481
895.082	8731
895.186	8463
895.289	7021
895.393	6216
895.496	9375
895.600	6584
895.703	6218
895.807	6493
895.910	6709
896.014	6981
896.117	6333
896.221	7213
896.324	8038
896.427	5329
896.531	5560
896.634	6277
896.737	6303
896.840	7599
896.944	8391
897.047	8843
897.150	6297
897.253	5009
897.356	4966
897.460	4658
897.563	5881
897.666	8980
897.769	8523
897.872	5570
897.975	6485
898.078	6175
898.181	5780
898.284	6404
898.387	8549
898.490	7981
898.593	6338
898.695	5477
898.798	5708
898.901	5100
899.004	6839
899.107	5876
899.209	5985
899.312	8639
899.415	5439
899.518	4053
899.620	5248
899.723	5314
899.826	5901
899.928	6011
900.031	6872
900.133	7612
900.236	5712
900.338	3833
900.441	5137
900.543	5994
900.646	6687
900.748	6598
900.851	7133
900.953	5087
901.055	5698
901.158	6209
901.260	5663
901.362	4413
901.465	4680
901.567	7299
901.669	8018
901.771	5721
901.873	5740
901.976	6610
902.078	6403
902.180	3856
902.282	5209
902.384	7162
902.486	9012
902.588	7792
902.690	5050
902.792	3885
902.894	6413
902.996	7224
903.098	7170
903.200	4653
903.302	4517
903.404	5063
903.505	5441
903.607	5748
903.709	8990
903.811	8623
903.913	5818
904.014	3844
904.116	4306
904.218	5049
904.319	5361
904.421	9109
904.523	6594
904.624	5880
904.726	4537
904.827	4044
904.929	4033
905.030	5158
905.132	8900
905.233	6821
905.335	4982
905.436	4083
905.537	4190
905.639	4812
905.740	6067
905.841	7302
905.943	6538
906.044	5455
906.145	4899
906.247	4081
906.348	5142
906.449	6518
906.550	7334
906.651	4568
906.752	5022
906.854	4500
906.955	4485
907.056	5015
907.157	7370
907.258	6932
907.359	3775
907.460	4821
907.561	4509
907.662	5060
907.762	6080
907.863	5967
907.964	6761
908.065	5639
908.166	4725
908.267	4679
908.367	4454
908.468	4744
908.569	6140
908.670	6036
908.770	6590
908.871	5907
908.971	6241
909.072	5447
909.173	5196
909.273	5356
909.374	6927
909.474	5722
909.575	4385
909.675	4962
909.776	5580
909.876	4868
909.977	5556
910.077	5937
910.177	7284
910.278	5224
910.378	4991
910.478	4895
910.579	6080
910.679	5740
910.779	6058
910.879	5623
910.980	5081
911.080	5722
911.180	4290
911.280	4374
911.380	3938
911.480	4680
911.580	6127
911.680	5367
911.780	6686
911.880	6110
911.980	4293
912.080	5494
912.180	5945
912.280	5724
912.380	4981
912.480	3665
912.580	5165
912.679	4972
912.779	6657
912.879	6074
912.979	4824
913.078	3714
913.178	3616
913.278	3913
913.377	4078
913.477	4494
913.577	5395
913.676	6109
913.776	6810
913.875	5454
913.975	5011
914.074	5674
914.174	5347
914.273	4781
914.373	6328
914.472	5026
914.572	4308
914.671	3847
914.770	4918
914.870	4322
914.969	5221
915.068	6562
915.167	6595
915.267	5080
915.366	5037
915.465	5398
915.564	5379
915.663	5765
915.763	5863
915.862	7514
915.961	6735
916.060	4638
916.159	3859
916.258	3815
916.357	4880
916.456	5751
916.555	5705
916.654	5586
916.752	7100
916.851	6120
916.950	4681
917.049	4285
917.148	4327
917.247	4199
917.345	4284
917.444	4344
917.543	5226
917.642	5084
917.740	6416
917.839	7551
917.937	8196
918.036	6434
918.135	5933
918.233	4798
918.332	5786
918.430	4997
918.529	5249
918.627	6159
918.726	7133
918.824	5907
918.923	5390
919.021	5194
919.119	5276
919.218	5110
919.316	6040
919.414	5455
919.512	7422
919.611	6516
919.709	6428
919.807	7927
919.905	8091
920.003	7670
920.102	7811
920.200	8349
920.298	8947
920.396	7167
920.494	6851
920.592	6629
920.690	7110
920.788	7574
920.886	8121
920.984	8307
921.082	9356
921.180	9596
921.277	9648
921.375	11009
921.473	14823
921.571	13336
921.669	12123
921.766	11359
921.864	12420
921.962	12788
922.060	11146
922.157	11937
922.255	13195
922.352	12163
922.450	14382
922.548	14281
922.645	16351
922.743	20769
922.840	31140
922.938	31720
923.035	29861
923.133	29008
923.230	34753
923.327	38586
923.425	35388
923.522	35254
923.619	32996
923.717	30401
923.814	29995
923.911	29237
924.008	30149
924.106	27762
924.203	28520
924.300	28852
924.397	29056
924.494	29464
924.591	27568
924.688	27459
924.786	28545
924.883	28408
924.979	28910
925.077	27568
925.173	28169
925.270	27561
925.367	27946
925.464	29256
925.561	30467
925.658	29296
925.755	25583
925.852	29114
925.948	27324
926.045	27750
926.142	29159
926.239	27136
926.335	23082
926.432	26984
926.529	27971
926.625	29399
926.722	23655
926.818	24072
926.915	27920
927.011	24779
927.108	26418
927.204	25706
927.301	23462
927.397	29130
927.494	28593
927.590	20548
927.687	24389
927.783	28885
927.879	28058
927.976	23942
928.072	22865
928.168	27262
928.264	25304
928.361	24771
928.457	26975
928.553	21940
928.649	24154
928.745	24266
928.841	21492
928.937	24236
929.033	23328
929.129	23741
929.225	27441
929.321	22289
929.417	21624
929.513	24867
929.609	22382
929.705	22027
929.801	24598
929.897	20507
929.993	21219
930.089	22668
930.184	21017
930.280	23825
930.376	27895
930.471	20193
930.567	19584
930.663	20749
930.758	19720
930.854	20696
930.950	20311
931.045	19189
931.141	21475
931.236	25026
931.332	21134
931.427	18692
931.523	24582
931.618	20639
931.714	16594
931.809	18846
931.905	21734
932.000	14864
932.095	16865
932.191	23397
932.286	24601
932.381	18969
932.476	16766
932.572	19053
932.667	16264
932.762	18003
932.857	21188
932.952	23843
933.047	19019
933.142	16842
933.237	20090
933.332	21448
933.427	22506
933.522	18244
933.617	16857
933.712	18136
933.807	23247
933.902	23545
933.997	22784
934.092	15895
934.187	19588
934.282	19710
934.376	20636
934.471	20107
934.566	16548
934.661	17121
934.755	19950
934.850	20416
934.945	16584
935.039	14860
935.134	14317
935.228	18745
935.323	23428
935.417	15684
935.512	13251
935.606	15545
935.701	18484
935.795	20071
935.890	17242
935.984	13851
936.079	14091
936.173	16747
936.267	15534
936.362	13227
936.456	18146
936.550	21184
936.644	16783
936.738	12876
936.833	13218
936.927	12445
937.021	15096
937.115	17271
937.209	17138
937.303	14242
937.397	12505
937.491	16230
937.585	17401
937.679	15382
937.773	12881
937.867	11915
937.961	12842
938.055	18912
938.149	15607
938.243	11182
938.337	11638
938.430	13979
938.524	17298
938.618	14033
938.712	12111
938.805	13533
938.899	18425
938.993	18521
939.086	11431
939.180	9860
939.274	12508
939.367	16377
939.461	15629
939.554	12981
939.648	12436
939.741	11760
939.835	15696
939.928	17939
940.022	16373
940.115	13762
940.208	16525
940.302	17957
940.395	17505
940.488	13401
940.582	12437
940.675	11172
940.768	12567
940.861	16614
940.954	15191
941.048	10135
941.141	9623
941.234	11600
941.327	13168
941.420	14137
941.513	13930
941.606	10890
941.699	11676
941.792	15194
941.885	13360
941.978	13226
942.071	12998
942.164	9087
942.257	10355
942.349	11857
942.442	13084
942.535	9241
942.628	10589
942.721	11202
942.813	11703
942.906	12760
942.999	11102
943.091	10033
943.184	11164
943.277	11092
943.369	8874
943.462	8245
943.554	11419
943.647	10929
943.739	13968
943.832	13671
943.924	7225
944.017	8447
944.109	10103
944.201	10124
944.294	9688
944.386	10710
944.478	9632
944.571	8433
944.663	9359
944.755	11183
944.847	12371
944.940	9908
945.032	6615
945.124	7661
945.216	11177
945.308	10647
945.400	10130
945.492	10308
945.584	13662
945.676	12332
945.768	10688
945.860	12161
945.952	12673
946.044	10626
946.136	9669
946.228	9568
946.320	10416
946.412	11392
946.503	12899
946.595	11450
946.687	8816
946.779	6574
946.870	9001
946.962	8654
947.054	9381
947.145	10903
947.237	8914
947.329	10357
947.420	9896
947.512	7972
947.603	6738
947.695	8451
947.786	8203
947.878	9024
947.969	10214
948.061	11281
948.152	8971
948.243	6374
948.335	6635
948.426	7636
948.517	9482
948.609	9849
948.700	10083
948.791	7778
948.882	6774
948.973	6451
949.065	9040
949.156	8987
949.247	7245
949.338	7029
949.429	5890
949.520	7263
949.611	9898
949.702	9604
949.793	8346
949.884	9105
949.975	6942
950.066	5929
950.157	6842
950.247	7669
950.338	5969
950.429	6838
950.520	6653
950.611	6957
950.701	9616
950.792	10159
950.883	8764
950.973	8197
951.064	8879
951.155	9406
951.245	9617
951.336	9552
951.427	10480
951.517	10757
951.608	8790
951.698	6411
951.788	5874
951.879	6510
951.969	7303
952.060	6618
952.150	8286
952.240	10548
952.331	9783
952.421	8443
952.511	5231
952.602	5959
952.692	5205
952.782	5755
952.872	6772
952.962	7180
953.052	6675
953.143	6525
953.233	6701
953.323	8018
953.413	8987
953.503	7641
953.593	7985
953.683	6526
953.773	5522
953.863	5697
953.953	6719
954.042	6609
954.132	7323
954.222	6444
954.312	6140
954.402	6078
954.492	6832
954.581	7811
954.671	7537
954.761	6653
954.850	6970
954.940	5064
955.030	5185
955.119	6264
955.209	6106
955.298	7066
955.388	8073
955.477	7099
955.567	5398
955.656	5406
955.746	6266
955.835	5903
955.925	6210
956.014	6944
956.103	9299
956.193	9420
956.282	7990
956.371	7344
956.461	7457
956.550	6950
956.639	6408
956.728	6508
956.817	6920
956.906	7550
956.995	7637
957.085	6609
957.174	6985
957.263	5896
957.352	7308
957.441	7478
957.530	6761
957.619	5392
957.708	6616
957.796	6386
957.885	6983
957.974	5099
958.063	6253
958.152	4873
958.241	5265
958.329	6180
958.418	6050
958.507	6717
958.596	8285
958.684	6134
958.773	5633
958.861	5989
958.950	5662
959.039	6092
959.127	7504
959.216	7494
959.304	6220
959.393	6778
959.481	7394
959.570	5589
959.658	5371
959.746	5882
959.835	7124
959.923	6640
960.011	6432
960.100	6769
960.188	8269
960.276	5918
960.365	5682
960.453	6463
960.541	4554
960.629	4701
960.717	5149
960.805	4201
960.893	6303
960.981	6804
961.069	9204
961.158	8967
961.245	9895
961.333	7471
961.421	6333
961.509	6326
961.597	6630
961.685	5423
961.773	6598
961.861	6358
961.949	7581
962.036	5322
962.124	5120
962.212	4997
962.299	5016
962.387	4637
962.475	5471
962.562	5462
962.650	6609
962.738	4692
962.825	4079
962.913	4812
963.000	5720
963.088	6411
963.175	6016
963.263	3992
963.350	6083
963.438	5254
963.525	5292
963.612	6147
963.700	5933
963.787	8991
963.874	6177
963.962	4527
964.049	4237
964.136	4579
964.223	4233
964.310	5412
964.398	5101
964.485	5213
964.572	6077
964.659	5354
964.746	4434
964.833	4166
964.920	4997
965.007	4843
965.094	5063
965.181	4795
965.268	6451
965.355	5793
965.441	5091
965.528	4617
965.615	6122
965.702	5634
965.789	5865
965.875	6273
965.962	5295
966.049	5073
966.136	7055
966.222	7110
966.309	6999
966.395	6461
966.482	7124
966.569	6568
966.655	5752
966.742	5864
966.828	5094
966.915	4506
967.001	4592
967.087	4223
967.174	4873
967.260	5441
967.347	5539
967.433	6071
967.519	6376
967.605	6320
967.692	6151
967.778	4952
967.864	4916
967.950	5319
968.036	4893
968.123	6008
968.209	5483
968.295	3801
968.381	5507
968.467	4418
968.553	4238
968.639	5781
968.725	5575
968.811	7045
968.897	5869
968.983	5916
969.069	4252
969.154	5184
969.240	5069
969.326	3407
969.412	4320
969.497	3628
969.583	3943
969.669	5489
969.755	5883
969.840	6123
969.926	9622
970.012	9619
970.097	10843
970.183	9735
970.268	7428
970.354	6054
970.439	4972
970.525	6343
970.610	5018
970.696	4996
970.781	5203
970.866	4034
970.952	4692
971.037	4606
971.122	5698
971.208	4910
971.293	5235
971.378	4936
971.463	4727
971.549	5264
971.634	5064
971.719	5647
971.804	4904
971.889	5365
971.974	5099
972.059	4960
972.144	5198
972.229	4592
972.314	4702
972.399	4724
972.484	4311
972.569	4365
972.654	3983
972.739	5865
972.824	5235
972.908	3692
972.993	3753
973.078	4911
973.163	5308
973.247	4211
973.332	3992
973.417	5162
973.501	4419
973.586	5415
973.671	4435
973.755	4034
973.840	4991
973.924	6541
974.009	8274
974.093	6840
974.178	8367
974.262	6267
974.346	5882
974.431	5264
974.515	5108
974.600	5933
974.684	5817
974.768	4640
974.852	6837
974.937	4623
975.021	5691
975.105	4995
975.189	4750
975.273	4723
975.358	4077
975.442	4050
975.526	5320
975.610	4786
975.694	4341
975.778	4929
975.862	5051
975.946	3396
976.030	6211
976.114	4644
976.198	5105
976.281	5144
976.365	5806
976.449	4472
976.533	4524
976.617	3857
976.700	5131
976.784	3737
976.868	4556
976.951	4093
977.035	4640
977.119	4321
977.202	5587
977.286	6303
977.369	8498
977.453	10236
977.536	7360
977.620	6606
977.703	7302
977.787	5470
977.870	6813
977.953	6132
978.037	4466
978.120	6284
978.203	5963
978.287	6278
978.370	5595
978.453	3850
978.536	4904
978.620	5982
978.703	6264
978.786	4705
978.869	4452
978.952	4058
979.035	6019
979.118	5708
979.201	4354
979.284	5624
979.367	5464
979.450	3925
979.533	5139
979.616	4387
979.699	4380
979.782	5041
979.865	4805
979.948	4048
980.030	4424
980.113	4479
980.196	4828
980.279	6082
980.361	4307
980.444	4846
980.526	6155
980.609	8960
980.692	8741
980.774	8229
980.857	6263
980.939	7017
981.022	6259
981.104	5722
981.187	5207
981.269	5750
981.352	5380
981.434	5236
981.516	5496
981.599	5821
981.681	5961
981.763	4429
981.846	4682
981.928	5431
982.010	4723
982.092	5821
982.174	6291
982.256	5001
982.339	6024
982.421	5380
982.503	5416
982.585	3931
982.667	5568
982.749	4723
982.831	5741
982.913	5152
982.995	6065
983.077	5074
983.158	6795
983.240	5238
983.322	8877
983.404	10712
983.486	8780
983.568	7970
983.649	8168
983.731	7571
983.813	6645
983.894	6312
983.976	6277
984.058	6931
984.139	7034
984.221	5276
984.302	6772
984.384	6010
984.465	6003
984.547	6094
984.628	6171
984.710	6985
984.791	6405
984.872	6192
984.954	5614
985.035	6368
985.116	6444
985.198	6442
985.279	6719
985.360	7030
985.441	6665
985.522	7080
985.604	6674
985.685	4311
985.766	7857
985.847	7939
985.928	5843
986.009	6356
986.090	6126
986.171	6863
986.252	6684
986.333	5919
986.414	6672
986.495	6577
986.576	7426
986.656	7372
986.737	8224
986.818	8246
986.899	6713
986.980	6359
987.060	7362
987.141	7099
987.222	8920
987.302	9536
987.383	8897
987.464	9071
987.544	8508
987.625	7594
987.705	9087
987.786	8764
987.866	7704
987.947	8339
988.027	8693
988.108	8194
988.188	8480
988.268	8154
988.349	8354
988.429	7597
988.509	7510
988.589	7117
988.670	5696
988.750	8482
988.830	6745
988.910	7925
988.990	7066
989.070	6769
989.151	6273
989.231	6856
989.311	7241
989.391	5882
989.471	7215
989.551	6583
989.631	6529
989.711	7845
989.791	6432
989.870	5673
989.950	7136
990.030	7300
990.110	7033
990.190	5638
990.269	5159
990.349	6620
990.429	6234
990.509	5487
990.588	5195
990.668	5120
990.747	6517
990.827	4989
990.907	6367
990.986	6145
991.066	5637
991.145	4016
991.225	6850
991.304	5743
991.383	6468
991.463	6411
991.542	6422
991.622	4861
991.701	4460
991.780	5251
991.859	5433
991.939	4519
992.018	5402
992.097	5770
992.176	4869
992.256	3979
992.335	5140
992.414	6407
992.493	4371
992.572	3947
992.651	6292
992.730	6197
992.809	4409
992.888	3956
992.967	5090
993.046	4431
993.125	3991
993.203	4164
993.282	5954
993.361	5076
993.440	4780
993.519	4460
993.597	4419
993.676	4004
993.755	5196
993.834	3848
993.912	3371
993.991	5698
994.069	4155
994.148	3773
994.226	3297
994.305	4096
994.384	3672
994.462	5211
994.540	4027
994.619	3611
994.697	4702
994.776	3643
994.854	4364
994.932	3321
995.011	2604
995.089	2566
995.167	3673
995.245	3403
995.324	3066
995.402	4587
995.480	3821
995.558	3922
995.636	3038
995.714	3239
995.792	4772
995.870	2979
995.948	3074
996.026	2646
996.104	2782
996.182	3915
996.260	2620
996.338	2284
996.416	3084
996.494	3399
996.572	4386
996.649	2684
996.727	2942
996.805	3799
996.883	3285
996.960	2276
997.038	3693
997.116	2809
997.193	3031
997.271	2323
997.348	1572
997.426	2047
997.504	2583
997.581	3082
997.658	2570
997.736	1251
997.813	2232
997.891	3268
997.968	1963
998.046	2365
998.123	2948
998.200	3868
998.277	2453
998.355	3401
998.432	1114
998.509	2314
998.586	2194
998.663	2147
998.741	2031
998.818	1655
998.895	1414
998.972	2515
999.049	2906
999.126	1615
999.203	2739
999.280	1893
999.357	1508
999.434	1927
999.511	2157
999.587	1567
999.664	1901
999.741	1984
999.818	2283
999.895	2264
999.971	1647
1000.048	1036
1000.125	2959
1000.202	1262
1000.278	2632
1000.355	1694
1000.431	1478
1000.508	430
1000.584	1414
1000.661	1531
1000.738	2002
1000.814	1440
1000.890	2087
1000.967	1188
1001.043	1670
1001.120	735
1001.196	1645
1001.272	1242
1001.349	1227
1001.425	1772
1001.501	1403
1001.577	1154
1001.654	2086
1001.730	1072
1001.806	1866
1001.882	1430
1001.958	1921
1002.034	2116
1002.110	1271
1002.186	295
1002.262	649
1002.338	928
1002.414	2109
1002.490	947
1002.566	747
1002.642	729
1002.718	2445
1002.794	1471
1002.870	1184
1002.945	285
1003.021	985
1003.097	1214
1003.173	1576
1003.248	1258
1003.324	1459
1003.400	1410
1003.475	725
1003.551	701
1003.626	1272
1003.702	179
1003.777	1124
1003.853	89
1003.928	364
1004.004	734
1004.079	1647
1004.155	1107
1004.230	160
1004.305	1799
1004.381	635
1004.456	251
1004.531	-480
1004.607	659
1004.682	651
1004.757	1437
1004.832	1274
1004.907	498
1004.982	932
1005.057	963
1005.133	268
1005.208	747
1005.283	857
1005.358	1189
1005.433	-200
1005.508	258
1005.583	1136
1005.657	681
1005.732	1215
1005.807	-12
1005.882	507
1005.957	77
1006.032	793
1006.106	206
1006.181	644
1006.256	899
1006.331	543
1006.405	-68
1006.480	908
1006.554	1140
1006.629	718
1006.704	184
1006.778	-279
1006.853	1884
1006.927	739
1007.002	-384
1007.076	390
1007.150	-46
1007.225	794
1007.299	894
1007.373	20
1007.448	271
1007.522	903
1007.596	-21
1007.671	18
1007.745	596
1007.819	314
1007.893	833
1007.967	1648
1008.041	-1259
1008.115	606
1008.190	-2
1008.264	651
1008.338	-267
1008.412	584
1008.486	-499
1008.560	98
1008.633	508
1008.707	965
1008.781	1566
1008.855	515
1008.929	273
1009.003	-113
1009.076	316
1009.150	350
1009.224	660
1009.298	716
1009.371	-560
1009.445	374
1009.519	-352
1009.592	-543
1009.666	-152
1009.739	34
1009.813	-977
1009.886	1609
1009.960	-34
1010.033	763
1010.107	181
1010.180	-258
1010.253	-253
1010.327	-369
1010.400	45
1010.473	-54
1010.547	647
1010.620	-1072
1010.693	204
1010.766	-212
1010.840	492
1010.913	241
1010.986	-735
1011.059	-489
1011.132	119
1011.205	70
1011.278	-47
1011.351	-11
1011.424	-419
1011.497	-8
1011.570	-533
1011.643	-623
1011.716	-537
1011.789	183
1011.862	301
1011.934	613
1012.007	-1006
1012.080	114
1012.153	575
1012.225	1068
1012.298	-555
1012.371	-318
1012.443	809
1012.516	-652
1012.588	80
1012.661	650
1012.733	-559
1012.806	1154
1012.879	607
1012.951	-377
1013.023	-718
1013.096	936
1013.168	-181
1013.241	753
1013.313	-984
1013.385	-1015
1013.458	-391
1013.530	899
1013.602	-1132
1013.674	250
1013.746	-953
1013.819	-123
1013.891	-52
1013.963	-594
1014.035	22
1014.107	386
1014.179	-79
1014.251	-622
1014.323	782
1014.395	101
1014.467	-546
1014.539	15
1014.611	-729
1014.683	628
1014.754	511
1014.826	-120
1014.898	-317
1014.970	-471
1015.042	771
1015.113	668
1015.185	396
1015.257	-758
1015.328	133
1015.400	-560
1015.471	-293
1015.543	-1028
1015.615	54
1015.686	-349
1015.757	-378
1015.829	-61
1015.901	-193
1015.972	139
1016.043	-463
1016.115	320
1016.186	-229
1016.257	95
1016.328	-169
1016.400	410
1016.471	-766
1016.542	-901
1016.613	176
1016.685	-736
1016.756	38
1016.827	-420
1016.898	-1238
1016.969	319
1017.040	-1336
1017.111	-852
1017.182	-487
1017.253	-89
1017.324	-539
1017.395	-702
1017.466	413
1017.537	-332
1017.608	59
1017.678	-270
1017.749	385
1017.820	-155
1017.891	-1652
1017.961	-80
1018.032	-870
1018.103	543
1018.173	589
1018.244	-371
1018.315	-144
1018.385	-279
1018.456	-719
1018.526	-424
1018.597	-73
1018.667	-111
1018.738	-1017
1018.808	-610
1018.878	-184
1018.949	-476
1019.019	-1019
1019.089	-302
1019.160	510
1019.230	24
1019.300	790
1019.371	-943
1019.441	-433
1019.511	-22
1019.581	-824
1019.651	-836
1019.721	-56
1019.791	-838
1019.861	146
1019.931	115
1020.001	-1009
1020.071	-611
1020.141	-1525
1020.211	-565
1020.281	-1618
1020.351	-718
1020.421	-1288
1020.491	-286
1020.560	-630
1020.630	-83
1020.700	-595
1020.770	-588
1020.839	-825
1020.909	-644
1020.979	-148
1021.048	-633
1021.118	-332
1021.187	-1290
1021.257	-49
1021.326	-485
1021.396	-385
1021.465	-752
1021.535	-912
1021.604	-674
1021.674	-645
1021.743	-153
1021.812	-1844
1021.882	-350
1021.951	-94
1022.020	521
1022.089	-307
1022.159	-1078
1022.228	194
1022.297	-345
1022.366	-801
1022.435	-866
1022.504	-463
1022.573	-1007
1022.642	-541
1022.711	-305
1022.781	-1063
1022.849	-842
1022.918	-1066
1022.987	-1532
1023.056	-656
1023.125	-612
1023.194	-582
1023.263	-786
1023.331	-675
1023.400	-380
1023.469	-1080
1023.538	-628
1023.606	-1666
1023.675	101
1023.744	-888
1023.812	-837
1023.881	-512
1023.949	-1103
1024.018	-899
1024.086	-481
1024.155	-964
1024.223	-1265
1024.292	-1143
1024.360	-690
1024.429	-694
1024.497	-932
1024.565	-563
1024.634	-249
1024.702	-447
1024.770	-681
1024.838	-1052
1024.907	-411
1024.975	-837
1025.043	-482
1025.111	-1037
1025.179	-838
1025.247	-1173
1025.315	-340
1025.383	-1518
1025.451	-760
1025.519	-999
1025.587	-1270
1025.655	-494
1025.723	-815
1025.791	-1387
1025.859	-497
1025.927	-206
1025.995	-1326
1026.062	-1014
1026.130	-1354
1026.198	-488
1026.266	-1293
1026.333	-334
1026.401	-513
1026.469	-797
1026.536	-339
1026.604	-1017
1026.671	-1056
1026.739	-1046
1026.806	-1246
1026.874	-181
1026.941	-1440
1027.009	-982
1027.076	-1313
1027.144	-935
1027.211	-1223
1027.278	-1394
1027.345	-1100
1027.413	-652
1027.480	-1174
1027.547	-1202
1027.614	-1059
1027.682	-1769
1027.749	-620
1027.816	-1363
1027.883	-734
1027.950	-1115
1028.017	-1230
1028.084	-693
1028.151	-710
1028.218	-1102
1028.285	-914
1028.352	-1482
1028.419	-1295
1028.486	-1005
1028.553	-1345
1028.619	-1384
1028.686	-1326
1028.753	-1122
1028.820	-1196
1028.886	-738
1028.953	-775
1029.020	-1551
1029.086	-752
1029.153	-1734
1029.220	-831
1029.286	-747
1029.353	-1250
1029.419	-2434
1029.486	-1166
1029.552	-1940
1029.619	-1052
1029.685	-1533
1029.751	-1446
1029.818	-543
1029.884	-1526
1029.951	-332
1030.017	-1748
1030.083	-1138
1030.149	-858
1030.216	-2000
1030.282	-1287
1030.348	-2121
1030.414	-1458
1030.480	-1290
1030.546	-939
1030.612	-1538
1030.678	-1287
1030.744	-2172
1030.810	-1521
1030.876	-1436
1030.942	-1366
1031.008	-725
1031.074	-1375
1031.140	-1840
1031.206	-581
1031.272	-1758
1031.337	-1618
1031.403	-625
1031.469	-920
1031.534	-1815
1031.600	-1581
1031.666	-1483
1031.731	-1870
1031.797	-744
1031.863	-1685
1031.928	-944
1031.994	-2037
1032.059	-1409
1032.125	-1822
1032.190	-1186
1032.256	-1756
1032.321	-1258
1032.386	-1179
1032.452	-1521
1032.517	-1234
1032.582	-1525
1032.647	-1245
1032.713	-1390
1032.778	-1125
1032.843	-1355
1032.908	-1447
1032.974	-2322
1033.039	-1473
1033.104	-1150
1033.169	-1394
1033.234	-1858
1033.299	-853
1033.364	-1385
1033.429	-1298
1033.494	-1467
1033.559	-1053
1033.624	-990
1033.688	-904
1033.753	-923
1033.818	-844
1033.883	-46
1033.948	-421
1034.013	-541
1034.077	421
1034.142	1885
1034.207	2093
1034.271	4569
1034.336	5464
1034.400	3054
1034.465	1153
1034.530	-440
1034.594	-1319
1034.658	-1178
1034.723	-1588
1034.787	-1202
1034.852	-1437
1034.916	-1549
1034.981	-1473
1035.045	-1891
1035.109	-1896
1035.173	-1557
1035.238	-1381
1035.302	-1155
1035.366	-2069
1035.430	-1832
1035.495	-1652
1035.559	-1699
1035.623	-1875
1035.687	-2445
1035.751	-764
1035.815	-1530
1035.879	-1943
1035.943	-2015
1036.007	-1932
1036.071	-1574
1036.135	-2027
1036.198	-2328
1036.262	-1842
1036.326	-1738
1036.390	-1632
1036.454	-1677
1036.517	-1774
1036.581	-1327
1036.645	-2049
1036.709	-1650
1036.772	-1431
1036.836	-2400
1036.900	-1922
1036.963	-1611
1037.026	-1640
1037.090	-2110
1037.154	-1844
1037.217	-1506
1037.280	-2209
1037.344	-1992
1037.407	-1863
1037.471	-1694
1037.534	-1537
1037.597	-1863
1037.661	-1337
1037.724	-1608
1037.787	-2081
1037.850	-2154
1037.913	-1779
1037.977	-2134
1038.040	-1785
1038.103	-1861
1038.166	-2317
1038.229	-1564
1038.292	-1543
1038.355	-1793
1038.418	-1483
1038.481	-1137
1038.544	-1790
1038.607	-2677
1038.670	-1708
1038.732	-2117
1038.795	-1820
1038.858	-1296
1038.921	-820
1038.984	-1741
1039.046	-2130
1039.109	-1554
1039.172	-1681
1039.234	-1698
1039.297	-1710
1039.360	-1590
1039.422	-1634
1039.485	-2241
1039.547	-1634
1039.610	-1476
1039.672	-1653
1039.734	-2497
1039.797	-1686
1039.859	-1953
1039.922	-1464
1039.984	-1937
1040.046	-2014
1040.109	-1648
1040.171	-2634
1040.233	-2377
1040.295	-1644
1040.358	-2172
1040.420	-1627
1040.482	-2269
1040.544	-1341
1040.606	-1207
1040.668	-2091
1040.730	-1754
1040.792	-1585
1040.854	-2040
1040.916	-1899
1040.978	-2543
1041.040	-1505
1041.102	-1914
1041.164	-2119
1041.225	-1515
1041.287	-2184
1041.349	-2658
1041.411	-1660
1041.472	-2609
1041.534	-1708
1041.596	-2260
1041.657	-2367
1041.719	-2151
1041.781	-1821
1041.842	-2052
1041.904	-1406
1041.965	-2293
1042.027	-1163
1042.088	-2418
1042.150	-1767
1042.211	-1790
1042.272	-1222
1042.334	-1293
1042.395	-1858
1042.456	-1724
1042.518	-1501
1042.579	-1941
1042.640	-1871
1042.701	-1288
1042.763	-2090
1042.824	-2732
1042.885	-2609
1042.946	-1789
1043.007	-1543
1043.068	-1878
1043.129	-2140
1043.190	-1980
1043.251	-1958
1043.312	-2093
1043.373	-1198
1043.434	-1941
1043.495	-1105
1043.556	-1342
1043.616	-1867
1043.677	-1967
1043.738	-965
1043.799	-1947
1043.859	-1971
1043.920	-2332
1043.981	-1022
1044.041	-1640
1044.102	-1448
1044.162	-1748
1044.223	-2772
1044.284	-1520
1044.344	-1520
1044.405	-1612
1044.465	-608
1044.525	-1468
1044.586	-1503
1044.646	-1940
1044.707	-1109
1044.767	-2112
1044.827	-1457
1044.887	-1797
1044.948	-2229
1045.008	-2137
1045.068	-1576
1045.128	-1759
1045.188	-845
1045.249	-1552
1045.309	-1026
1045.369	-1662
1045.429	-1727
1045.489	-1127
1045.549	-721
1045.609	-2011
1045.669	-1565
1045.729	-1357
1045.789	-1093
1045.848	-1197
1045.908	-1276
1045.968	-1171
1046.028	-1696
1046.088	-2222
1046.147	-1414
1046.207	-1917
1046.267	-1552
1046.326	-1215
1046.386	-1834
1046.446	-1083
1046.505	-429
1046.565	-1541
1046.624	-734
1046.684	-838
1046.743	-1096
1046.803	-598
1046.862	40
1046.922	0
