'Start Wavelength	183.907
'End Wavelength	1046.922
'Gate Delay	5.000
'Gate Width (ms)	1.050
'Laser Output Level	0.000
'X Position	0.000
'Y Position	0.000
'Z Position	0.000
'Grid Point Number	1.000
'Shot Number	100.000
183.907	160.000
183.977	20.000
184.047	209
184.116	247
184.186	676
184.256	-449
184.325	-611
184.395	-352
184.465	590
184.534	641
184.604	-820
184.674	719
184.743	-464
184.813	444
184.883	262
184.952	-122
185.022	619
185.092	-849
185.161	-513
185.231	-301
185.301	102
185.370	-54
185.440	-625
185.509	-85
185.579	-59
185.649	-387
185.718	135
185.788	-128
185.857	-911
185.927	-190
185.996	-268
186.066	38
186.136	-1185
186.205	-323
186.275	152
186.344	-572
186.414	-874
186.483	-420
186.553	-148
186.622	-513
186.692	196
186.761	-492
186.831	-282
186.900	-1015
186.970	537
187.039	31
187.109	-48
187.178	-504
187.248	-353
187.317	151
187.387	-687
187.456	299
187.526	-409
187.595	171
187.664	-208
187.734	409
187.803	835
187.873	125
187.942	-938
188.012	92
188.081	-217
188.150	-91
188.220	-147
188.289	278
188.358	194
188.428	111
188.497	-656
188.567	-81
188.636	370
188.705	-349
188.775	181
188.844	-815
188.913	282
188.983	18
189.052	-609
189.121	-170
189.191	30
189.260	220
189.329	-61
189.399	-21
189.468	-260
189.537	-331
189.606	-121
189.676	309
189.745	94
189.814	183
189.883	-216
189.953	-386
190.022	-379
190.091	-735
190.161	378
190.230	219
190.299	701
190.368	-563
190.437	-1152
190.507	425
190.576	95
190.645	-410
190.714	-135
190.783	-295
190.853	-48
190.922	-381
190.991	-469
191.060	334
191.129	-351
191.198	25
191.268	-170
191.337	-270
191.406	-192
191.475	412
191.544	-671
191.613	-647
191.682	-349
191.752	-486
191.821	-153
191.890	-253
191.959	242
192.028	462
192.097	211
192.166	-246
192.235	-529
192.304	420
192.373	-627
192.442	248
192.511	79
192.580	446
192.650	-185
192.719	-16
192.788	-111
192.857	277
192.926	-556
192.995	-534
193.064	276
193.133	-363
193.202	140
193.271	-291
193.340	505
193.409	328
193.478	571
193.547	159
193.615	149
193.684	486
193.753	96
193.822	291
193.891	86
193.960	233
194.029	-842
194.098	-331
194.167	-396
194.236	1027
194.305	-62
194.374	-466
194.443	223
194.512	49
194.580	-288
194.649	347
194.718	577
194.787	-333
194.856	-537
194.925	810
194.994	-335
195.062	556
195.131	-370
195.200	-829
195.269	90
195.338	388
195.407	321
195.475	-185
195.544	216
195.613	-29
195.682	-376
195.751	-281
195.819	-350
195.888	914
195.957	487
196.026	-455
196.094	949
196.163	-114
196.232	33
196.301	249
196.369	133
196.438	-601
196.507	-137
196.576	115
196.644	277
196.713	382
196.782	-53
196.850	-254
196.919	-359
196.988	-825
197.056	-513
197.125	-304
197.194	820
197.262	-231
197.331	-704
197.400	-122
197.468	-135
197.537	469
197.606	248
197.674	163
197.743	-291
197.812	-876
197.880	450
197.949	-548
198.017	73
198.086	-538
198.155	-101
198.223	-81
198.292	-489
198.360	-725
198.429	-786
198.497	-200
198.566	-32
198.635	1011
198.703	-106
198.772	130
198.840	409
198.909	620
198.977	-143
199.046	37
199.114	-39
199.183	-290
199.251	-59
199.320	-980
199.388	-666
199.457	-259
199.525	166
199.594	310
199.662	-266
199.731	362
199.799	-466
199.867	268
199.936	-182
200.004	623
200.073	532
200.141	417
200.210	201
200.278	-640
200.346	-221
200.415	2
200.483	-306
200.552	-26
200.620	340
200.688	-311
200.757	-17
200.825	167
200.893	-519
200.962	134
201.030	287
201.098	-682
201.167	250
201.235	-110
201.303	-629
201.372	66
201.440	109
201.508	-863
201.577	223
201.645	397
201.713	-473
201.781	202
201.850	159
201.918	-581
201.986	-97
202.055	885
202.123	-599
202.191	121
202.259	-380
202.327	29
202.396	403
202.464	-73
202.532	-201
202.600	-429
202.669	25
202.737	-373
202.805	-220
202.873	228
202.941	-432
203.009	-76
203.078	-206
203.146	-248
203.214	-691
203.282	-607
203.350	481
203.418	-808
203.487	-102
203.555	-168
203.623	-349
203.691	520
203.759	-1522
203.827	-404
203.895	51
203.963	-261
204.031	3
204.099	44
204.168	71
204.236	256
204.304	-368
204.372	-617
204.440	-766
204.508	200
204.576	-707
204.644	-162
204.712	-254
204.780	-111
204.848	-140
204.916	-363
204.984	-528
205.052	527
205.120	90
205.188	-568
205.256	-323
205.324	-561
205.392	-716
205.460	-71
205.528	-414
205.596	-477
205.664	-907
205.732	245
205.799	-391
205.867	182
205.935	-871
206.003	166
206.071	-587
206.139	412
206.207	223
206.275	-318
206.343	53
206.411	-69
206.478	422
206.546	27
206.614	-460
206.682	328
206.750	-339
206.818	129
206.885	549
206.953	-1000
207.021	700
207.089	139
207.157	-641
207.225	639
207.292	163
207.360	-775
207.428	-283
207.496	359
207.563	-1058
207.631	609
207.699	-508
207.767	381
207.834	-44
207.902	216
207.970	-237
208.038	114
208.105	-214
208.173	-412
208.241	627
208.309	25
208.376	-26
208.444	327
208.512	-844
208.579	-346
208.647	364
208.715	653
208.782	-451
208.850	46
208.918	-83
208.985	804
209.053	-644
209.120	266
209.188	-38
209.256	-435
209.323	-148
209.391	-736
209.459	1153
209.526	-58
209.594	-389
209.661	585
209.729	56
209.796	769
209.864	-703
209.932	-1270
209.999	1368
210.067	-160
210.134	-212
210.202	-221
210.269	-320
210.337	-186
210.404	-341
210.472	147
210.539	283
210.607	57
210.674	-211
210.742	-55
210.809	-815
210.877	42
210.944	553
211.012	-1048
211.079	1042
211.146	250
211.214	119
211.281	140
211.349	1175
211.416	452
211.484	-236
211.551	-461
211.618	25
211.686	233
211.753	-427
211.821	12
211.888	137
211.955	-191
212.023	-312
212.090	-190
212.157	-349
212.225	106
212.292	-67
212.359	851
212.427	1123
212.494	1165
212.561	655
212.629	-559
212.696	-352
212.763	-150
212.831	378
212.898	415
212.965	-609
213.032	834
213.100	-146
213.167	897
213.234	-97
213.301	409
213.369	-99
213.436	-92
213.503	-1033
213.570	585
213.638	-175
213.705	-534
213.772	-598
213.839	302
213.906	-58
213.973	278
214.041	-151
214.108	700
214.175	96
214.242	-359
214.309	536
214.376	-101
214.444	-160
214.511	270
214.578	-216
214.645	148
214.712	736
214.779	-11
214.846	-381
214.913	405
214.980	449
215.048	300
215.115	1186
215.182	381
215.249	546
215.316	-571
215.383	671
215.450	314
215.517	144
215.584	332
215.651	617
215.718	256
215.785	149
215.852	-299
215.919	520
215.986	68
216.053	496
216.120	122
216.187	373
216.254	425
216.321	-240
216.388	113
216.455	475
216.522	389
216.589	-100
216.656	74
216.722	221
216.789	815
216.856	1073
216.923	352
216.990	840
217.057	-127
217.124	-96
217.191	-142
217.258	248
217.324	590
217.391	957
217.458	921
217.525	802
217.592	140
217.659	-654
217.725	965
217.792	-161
217.859	146
217.926	309
217.993	795
218.059	756
218.126	-63
218.193	65
218.260	-805
218.327	-200
218.393	-355
218.460	-106
218.527	540
218.594	-55
218.660	-68
218.727	462
218.794	-352
218.860	822
218.927	-459
218.994	-449
219.061	-237
219.127	-490
219.194	-507
219.261	-252
219.327	-8
219.394	791
219.461	-1142
219.527	-779
219.594	-322
219.661	905
219.727	-905
219.794	180
219.860	-152
219.927	-414
219.994	144
220.060	15
220.127	222
220.193	413
220.260	-11
220.326	555
220.393	1401
220.460	1152
220.526	555
220.593	330
220.659	1350
220.726	730
220.792	1002
220.859	1219
220.925	2154
220.992	2540
221.058	2563
221.125	978
221.191	854
221.258	749
221.324	287
221.391	630
221.457	-18
221.524	-608
221.590	920
221.657	806
221.723	-20
221.789	-564
221.856	920
221.922	-332
221.989	288
222.055	-406
222.121	-78
222.188	830
222.254	-122
222.321	-444
222.387	-640
222.453	-443
222.520	-188
222.586	-1097
222.652	484
222.719	-1507
222.785	221
222.851	-435
222.918	111
222.984	-82
223.050	-554
223.116	-1465
223.183	954
223.249	-403
223.315	-528
223.382	721
223.448	-298
223.514	-443
223.580	412
223.647	-799
223.713	-502
223.779	-339
223.845	-192
223.911	-278
223.978	-422
224.044	-266
224.110	199
224.176	-838
224.242	-266
224.309	-1288
224.375	-174
224.441	-78
224.507	-1131
224.573	-685
224.639	476
224.705	-208
224.772	-181
224.838	-604
224.904	523
224.970	-802
225.036	161
225.102	-1066
225.168	243
225.234	452
225.300	99
225.366	-29
225.432	-185
225.499	97
225.565	-305
225.631	-439
225.697	190
225.763	224
225.829	226
225.895	759
225.961	-353
226.027	146
226.093	-40
226.159	1238
226.225	1480
226.291	2403
226.357	3309
226.423	1832
226.489	1449
226.554	740
226.620	939
226.686	224
226.752	1067
226.818	1481
226.884	3805
226.950	3515
227.016	1664
227.082	2175
227.148	1267
227.214	226
227.279	289
227.345	-172
227.411	-305
227.477	283
227.543	1015
227.609	494
227.674	708
227.740	-666
227.806	211
227.872	17
227.938	330
228.003	312
228.069	-535
228.135	-594
228.201	365
228.267	-1129
228.332	149
228.398	-223
228.464	-15
228.530	-585
228.595	608
228.661	-219
228.727	122
228.792	434
228.858	-79
228.924	-933
228.990	1241
229.055	-642
229.121	761
229.187	98
229.252	-1055
229.318	36
229.384	234
229.449	-668
229.515	-1764
229.581	-837
229.646	1513
229.712	137
229.777	-17
229.843	-411
229.909	292
229.974	717
230.040	475
230.105	-105
230.171	-583
230.236	491
230.302	-62
230.368	350
230.433	-157
230.499	966
230.564	832
230.630	-164
230.695	361
230.761	800
230.826	-770
230.892	842
230.957	-166
231.023	-846
231.088	113
231.154	-444
231.219	772
231.284	-223
231.350	1077
231.415	-1095
231.481	128
231.546	26
231.612	-350
231.677	-441
231.742	-447
231.808	148
231.873	500
231.939	-1859
232.004	1722
232.069	148
232.135	-869
232.200	-363
232.265	706
232.331	-172
232.396	-40
232.461	325
232.527	-495
232.592	-33
232.657	408
232.723	-361
232.788	-627
232.853	668
232.918	481
232.984	-176
233.049	549
233.114	-708
233.179	-7
233.245	391
233.310	-69
233.375	-1151
233.440	160
233.506	-825
233.571	-466
233.636	-420
233.701	-164
233.766	-674
233.832	-59
233.897	-198
233.962	-737
234.027	1394
234.092	55
234.157	-645
234.222	-126
234.288	-73
234.353	390
234.418	1194
234.483	1327
234.548	100
234.613	225
234.678	723
234.743	115
234.808	1457
234.873	-983
234.938	1319
235.004	125
235.069	-211
235.134	-557
235.199	913
235.264	795
235.329	-1373
235.394	837
235.459	664
235.524	-87
235.589	589
235.654	-230
235.719	275
235.784	91
235.849	-439
235.913	884
235.978	209
236.043	955
236.108	209
236.173	-141
236.238	971
236.303	-266
236.368	-445
236.433	1500
236.498	-65
236.563	454
236.627	1739
236.692	4792
236.757	3793
236.822	2332
236.887	1338
236.952	1066
237.017	-593
237.081	1844
237.146	93
237.211	3672
237.276	3814
237.341	6051
237.405	3273
237.470	1820
237.535	-272
237.600	602
237.664	485
237.729	-245
237.794	541
237.859	2983
237.923	250
237.988	513
238.053	54
238.118	-283
238.182	338
238.247	1635
238.312	-1197
238.376	315
238.441	-1166
238.506	1330
238.570	-412
238.635	1075
238.700	-1
238.764	420
238.829	-44
238.893	-286
238.958	426
239.023	-185
239.087	440
239.152	563
239.216	-76
239.281	-230
239.346	414
239.410	134
239.475	-98
239.539	833
239.604	-318
239.668	241
239.733	93
239.797	597
239.862	2154
239.926	1181
239.991	444
240.055	149
240.120	128
240.184	-212
240.249	-1180
240.313	-625
240.378	157
240.442	385
240.507	973
240.571	-177
240.635	8
240.700	248
240.764	-134
240.829	112
240.893	-1097
240.957	175
241.022	195
241.086	757
241.151	-449
241.215	-573
241.279	438
241.344	-122
241.408	804
241.472	-1015
241.537	570
241.601	562
241.665	-1398
241.730	391
241.794	1604
241.858	141
241.922	-43
241.987	120
242.051	-460
242.115	-615
242.179	746
242.244	-136
242.308	698
242.372	-193
242.436	-122
242.501	474
242.565	-1005
242.629	-286
242.693	1152
242.757	-1125
242.822	-384
242.886	561
242.950	747
243.014	-834
243.078	290
243.142	299
243.206	-413
243.271	159
243.335	-295
243.399	1592
243.463	460
243.527	4748
243.591	1485
243.655	778
243.719	-314
243.783	523
243.847	381
243.911	1084
243.975	553
244.040	-24
244.104	1737
244.168	402
244.232	157
244.296	907
244.360	975
244.424	78
244.488	714
244.552	10
244.615	-554
244.679	1323
244.743	-287
244.807	-585
244.871	70
244.935	451
244.999	-1262
245.063	-564
245.127	803
245.191	584
245.255	146
245.319	950
245.383	-1129
245.446	989
245.510	-622
245.574	323
245.638	1526
245.702	-1226
245.766	418
245.829	743
245.893	294
245.957	-581
246.021	639
246.085	-319
246.149	-14
246.212	1147
246.276	992
246.340	218
246.404	220
246.467	1142
246.531	-1229
246.595	946
246.659	951
246.722	235
246.786	582
246.850	605
246.913	601
246.977	-470
247.041	528
247.104	282
247.168	670
247.232	1077
247.295	2001
247.359	773
247.423	-229
247.486	409
247.550	692
247.614	782
247.677	348
247.741	840
247.804	164
247.868	720
247.932	-118
247.995	2628
248.059	-50
248.122	-548
248.186	1469
248.249	912
248.313	2177
248.376	3736
248.440	1392
248.503	-665
248.567	1457
248.630	1289
248.694	736
248.757	2109
248.821	3891
248.884	3100
248.948	742
249.011	2953
249.075	3820
249.138	3146
249.202	1273
249.265	782
249.328	1797
249.392	394
249.455	1829
249.519	880
249.582	860
249.645	1576
249.709	354
249.772	437
249.835	1283
249.899	922
249.962	530
250.025	191
250.089	1540
250.152	2428
250.215	951
250.279	536
250.342	354
250.405	392
250.468	433
250.532	736
250.595	1985
250.658	3718
250.721	8086
250.785	2551
250.848	2852
250.911	893
250.974	829
251.038	937
251.101	1899
251.164	917
251.227	1628
251.290	1244
251.354	2118
251.417	7192
251.480	6873
251.543	4880
251.606	13209
251.669	10266
251.732	3757
251.795	4249
251.859	3266
251.922	7460
251.985	5274
252.048	2563
252.111	1759
252.174	952
252.237	2429
252.300	4565
252.363	4493
252.426	11199
252.489	3531
252.552	2794
252.615	396
252.678	2407
252.741	3130
252.804	2968
252.867	11252
252.930	5382
252.993	2090
253.056	2011
253.119	88
253.182	-108
253.245	1059
253.308	1585
253.371	594
253.434	115
253.497	1870
253.559	2188
253.622	1759
253.685	1464
253.748	1728
253.811	878
253.874	2087
253.937	329
254.000	464
254.062	396
254.125	1711
254.188	3044
254.251	2140
254.314	-6
254.376	207
254.439	1957
254.502	1259
254.565	574
254.628	2367
254.690	1077
254.753	435
254.816	464
254.878	8
254.941	1916
255.004	697
255.067	510
255.129	303
255.192	375
255.255	-172
255.317	255
255.380	93
255.443	-249
255.505	331
255.568	-482
255.631	-129
255.693	101
255.756	-750
255.819	773
255.881	-800
255.944	183
256.006	253
256.069	282
256.132	-476
256.194	-435
256.257	648
256.319	119
256.382	610
256.444	1344
256.507	406
256.569	-26
256.632	277
256.694	96
256.757	4229
256.819	11263
256.882	3985
256.944	1739
257.007	2055
257.069	960
257.132	631
257.194	1600
257.257	56
257.319	467
257.381	549
257.444	3834
257.506	10646
257.569	13114
257.631	4675
257.693	3001
257.756	1096
257.818	912
257.880	396
257.943	1166
258.005	284
258.067	520
258.130	-166
258.192	744
258.254	530
258.317	368
258.379	105
258.441	667
258.503	975
258.566	591
258.628	2895
258.690	-862
258.753	1038
258.815	1536
258.877	414
258.939	415
259.001	674
259.064	211
259.126	155
259.188	-19
259.250	742
259.312	-284
259.375	293
259.437	394
259.499	629
259.561	134
259.623	-173
259.685	726
259.747	312
259.809	557
259.872	1382
259.934	3186
259.996	3905
260.058	1409
260.120	384
260.182	43
260.244	-245
260.306	-247
260.368	375
260.430	605
260.492	1315
260.554	2775
260.616	480
260.678	1197
260.740	1279
260.802	-602
260.864	156
260.926	13
260.988	512
261.050	-15
261.112	1397
261.174	4506
261.236	2041
261.298	268
261.359	311
261.421	1627
261.483	-537
261.545	1050
261.607	-407
261.669	901
261.731	67
261.793	1526
261.854	-209
261.916	246
261.978	-530
262.040	1016
262.102	393
262.164	-250
262.225	60
262.287	968
262.349	-493
262.411	1225
262.472	639
262.534	-66
262.596	357
262.658	471
262.719	-1060
262.781	596
262.843	-750
262.904	545
262.966	733
263.028	-652
263.090	2220
263.151	6317
263.213	2541
263.275	1263
263.336	133
263.398	1277
263.459	-936
263.521	-578
263.583	955
263.644	1291
263.706	-94
263.767	-845
263.829	-224
263.891	121
263.952	-461
264.014	-578
264.075	379
264.137	1809
264.198	624
264.260	-401
264.321	-708
264.383	1048
264.444	3704
264.506	-30
264.567	410
264.629	2285
264.690	2743
264.752	1122
264.813	774
264.875	-735
264.936	845
264.998	-49
265.059	-925
265.120	702
265.182	624
265.243	6089
265.305	7585
265.366	1444
265.427	1053
265.489	1086
265.550	-613
265.611	714
265.673	-448
265.734	-518
265.795	286
265.857	4
265.918	-169
265.979	1239
266.040	9512
266.102	8760
266.163	1836
266.224	2352
266.286	538
266.347	-1023
266.408	-477
266.469	209
266.530	32
266.592	-710
266.653	-476
266.714	688
266.775	179
266.836	377
266.898	-490
266.959	271
267.020	-71
267.081	1503
267.142	-351
267.203	-344
267.264	-888
267.326	1419
267.387	-259
267.448	-555
267.509	-344
267.570	-588
267.631	-395
267.692	-821
267.753	-182
267.814	-807
267.875	454
267.936	769
267.997	446
268.058	152
268.119	278
268.180	-113
268.241	-1005
268.302	308
268.363	-821
268.424	-647
268.485	-231
268.546	-619
268.607	-504
268.668	-482
268.729	-474
268.790	-65
268.851	22
268.912	937
268.972	909
269.033	677
269.094	-759
269.155	-462
269.216	216
269.277	-503
269.338	-266
269.398	-300
269.459	-586
269.520	-191
269.581	340
269.642	286
269.702	149
269.763	612
269.824	-116
269.885	-292
269.945	398
270.006	125
270.067	-1596
270.128	109
270.188	-337
270.249	-1451
270.310	-17
270.370	215
270.431	-235
270.492	241
270.553	-428
270.613	160
270.674	1727
270.734	-286
270.795	184
270.856	239
270.916	-683
270.977	-488
271.038	455
271.098	196
271.159	-733
271.219	489
271.280	-805
271.340	-327
271.401	-1507
271.462	725
271.522	-271
271.583	869
271.643	25
271.704	-652
271.764	449
271.825	938
271.885	4750
271.946	4765
272.006	1885
272.066	2442
272.127	3823
272.187	1366
272.248	-208
272.308	388
272.369	2575
272.429	1519
272.489	834
272.550	1296
272.610	964
272.671	218
272.731	535
272.791	108
272.852	-123
272.912	578
272.972	-359
273.033	-693
273.093	-25
273.153	651
273.214	235
273.274	-500
273.334	2334
273.394	3400
273.455	1551
273.515	1843
273.575	2521
273.635	1197
273.696	1644
273.756	2727
273.816	1659
273.876	829
273.936	826
273.997	2224
274.057	-434
274.117	-194
274.177	974
274.237	4117
274.297	3780
274.358	1406
274.418	1940
274.478	2484
274.538	81
274.598	-689
274.658	1368
274.718	1731
274.778	1040
274.838	-491
274.898	204
274.958	2078
275.018	2598
275.078	1700
275.138	787
275.198	-369
275.258	316
275.318	-1117
275.378	630
275.438	50
275.498	555
275.558	889
275.618	2135
275.678	1374
275.738	1630
275.798	1184
275.858	270
275.918	-441
275.978	-865
276.038	152
276.098	-364
276.157	-33
276.217	3266
276.277	1702
276.337	446
276.397	500
276.457	-34
276.517	23
276.576	179
276.636	-680
276.696	392
276.756	1486
276.815	1027
276.875	133
276.935	-382
276.995	57
277.055	-96
277.114	11
277.174	381
277.234	2631
277.293	710
277.353	-162
277.413	-554
277.472	-992
277.532	551
277.592	502
277.651	2014
277.711	5066
277.771	907
277.830	6059
277.890	5270
277.950	2142
278.009	8982
278.069	3683
278.128	4376
278.188	6149
278.248	2209
278.307	4572
278.367	3998
278.426	341
278.486	-793
278.545	-687
278.605	-282
278.664	831
278.724	-872
278.783	1484
278.843	4012
278.902	720
278.962	399
279.021	275
279.081	374
279.140	-49
279.199	675
279.259	325
279.318	480
279.378	1107
279.437	2163
279.496	6289
279.556	29847
279.615	22970
279.675	4832
279.734	2476
279.793	2976
279.853	4813
279.912	1688
279.971	1088
280.031	1302
280.090	2246
280.149	3836
280.208	3838
280.268	20810
280.327	20021
280.386	3499
280.445	2804
280.505	2273
280.564	1277
280.623	-136
280.682	996
280.742	2213
280.801	1167
280.860	391
280.919	49
280.978	-150
281.037	463
281.097	-633
281.156	409
281.215	-111
281.274	222
281.333	2176
281.392	1654
281.451	-209
281.510	458
281.569	-157
281.628	-513
281.688	-778
281.747	340
281.806	61
281.865	240
281.924	-1995
281.983	-317
282.042	-73
282.101	-489
282.160	306
282.219	-248
282.278	-728
282.337	666
282.396	1197
282.454	-55
282.513	-293
282.572	1719
282.631	1396
282.690	135
282.749	-620
282.808	490
282.867	-398
282.926	-18
282.985	-345
283.043	-605
283.102	-111
283.161	-156
283.220	1664
283.279	2714
283.338	1092
283.396	590
283.455	330
283.514	17
283.573	1476
283.631	766
283.690	796
283.749	-155
283.808	974
283.866	1390
283.925	-356
283.984	1090
284.043	508
284.101	938
284.160	454
284.219	1742
284.277	234
284.336	365
284.395	3776
284.453	3475
284.512	1784
284.570	2191
284.629	1811
284.688	2066
284.746	2441
284.805	2663
284.863	3909
284.922	5368
284.981	6658
285.039	9981
285.098	15433
285.156	24218
285.215	26632
285.273	25218
285.332	26497
285.390	18998
285.449	11983
285.507	8478
285.566	6473
285.624	4371
285.683	3369
285.741	3021
285.799	2250
285.858	3093
285.916	2475
285.975	1668
286.033	923
286.091	1054
286.150	480
286.208	1157
286.267	862
286.325	1076
286.383	1180
286.442	1292
286.500	446
286.558	391
286.616	136
286.675	1044
286.733	862
286.791	-3
286.850	1118
286.908	796
286.966	738
287.024	900
287.083	192
287.141	386
287.199	647
287.257	678
287.315	207
287.374	501
287.432	993
287.490	1124
287.548	115
287.606	430
287.664	350
287.723	404
287.781	625
287.839	413
287.897	547
287.955	410
288.013	590
288.071	2517
288.129	10487
288.187	35538
288.245	17522
288.303	5152
288.361	1737
288.419	1602
288.477	266
288.535	358
288.593	74
288.651	-250
288.709	164
288.767	-339
288.825	-419
288.883	-777
288.941	-301
288.999	-173
289.057	6
289.115	-377
289.173	-832
289.231	-615
289.289	-402
289.346	-648
289.404	516
289.462	632
289.520	332
289.578	-323
289.636	-376
289.694	-624
289.751	-39
289.809	-293
289.867	33
289.925	-32
289.983	-429
290.040	411
290.098	-1390
290.156	407
290.214	-295
290.271	68
290.329	-658
290.387	308
290.444	-698
290.502	-515
290.560	-202
290.617	262
290.675	-980
290.733	-356
290.790	-39
290.848	269
290.906	7
290.963	538
291.021	71
291.078	-139
291.136	-524
291.194	1529
291.251	4283
291.309	748
291.366	401
291.424	-124
291.481	-181
291.539	-206
291.596	-606
291.654	-145
291.711	-483
291.769	-563
291.826	1065
291.884	518
291.941	-736
291.999	-102
292.056	-648
292.114	457
292.171	-468
292.228	331
292.286	219
292.343	50
292.401	-29
292.458	354
292.515	-717
292.573	714
292.630	-75
292.687	455
292.745	-30
292.802	241
292.859	2579
292.917	2926
292.974	2390
293.031	721
293.089	267
293.146	-185
293.203	36
293.260	703
293.318	-385
293.375	617
293.432	169
293.489	-23
293.546	713
293.604	500
293.661	1291
293.718	5499
293.775	2610
293.832	2017
293.889	898
293.947	608
294.004	107
294.061	534
294.118	1039
294.175	4342
294.232	7858
294.289	3366
294.346	420
294.403	865
294.460	146
294.517	242
294.574	-339
294.631	417
294.688	-479
294.745	772
294.802	7735
294.859	11231
294.916	3809
294.973	730
295.030	631
295.087	964
295.144	528
295.201	1076
295.258	221
295.315	-80
295.372	1364
295.429	4379
295.486	2215
295.542	1111
295.599	4979
295.656	9151
295.713	4211
295.770	5176
295.827	1941
295.883	265
295.940	454
295.997	1215
296.054	985
296.111	1054
296.167	1076
296.224	-233
296.281	889
296.338	1235
296.394	777
296.451	333
296.508	1632
296.564	3892
296.621	3967
296.678	4908
296.734	8510
296.791	4433
296.848	1471
296.904	1018
296.961	4205
297.018	5719
297.074	4319
297.131	1930
297.187	661
297.244	638
297.301	4419
297.357	8836
297.414	3590
297.470	1160
297.527	136
297.583	301
297.640	687
297.696	432
297.753	42
297.809	43
297.866	229
297.922	244
297.979	-1195
298.035	134
298.092	550
298.148	2608
298.204	2627
298.261	1310
298.317	2182
298.374	6865
298.430	3447
298.486	2069
298.543	132
298.599	1073
298.656	1161
298.712	1929
298.768	4545
298.824	3601
298.881	978
298.937	340
298.993	178
299.050	580
299.106	460
299.162	280
299.218	601
299.275	-219
299.331	-35
299.387	1039
299.443	5006
299.500	7226
299.556	2867
299.612	760
299.668	656
299.724	1443
299.780	2880
299.837	974
299.893	631
299.949	5171
300.005	6649
300.061	5466
300.117	9558
300.173	5031
300.229	1876
300.285	1586
300.341	3131
300.397	1352
300.453	616
300.510	1055
300.566	316
300.622	566
300.678	4946
300.734	9049
300.790	6335
300.845	6692
300.901	3957
300.957	7856
301.013	4789
301.069	1332
301.125	1173
301.181	195
301.237	326
301.293	511
301.349	728
301.405	130
301.461	61
301.516	1040
301.572	401
301.628	1406
301.684	1217
301.740	1472
301.796	3595
301.851	3090
301.907	4206
301.963	3869
302.019	5462
302.074	14480
302.130	16475
302.186	8549
302.242	3586
302.297	2093
302.353	1384
302.409	2636
302.464	3431
302.520	1632
302.576	5348
302.631	8408
302.687	5187
302.743	2232
302.798	1282
302.854	687
302.910	1556
302.965	1577
303.021	2362
303.076	1945
303.132	2389
303.187	4074
303.243	1781
303.299	1300
303.354	943
303.410	599
303.465	673
303.521	306
303.576	-196
303.632	928
303.687	1261
303.743	5166
303.798	5075
303.853	2215
303.909	970
303.964	922
304.020	1393
304.075	2414
304.130	1859
304.186	4445
304.241	5050
304.297	4051
304.352	1933
304.358	1908
304.407	1708
304.449	1473
304.463	1399
304.518	1105
304.539	1028
304.573	877
304.629	280
304.630	301
304.684	1320
304.720	2442
304.739	3008
304.794	6440
304.811	5606
304.850	3577
304.902	1793
304.905	1679
304.960	1130
304.992	786
305.015	525
305.071	1542
305.083	1446
305.126	1124
305.173	1384
305.181	1428
305.236	528
305.264	810
305.292	1103
305.347	1135
305.354	1165
305.402	1339
305.445	1181
305.457	1134
305.512	1646
305.535	1519
305.567	1364
305.622	1336
305.626	1391
305.678	2505
305.716	5002
305.733	5928
305.788	7257
305.807	6144
305.843	4188
305.897	5045
305.898	5053
305.953	6060
305.988	4162
306.008	3096
306.063	2017
306.078	1722
306.118	917
306.168	642
306.173	633
306.228	1132
306.259	848
306.283	566
306.338	1008
306.349	970
306.393	835
306.440	782
306.448	797
306.503	1235
306.530	1128
306.558	1115
306.613	2895
306.620	3000
306.668	3715
306.711	5516
306.723	5829
306.778	5379
306.801	4297
306.833	3012
306.888	1502
306.892	1456
306.943	1051
306.982	1000
306.997	1010
307.052	952
307.072	960
307.107	1009
307.162	1350
307.163	1348
307.217	1453
307.253	2325
307.272	2656
307.327	2314
307.343	2276
307.381	2205
307.434	1576
307.436	1593
307.491	2720
307.524	4592
307.546	5315
307.600	5622
307.614	5028
307.655	3035
307.704	1331
307.710	1264
307.765	1948
307.795	2554
307.819	2968
307.874	4511
307.885	4456
307.929	4021
307.975	4513
307.984	4738
308.038	6206
308.065	7588
308.093	11353
308.148	22152
308.156	24625
308.202	37065
308.246	45195
308.257	44904
308.312	29695
308.336	22703
308.366	17036
308.421	10245
308.426	9747
308.475	6377
308.517	4309
308.530	3950
308.585	3662
308.607	3551
308.639	3314
308.694	3295
308.697	3304
308.748	4372
308.787	5755
308.803	5873
308.857	5148
308.877	4727
308.912	4541
308.967	4886
308.967	4903
309.021	7114
309.058	8780
309.076	10375
309.130	16693
309.148	19426
309.185	29548
309.238	47130
309.239	47276
309.293	53128
309.328	51677
309.348	47172
309.402	29052
309.418	24209
309.457	17483
309.508	11368
309.511	11140
309.566	9169
309.598	8659
309.620	9228
309.674	11546
309.688	12315
309.729	12440
309.778	10569
309.783	10331
309.837	7632
309.868	6110
309.892	5935
309.946	6652
309.959	7061
310.001	9264
310.049	11221
310.055	10902
310.109	7052
310.139	4848
310.163	4142
310.218	2958
310.229	2801
310.272	2580
310.319	2346
310.326	2213
310.381	1399
310.409	1035
310.435	1060
310.489	929
310.499	933
310.543	1125
310.589	1266
310.598	1326
310.652	1933
310.679	2077
310.706	1993
310.760	1902
310.769	1884
310.814	1658
310.859	1505
310.868	1563
310.923	1605
310.948	1780
310.977	1803
311.031	1666
311.038	1646
311.085	1474
311.128	1336
311.139	1370
311.193	1606
311.218	1576
311.247	1473
311.301	1427
311.308	1422
311.356	1541
311.398	1609
311.410	1523
311.464	1161
311.488	929
311.518	1016
311.572	1224
311.578	1244
311.626	1517
311.668	1825
311.680	1979
311.734	2528
311.758	2799
311.788	2640
311.842	2346
311.847	2304
311.896	2997
311.937	3631
311.950	3616
312.004	3527
312.027	3464
312.058	2650
312.112	1194
312.117	1053
312.165	1649
312.207	2166
312.297	3002
312.386	2125
312.476	1915
312.566	3234
312.656	1830
312.745	1705
312.835	2334
312.925	1898
313.015	1320
313.104	2169
313.194	2196
313.284	1494
313.374	2160
313.463	2360
313.553	1871
313.643	1746
313.732	1618
313.822	1791
313.912	1951
314.001	2125
314.091	2400
314.180	2735
314.270	3079
314.360	1898
314.449	2180
314.539	1437
314.628	2088
314.718	2483
314.808	2887
314.897	1823
314.987	1698
315.076	2184
315.166	1889
315.255	2775
315.345	1720
315.434	1955
315.524	2334
315.613	1903
315.703	2111
315.792	3377
315.881	3962
315.971	2462
316.060	2822
316.150	3341
316.239	3591
316.328	1955
316.418	1376
316.507	1629
316.597	1907
316.686	1680
316.775	2213
316.865	3124
316.954	1598
317.043	1854
317.133	1717
317.222	1430
317.311	1399
317.400	435
317.490	1964
317.579	1746
317.668	1279
317.757	2160
317.847	3568
317.936	6092
318.025	4330
318.114	3340
318.203	1888
318.293	2768
318.382	5318
318.471	3751
318.560	7265
318.649	13939
318.738	3603
318.828	2344
318.917	2237
319.006	1638
319.095	5166
319.184	15647
319.273	8436
319.362	3459
319.451	1801
319.540	1038
319.629	3291
319.718	4239
319.807	2585
319.896	5534
319.985	20205
320.074	7029
320.163	1479
320.252	2215
320.341	3207
320.430	2892
320.519	2782
320.608	2420
320.697	1161
320.786	2152
320.875	1707
320.964	2724
321.053	2915
321.142	4227
321.230	4501
321.319	4096
321.408	7863
321.497	4589
321.586	3661
321.675	3595
321.764	4538
321.852	3300
321.941	5725
322.030	3579
322.119	3690
322.207	7481
322.296	6097
322.385	4094
322.474	3298
322.562	8868
322.651	5174
322.740	4219
322.829	4544
322.917	4340
323.006	3098
323.095	2809
323.183	2142
323.272	4078
323.361	4067
323.449	10211
323.538	2974
323.626	7029
323.715	3938
323.804	2266
323.892	6949
323.981	3986
324.069	1981
324.158	3607
324.246	4065
324.335	3017
324.424	2796
324.512	2258
324.601	2373
324.689	3896
324.778	5773
324.866	3483
324.954	1694
325.043	1626
325.131	1287
325.220	3891
325.308	4297
325.397	2800
325.485	2261
325.574	1583
325.662	1430
325.750	1469
325.839	1393
325.927	1163
326.015	778
326.104	2385
326.192	2306
326.280	1931
326.369	972
326.457	1644
326.545	2633
326.634	1241
326.722	1714
326.810	1909
326.898	1393
326.987	1910
327.075	1897
327.163	3580
327.251	1840
327.340	2862
327.428	3501
327.516	2037
327.604	1273
327.692	2037
327.781	1735
327.869	1508
327.957	1686
328.045	1811
328.133	1404
328.221	792
328.309	1946
328.397	1521
328.485	1779
328.574	1580
328.662	4377
328.750	2715
328.838	1945
328.926	685
329.014	1133
329.102	1466
329.190	5011
329.278	2780
329.366	1734
329.454	828
329.542	1304
329.630	611
329.718	1811
329.806	1200
329.893	1804
329.981	2215
330.069	1787
330.157	1711
330.245	4814
330.333	2952
330.421	1268
330.509	2263
330.597	5575
330.684	3989
330.772	2148
330.860	3491
330.948	4377
331.036	2988
331.123	403
331.211	986
331.299	1129
331.387	4712
331.475	6325
331.562	2050
331.650	1050
331.738	945
331.825	2158
331.913	1185
332.001	1230
332.089	2116
332.176	2902
332.264	3240
332.352	3332
332.439	2310
332.527	856
332.614	1156
332.702	1486
332.790	667
332.877	1657
332.965	4321
333.052	1411
333.140	1632
333.228	4154
333.315	2428
333.403	1466
333.490	2376
333.578	2409
333.665	4885
333.753	3205
333.840	1030
333.928	1984
334.015	3513
334.103	6032
334.190	20147
334.278	6377
334.365	2979
334.452	2455
334.540	2105
334.627	1653
334.715	3236
334.802	4872
334.889	13200
334.977	13559
335.064	4312
335.151	2038
335.239	2532
335.326	3147
335.413	10439
335.501	14034
335.588	2140
335.675	2268
335.762	3750
335.850	5264
335.937	3079
336.024	6419
336.111	20902
336.199	10867
336.286	4270
336.373	1765
336.460	1889
336.547	2425
336.635	1416
336.722	1390
336.809	1346
336.896	1598
336.983	6333
337.070	16467
337.157	20552
337.245	9234
337.332	6442
337.419	1761
337.506	1362
337.593	1318
337.680	5763
337.767	18893
337.854	4606
337.941	5556
338.028	3417
338.115	1251
338.202	2868
338.289	3256
338.376	7987
338.463	2844
338.550	10446
338.637	10982
338.724	2404
338.811	3463
338.898	1450
338.984	1256
339.071	2109
339.158	1802
339.245	3710
339.332	3114
339.419	2585
339.506	2239
339.593	693
339.679	1518
339.766	1261
339.853	1616
339.940	2951
340.027	588
340.113	1251
340.200	1602
340.287	1125
340.374	909
340.460	1983
340.547	1376
340.634	2141
340.720	6468
340.807	2625
340.894	1213
340.980	1137
341.067	999
341.154	1435
341.240	1256
341.327	3578
341.414	2084
341.500	1694
341.587	2668
341.674	1733
341.760	2004
341.847	2220
341.933	596
342.020	814
342.106	1254
342.193	1378
342.279	1533
342.366	1334
342.452	2360
342.539	1091
342.625	2192
342.712	5502
342.798	2455
342.885	1168
342.971	397
343.058	513
343.144	984
343.230	598
343.317	1658
343.403	695
343.490	1189
343.576	528
343.662	431
343.749	587
343.835	686
343.921	2319
344.008	9653
344.094	20383
344.180	5452
344.267	1859
344.353	6181
344.439	6525
344.525	3347
344.612	6483
344.698	6883
344.784	3279
344.870	1434
344.957	883
345.043	1927
345.129	408
345.215	2488
345.301	1700
345.387	1650
345.474	491
345.560	407
345.646	461
345.732	1351
345.818	1253
345.904	1019
345.990	736
346.076	1076
346.162	1789
346.249	2137
346.335	926
346.421	1237
346.507	3219
346.593	7617
346.679	1759
346.765	1240
346.851	1325
346.937	1123
347.023	1625
347.108	1320
347.194	116
347.280	799
347.366	1914
347.452	3360
347.538	8600
347.624	9401
347.710	6787
347.796	1063
347.882	1326
347.967	1084
348.053	1853
348.139	1172
348.225	643
348.311	309
348.397	209
348.482	1454
348.568	1817
348.654	854
348.740	2017
348.825	945
348.911	2954
348.997	4906
349.083	9210
349.168	1393
349.254	1893
349.340	1351
349.425	1138
349.511	1668
349.597	1436
349.682	1518
349.768	6438
349.854	3326
349.939	1277
350.025	443
350.110	1124
350.196	909
350.282	378
350.367	820
350.453	1125
350.538	532
350.624	1002
350.709	1463
350.795	403
350.880	796
350.966	1432
351.051	1924
351.137	922
351.222	1120
351.308	2380
351.393	6638
351.479	2270
351.564	853
351.649	1301
351.735	315
351.820	452
351.906	770
351.991	871
352.076	3689
352.162	5204
352.247	1215
352.332	1121
352.418	2203
352.503	2893
352.588	9489
352.673	7092
352.759	1391
352.844	890
352.929	986
353.014	335
353.100	1135
353.185	1449
353.270	1425
353.355	2201
353.441	1004
353.526	994
353.611	2190
353.696	1406
353.781	2262
353.866	143
353.952	1276
354.037	1433
354.122	3927
354.207	3399
354.292	2056
354.377	1439
354.462	1079
354.547	1194
354.632	1677
354.717	2624
354.802	1381
354.887	919
354.972	1758
355.057	1090
355.142	115
355.227	1715
355.312	1346
355.397	2700
355.482	5926
355.567	2247
355.652	3143
355.737	2998
355.822	7285
355.907	5490
355.991	2655
356.076	874
356.161	1830
356.246	287
356.331	809
356.416	2143
356.501	10293
356.585	9830
356.670	1474
356.755	2959
356.840	2539
356.924	7988
357.009	23031
357.094	10368
357.179	2833
357.263	1940
357.348	2318
357.433	3064
357.517	2420
357.602	2257
357.687	1491
357.771	3272
357.856	6978
357.941	4816
358.025	6863
358.110	25505
358.195	12632
358.279	3354
358.364	2565
358.448	5356
358.533	13822
358.617	9697
358.702	10852
358.787	4837
358.871	2259
358.956	2956
359.040	944
359.125	1750
359.209	1201
359.294	3532
359.378	5951
359.462	1378
359.547	1288
359.631	789
359.716	-22
359.800	1084
359.885	2784
359.969	454
360.053	1581
360.138	952
360.222	1291
360.306	2401
360.391	1707
360.475	4235
360.559	7005
360.644	5180
360.728	3073
360.812	6987
360.896	15548
360.981	8124
361.065	4030
361.149	2491
361.233	1432
361.318	120
361.402	1165
361.486	1515
361.570	335
361.654	1063
361.739	2736
361.823	9083
361.907	16374
361.991	3503
362.075	2418
362.159	3581
362.243	4912
362.327	5615
362.411	8707
362.495	3498
362.580	2101
362.664	1361
362.748	935
362.832	3264
362.916	5234
363.000	15480
363.084	26175
363.168	22471
363.252	6081
363.336	3304
363.420	4564
363.503	13767
363.587	17138
363.671	3805
363.755	1440
363.839	4584
363.923	978
364.007	2936
364.091	3610
364.175	5480
364.258	27597
364.342	24773
364.426	31917
364.510	15801
364.594	7968
364.677	5852
364.761	13190
364.845	10836
364.929	4152
365.013	2846
365.096	2782
365.180	3006
365.264	6090
365.347	24135
365.431	11619
365.515	2294
365.598	508
365.682	2119
365.766	2768
365.849	4715
365.933	1059
366.017	3719
366.100	2274
366.184	496
366.267	1694
366.351	1007
366.435	786
366.518	1172
366.602	848
366.685	1255
366.769	1133
366.852	3057
366.936	4463
367.019	2073
367.103	1245
367.186	5936
367.270	1106
367.353	829
367.436	1000
367.520	953
367.603	1375
367.687	624
367.770	1991
367.853	2184
367.937	4788
368.020	7750
368.104	1234
368.187	2088
368.270	2781
368.353	3611
368.437	2548
368.520	5274
368.603	3806
368.687	5570
368.770	9963
368.853	2899
368.936	3999
369.020	4812
369.103	938
369.186	1045
369.269	657
369.352	1832
369.436	1833
369.519	1971
369.602	-243
369.685	2540
369.768	253
369.851	1422
369.934	749
370.018	1371
370.101	1144
370.184	3760
370.267	1777
370.350	2746
370.433	4528
370.516	6949
370.599	9606
370.682	2198
370.765	7454
370.848	8166
370.931	12536
371.014	6663
371.097	480
371.180	1755
371.263	1655
371.346	331
371.429	1954
371.511	628
371.594	2133
371.677	3522
371.760	5966
371.843	2973
371.926	11769
372.009	24754
372.091	12311
372.174	6081
372.257	12403
372.340	5999
372.423	5997
372.505	9655
372.588	3538
372.671	5129
372.754	11567
372.836	7138
372.919	7497
373.002	16310
373.085	4143
373.167	2884
373.250	6060
373.332	11612
373.415	15051
373.498	28745
373.580	12531
373.663	13917
373.746	20572
373.828	5091
373.911	3607
373.993	2575
374.076	13704
374.159	12179
374.241	4653
374.324	10399
374.406	7718
374.489	7989
374.571	25169
374.654	10691
374.736	5619
374.819	14728
374.901	21794
374.983	20432
375.066	4773
375.148	2346
375.231	10782
375.313	21910
375.395	9116
375.478	1467
375.560	1442
375.643	1933
375.725	3615
375.807	16734
375.890	15014
375.972	4625
376.054	2791
376.136	4272
376.219	2540
376.301	5385
376.383	15287
376.465	6648
376.548	3237
376.630	4570
376.712	13750
376.794	6460
376.877	1200
376.959	-129
377.041	1315
377.123	3764
377.205	4815
377.287	1390
377.369	1395
377.452	534
377.534	867
377.616	545
377.698	494
377.780	-155
377.862	798
377.944	2187
378.026	-38
378.108	1131
378.190	480
378.272	1093
378.354	827
378.436	-90
378.518	1123
378.600	6698
378.682	5331
378.764	7376
378.846	7034
378.928	2275
379.010	2573
379.091	2020
379.173	1304
379.255	1148
379.337	1138
379.419	3807
379.501	11245
379.583	4981
379.664	982
379.746	970
379.828	8718
379.910	10614
379.991	8696
380.073	2094
380.155	2293
380.237	1909
380.318	475
380.400	412
380.482	1990
380.564	1604
380.645	2277
380.727	2321
380.809	2312
380.890	549
380.972	-320
381.053	1188
381.135	1997
381.217	1176
381.298	8972
381.380	4436
381.461	3750
381.543	12920
381.624	16236
381.706	3711
381.787	2429
381.869	3039
381.951	6392
382.032	19836
382.113	17512
382.195	2570
382.276	3538
382.358	4344
382.439	12504
382.521	14464
382.602	22731
382.684	11103
382.765	18496
382.846	24131
382.928	40259
383.009	22467
383.090	17153
383.172	51456
383.253	74421
383.334	27039
383.416	22139
383.497	12946
383.578	7910
383.659	13854
383.741	45720
383.822	100544
383.903	53168
383.984	17933
384.066	26367
384.147	15701
384.228	4565
384.309	3541
384.390	3536
384.471	2568
384.553	2673
384.634	2899
384.715	3197
384.796	1986
384.877	2749
384.958	7028
385.039	8623
385.120	3125
385.201	3466
385.282	2806
385.363	3934
385.444	1882
385.525	3523
385.606	9993
385.687	9151
385.768	3738
385.849	2630
385.930	12380
386.011	22231
386.092	5859
386.173	2026
386.254	2450
386.335	2683
386.416	2074
386.496	5602
386.577	8660
386.658	4421
386.739	2610
386.820	2804
386.901	2185
386.981	2253
387.062	1248
387.143	1300
387.224	7765
387.304	8442
387.385	4816
387.466	2008
387.547	4360
387.627	1398
387.708	3544
387.789	13528
387.869	15256
387.950	5657
388.031	1528
388.111	419
388.192	5121
388.273	7801
388.353	3428
388.434	2102
388.514	2501
388.595	11455
388.676	15429
388.756	8948
388.837	8543
388.917	5332
388.998	547
389.078	891
389.159	1165
389.239	202
389.320	2701
389.400	219
389.480	4177
389.561	8547
389.641	4771
389.722	1762
389.802	1951
389.883	3502
389.963	10997
390.043	6766
390.124	1826
390.204	2890
390.284	8227
390.365	5284
390.445	8908
390.525	14844
390.605	9909
390.686	3786
390.766	2782
390.846	2463
390.927	118
391.007	192
391.087	2199
391.167	953
391.247	132
391.328	1989
391.408	4351
391.488	3792
391.568	-71
391.648	430
391.728	2752
391.808	2324
391.888	1043
391.969	4506
392.049	8472
392.129	4969
392.209	3989
392.289	10458
392.369	6440
392.449	7529
392.529	4203
392.609	3483
392.689	3789
392.769	8437
392.849	8037
392.929	8644
393.009	16637
393.089	11433
393.169	11209
393.248	29835
393.328	105893
393.408	114360
393.488	34685
393.568	9852
393.648	4922
393.728	3667
393.807	2087
393.887	3391
393.967	2842
394.047	3183
394.127	4374
394.206	7135
394.286	22558
394.366	77290
394.446	87129
394.525	28717
394.605	8789
394.685	5646
394.764	11609
394.844	18337
394.924	12344
395.003	3287
395.083	2081
395.163	2798
395.242	1717
395.322	2350
395.402	377
395.481	3991
395.561	6362
395.640	19384
395.720	17394
395.799	21985
395.879	17756
395.958	12038
396.038	35244
396.117	98717
396.197	109271
396.276	48722
396.356	17996
396.435	12336
396.515	7279
396.594	6505
396.673	9925
396.753	34243
396.832	97569
396.912	76983
396.991	18727
397.070	7024
397.150	2602
397.229	3501
397.308	4933
397.388	10730
397.467	6164
397.546	2432
397.625	-475
397.705	2861
397.784	1546
397.863	982
397.942	1080
398.022	1583
398.101	4366
398.180	17998
398.259	10234
398.338	2394
398.417	1452
398.497	547
398.576	1307
398.655	259
398.734	1159
398.813	900
398.892	4724
398.971	18219
399.050	8888
399.129	505
399.208	1022
399.287	1474
399.366	-86
399.445	856
399.524	711
399.603	-734
399.682	1078
399.761	4058
399.840	17069
399.919	14761
399.998	2110
400.077	-59
400.156	-427
400.235	3164
400.313	270
400.392	-140
400.471	5029
400.550	7924
400.629	1504
400.708	1399
400.786	891
400.865	5048
400.944	4986
401.023	3347
401.102	-188
401.180	-279
401.259	294
401.338	417
401.416	507
401.495	210
401.574	1334
401.652	-126
401.731	1507
401.810	-373
401.888	593
401.967	-735
402.046	744
402.124	1312
402.203	892
402.281	1143
402.360	553
402.438	6041
402.517	3430
402.596	1925
402.674	-352
402.753	231
402.831	1065
402.910	1228
402.988	1750
403.066	8256
403.145	5795
403.223	2725
403.302	6272
403.380	6242
403.459	5012
403.537	2234
403.615	828
403.694	-827
403.772	1840
403.850	750
403.929	-142
404.007	-460
404.085	1948
404.164	846
404.242	1524
404.320	8495
404.398	25866
404.477	24024
404.555	21693
404.633	20219
404.711	20430
404.789	15028
404.868	2966
404.946	1218
405.024	587
405.102	1052
405.180	-244
405.258	-817
405.336	1551
405.415	-500
405.493	1335
405.571	1311
405.649	-58
405.727	-571
405.805	1675
405.883	925
405.961	1677
406.039	1294
406.117	-561
406.195	501
406.273	3667
406.351	15030
406.429	10487
406.507	2216
406.585	-174
406.663	729
406.740	670
406.818	-687
406.896	311
406.974	727
407.052	368
407.130	8951
407.208	12057
407.285	2519
407.363	-613
407.441	-311
407.519	639
407.596	372
407.674	2079
407.752	7334
407.830	8281
407.907	3657
407.985	-328
408.063	220
408.141	-161
408.218	1628
408.296	1013
408.373	25
408.451	-119
408.529	306
408.606	21
408.684	68
408.762	224
408.839	-353
408.917	155
408.994	238
409.072	-747
409.149	565
409.227	565
409.304	1288
409.382	1859
409.459	474
409.537	1966
409.614	2309
409.692	1487
409.769	1092
409.846	1575
409.924	3377
410.001	198
410.079	1471
410.156	1724
410.233	784
410.311	731
410.388	608
410.465	889
410.543	221
410.620	408
410.697	197
410.775	187
410.852	-1393
410.929	342
411.006	1028
411.083	-21
411.161	584
411.238	1711
411.315	345
411.392	442
411.469	1021
411.547	427
411.624	-1487
411.701	273
411.778	665
411.855	398
411.932	275
412.009	-203
412.086	131
412.163	1018
412.240	593
412.317	833
412.394	-287
412.471	359
412.548	156
412.625	-1098
412.702	916
412.779	1345
412.856	445
412.933	-276
413.010	415
413.087	457
413.164	2809
413.241	5983
413.318	350
413.395	733
413.471	533
413.548	404
413.625	591
413.702	-825
413.779	892
413.855	388
413.932	-263
414.009	-725
414.086	-164
414.162	211
414.239	696
414.316	3784
414.393	8782
414.469	1780
414.546	-48
414.623	107
414.699	217
414.776	-799
414.853	112
414.929	-283
415.006	62
415.082	151
415.159	269
415.236	-153
415.312	391
415.389	215
415.465	241
415.542	118
415.618	-1313
415.695	684
415.771	13
415.848	-33
415.924	-46
416.000	-97
416.077	810
416.153	-1415
416.230	-883
416.306	-588
416.383	66
416.459	114
416.535	-610
416.612	-811
416.688	52
416.764	-242
416.841	-495
416.917	170
416.993	-227
417.069	355
417.146	19
417.222	352
417.298	39
417.374	-624
417.451	138
417.527	257
417.603	-565
417.679	-123
417.755	-230
417.831	-756
417.908	159
417.984	-487
418.060	-704
418.136	330
418.212	343
418.288	4
418.364	785
418.440	-675
418.516	397
418.592	1047
418.668	1678
418.744	1389
418.820	1826
418.896	136
418.972	-1585
419.048	-546
419.124	1387
419.200	-817
419.276	-678
419.352	-826
419.428	-1002
419.504	16
419.579	-29
419.655	-1218
419.731	77
419.807	764
419.883	1231
419.959	947
420.034	492
420.110	1105
420.186	5064
420.262	4317
420.337	-494
420.413	41
420.489	240
420.565	949
420.640	-21
420.716	747
420.792	-1010
420.867	941
420.943	-479
421.019	1012
421.094	-472
421.170	-49
421.245	-22
421.321	147
421.397	-276
421.472	2150
421.548	4034
421.623	4003
421.699	1369
421.774	1969
421.850	1374
421.925	2700
422.001	3580
422.076	3536
422.152	3736
422.227	5690
422.302	8619
422.378	14166
422.453	23640
422.529	51009
422.604	95307
422.679	107503
422.755	97528
422.830	59261
422.905	28357
422.981	15274
423.056	9928
423.131	7363
423.207	5638
423.282	3656
423.357	3726
423.432	2844
423.508	2460
423.583	3018
423.658	2846
423.733	979
423.808	1375
423.883	1651
423.959	786
424.034	459
424.109	1643
424.184	1547
424.259	444
424.334	194
424.409	-80
424.484	41
424.559	43
424.634	-271
424.709	-60
424.784	803
424.859	343
424.934	111
425.009	3122
425.084	6395
425.159	2171
425.234	93
425.309	-195
425.384	1778
425.459	2798
425.534	364
425.609	-296
425.683	-383
425.758	-277
425.833	-106
425.908	226
425.983	1366
426.058	5218
426.132	1888
426.207	254
426.282	1376
426.357	398
426.431	85
426.506	-145
426.581	-174
426.655	-442
426.730	-65
426.805	-993
426.879	106
426.954	-47
427.029	740
427.103	4108
427.178	13180
427.253	6049
427.327	348
427.402	754
427.476	4065
427.551	416
427.625	248
427.700	235
427.774	-995
427.849	-171
427.923	-847
427.998	-257
428.072	-322
428.147	2518
428.221	7595
428.296	26734
428.370	15477
428.444	1074
428.519	893
428.593	4445
428.667	3570
428.742	4577
428.816	4698
428.890	17622
428.965	28679
429.039	8477
429.113	5197
429.188	1379
429.262	-385
429.336	315
429.410	2496
429.485	2502
429.559	3217
429.633	2315
429.707	-118
429.781	2170
429.855	19899
429.930	28427
430.004	12216
430.078	19898
430.152	18940
430.226	33245
430.300	34331
430.374	5575
430.448	1804
430.522	5067
430.596	16263
430.670	10886
430.744	23338
430.818	32765
430.892	6019
430.966	-57
431.040	-32
431.114	-714
431.188	-745
431.262	-280
431.336	-789
431.410	1430
431.484	4229
431.557	2890
431.631	-523
431.705	-100
431.779	4100
431.853	23366
431.927	16788
432.000	2138
432.074	394
432.148	55
432.222	-57
432.295	-249
432.369	-526
432.443	-53
432.516	4952
432.590	13462
432.664	4896
432.737	6
432.811	-795
432.885	-1241
432.958	42
433.032	-1078
433.106	-1260
433.179	-1184
433.253	-838
433.326	-796
433.400	-1201
433.473	-1130
433.547	-543
433.620	-429
433.694	-681
433.767	-406
433.841	-564
433.914	-708
433.988	-1000
434.061	-831
434.134	-866
434.208	-1067
434.281	-820
434.355	-1329
434.428	-264
434.501	-1106
434.575	-515
434.648	-524
434.721	-924
434.795	-1651
434.868	-687
434.941	-985
435.014	-1306
435.088	-953
435.161	-1104
435.234	-231
435.307	180
435.381	-362
435.454	232
435.527	-24
435.600	757
435.673	912
435.746	-525
435.819	-124
435.892	-368
435.966	-528
436.039	-708
436.112	195
436.185	-639
436.258	-903
436.331	-1209
436.404	-581
436.477	-76
436.550	-402
436.623	-1042
436.696	-935
436.769	-846
436.842	-664
436.915	-640
436.987	165
437.060	-444
437.133	-913
437.206	-512
437.279	-725
437.352	-1522
437.425	-786
437.498	-419
437.570	290
437.643	113
437.716	-898
437.789	-1904
437.861	-830
437.934	295
438.007	-145
438.080	-1348
438.152	-686
438.225	-774
438.298	5792
438.370	18933
438.443	7087
438.516	588
438.588	-700
438.661	-805
438.734	-710
438.806	-890
438.879	-1118
438.951	-72
439.024	-199
439.096	-983
439.169	-1581
439.241	-1616
439.314	-716
439.386	-689
439.459	-672
439.531	-36
439.604	-1180
439.676	-517
439.749	-796
439.821	-1144
439.893	-525
439.966	-1334
440.038	-1464
440.110	-199
440.183	-1378
440.255	-1079
440.327	-317
440.400	2335
440.472	11660
440.544	7703
440.617	-220
440.689	660
440.761	-32
440.833	388
440.905	366
440.978	-1135
441.050	-1049
441.122	131
441.194	-1014
441.266	-1374
441.338	-799
441.411	-37
441.483	3359
441.555	5315
441.627	393
441.699	313
441.771	-433
441.843	-764
441.915	-471
441.987	-1232
442.059	-572
442.131	-579
442.203	326
442.275	497
442.347	156
442.419	1743
442.491	14157
442.563	35050
442.635	14440
442.706	5916
442.778	3824
442.850	114
442.922	-703
442.994	-606
443.066	-84
443.137	121
443.209	-371
443.281	1189
443.353	3781
443.425	17686
443.496	57721
443.568	59290
443.640	21079
443.711	3015
443.783	617
443.855	1492
443.926	-258
443.998	260
444.070	-403
444.141	-447
444.213	-58
444.285	-106
444.356	-613
444.428	-679
444.499	-1088
444.571	-1407
444.642	-163
444.714	-505
444.785	-396
444.857	546
444.928	2995
445.000	1776
445.071	1981
445.143	2460
445.214	1106
445.285	3687
445.357	12036
445.428	36536
445.500	81414
445.571	55188
445.642	30602
445.714	10398
445.785	7635
445.856	1318
445.928	75
445.999	-184
446.070	-227
446.141	53
446.213	-3
446.284	-74
446.355	-218
446.426	-764
446.497	-721
446.569	133
446.640	996
446.711	-338
446.782	-519
446.853	-1193
446.924	-869
446.995	-819
447.066	-552
447.138	297
447.209	169
447.280	-963
447.351	-2288
447.422	-817
447.493	-542
447.564	-244
447.635	-472
447.706	-525
447.777	-480
447.847	-738
447.918	-962
447.989	-8
448.060	404
448.131	1904
448.202	945
448.273	1234
448.344	483
448.414	-1332
448.485	-680
448.556	-343
448.627	-1576
448.698	-385
448.768	-2007
448.839	-350
448.910	-130
448.981	57
449.051	-622
449.122	-981
449.193	-1416
449.263	-864
449.334	-691
449.405	-319
449.475	-130
449.546	-435
449.616	719
449.687	-129
449.758	-444
449.828	-525
449.899	-1780
449.969	-506
450.040	-1003
450.110	3
450.181	-339
450.251	-1004
450.322	-357
450.392	305
450.463	-1378
450.533	-1331
450.604	-1031
450.674	-648
450.744	-184
450.815	-1217
450.885	-831
450.955	-168
451.026	-971
451.096	-1249
451.166	-703
451.237	226
451.307	4780
451.377	751
451.447	-1524
451.518	-863
451.588	-1281
451.658	-1016
451.728	782
451.799	3810
451.869	4145
451.939	-101
452.009	-623
452.079	-845
452.149	-157
452.219	773
452.289	5014
452.360	3151
452.430	28
452.500	-613
452.570	11
452.640	399
452.710	3968
452.780	6546
452.850	3384
452.920	1191
452.990	21
453.060	-370
453.129	-439
453.199	37
453.269	4010
453.339	10069
453.409	16174
453.479	17138
453.549	25056
453.619	28929
453.688	8883
453.758	1021
453.828	-702
453.898	187
453.968	-338
454.037	-14
454.087	-127
454.107	-186
454.168	-514
454.177	-577
454.247	-1446
454.249	-1406
454.316	-904
454.330	-814
454.386	-554
454.411	87
454.456	924
454.492	2076
454.525	3107
454.574	826
454.595	-172
454.655	-652
454.665	-726
454.734	-225
454.736	-176
454.804	324
454.817	1242
454.873	4473
454.898	4611
454.943	4766
454.979	2348
455.013	215
455.060	2
455.082	17
455.141	682
455.152	747
455.221	3626
455.222	3727
455.291	6939
455.303	6446
455.360	3967
455.384	5511
455.430	7314
455.465	5618
455.499	4168
455.546	4245
455.569	4107
455.627	1957
455.638	1621
455.707	-656
455.708	-634
455.777	157
455.789	148
455.846	56
455.869	-31
455.916	-284
455.950	-63
455.985	100
456.031	6
456.054	-48
456.112	72
456.124	112
456.193	-217
456.193	-236
456.262	380
456.274	386
456.332	269
456.355	228
456.401	-36
456.436	-146
456.470	-208
456.516	8
456.540	69
456.597	-487
456.609	-610
456.678	534
456.678	526
456.747	54
456.759	46
456.817	-25
456.840	49
456.886	40
456.920	182
456.955	351
457.001	49
457.024	-102
457.082	-82
457.093	-79
457.162	910
457.163	926
457.232	715
457.243	623
457.301	61
457.324	169
457.370	586
457.405	485
457.439	362
457.485	732
457.508	896
457.566	887
457.577	907
457.646	1209
457.647	1234
457.715	2806
457.727	3100
457.784	4905
457.808	5950
457.853	7131
457.889	8820
457.922	8859
457.969	5724
457.991	5730
458.050	7245
458.060	7566
458.129	12743
458.130	12935
458.198	12657
458.211	11330
458.267	6199
458.292	4202
458.336	2889
458.372	2793
458.405	3959
458.453	6326
458.474	7984
458.533	14160
458.543	14604
458.611	21274
458.614	21418
458.680	13055
458.694	10163
458.749	4754
458.775	3450
458.818	2162
458.855	2178
458.887	2147
458.936	1490
458.955	1330
459.016	1052
459.024	1006
459.093	1586
459.097	1580
459.162	1251
459.177	1286
459.230	1824
459.257	2180
459.299	2321
459.338	2073
459.368	1885
459.418	2173
459.437	2167
459.499	2119
459.505	2173
459.574	2375
459.579	2384
459.643	1810
459.659	1669
459.711	1473
459.740	1484
459.780	1476
459.820	1745
459.849	2061
459.900	2122
459.917	2068
459.981	2369
459.986	2368
460.054	2320
460.061	2316
460.123	2743
460.141	2872
460.191	3161
460.222	3311
460.260	3360
460.302	3480
460.328	3397
460.382	3226
460.397	3230
460.462	2846
460.465	2915
460.534	5722
460.543	6034
460.602	15394
460.623	18789
460.671	28570
460.703	37806
460.739	33551
460.783	25179
460.808	21003
460.864	5382
460.876	4222
460.944	2739
460.945	2717
461.013	2556
461.024	2580
461.081	2965
461.104	3021
461.150	2698
461.184	2383
461.218	2607
461.264	2791
461.286	2625
461.345	2439
461.355	2428
461.423	2584
461.425	2571
461.491	2172
461.505	2298
461.559	4288
461.585	5062
461.628	7820
461.665	10619
461.696	11385
461.745	13014
461.764	11337
461.825	3746
461.832	3640
461.901	3045
461.905	3076
461.969	2271
461.985	1935
462.037	2550
462.065	3117
462.105	3371
462.145	3392
462.173	4482
462.225	6664
462.241	7212
462.305	9739
462.310	9445
462.378	4861
462.385	4222
462.446	3278
462.465	3101
462.514	2832
462.545	2893
462.582	2932
462.625	2746
462.650	2785
462.705	3109
462.718	3187
462.785	3409
462.786	3422
462.854	3709
462.865	3848
462.922	5234
462.945	5785
462.990	4285
463.025	2887
463.058	2820
463.104	2843
463.126	2951
463.184	3279
463.194	3328
463.262	3371
463.264	3380
463.330	3209
463.344	3166
463.398	3951
463.424	4180
463.466	3500
463.504	3319
463.533	3647
463.583	3793
463.601	3913
463.663	4208
463.669	4222
463.737	4561
463.743	4591
463.805	7393
463.823	8146
463.873	11417
463.903	13720
463.940	13842
463.982	13638
464.008	10986
464.062	5049
464.076	4882
464.142	3790
464.144	3777
464.211	3545
464.221	3555
464.279	3932
464.301	3935
464.347	4109
464.381	4250
464.414	4308
464.461	4553
464.482	4903
464.540	5776
464.550	5700
464.617	4808
464.620	4777
464.685	5370
464.699	5492
464.753	7419
464.779	8391
464.820	9324
464.859	10143
464.888	9661
464.938	8690
464.956	8826
465.018	9378
465.023	9276
465.091	7606
465.098	7421
465.158	7086
465.177	6980
465.226	6665
465.257	6455
465.293	6582
465.336	6761
465.361	7515
465.416	9034
465.428	9256
465.495	10530
465.496	10583
465.563	15681
465.575	16591
465.631	20036
465.654	21516
465.698	14798
465.734	8800
465.765	7940
465.813	6800
465.833	6696
465.893	6398
465.900	6446
465.968	6866
465.972	6876
466.035	6269
466.052	6100
466.102	6948
466.131	7370
466.170	6926
466.210	6494
466.237	6544
466.290	6600
466.304	6621
466.369	6553
466.372	6594
466.439	7416
466.449	7526
466.506	8031
466.528	8189
466.573	10195
466.607	11648
466.641	15825
466.687	21668
466.708	23178
466.766	27243
466.775	25298
466.842	10222
466.845	9484
466.909	8270
466.925	8001
466.977	8263
467.004	8381
467.044	9273
467.083	10133
467.111	10967
467.163	12489
467.178	13076
467.242	15379
467.245	15289
467.312	12773
467.321	12413
467.379	11690
467.400	11393
467.446	12207
467.480	12753
467.559	12106
467.638	11047
467.717	9991
467.796	11183
467.875	11787
467.955	12132
468.034	15692
468.113	27421
468.192	37309
468.271	13766
468.350	11517
468.429	12197
468.508	12512
468.588	11173
468.667	9538
468.746	10686
468.825	10331
468.904	10059
468.983	10737
469.062	13274
469.141	15348
469.220	9744
469.299	10274
469.378	10916
469.456	15131
469.535	13407
469.614	11413
469.693	11545
469.772	12904
469.851	16306
469.930	13424
470.009	11740
470.088	10687
470.166	12428
470.245	14009
470.324	15402
470.403	11944
470.482	10962
470.560	9449
470.639	9203
470.718	11592
470.797	9961
470.875	10686
470.954	11685
471.033	13529
471.111	9352
471.190	8914
471.269	9039
471.347	9552
471.426	9708
471.505	11418
471.583	11689
471.662	10814
471.740	10466
471.819	10498
471.898	9392
471.976	10022
472.055	9803
472.133	9995
472.212	12647
472.290	11570
472.369	10185
472.447	9407
472.526	9740
472.604	9452
472.683	9263
472.761	9775
472.839	8548
472.918	9408
472.996	9652
473.075	9763
473.153	10224
473.231	8842
473.310	9557
473.388	9231
473.466	9866
473.545	9834
473.623	12506
473.701	10423
473.780	9465
473.858	8124
473.936	11125
474.014	7894
474.093	9534
474.171	12127
474.249	14300
474.327	10808
474.405	7806
474.484	7418
474.562	7662
474.640	7658
474.718	8375
474.796	7402
474.874	7862
474.952	7973
475.030	7472
475.108	6988
475.187	8066
475.265	7872
475.343	9309
475.421	9438
475.499	8561
475.577	8543
475.655	10450
475.733	14892
475.811	23826
475.889	21161
475.966	15138
476.044	7679
476.122	8299
476.200	8729
476.278	9268
476.356	8397
476.434	8247
476.512	9215
476.590	9280
476.667	9395
476.745	7014
476.823	8733
476.901	8319
476.979	8555
477.056	7937
477.134	8989
477.212	8701
477.290	8893
477.367	7278
477.445	7562
477.523	7349
477.601	7130
477.678	8086
477.756	8994
477.834	9166
477.911	7604
477.989	7801
478.066	7903
478.144	7678
478.222	7586
478.299	8305
478.377	7619
478.454	6687
478.532	6384
478.609	7438
478.687	7502
478.764	6674
478.842	6935
478.919	7654
478.997	7013
479.074	6295
479.152	7688
479.229	9488
479.307	6175
479.384	6720
479.461	6330
479.539	7084
479.616	7191
479.694	6529
479.771	7060
479.848	7480
479.926	8028
480.003	8870
480.080	6202
480.157	6861
480.235	5784
480.312	6857
480.389	7174
480.467	9366
480.544	11276
480.621	7556
480.698	7050
480.775	7484
480.853	7997
480.930	7857
481.007	7637
481.084	8148
481.161	8895
481.238	8471
481.315	6622
481.392	7187
481.470	7661
481.547	6587
481.624	7404
481.701	7434
481.778	6997
481.855	7917
481.932	9645
482.009	14077
482.086	9244
482.163	6256
482.240	7776
482.317	8116
482.393	8165
482.470	6836
482.547	7548
482.624	6425
482.701	6782
482.778	6479
482.855	6449
482.932	5498
483.009	5933
483.085	6596
483.162	7849
483.239	8117
483.316	6096
483.393	6371
483.469	5995
483.546	7983
483.623	7520
483.699	6322
483.776	6088
483.853	7387
483.930	10248
484.006	20862
484.083	35836
484.160	27528
484.236	46209
484.313	35652
484.389	26239
484.466	24517
484.543	22783
484.619	22956
484.696	24579
484.772	23483
484.849	24564
484.925	21008
485.002	20675
485.078	21240
485.155	20837
485.231	20403
485.308	19178
485.384	19233
485.461	21642
485.537	27399
485.614	31373
485.690	19290
485.766	18320
485.843	18840
485.919	20884
485.995	20636
486.072	16946
486.148	17156
486.224	17018
486.301	17557
486.377	18303
486.453	18686
486.530	20069
486.606	27647
486.682	29543
486.758	30178
486.835	29726
486.911	25904
486.987	34227
487.063	30944
487.139	32536
487.215	27223
487.292	21527
487.368	20672
487.444	20452
487.520	23127
487.596	24295
487.672	32928
487.748	65735
487.824	87866
487.900	37791
487.976	21461
488.052	19466
488.128	21566
488.204	17785
488.280	18134
488.356	19654
488.432	29419
488.508	38708
488.584	19111
488.660	15902
488.736	17028
488.812	15919
488.888	19798
488.964	21346
489.039	29734
489.115	37752
489.191	24948
489.267	16794
489.343	16644
489.418	15201
489.494	15225
489.570	12706
489.646	15682
489.722	13613
489.797	15271
489.873	18605
489.949	29612
490.024	24819
490.100	13918
490.176	13457
490.251	13999
490.327	15784
490.403	12642
490.478	13041
490.554	11964
490.629	12461
490.705	11223
490.781	13337
490.856	12102
490.932	13075
491.007	11748
491.083	13582
491.158	12339
491.234	14423
491.309	23465
491.385	23261
491.460	11897
491.536	13226
491.611	11225
491.686	11423
491.762	12883
491.837	17970
491.913	25660
491.988	33957
492.063	37555
492.139	17321
492.214	14108
492.289	10346
492.365	10416
492.440	11264
492.515	10555
492.590	10817
492.666	9729
492.741	11667
492.816	15224
492.891	9474
492.967	10551
493.042	9149
493.117	9884
493.192	10562
493.267	14438
493.342	31737
493.418	38495
493.493	10874
493.568	8691
493.643	8791
493.718	10895
493.793	11372
493.868	12815
493.943	9414
494.018	9875
494.093	8421
494.168	9133
494.243	7318
494.318	7459
494.393	8689
494.468	9323
494.543	8266
494.618	8430
494.693	8378
494.768	8220
494.842	9436
494.917	8475
494.992	8902
495.067	8659
495.142	7599
495.217	9484
495.292	8517
495.366	8685
495.441	9984
495.516	12750
495.591	13582
495.665	30585
495.740	60977
495.815	25853
495.890	10550
495.964	9086
496.039	12171
496.114	10337
496.188	12404
496.263	11357
496.338	9590
496.412	9878
496.487	11523
496.561	9995
496.636	11451
496.710	10965
496.785	10401
496.860	11958
496.934	9701
497.009	9210
497.083	10093
497.158	10153
497.232	11738
497.307	12247
497.381	11670
497.455	12439
497.530	14506
497.604	11025
497.679	10605
497.753	15145
497.827	15679
497.902	11882
497.976	16594
498.050	44154
498.125	156909
498.199	138899
498.273	18008
498.348	12164
498.422	11157
498.496	11613
498.570	11951
498.645	9725
498.719	9784
498.793	11770
498.867	17209
498.941	23772
499.016	66450
499.090	170123
499.164	49984
499.238	10811
499.312	9537
499.386	11989
499.460	12169
499.534	10649
499.609	12560
499.683	17163
499.757	14886
499.831	32177
499.905	114607
499.979	96467
500.053	17537
500.127	16905
500.201	11562
500.275	10190
500.349	10666
500.422	10713
500.496	14553
500.570	24868
500.644	65891
500.718	115002
500.792	23911
500.866	11107
500.940	12857
501.013	10933
501.087	10653
501.161	14568
501.235	17458
501.309	41342
501.382	104944
501.456	81677
501.530	20391
501.603	36023
501.677	13599
501.751	7464
501.825	10766
501.898	17657
501.972	43228
502.046	24701
502.119	10376
502.193	19758
502.266	44609
502.340	21527
502.413	21804
502.487	39080
502.561	20082
502.634	9304
502.708	7633
502.781	6789
502.855	7082
502.928	6063
503.002	7375
503.075	5981
503.149	7088
503.222	7649
503.295	7719
503.369	9003
503.442	11696
503.516	30968
503.589	74497
503.662	45767
503.736	17512
503.809	36768
503.882	28719
503.956	45921
504.029	40875
504.102	34589
504.175	43262
504.249	18334
504.322	11430
504.395	10247
504.468	7771
504.542	7556
504.615	5885
504.688	6183
504.761	4192
504.834	8602
504.907	7625
504.980	9593
505.053	7612
505.127	6483
505.200	11133
505.273	9271
505.346	6053
505.419	5073
505.492	5701
505.565	4549
505.638	5948
505.711	5470
505.784	4722
505.857	4665
505.930	6906
506.003	4701
506.076	7240
506.149	6768
506.221	6841
506.294	9062
506.367	17677
506.440	58069
506.513	27007
506.586	8357
506.659	5387
506.731	6172
506.804	6231
506.877	7099
506.950	6651
507.022	6080
507.095	5643
507.168	7192
507.241	6770
507.313	5185
507.386	4312
507.459	7091
507.531	4849
507.604	4953
507.677	6084
507.749	4286
507.822	8093
507.894	13986
507.967	19930
508.040	11770
508.112	11150
508.185	10064
508.257	8743
508.330	11687
508.402	8735
508.475	9268
508.547	9060
508.620	9615
508.692	12441
508.765	9039
508.837	7505
508.909	8384
508.982	7803
509.054	8169
509.127	7039
509.199	6947
509.271	6824
509.344	7815
509.416	8187
509.488	7620
509.560	7595
509.633	7455
509.705	8539
509.777	9466
509.849	11106
509.922	8397
509.994	9854
510.066	10229
510.138	9196
510.210	21110
510.283	18042
510.355	14979
510.427	12827
510.499	11831
510.571	11467
510.643	10060
510.715	13766
510.787	11142
510.859	11168
510.931	10672
511.003	12517
511.076	13094
511.148	10683
511.219	10302
511.291	14616
511.363	14723
511.435	11194
511.507	9754
511.579	9835
511.651	11119
511.723	9356
511.795	9086
511.867	8874
511.939	10687
512.010	14930
512.082	12609
512.154	8661
512.226	9379
512.298	14116
512.369	19829
512.441	15623
512.513	13744
512.585	10188
512.656	12640
512.728	12412
512.800	10899
512.871	10827
512.943	11008
513.015	8371
513.086	9918
513.158	10593
513.230	9143
513.301	10875
513.373	12003
513.444	10240
513.516	9241
513.588	9865
513.659	9457
513.731	9485
513.802	8359
513.874	13886
513.945	16778
514.016	9093
514.088	8694
514.159	8600
514.231	12477
514.302	16275
514.374	15017
514.445	11530
514.516	18820
514.588	12863
514.659	11573
514.730	16014
514.802	14664
514.873	8822
514.944	12182
515.016	10122
515.087	10040
515.158	11889
515.229	15991
515.301	7837
515.372	10220
515.443	7644
515.514	9855
515.585	7735
515.656	9942
515.728	9667
515.799	8324
515.870	9272
515.941	9927
516.012	9014
516.083	13569
516.154	13373
516.225	15265
516.296	12885
516.367	12569
516.438	12490
516.509	14784
516.580	22205
516.651	57674
516.722	167288
516.793	65499
516.864	21064
516.935	20255
517.006	21808
517.077	27028
517.148	57974
517.219	208056
517.289	275065
517.360	81653
517.431	29281
517.502	14316
517.573	14173
517.643	13335
517.714	16411
517.785	16273
517.856	15679
517.926	18746
517.997	19236
518.068	20189
518.138	27535
518.209	39226
518.280	137699
518.350	443462
518.421	139255
518.492	24577
518.562	17786
518.633	17500
518.703	16500
518.774	29344
518.845	57714
518.915	51029
518.986	21488
519.056	16971
519.127	20567
519.197	28808
519.268	63688
519.338	39820
519.408	14625
519.479	13713
519.549	11960
519.620	11270
519.690	9702
519.760	10002
519.831	7923
519.901	9521
519.971	9648
520.042	9690
520.112	9817
520.182	11289
520.253	11088
520.323	9864
520.393	10837
520.463	15991
520.534	9335
520.604	18861
520.674	12687
520.744	10800
520.814	18120
520.885	18575
520.955	24160
521.025	74225
521.095	27393
521.165	10771
521.235	8694
521.305	7972
521.375	9708
521.445	9993
521.515	9349
521.585	11175
521.655	8167
521.725	10085
521.795	9545
521.865	6853
521.935	12709
522.005	8771
522.075	7758
522.145	9406
522.215	9151
522.285	11009
522.355	13584
522.424	21684
522.494	15737
522.564	11077
522.634	14989
522.704	35365
522.774	15804
522.843	8881
522.913	7626
522.983	8411
523.053	8120
523.122	8491
523.192	8893
523.262	17472
523.331	15663
523.401	7822
523.471	6769
523.540	8422
523.610	5766
523.680	6963
523.749	7535
523.819	8573
523.888	8083
523.958	7095
524.027	7053
524.097	8499
524.166	7470
524.236	6106
524.305	8536
524.375	7002
524.444	7078
524.514	9417
524.583	6770
524.653	8143
524.722	9197
524.791	7102
524.861	8299
524.930	7003
524.999	6668
525.069	9101
525.138	7627
525.207	8856
525.277	8370
525.346	7245
525.415	8081
525.484	8120
525.554	7959
525.623	9446
525.692	8904
525.761	9719
525.830	9960
525.900	10436
525.969	13943
526.038	22641
526.107	41657
526.176	110625
526.245	83103
526.314	29994
526.383	59993
526.452	76158
526.522	128745
526.591	115880
526.660	27589
526.729	17264
526.797	20690
526.867	36244
526.935	136344
527.004	263420
527.073	132411
527.142	17909
527.211	10761
527.280	10088
527.349	8699
527.418	6708
527.487	8289
527.555	6341
527.624	6308
527.693	4836
527.762	7451
527.831	4533
527.899	6183
527.968	6257
528.037	4814
528.106	7615
528.174	8934
528.243	8977
528.312	10627
528.380	10855
528.449	5797
528.518	7484
528.586	5326
528.655	7429
528.723	5680
528.792	5757
528.861	5541
528.929	4431
528.998	7322
529.066	7542
529.135	10993
529.203	10307
529.272	11673
529.340	16239
529.409	15760
529.477	13842
529.545	13508
529.614	17574
529.682	17206
529.751	19195
529.819	21433
529.887	21403
529.956	19655
530.024	19765
530.092	16672
530.161	17914
530.229	18807
530.297	19557
530.365	20715
530.434	19719
530.502	19900
530.570	19037
530.638	15571
530.707	16543
530.775	17284
530.843	15890
530.911	17532
530.979	17741
531.047	18950
531.115	19460
531.183	17711
531.252	17653
531.320	16058
531.388	15153
531.456	18371
531.524	17924
531.592	20444
531.660	23151
531.728	19067
531.796	19247
531.864	19402
531.932	18762
532.000	19084
532.067	21026
532.135	21777
532.203	23553
532.271	23054
532.339	27021
532.407	32114
532.475	26943
532.542	24183
532.610	23056
532.678	25225
532.746	47347
532.814	85209
532.881	35144
532.949	22623
533.017	20506
533.084	20458
533.152	20668
533.220	19634
533.287	20347
533.355	20454
533.423	21531
533.490	21002
533.558	20862
533.625	20700
533.693	20293
533.761	20095
533.828	18826
533.896	18998
533.963	26263
534.031	27823
534.098	29558
534.166	23243
534.233	20686
534.300	21524
534.368	20781
534.435	17647
534.503	19431
534.570	19533
534.637	19163
534.705	19163
534.772	20559
534.840	24057
534.907	60999
534.974	66208
535.041	18964
535.109	16288
535.176	15369
535.243	15336
535.310	15990
535.378	14776
535.445	14122
535.512	14030
535.579	14566
535.646	12765
535.714	13541
535.781	16733
535.848	17248
535.915	17662
535.982	19709
536.049	18217
536.116	18032
536.183	15017
536.250	14634
536.317	13483
536.384	14726
536.451	14192
536.518	15565
536.585	11876
536.652	15791
536.719	14885
536.786	12186
536.853	11700
536.920	14640
536.987	16079
537.053	15772
537.120	42768
537.187	36213
537.254	12806
537.321	12141
537.388	12680
537.454	10112
537.521	10118
537.588	10188
537.654	11901
537.721	13089
537.788	12068
537.855	11113
537.921	12115
537.988	11008
538.055	11819
538.121	10345
538.188	10777
538.254	11410
538.321	14186
538.388	12905
538.454	11232
538.521	9882
538.587	10445
538.654	10262
538.720	9613
538.787	10359
538.853	10168
538.920	10464
538.986	11022
539.053	10048
539.119	10880
539.185	9597
539.252	10845
539.318	11524
539.385	13263
539.451	11672
539.517	13033
539.583	12984
539.650	17420
539.716	33185
539.782	14794
539.849	10158
539.915	10455
539.981	11074
540.047	9387
540.114	10468
540.180	11162
540.246	8812
540.312	10501
540.378	13211
540.444	14398
540.510	17192
540.576	34329
540.643	14689
540.709	9176
540.775	9738
540.841	9643
540.907	10801
540.973	15008
541.039	12131
541.105	12323
541.171	10766
541.237	9135
541.303	10284
541.369	12033
541.435	10740
541.500	13014
541.566	9713
541.632	8165
541.698	8275
541.764	9518
541.830	8595
541.896	8083
541.961	9987
542.027	8839
542.093	9005
542.159	10287
542.224	9701
542.290	12973
542.356	13287
542.421	12825
542.487	10442
542.553	10033
542.618	10012
542.684	9075
542.750	9867
542.815	10544
542.881	13371
542.947	30773
543.012	23402
543.078	9728
543.143	8713
543.209	9862
543.274	9168
543.340	10887
543.405	16195
543.471	21513
543.536	10700
543.602	10351
543.667	8760
543.732	9921
543.798	8316
543.863	10639
543.928	9275
543.994	8283
544.059	8735
544.124	9488
544.190	8882
544.255	10017
544.320	9888
544.386	8185
544.451	11868
544.516	11366
544.581	11192
544.646	21945
544.712	31126
544.777	13055
544.842	11699
544.907	11340
544.972	10671
545.037	11347
545.102	11169
545.168	11708
545.233	12193
545.298	13128
545.363	12862
545.428	13754
545.493	18400
545.558	27288
545.623	15931
545.688	11807
545.753	11908
545.818	11622
545.883	13109
545.947	11975
546.012	13255
546.077	12396
546.142	13358
546.207	11876
546.272	13972
546.337	13207
546.401	13926
546.466	13713
546.531	12689
546.596	14406
546.661	14468
546.725	15562
546.790	14036
546.855	15538
546.919	14818
546.984	17457
547.049	17795
547.113	19192
547.178	20146
547.243	21616
547.307	24862
547.372	27252
547.436	26493
547.501	26348
547.565	28811
547.630	27762
547.695	26994
547.759	26616
547.823	27024
547.888	26890
547.952	27406
548.017	28417
548.081	30819
548.146	30116
548.210	29742
548.274	29625
548.339	29784
548.403	29030
548.468	25905
548.532	26723
548.596	27969
548.660	26738
548.725	30120
548.789	31041
548.853	31715
548.917	30849
548.982	31141
549.046	29312
549.110	25144
549.174	25768
549.238	28526
549.303	29247
549.367	31776
549.431	29668
549.495	29003
549.559	28411
549.623	32483
549.687	35245
549.751	37482
549.815	39249
549.879	40784
549.943	38028
550.007	40997
550.071	40478
550.135	39159
550.199	35363
550.263	36145
550.327	34042
550.391	35884
550.455	37290
550.519	39123
550.582	42562
550.646	47252
550.710	47526
550.774	45698
550.838	45567
550.901	47588
550.965	48180
551.029	50877
551.093	53593
551.156	57489
551.220	68571
551.284	68335
551.347	54921
551.411	62290
551.475	61207
551.538	50213
551.602	47401
551.666	44971
551.729	42188
551.793	41909
551.856	40894
551.920	40711
551.983	41465
552.047	40300
552.110	40806
552.174	41130
552.237	42270
552.301	39756
552.364	38589
552.428	36716
552.491	37744
552.554	38553
552.618	39909
552.681	41278
552.745	39957
552.808	44967
552.871	48747
552.934	42966
552.998	40026
553.061	39786
553.124	39104
553.187	38554
553.251	38636
553.314	40285
553.377	40859
553.440	47804
553.503	67754
553.567	83287
553.630	46803
553.693	42186
553.756	42336
553.819	40696
553.882	41133
553.945	40962
554.008	40314
554.071	40878
554.134	41049
554.197	40762
554.260	39096
554.323	40289
554.386	40176
554.449	42137
554.512	42265
554.575	39308
554.638	39173
554.701	39273
554.764	39742
554.827	38368
554.889	37252
554.952	35086
555.015	35166
555.078	34682
555.141	35902
555.203	35407
555.266	35490
555.329	35122
555.391	32771
555.454	33589
555.517	32384
555.580	31182
555.642	29863
555.705	30044
555.768	29559
555.830	29729
555.893	27119
555.955	28030
556.018	26461
556.080	26680
556.143	27285
556.206	27103
556.268	27060
556.330	27320
556.393	25861
556.455	26194
556.518	26477
556.580	26277
556.643	23751
556.705	22954
556.767	21611
556.830	22357
556.892	22723
556.955	23021
557.017	22545
557.079	22006
557.142	20840
557.204	20366
557.266	23170
557.328	22389
557.391	18711
557.453	17899
557.515	18484
557.577	20178
557.639	18987
557.701	18943
557.764	18001
557.826	18504
557.888	19190
557.950	18332
558.012	19826
558.074	23997
558.136	41451
558.198	80806
558.260	34856
558.322	19788
558.384	20401
558.446	21971
558.508	22184
558.570	25111
558.632	30117
558.694	39337
558.756	56410
558.818	149993
558.880	313452
558.942	103607
559.003	84537
559.065	44995
559.127	24010
559.189	23235
559.251	25932
559.312	36007
559.374	75989
559.436	215879
559.498	101044
559.559	24722
559.621	22288
559.683	27021
559.744	42890
559.806	110255
559.868	147997
559.929	35800
559.991	25595
560.052	33711
560.114	78278
560.176	52512
560.237	49492
560.299	70237
560.360	22431
560.422	14729
560.483	13722
560.545	13316
560.606	13120
560.667	12567
560.729	12577
560.790	12807
560.852	12142
560.913	12923
560.974	11644
561.036	12457
561.097	12381
561.158	12869
561.220	12269
561.281	12264
561.342	12029
561.403	13780
561.465	13281
561.526	18587
561.587	19896
561.648	12955
561.709	11842
561.771	12541
561.832	12056
561.893	12589
561.954	12198
562.015	11989
562.076	12184
562.137	12357
562.198	12480
562.259	12848
562.320	12664
562.381	12493
562.442	12055
562.503	12703
562.564	10415
562.625	10969
562.686	11289
562.747	11559
562.808	11432
562.869	12174
562.930	13239
562.991	13110
563.051	12350
563.112	12853
563.173	11560
563.234	10901
563.294	11232
563.355	11771
563.416	11822
563.477	11991
563.537	11098
563.598	12330
563.659	11820
563.720	11691
563.780	11676
563.841	11261
563.901	11589
563.962	12026
564.023	11253
564.083	11902
564.144	11068
564.204	12131
564.265	11419
564.325	12942
564.386	17081
564.446	15012
564.507	11973
564.567	12119
564.628	11490
564.688	11671
564.749	10648
564.809	12163
564.869	12344
564.930	10680
564.990	11344
565.050	12085
565.111	10435
565.171	11161
565.231	10991
565.292	12292
565.352	10133
565.412	11033
565.472	10041
565.532	11876
565.593	10774
565.653	10682
565.713	11579
565.773	11865
565.833	11722
565.893	13290
565.953	12261
566.013	10826
566.074	11188
566.134	13401
566.194	14408
566.254	15682
566.314	12030
566.374	11149
566.434	11642
566.494	10177
566.554	11999
566.614	11425
566.673	11325
566.733	11980
566.793	11652
566.853	11843
566.913	11338
566.973	11849
567.033	12066
567.092	11779
567.152	11265
567.212	12447
567.272	12247
567.331	11328
567.391	11029
567.451	12494
567.511	12409
567.570	12816
567.630	11138
567.690	10937
567.749	10055
567.809	11329
567.868	11367
567.928	12079
567.988	10337
568.047	11031
568.107	10788
568.166	11796
568.226	10631
568.285	12379
568.345	10872
568.404	11267
568.464	11049
568.523	11553
568.582	11131
568.642	12261
568.701	11231
568.761	11313
568.820	11926
568.879	12763
568.939	13195
568.998	12246
569.057	10902
569.116	11189
569.176	10351
569.235	10030
569.294	10503
569.353	10614
569.413	10184
569.472	11007
569.531	10841
569.590	9765
569.649	11211
569.708	10224
569.767	11153
569.827	10625
569.886	10357
569.945	10100
570.004	10505
570.063	10148
570.122	10290
570.181	11082
570.240	10995
570.299	11036
570.358	11360
570.417	10530
570.475	10538
570.534	10818
570.593	10643
570.652	10527
570.711	9877
570.770	10140
570.829	9972
570.887	10263
570.946	10163
571.005	10263
571.064	10779
571.122	10082
571.181	10618
571.240	9987
571.299	9279
571.357	10921
571.416	10109
571.475	10847
571.533	11008
571.592	10166
571.650	10115
571.709	9971
571.768	10127
571.826	10100
571.885	9944
571.943	10727
572.002	8962
572.060	9465
572.119	9742
572.177	9580
572.236	9894
572.294	9217
572.352	9659
572.411	9209
572.469	9394
572.528	8958
572.586	9554
572.644	10251
572.703	9677
572.761	9518
572.819	7950
572.877	8991
572.936	8607
572.994	8127
573.052	8788
573.110	8999
573.169	9634
573.227	8178
573.285	9053
573.343	8893
573.401	8770
573.459	9216
573.517	8186
573.576	8669
573.634	9020
573.692	9229
573.750	8442
573.808	8279
573.866	9772
573.924	9853
573.982	10058
574.040	8050
574.098	9122
574.155	8294
574.213	7978
574.271	7865
574.329	8210
574.387	7394
574.445	7184
574.503	7232
574.560	6863
574.618	7715
574.676	7867
574.734	7983
574.792	8530
574.849	8011
574.907	6913
574.965	7617
575.022	7634
575.080	6993
575.138	7252
575.195	7905
575.253	7896
575.311	7698
575.368	7448
575.426	7172
575.483	7819
575.541	8181
575.598	7553
575.656	8004
575.713	6818
575.771	7712
575.828	7146
575.886	7147
575.943	8630
576.001	7580
576.058	8222
576.115	7374
576.173	8871
576.230	8349
576.287	7918
576.345	8246
576.402	8482
576.459	7885
576.517	7550
576.574	8652
576.631	8330
576.688	7834
576.746	7934
576.803	8191
576.860	6546
576.917	6415
576.974	8604
577.031	8205
577.089	7289
577.146	7171
577.203	7997
577.260	8064
577.317	7640
577.374	8578
577.431	8576
577.488	7965
577.545	8113
577.602	7727
577.659	8244
577.716	8921
577.773	7143
577.830	7620
577.886	7872
577.943	7652
578.000	7965
578.057	8815
578.114	9893
578.171	11163
578.227	15870
578.284	14991
578.341	12275
578.398	10039
578.454	10279
578.511	9251
578.568	9284
578.625	8377
578.681	7911
578.738	8139
578.794	8440
578.851	8149
578.908	9350
578.964	9676
579.021	9251
579.077	9104
579.134	7080
579.190	7823
579.247	7398
579.303	7887
579.360	7112
579.416	7704
579.473	7786
579.529	6950
579.586	7689
579.642	8635
579.698	7819
579.755	8676
579.811	9966
579.867	9246
579.924	10047
579.980	9457
580.036	11990
580.093	15512
580.149	22532
580.205	26196
580.261	20107
580.317	15064
580.374	12039
580.430	12218
580.486	10545
580.542	9729
580.598	9592
580.619	9599
580.654	9621
580.692	9040
580.710	8764
580.765	9558
580.767	9593
580.823	9191
580.838	9075
580.879	8771
580.911	8707
580.935	8687
580.984	9461
580.991	9576
581.047	10120
581.057	10027
581.103	9636
581.130	10319
581.159	11062
581.203	12234
581.215	12557
581.270	11950
581.276	11793
581.326	10318
581.349	10289
581.382	10269
581.422	10200
581.438	10175
581.494	10266
581.494	10255
581.550	9831
581.567	9965
581.606	10276
581.640	10067
581.661	9931
581.713	9480
581.717	9452
581.773	10816
581.786	10506
581.829	9529
581.859	10231
581.885	10839
581.932	11010
581.940	11046
581.996	10369
582.004	10399
582.052	10513
582.077	10547
582.107	10623
582.150	10545
582.163	10527
582.219	10510
582.223	10542
582.274	10947
582.296	10772
582.330	10518
582.368	10735
582.386	10886
582.441	10914
582.441	10914
582.497	11728
582.514	11416
582.552	11005
582.587	11723
582.608	12094
582.659	11680
582.663	11643
582.719	11916
582.732	11902
582.774	12048
582.805	12263
582.830	12388
582.877	12258
582.885	12232
582.941	13772
582.950	13838
582.996	14346
583.023	15635
583.052	17219
583.095	17792
583.107	17906
583.162	19434
583.168	19605
583.218	20618
583.240	19337
583.273	17559
583.313	16413
583.328	15949
583.384	14368
583.385	14323
583.439	12952
583.458	12564
583.494	12087
583.531	12104
583.549	12141
583.603	11676
583.605	11652
583.660	11561
583.676	11599
583.715	11811
583.748	11860
583.770	11961
583.820	12231
583.825	12227
583.881	12144
583.893	11799
583.936	10704
583.965	11022
583.991	11382
584.038	11882
584.046	11905
584.101	11050
584.110	11100
584.156	11887
584.183	11744
584.211	11334
584.255	11256
584.266	11262
584.321	11695
584.328	11711
584.376	11895
584.400	11882
584.431	11987
584.472	11752
584.486	11544
584.541	13159
584.545	13113
584.596	12625
584.617	12557
584.651	12642
584.689	13126
584.706	13180
584.761	12940
584.762	12938
584.816	13332
584.834	13623
584.871	13980
584.906	13808
584.926	13581
584.978	13409
584.980	13428
585.035	14019
585.051	14181
585.090	14456
585.123	14251
585.145	14088
585.195	14316
585.200	14349
585.254	14644
585.267	14871
585.309	15605
585.340	15528
585.364	15510
585.412	16420
585.419	16641
585.473	18775
585.484	19387
585.528	21793
585.556	24094
585.583	28499
585.628	39703
585.637	43654
585.692	78809
585.700	85337
585.747	112458
585.772	97525
585.801	64800
585.845	30354
585.856	25766
585.910	18492
585.917	17930
585.965	17104
585.989	16421
586.019	16064
586.061	16343
586.074	16388
586.128	15474
586.133	15459
586.183	15282
586.205	15082
586.237	14897
586.277	14498
586.292	14505
586.346	15198
586.349	15230
586.401	15078
586.421	14646
586.455	14388
586.493	14566
586.509	15061
586.564	17569
586.565	17647
586.618	22136
586.637	22462
586.672	19923
586.709	16833
586.727	16042
586.781	15671
586.781	15677
586.835	14067
586.853	13783
586.889	13837
586.925	13622
586.944	13585
586.996	14314
586.998	14331
587.052	14927
587.068	14844
587.106	14853
587.140	14687
587.161	14541
587.212	13979
587.215	14001
587.269	15145
587.284	15289
587.323	15095
587.356	14775
587.377	14524
587.427	14648
587.431	14713
587.485	14928
587.499	15003
587.539	15260
587.571	15320
587.593	15391
587.643	16164
587.648	16197
587.702	15558
587.715	15417
587.755	15504
587.786	16135
587.810	16450
587.858	16159
587.864	16210
587.917	17289
587.930	17376
587.971	17208
588.001	17195
588.025	17491
588.073	17930
588.079	18001
588.133	19050
588.145	19169
588.187	19414
588.217	19655
588.241	20255
588.288	21527
588.295	21731
588.348	23472
588.360	23849
588.402	25384
588.431	26362
588.456	27432
588.503	29475
588.510	29817
588.564	32917
588.575	33648
588.617	38035
588.646	41412
588.671	44337
588.718	51148
588.725	53257
588.778	73239
588.789	78260
588.832	121301
588.861	156208
588.886	215829
588.932	347169
588.939	359501
588.993	429932
589.004	428935
589.047	268433
589.075	167294
589.100	123857
589.147	65533
589.154	63023
589.207	49642
589.218	47328
589.261	46460
589.290	46863
589.314	48843
589.361	53831
589.368	56215
589.421	79462
589.433	85539
589.475	147366
589.504	197879
589.528	256241
589.576	373322
589.582	364591
589.635	219191
589.647	188562
589.689	100674
589.718	50915
589.742	43369
589.790	31438
589.795	31034
589.849	28314
589.861	27720
589.902	27698
589.932	27660
589.955	25689
590.004	21112
590.009	21067
590.062	20825
590.075	20706
590.115	20005
590.146	19517
590.168	19317
590.218	18810
590.222	18892
590.275	19623
590.289	19831
590.328	19825
590.360	19710
590.381	19441
590.431	18366
590.435	18369
590.488	18237
590.503	18189
590.541	18753
590.574	19288
590.594	19491
590.645	19753
590.647	19762
590.700	19104
590.716	18856
590.753	18940
590.787	19053
590.806	19139
590.859	19432
590.859	19470
590.912	19726
590.930	19840
590.965	19862
591.001	19827
591.018	19988
591.071	20396
591.072	20366
591.124	20367
591.143	20321
591.177	20289
591.214	20355
591.230	20584
591.283	21171
591.285	21154
591.336	21088
591.356	21019
591.389	20754
591.427	20415
591.442	20490
591.495	20549
591.498	20524
591.547	19973
591.569	19616
591.600	19836
591.640	20125
591.653	20339
591.706	21041
591.711	21091
591.759	21680
591.782	21838
591.811	21991
591.853	22204
591.864	22229
591.917	22038
591.924	21980
591.969	21428
591.995	21015
592.022	21014
592.066	21020
592.075	21329
592.127	22941
592.137	23214
592.180	23858
592.208	24167
592.233	23424
592.279	21867
592.285	21899
592.338	21933
592.350	21901
592.390	21719
592.421	21537
592.443	21958
592.491	22766
592.495	22786
592.548	22563
592.562	22471
592.600	22575
592.633	22595
592.653	22349
592.704	21499
592.705	21655
592.775	23385
592.846	23007
592.916	22926
592.987	22524
593.058	22694
593.128	21632
593.199	22999
593.270	22357
593.341	21794
593.411	22217
593.482	22825
593.553	23276
593.623	23526
593.694	23636
593.764	24354
593.835	24023
593.906	23990
593.976	23953
594.047	24471
594.117	26464
594.188	28103
594.258	25039
594.329	24752
594.399	25839
594.470	25732
594.540	25980
594.611	25969
594.681	26089
594.751	26579
594.822	26722
594.892	27500
594.963	27853
595.033	28588
595.103	29229
595.174	29803
595.244	32724
595.314	36454
595.384	29926
595.455	30682
595.525	32030
595.595	33222
595.665	31945
595.736	31652
595.806	32365
595.876	33252
595.946	31691
596.016	32795
596.087	33037
596.157	34254
596.227	33542
596.297	35387
596.367	37290
596.437	38683
596.507	41081
596.577	43348
596.647	40472
596.717	39882
596.787	40287
596.857	41709
596.927	40054
596.997	41412
597.067	40889
597.137	43070
597.207	42744
597.277	42010
597.347	40580
597.417	41801
597.487	41256
597.557	43290
597.626	42336
597.696	44567
597.766	44258
597.836	47490
597.906	42429
597.975	42295
598.045	40969
598.115	43040
598.185	44748
598.254	48527
598.324	50248
598.394	51399
598.464	50343
598.533	49503
598.603	48183
598.672	47572
598.742	47961
598.812	48817
598.881	49373
598.951	49817
599.020	50109
599.090	51438
599.159	52668
599.229	51337
599.299	50781
599.368	53026
599.437	51983
599.507	51153
599.576	50800
599.646	51947
599.715	51648
599.785	51352
599.854	50835
599.924	52555
599.993	53323
600.062	52425
600.132	53219
600.201	54871
600.270	60547
600.340	62294
600.409	62682
600.478	63116
600.547	63991
600.617	63735
600.686	57856
600.755	56590
600.824	55468
600.894	56046
600.963	56225
601.032	57092
601.101	56891
601.170	58796
601.239	57814
601.308	60142
601.378	60237
601.447	61351
601.516	63626
601.585	64508
601.654	65111
601.723	66656
601.792	68461
601.861	70711
601.930	74684
601.999	76867
602.068	73990
602.137	75777
602.206	76703
602.275	77789
602.343	77128
602.412	78580
602.481	78968
602.550	79916
602.619	80794
602.688	80309
602.756	82787
602.825	82691
602.894	82668
602.963	84043
603.032	84767
603.100	85415
603.169	83009
603.238	86558
603.307	83456
603.375	82776
603.444	86951
603.513	79430
603.581	82090
603.650	87119
603.719	73507
603.787	68533
603.856	69302
603.924	72481
603.993	73706
604.061	76064
604.130	77353
604.198	80141
604.267	79988
604.335	83873
604.404	82022
604.472	84452
604.541	85037
604.609	89383
604.678	89907
604.746	91059
604.815	96188
604.883	92629
604.951	89212
605.020	93340
605.088	86579
605.156	81654
605.225	81468
605.293	81877
605.361	82912
605.429	81140
605.498	82866
605.566	82288
605.634	85553
605.702	86103
605.771	86271
605.839	89056
605.907	82656
605.975	87664
606.043	83023
606.111	79637
606.180	87596
606.248	80222
606.316	79276
606.384	84834
606.452	70220
606.520	57970
606.588	57711
606.656	58692
606.724	56425
606.792	55316
606.860	49209
606.928	46802
606.996	44530
607.064	44806
607.132	44862
607.200	48277
607.267	48594
607.335	49081
607.403	51334
607.471	48775
607.539	48852
607.607	48511
607.674	43409
607.742	44105
607.810	42394
607.878	43308
607.946	42763
608.013	44826
608.081	45786
608.149	46276
608.216	47290
608.284	48765
608.352	47540
608.419	46965
608.487	50185
608.555	47307
608.622	47683
608.690	48831
608.757	51381
608.825	53027
608.893	50704
608.960	50179
609.028	48166
609.095	50115
609.163	47597
609.230	43577
609.298	40566
609.365	42089
609.432	44927
609.500	47878
609.567	54003
609.635	62087
609.702	65149
609.769	62785
609.837	51015
609.904	43809
609.971	44243
610.039	49981
610.106	58851
610.173	98024
610.241	206139
610.308	163990
610.375	82748
610.442	51048
610.509	45148
610.577	45453
610.644	45021
610.711	46639
610.778	47696
610.845	49964
610.912	51385
610.980	54440
611.047	55535
611.114	54054
611.181	51074
611.248	51130
611.315	54671
611.382	53518
611.449	57775
611.516	57560
611.583	56615
611.650	56537
611.717	58357
611.784	58047
611.851	60129
611.918	62851
611.984	70259
612.051	93849
612.118	164248
612.185	356125
612.252	255686
612.319	88385
612.386	73553
612.452	67268
612.519	64338
612.586	67521
612.653	65917
612.719	66113
612.786	63930
612.853	59634
612.919	58630
612.986	60799
613.053	55314
613.120	54292
613.186	50490
613.253	53176
613.319	51791
613.386	52564
613.453	52111
613.519	53730
613.586	52840
613.652	55648
613.719	53560
613.785	54231
613.852	53711
613.918	53438
613.985	54616
614.051	57928
614.118	59624
614.184	57801
614.250	53408
614.317	54985
614.383	53950
614.449	55589
614.516	54049
614.582	56046
614.648	53114
614.715	53352
614.781	53506
614.847	53084
614.914	53020
614.980	50939
615.046	51219
615.112	53125
615.179	52317
615.245	54395
615.311	52368
615.377	53860
615.443	53782
615.509	55387
615.575	56819
615.642	55555
615.708	56603
615.774	60197
615.840	63038
615.906	66855
615.972	75129
616.038	101512
616.104	192538
616.170	404923
616.236	373167
616.302	120156
616.368	87115
616.434	69809
616.500	66410
616.565	69225
616.631	79089
616.697	71564
616.763	72042
616.829	91111
616.895	137700
616.961	139921
617.026	77616
617.092	60681
617.158	59193
617.224	59032
617.289	54496
617.355	53234
617.421	52059
617.487	52702
617.552	50400
617.618	50430
617.684	49686
617.749	52554
617.815	49001
617.880	48972
617.946	47953
618.012	50208
618.077	50755
618.143	48358
618.208	49438
618.274	51870
618.339	52559
618.405	45779
618.470	46156
618.536	46571
618.601	47273
618.667	45036
618.732	43422
618.798	43137
618.863	41894
618.928	41784
618.994	42785
619.059	42277
619.124	44645
619.190	42892
619.255	40912
619.320	42778
619.386	41986
619.451	40659
619.516	41558
619.581	42317
619.647	43397
619.712	42911
619.777	41632
619.842	41551
619.907	41707
619.972	42414
620.038	42705
620.103	41742
620.168	40544
620.233	41474
620.298	42113
620.363	43282
620.428	42465
620.493	44677
620.558	44448
620.623	45893
620.688	44078
620.753	44851
620.818	44313
620.883	45317
620.948	46103
621.013	45359
621.078	45243
621.143	45069
621.207	48086
621.272	46014
621.337	44139
621.402	45972
621.467	48485
621.532	48233
621.596	46923
621.661	44629
621.726	43802
621.791	46010
621.855	44862
621.920	45276
621.985	44975
622.049	47942
622.114	47202
622.179	47301
622.243	48967
622.308	47395
622.373	51387
622.437	50132
622.502	47395
622.566	48712
622.631	46710
622.695	49043
622.760	48137
622.824	48526
622.889	47814
622.953	47512
623.018	52348
623.082	51352
623.147	49542
623.211	47663
623.276	47404
623.340	47086
623.404	45548
623.469	46546
623.533	46101
623.597	45190
623.662	44864
623.726	43767
623.790	41985
623.854	40997
623.919	42479
623.983	41943
624.047	42011
624.111	42078
624.176	42520
624.240	43020
624.304	44812
624.368	41599
624.432	41997
624.496	43392
624.560	44577
624.625	43719
624.689	44179
624.753	44738
624.817	43140
624.881	42118
624.945	39488
625.009	40390
625.073	40227
625.137	40176
625.201	41914
625.265	41853
625.329	40879
625.393	40670
625.456	39233
625.520	40929
625.584	40854
625.648	44377
625.712	48509
625.776	65097
625.839	67658
625.903	43850
625.967	35511
626.031	42736
626.095	51974
626.158	39213
626.222	31294
626.286	31023
626.349	29743
626.413	28534
626.477	29260
626.540	27836
626.604	27001
626.668	28854
626.731	26976
626.795	29118
626.858	27543
626.922	27142
626.986	26687
627.049	24394
627.113	26687
627.176	27463
627.240	26098
627.303	25439
627.366	25279
627.430	24908
627.493	25951
627.557	25780
627.620	27021
627.684	25473
627.747	25689
627.810	22960
627.874	22546
627.937	21113
628.000	23348
628.064	23686
628.127	18881
628.190	21493
628.253	20524
628.317	20050
628.380	19722
628.443	18743
628.506	18216
628.569	18488
628.632	16845
628.696	18004
628.759	17671
628.822	17528
628.885	15817
628.948	16301
629.011	16478
629.074	16294
629.137	15176
629.200	15041
629.263	17134
629.326	14888
629.389	14637
629.452	15194
629.515	14953
629.578	14741
629.641	15759
629.704	14701
629.767	15298
629.830	15135
629.892	14185
629.955	15006
630.018	15487
630.081	13734
630.144	15082
630.207	13291
630.269	15260
630.332	15026
630.395	14107
630.458	13719
630.520	12018
630.583	14741
630.646	14259
630.708	13278
630.771	12277
630.834	14248
630.896	12324
630.959	14118
631.021	12576
631.084	13208
631.146	13990
631.209	14490
631.272	12479
631.334	12890
631.397	12213
631.459	12749
631.522	12795
631.584	12204
631.646	13829
631.709	12790
631.771	13601
631.834	13985
631.896	13333
631.958	12708
632.021	12603
632.083	11500
632.145	12347
632.208	11635
632.270	11875
632.332	11729
632.395	11475
632.457	12906
632.519	12005
632.581	12954
632.643	10962
632.706	12628
632.768	11068
632.830	12080
632.892	11968
632.954	11981
633.016	12643
633.078	11473
633.141	11178
633.203	11998
633.265	12502
633.327	11309
633.389	10747
633.451	13137
633.513	11234
633.575	13212
633.637	11452
633.698	11918
633.760	12823
633.822	12951
633.884	12081
633.946	12783
634.008	11849
634.070	12187
634.132	12599
634.193	13048
634.255	12711
634.317	12823
634.379	13884
634.441	12335
634.502	10966
634.564	12469
634.626	11138
634.687	11765
634.749	11174
634.811	11429
634.873	9538
634.934	11051
634.996	11530
635.057	11732
635.119	10010
635.181	11255
635.242	11328
635.304	9426
635.365	12279
635.427	10836
635.488	10131
635.550	10219
635.611	11473
635.673	9290
635.734	12493
635.796	11072
635.857	12000
635.918	11347
635.980	13242
636.041	12377
636.102	12448
636.164	12797
636.225	12726
636.286	10875
636.348	12300
636.409	10748
636.470	10564
636.531	11119
636.593	10459
636.654	10926
636.715	10317
636.776	10642
636.838	9898
636.899	10604
636.960	9602
637.021	9869
637.082	9067
637.143	9909
637.204	8895
637.265	9524
637.326	9423
637.387	9897
637.448	7938
637.509	10715
637.570	8938
637.631	10513
637.692	7728
637.753	7866
637.814	9790
637.875	9247
637.936	10046
637.997	9356
638.058	8857
638.119	10603
638.179	8887
638.240	8195
638.301	9371
638.362	7761
638.423	9444
638.483	9895
638.544	7901
638.605	9761
638.666	7485
638.726	9440
638.787	9363
638.848	9102
638.908	9042
638.969	9137
639.030	8386
639.090	8130
639.151	8512
639.211	9515
639.272	9599
639.332	10786
639.393	7927
639.453	7765
639.514	8502
639.574	8822
639.635	7465
639.695	9226
639.756	6958
639.816	9518
639.877	8097
639.937	8693
639.997	9209
640.058	7619
640.118	7319
640.178	9001
640.239	7709
640.299	7916
640.359	7845
640.420	8310
640.480	8050
640.540	7853
640.600	8804
640.661	8502
640.721	7547
640.781	9704
640.841	7847
640.901	9175
640.961	7861
641.021	8062
641.082	6819
641.142	8657
641.202	8562
641.262	6101
641.322	8460
641.382	7334
641.442	7593
641.502	7668
641.562	7651
641.622	8141
641.682	7593
641.742	8357
641.802	7283
641.861	8744
641.921	6731
641.981	8016
642.041	7953
642.101	8658
642.161	6124
642.221	6660
642.280	6720
642.340	7049
642.400	6137
642.460	8804
642.519	7915
642.579	6986
642.639	7744
642.698	5666
642.758	9541
642.818	7926
642.877	5918
642.937	7444
642.997	7086
643.056	7750
643.116	5851
643.175	8423
643.235	7331
643.294	7913
643.354	8318
643.414	8003
643.473	8233
643.532	9535
643.592	10623
643.651	16165
643.711	26562
643.770	47140
643.830	104131
643.889	213793
643.948	61003
644.008	14795
644.067	9162
644.126	8398
644.186	8163
644.245	8105
644.304	5717
644.363	9280
644.423	5388
644.482	6561
644.541	8264
644.600	5522
644.659	8962
644.719	9296
644.778	11225
644.837	16167
644.896	29851
644.955	67694
645.014	26426
645.073	9665
645.132	6977
645.191	7741
645.250	6264
645.309	8874
645.368	7130
645.427	8283
645.486	10289
645.545	17259
645.604	7564
645.663	7069
645.722	6278
645.781	7558
645.840	7483
645.898	8104
645.957	10766
646.016	12976
646.075	23546
646.134	43859
646.192	108684
646.251	164983
646.310	29148
646.369	11300
646.427	9926
646.486	7021
646.545	6928
646.603	6631
646.662	5782
646.721	5865
646.779	5868
646.838	5209
646.896	6970
646.955	7892
647.014	11430
647.072	17160
647.131	42967
647.189	22820
647.248	6417
647.306	6967
647.365	6271
647.423	5123
647.481	5867
647.540	4471
647.598	5048
647.657	4918
647.715	5760
647.773	3861
647.832	5775
647.890	4483
647.948	5202
648.007	5655
648.065	3790
648.123	4385
648.181	5534
648.240	5100
648.298	4230
648.356	5414
648.414	5828
648.472	5570
648.531	4714
648.589	5122
648.647	3994
648.705	4284
648.763	3689
648.821	4904
648.879	4092
648.937	5129
648.995	5120
649.053	5915
649.111	7904
649.169	11629
649.227	19848
649.285	36914
649.343	103316
649.401	54611
649.459	10982
649.516	7956
649.574	4694
649.632	7972
649.690	9179
649.748	8484
649.806	8695
649.863	15894
649.921	32343
649.979	22284
650.037	5924
650.094	3118
650.152	4587
650.210	3842
650.268	4457
650.325	4557
650.383	4550
650.440	3411
650.498	4248
650.556	3548
650.613	2974
650.671	4161
650.728	3465
650.786	4138
650.843	3992
650.901	3018
650.958	3680
651.016	3216
651.073	3654
651.131	2489
651.188	2666
651.246	3459
651.303	1833
651.360	4483
651.418	2982
651.475	4056
651.532	2068
651.590	3468
651.647	3003
651.704	3512
651.762	2736
651.819	3626
651.876	3014
651.933	3029
651.990	3204
652.048	1930
652.105	2914
652.162	2709
652.219	2711
652.276	3434
652.333	3199
652.390	2841
652.448	2473
652.505	3851
652.562	2977
652.619	2703
652.676	4256
652.733	5719
652.790	2888
652.847	2356
652.904	3728
652.961	2038
653.017	2079
653.074	3715
653.131	2289
653.188	1519
653.245	3313
653.302	2920
653.359	2514
653.415	3269
653.472	2108
653.529	3592
653.586	1679
653.642	1994
653.699	3096
653.756	1904
653.813	1509
653.869	3276
653.926	2002
653.983	1970
654.039	2554
654.096	2250
654.152	3850
654.209	1576
654.266	2182
654.322	2143
654.379	2948
654.435	3846
654.492	2849
654.548	3195
654.605	3082
654.661	3542
654.717	2289
654.774	3900
654.830	4013
654.887	4162
654.943	2731
655.000	3239
655.056	3260
655.112	3140
655.168	1813
655.225	1943
655.281	3435
655.337	3032
655.394	4107
655.450	3632
655.506	2939
655.562	4571
655.618	4043
655.675	2340
655.731	2805
655.787	1395
655.843	3163
655.899	2077
655.955	3141
656.011	3790
656.067	1914
656.123	2705
656.179	2950
656.235	4266
656.291	1575
656.347	4381
656.403	3161
656.459	2329
656.515	2914
656.571	3471
656.627	3249
656.683	2971
656.739	2658
656.795	3128
656.850	2700
656.906	2997
656.962	3701
657.018	3096
657.074	2236
657.129	3834
657.185	4151
657.241	5807
657.297	3604
657.352	2920
657.408	1767
657.464	3080
657.519	2107
657.575	1225
657.630	2662
657.686	2020
657.742	1852
657.797	1840
657.853	1607
657.908	3277
657.964	1668
658.019	2345
658.075	2336
658.130	3003
658.186	1076
658.241	2300
658.297	1854
658.352	2383
658.407	2714
658.463	1627
658.518	2955
658.573	1779
658.629	1099
658.684	2744
658.739	2484
658.795	1404
658.850	1829
658.905	1493
658.960	1140
659.016	1840
659.071	2086
659.126	2411
659.181	937
659.236	3356
659.291	2710
659.346	1993
659.401	1358
659.457	2392
659.512	2484
659.567	2807
659.622	1681
659.677	2337
659.732	1481
659.787	2341
659.842	1425
659.897	3129
659.952	2646
660.007	1515
660.061	1546
660.116	2373
660.171	1269
660.226	2679
660.281	2876
660.336	1681
660.391	2196
660.445	2190
660.500	2040
660.555	2510
660.610	1213
660.664	2960
660.719	1774
660.774	2255
660.828	1776
660.883	2783
660.938	2029
660.992	1656
661.047	1417
661.101	2226
661.156	2314
661.211	1858
661.265	1644
661.320	1373
661.374	2221
661.429	1461
661.483	2366
661.538	1480
661.592	1714
661.647	2426
661.701	1994
661.755	2432
661.810	1486
661.864	2300
661.919	1463
661.973	2576
662.027	1931
662.081	1091
662.136	2033
662.190	1928
662.244	2201
662.299	1275
662.353	2399
662.407	1387
662.461	2313
662.515	2697
662.569	1416
662.624	2153
662.678	2660
662.732	1757
662.786	1636
662.840	2530
662.894	1395
662.948	2240
663.002	1415
663.056	780
663.110	1604
663.164	1890
663.218	1068
663.272	1756
663.326	2218
663.380	2517
663.434	1561
663.488	1574
663.542	1952
663.595	2534
663.649	1515
663.703	2218
663.757	2112
663.811	1918
663.864	890
663.918	2127
663.972	1444
664.026	2400
664.079	1565
664.133	2702
664.187	1800
664.240	1549
664.294	1457
664.348	1745
664.401	1763
664.455	1616
664.508	1765
664.562	2267
664.615	1678
664.669	1582
664.722	1904
664.776	1875
664.829	1788
664.883	1828
664.936	2119
664.990	2075
665.043	2495
665.097	2363
665.150	2791
665.203	1874
665.257	671
665.310	2930
665.363	2295
665.417	1984
665.470	2038
665.523	2135
665.576	1995
665.630	2179
665.683	1679
665.736	1846
665.789	2417
665.842	1465
665.895	2424
665.949	1705
666.002	2269
666.055	1910
666.108	2889
666.161	2133
666.214	2532
666.267	1498
666.320	2839
666.373	2211
666.426	2491
666.479	1741
666.532	2218
666.585	2677
666.638	2355
666.691	2024
666.744	2146
666.796	2667
666.849	2103
666.902	3205
666.955	1955
667.008	2088
667.060	1633
667.113	1386
667.166	1573
667.219	2354
667.271	2119
667.324	2372
667.377	2279
667.430	2479
667.482	2293
667.535	1963
667.587	2606
667.640	2888
667.693	2022
667.745	3040
667.798	3317
667.850	2292
667.903	2696
667.955	3458
668.008	2328
668.060	2031
668.113	2415
668.165	2809
668.218	2185
668.270	2515
668.322	2408
668.375	2353
668.427	2180
668.479	1845
668.532	1872
668.584	3346
668.636	2016
668.689	2908
668.741	1856
668.793	1913
668.845	1556
668.898	2736
668.950	1836
669.002	2680
669.054	1287
669.106	2799
669.158	2435
669.211	2259
669.263	2000
669.315	3261
669.367	2039
669.419	1356
669.471	3030
669.523	2810
669.575	3268
669.627	2497
669.679	1882
669.731	2312
669.783	2226
669.835	2842
669.886	2011
669.938	2833
669.990	2649
670.042	2158
670.094	3104
670.146	2548
670.197	3104
670.249	4337
670.301	4574
670.353	6854
670.404	10048
670.456	14430
670.508	21079
670.560	32784
670.611	52090
670.663	88359
670.715	180115
670.766	272307
670.818	126247
670.869	28742
670.921	13692
670.972	9360
671.024	5670
671.075	5569
671.127	4078
671.178	3679
671.230	3486
671.281	3075
671.333	2763
671.384	2307
671.436	2683
671.487	3964
671.538	4214
671.590	5352
671.641	7376
671.692	10838
671.744	19429
671.795	14368
671.846	5890
671.897	3911
671.949	3023
672.000	3007
672.051	1900
672.102	3063
672.153	2045
672.204	3033
672.256	2357
672.307	1805
672.358	1966
672.409	1983
672.460	2009
672.511	1639
672.562	1587
672.613	1805
672.664	1122
672.715	1881
672.766	1567
672.817	2112
672.868	1102
672.919	2256
672.970	2097
673.021	1662
673.071	772
673.122	1649
673.173	1580
673.224	1932
673.275	1201
673.326	1293
673.376	1335
673.427	872
673.478	552
673.528	1566
673.579	2119
673.630	2335
673.680	2035
673.731	1708
673.782	1306
673.832	1866
673.883	1835
673.934	1594
673.984	618
674.035	1999
674.085	1860
674.136	1630
674.186	1289
674.237	1524
674.287	1703
674.338	1472
674.388	905
674.438	1939
674.489	1002
674.539	1423
674.589	990
674.640	1291
674.690	834
674.740	1643
674.791	1956
674.841	1767
674.891	1100
674.942	1699
674.992	430
675.042	868
675.092	87
675.142	914
675.193	1097
675.243	322
675.293	1957
675.343	1494
675.393	1130
675.443	1579
675.493	1222
675.543	1140
675.593	1657
675.643	1394
675.693	1082
675.743	1309
675.793	966
675.843	399
675.893	1320
675.943	1625
675.993	710
676.043	1251
676.093	308
676.142	292
676.192	981
676.242	1306
676.292	162
676.341	1299
676.391	632
676.441	715
676.491	1797
676.540	542
676.590	107
676.640	986
676.689	1019
676.739	994
676.789	319
676.838	752
676.888	995
676.937	619
676.987	316
677.037	885
677.086	378
677.136	959
677.185	130
677.235	46
677.284	1233
677.333	1122
677.383	801
677.432	1282
677.482	-57
677.531	1401
677.580	1001
677.630	306
677.679	325
677.728	1247
677.778	928
677.827	729
677.876	624
677.925	809
677.975	1054
678.024	1516
678.073	1097
678.122	1690
678.171	-94
678.220	669
678.269	638
678.319	1042
678.368	697
678.417	1444
678.466	772
678.515	1557
678.564	660
678.613	1254
678.662	812
678.711	1485
678.760	313
678.809	1276
678.857	585
678.906	986
678.955	1426
679.004	1161
679.053	1308
679.102	1630
679.151	775
679.199	-54
679.248	971
679.297	880
679.346	1161
679.394	1520
679.443	485
679.492	1172
679.540	335
679.589	1178
679.638	185
679.686	792
679.735	282
679.784	1219
679.832	830
679.881	794
679.929	211
679.978	411
680.026	545
680.075	1014
680.123	645
680.172	970
680.220	207
680.268	712
680.317	188
680.365	593
680.414	194
680.462	1073
680.510	772
680.559	789
680.607	906
680.655	535
680.703	192
680.752	209
680.800	97
680.848	952
680.896	255
680.945	1206
680.993	965
681.041	513
681.089	220
681.137	241
681.185	-267
681.233	413
681.258	153
681.281	-112
681.329	811
681.377	136
681.380	203
681.425	1134
681.473	1095
681.502	1024
681.521	940
681.569	944
681.617	1197
681.624	1164
681.665	827
681.713	1026
681.745	959
681.761	899
681.809	1033
681.857	177
681.867	483
681.904	1490
681.952	403
681.989	644
682.000	685
682.048	739
682.096	616
682.111	937
682.143	1562
682.191	502
682.233	1339
682.239	1452
682.286	1220
682.334	790
682.354	1164
682.382	1620
682.430	1581
682.476	1945
682.477	1940
682.525	1078
682.572	1107
682.598	815
682.620	536
682.667	835
682.715	1580
682.720	1623
682.763	1807
682.810	1327
682.841	1033
682.857	884
682.905	1145
682.952	2003
682.963	1863
683.000	1251
683.047	1329
683.085	1840
683.095	1974
683.142	2082
683.190	1790
683.206	1715
683.237	1530
683.284	1290
683.328	1766
683.332	1790
683.379	1625
683.426	1377
683.449	1427
683.473	1509
683.521	1886
683.568	1854
683.571	1878
683.615	1928
683.662	2092
683.693	2281
683.709	2361
683.757	1654
683.804	1932
683.814	1807
683.851	1331
683.898	2760
683.936	2409
683.945	2315
683.992	2465
684.039	2148
684.057	2190
684.086	2201
684.133	1867
684.179	2109
684.180	2108
684.227	2000
684.274	2687
684.300	2541
684.321	2413
684.368	2023
684.415	2288
684.422	2309
684.462	2379
684.509	2159
684.543	2844
684.556	3079
684.603	1918
684.649	2710
684.665	2618
684.696	2349
684.743	2680
684.786	3030
684.790	3063
684.837	2764
684.883	3375
684.908	3847
684.930	4236
684.977	3363
685.023	3067
685.029	3075
685.070	2948
685.117	3025
685.150	2652
685.164	2549
685.210	3211
685.257	3163
685.272	3405
685.303	3792
685.350	3514
685.393	3717
685.396	3728
685.443	2721
685.490	3846
685.514	3488
685.536	3224
685.583	3632
685.629	3257
685.636	3326
685.675	3544
685.722	3480
685.757	3587
685.768	3654
685.815	3940
685.861	3434
685.878	3495
685.908	3570
685.954	3812
686.000	3749
686.000	3745
686.047	4475
686.093	4207
686.121	4561
686.139	4698
686.185	4392
686.232	4372
686.242	4326
686.278	4163
686.324	4178
686.363	3521
686.370	3405
686.416	3850
686.463	3662
686.484	3785
686.509	3956
686.555	4144
686.601	4140
686.606	4138
686.647	4053
686.693	4312
686.727	3782
686.739	3612
686.785	3977
686.831	3565
686.848	3952
686.877	4539
686.923	3755
686.969	4136
686.969	4138
687.015	4246
687.061	4613
687.090	4501
687.107	4335
687.153	4708
687.199	4145
687.211	4158
687.245	4261
687.291	3805
687.332	4072
687.336	4109
687.382	4052
687.428	4008
687.453	4562
687.474	4939
687.520	4870
687.565	4081
687.574	4064
687.611	4169
687.657	4447
687.695	4599
687.702	4648
687.748	5226
687.794	5486
687.816	5429
687.839	5112
687.885	4985
687.931	4275
687.937	4285
687.976	4704
688.022	5135
688.058	5387
688.067	5377
688.113	4545
688.158	4273
688.179	4242
688.204	4399
688.249	4706
688.295	4998
688.300	5012
688.340	5123
688.386	5189
688.421	5112
688.431	5086
688.477	4763
688.522	5318
688.542	5134
688.567	4900
688.613	4971
688.658	4834
688.663	4872
688.703	5226
688.749	4862
688.784	5313
688.794	5442
688.839	5085
688.884	5717
688.905	5626
688.930	5540
688.975	5393
689.020	5234
689.026	5222
689.065	5132
689.110	5005
689.146	5591
689.155	5774
689.201	5532
689.246	6089
689.267	5781
689.291	5292
689.336	5788
689.381	5698
689.388	5584
689.426	5311
689.471	5759
689.509	5647
689.516	5612
689.561	5785
689.606	5555
689.630	5570
689.651	5655
689.696	5867
689.741	5990
689.750	5941
689.785	5658
689.830	5562
689.871	6094
689.875	6161
689.920	5363
689.965	6178
689.992	5831
690.010	5629
690.054	5436
690.099	6031
690.112	6069
690.144	6247
690.189	5740
690.233	5970
690.233	5980
690.278	5757
690.323	5838
690.354	5841
690.367	5954
690.412	6333
690.457	6028
690.474	6289
690.501	6589
690.546	6450
690.590	6863
690.595	6811
690.635	6789
690.680	7534
690.716	7658
690.724	7797
690.769	8965
690.813	10647
690.836	10935
690.857	12031
690.902	14472
690.946	17834
690.957	18650
690.991	25873
691.035	35814
691.077	45704
691.080	45695
691.124	41004
691.168	35633
691.198	32860
691.213	30195
691.257	22297
691.301	14435
691.318	11551
691.346	10900
691.390	9977
691.434	8551
691.439	8396
691.478	8072
691.522	8007
691.559	7639
691.567	7636
691.611	7438
691.655	7851
691.680	7835
691.699	7756
691.743	7468
691.787	7301
691.800	7222
691.831	7302
691.875	7034
691.919	7623
691.921	7605
691.964	7351
692.008	7588
692.041	7397
692.052	7406
692.096	7597
692.139	7698
692.162	7639
692.183	7372
692.227	7217
692.271	6742
692.282	6660
692.315	6969
692.359	7223
692.402	7645
692.403	7662
692.447	7572
692.490	7375
692.523	7504
692.534	7616
692.578	7762
692.622	7683
692.643	7776
692.666	7772
692.709	7620
692.753	7275
692.763	7236
692.797	7421
692.840	7596
692.884	7663
692.884	7680
692.928	7842
692.971	8093
693.004	7850
693.015	7764
693.059	8078
693.102	7860
693.124	7836
693.146	7956
693.189	8052
693.233	8392
693.245	8403
693.276	8586
693.320	9029
693.363	9050
693.365	9039
693.407	10141
693.450	11205
693.485	12249
693.493	12702
693.537	14812
693.580	17037
693.605	18477
693.624	21592
693.667	28477
693.710	35610
693.725	38263
693.753	51995
693.797	74038
693.840	96570
693.845	98745
693.883	89708
693.926	78010
693.966	68629
693.970	66999
694.013	49161
694.056	31601
694.086	19497
694.099	18656
694.142	15850
694.185	13058
694.206	11574
694.229	11230
694.272	10997
694.315	10701
694.326	10507
694.358	10014
694.401	9586
694.444	9561
694.446	9499
694.487	9219
694.530	9440
694.566	9281
694.573	9217
694.616	8893
694.659	8514
694.686	8508
694.702	8662
694.745	8437
694.787	8501
694.806	8427
694.830	8290
694.873	8377
694.916	8090
694.926	8074
694.959	8140
695.002	7986
695.044	7797
695.046	7782
695.087	8266
695.130	8347
695.166	8471
695.172	8478
695.215	8277
695.258	8499
695.286	8369
695.301	8372
695.343	8446
695.386	8581
695.406	8486
695.428	8317
695.471	8449
695.514	8108
695.526	8044
695.556	8156
695.599	8505
695.641	8520
695.646	8498
695.684	8733
695.726	9350
695.766	9373
695.769	9351
695.811	9044
695.854	8681
695.886	8439
695.896	8502
695.938	8384
695.981	8448
696.005	8418
696.023	8497
696.065	8629
696.108	8997
696.125	9076
696.150	9102
696.192	8894
696.235	8954
696.245	8909
696.277	9177
696.319	9535
696.361	9885
696.365	9893
696.404	9794
696.446	9578
696.485	9305
696.488	9323
696.530	9318
696.572	9344
696.604	9288
696.614	9321
696.656	9224
696.698	9287
696.724	9313
696.740	9317
696.783	9099
696.825	8980
696.844	8919
696.867	8927
696.909	8896
696.951	8727
696.964	8695
696.992	8771
697.034	8703
697.076	8847
697.083	8801
697.118	8738
697.160	8864
697.202	8905
697.203	8880
697.244	8695
697.286	8454
697.323	8228
697.327	8272
697.369	8389
697.411	8688
697.442	8757
697.453	8760
697.494	8701
697.536	8672
697.562	8624
697.578	8680
697.620	8771
697.661	8843
697.682	8851
697.703	9112
697.744	9599
697.786	10090
697.801	10242
697.828	10206
697.869	9973
697.911	9935
697.921	9876
697.952	9632
697.994	9272
698.035	8953
698.040	8883
698.077	9010
698.118	9132
698.160	9246
698.160	9219
698.201	9504
698.243	9747
698.279	9935
698.284	9964
698.325	9999
698.367	9951
698.399	9943
698.408	9967
698.449	9895
698.491	9849
698.518	9789
698.532	9813
698.573	9799
698.614	9773
698.638	9734
698.656	9759
698.697	9754
698.738	9754
698.757	9712
698.779	9755
698.820	9812
698.862	9854
698.877	9847
698.903	9958
698.944	10080
698.985	10201
698.996	10208
699.026	10320
699.067	10433
699.116	10542
699.235	10136
699.354	10428
699.474	9696
699.593	10189
699.713	10134
699.832	9907
699.951	9694
700.070	9825
700.190	9238
700.309	10193
700.428	9105
700.547	9181
700.667	9798
700.786	9357
700.905	9026
701.024	10374
701.143	8913
701.262	8565
701.381	9211
701.500	9965
701.619	9165
701.738	8536
701.857	9337
701.976	7934
702.095	9047
702.214	8907
702.333	9233
702.452	9019
702.571	8504
702.690	9705
702.809	8404
702.928	8755
703.047	8303
703.165	8757
703.284	8828
703.403	8490
703.522	8814
703.640	8714
703.759	9261
703.878	9821
703.997	8198
704.115	8150
704.234	7263
704.353	7843
704.471	7585
704.590	7533
704.708	8016
704.827	9022
704.946	8188
705.064	8708
705.183	7922
705.301	9644
705.420	12014
705.538	10531
705.656	9317
705.775	9883
705.893	12766
706.012	13895
706.130	10374
706.249	10278
706.367	10114
706.485	10207
706.604	9139
706.722	9729
706.840	10777
706.958	11255
707.077	10264
707.195	8540
707.313	9156
707.431	10063
707.549	8504
707.668	8976
707.786	8969
707.904	9158
708.022	8321
708.140	9053
708.258	9192
708.376	9011
708.494	9104
708.612	9960
708.730	12350
708.848	11282
708.966	10220
709.084	10363
709.202	9500
709.320	10507
709.438	10541
709.556	10450
709.674	9544
709.791	10597
709.909	10390
710.027	10065
710.145	10243
710.263	10540
710.380	9815
710.498	10492
710.616	10150
710.733	8922
710.851	9285
710.969	9596
711.086	9972
711.204	10100
711.322	9094
711.439	8766
711.557	9115
711.674	9715
711.792	8651
711.909	9679
712.027	9297
712.144	8644
712.262	8620
712.379	9452
712.497	12077
712.614	13021
712.732	12009
712.849	10842
712.966	11017
713.084	11681
713.201	10473
713.318	11687
713.436	10752
713.553	10836
713.670	11151
713.787	11171
713.905	10583
714.022	11068
714.139	10280
714.256	10983
714.373	11584
714.490	16690
714.608	29227
714.725	111839
714.842	126272
714.959	15079
715.076	9792
715.193	9453
715.310	9732
715.427	9661
715.544	9515
715.661	9572
715.778	9236
715.895	10464
716.011	9912
716.128	10023
716.245	8551
716.362	9469
716.479	8940
716.596	9053
716.713	8592
716.829	8680
716.946	9307
717.063	8098
717.180	8329
717.296	8389
717.413	8421
717.530	8458
717.646	8360
717.763	8955
717.880	7714
717.996	8245
718.113	7815
718.229	8748
718.346	7434
718.462	7237
718.579	7847
718.695	9295
718.812	8750
718.928	9395
719.045	7628
719.161	7498
719.277	7598
719.394	7966
719.510	8659
719.626	7824
719.743	9786
719.859	10050
719.975	13138
720.092	33711
720.208	77562
720.324	14958
720.440	8155
720.557	8351
720.673	9247
720.789	10268
720.905	17750
721.021	9982
721.137	6712
721.253	7383
721.369	7612
721.486	7848
721.602	9216
721.718	7370
721.834	7100
721.950	7354
722.066	6138
722.181	7060
722.297	7323
722.413	7269
722.529	6255
722.645	6719
722.761	6435
722.877	6952
722.993	6061
723.108	6675
723.224	6074
723.340	7077
723.456	7208
723.571	6577
723.687	6083
723.803	7281
723.918	6105
724.034	6334
724.150	6460
724.265	7266
724.381	8607
724.497	10812
724.612	5981
724.728	6038
724.843	6078
724.959	6409
725.074	8300
725.190	10048
725.305	6297
725.421	5891
725.536	4343
725.651	5494
725.767	5149
725.882	6196
725.997	5620
726.113	5841
726.228	4821
726.343	5853
726.459	5593
726.574	5371
726.689	5314
726.804	6181
726.920	5328
727.035	6076
727.150	5520
727.265	4945
727.380	5875
727.495	5832
727.610	5511
727.725	5518
727.841	5497
727.956	7967
728.071	6964
728.186	5869
728.301	5101
728.416	5107
728.531	5003
728.645	5030
728.760	5668
728.875	5031
728.990	4489
729.105	5648
729.220	5796
729.335	4852
729.449	4556
729.564	4982
729.679	5010
729.794	5169
729.908	5356
730.023	5720
730.138	5043
730.253	5241
730.367	4828
730.482	5366
730.596	4787
730.711	5012
730.826	5345
730.940	5579
731.055	5487
731.169	4979
731.284	5284
731.398	4436
731.513	5304
731.627	5860
731.742	5574
731.856	6185
731.970	5073
732.085	5884
732.199	6077
732.313	8439
732.428	15181
732.542	40110
732.656	26965
732.771	7061
732.885	6209
732.999	6299
733.113	6471
733.227	6178
733.342	5482
733.456	5530
733.570	5158
733.684	5310
733.798	5324
733.912	5361
734.026	4878
734.140	4490
734.254	4989
734.368	6753
734.482	7138
734.596	5596
734.710	4809
734.824	4896
734.938	4778
735.052	4479
735.166	5339
735.280	5392
735.393	4594
735.507	5600
735.621	5445
735.735	7403
735.849	5104
735.962	4987
736.076	4637
736.190	5592
736.303	6165
736.417	5949
736.531	4899
736.644	4900
736.758	4415
736.872	4705
736.985	4643
737.099	4861
737.212	3841
737.326	4850
737.439	5107
737.553	4412
737.666	4160
737.780	3946
737.893	4416
738.007	5095
738.120	4722
738.233	4831
738.347	4603
738.460	5752
738.573	4135
738.687	4090
738.800	4871
738.913	4826
739.026	4724
739.140	5005
739.253	4725
739.366	4522
739.479	4362
739.592	5034
739.705	4143
739.818	4821
739.932	4263
740.045	4779
740.158	4401
740.271	4713
740.384	4201
740.497	4381
740.610	4479
740.723	5147
740.836	4645
740.949	5292
741.062	4969
741.174	5515
741.287	3878
741.400	5187
741.513	4183
741.626	4568
741.739	4360
741.851	4894
741.964	4266
742.077	4291
742.189	3516
742.302	5101
742.415	4062
742.527	4054
742.640	4371
742.753	4124
742.865	3809
742.978	4326
743.090	4837
743.203	4642
743.316	4191
743.428	4101
743.541	3813
743.653	4228
743.766	4185
743.878	3950
743.990	4875
744.103	5258
744.215	4034
744.327	4469
744.440	3927
744.552	4841
744.664	3819
744.777	4273
744.889	3790
745.001	4274
745.113	4177
745.226	4166
745.338	3752
745.450	4657
745.562	4392
745.674	4781
745.786	4516
745.898	3990
746.010	4190
746.122	4103
746.234	3337
746.347	4359
746.459	5304
746.570	3947
746.682	4505
746.794	5398
746.906	4260
747.018	4407
747.130	3761
747.242	4454
747.354	4210
747.466	5115
747.577	3941
747.689	4550
747.801	3785
747.913	4192
748.024	3683
748.136	4619
748.248	3584
748.359	3660
748.471	4208
748.583	3363
748.694	3946
748.806	5085
748.918	4004
749.029	4794
749.141	4541
749.252	4440
749.364	4308
749.475	4816
749.587	4494
749.698	3622
749.809	4470
749.921	4850
750.032	4784
750.144	4232
750.255	3691
750.366	4801
750.478	4446
750.589	4716
750.700	3513
750.811	4541
750.923	4890
751.034	4839
751.145	5149
751.256	3873
751.367	3846
751.479	4106
751.590	4069
751.701	4080
751.812	4153
751.923	4351
752.034	4469
752.145	4486
752.256	4101
752.367	4930
752.478	3681
752.589	4912
752.700	4148
752.811	4953
752.922	4569
753.032	3487
753.143	4191
753.254	4029
753.365	5517
753.476	4852
753.586	3655
753.697	3887
753.808	4746
753.919	4287
754.029	3751
754.140	4876
754.251	4340
754.361	4342
754.472	4446
754.582	4311
754.693	4927
754.804	4219
754.914	4882
755.025	4433
755.135	4663
755.246	5610
755.356	4190
755.466	4589
755.577	5317
755.687	6036
755.798	4795
755.908	4457
756.018	4315
756.129	5800
756.239	4483
756.349	4944
756.460	4501
756.570	5818
756.680	4780
756.790	5219
756.900	5537
757.011	5399
757.121	5222
757.231	5311
757.341	5630
757.451	6110
757.561	5475
757.671	5942
757.781	5586
757.891	5972
758.001	5098
758.111	6552
758.221	6751
758.331	5834
758.441	6586
758.551	6349
758.661	6317
758.771	7465
758.880	6570
758.990	7121
759.100	6441
759.210	7278
759.320	7186
759.429	7805
759.539	7754
759.649	7240
759.758	7414
759.868	7674
759.978	6939
760.087	8772
760.197	7539
760.307	8411
760.416	8193
760.526	8690
760.635	9308
760.745	8396
760.854	8269
760.964	10042
761.073	9316
761.182	9789
761.292	10444
761.401	10618
761.511	9951
761.620	9822
761.729	10840
761.839	11090
761.948	11377
762.057	11496
762.166	11276
762.276	11814
762.385	13198
762.494	12720
762.603	13836
762.712	13614
762.822	14202
762.931	15903
763.040	15678
763.149	15069
763.258	17328
763.367	18188
763.476	18837
763.585	20568
763.694	20331
763.803	20826
763.912	23267
764.021	24430
764.130	26377
764.238	28589
764.347	30232
764.456	32432
764.565	35717
764.674	37749
764.783	40407
764.891	44878
765.000	52325
765.109	59524
765.217	65439
765.326	77795
765.435	90983
765.543	110663
765.652	135112
765.761	170912
765.869	218941
765.978	290706
766.086	385730
766.195	496455
766.303	548830
766.412	396249
766.520	423406
766.629	549566
766.737	469701
766.846	352481
766.954	262465
767.062	199937
767.171	157444
767.279	126309
767.387	102867
767.496	87331
767.604	74950
767.712	67004
767.820	57912
767.928	53358
768.037	49128
768.145	47445
768.253	45111
768.361	42814
768.469	44291
768.577	43092
768.685	47523
768.793	49921
768.901	54188
769.009	63920
769.117	75907
769.225	97319
769.333	130170
769.441	186906
769.549	280432
769.657	414642
769.765	494893
769.873	392403
769.981	477046
770.088	392525
770.196	262762
770.304	184386
770.412	136955
770.519	105453
770.627	85540
770.735	70794
770.842	59883
770.950	51273
771.058	45428
771.165	40490
771.273	35607
771.380	33355
771.488	30475
771.595	28835
771.703	26557
771.810	25033
771.918	22600
772.025	21704
772.133	19298
772.240	18823
772.348	17983
772.455	17296
772.562	16400
772.670	16226
772.777	14537
772.884	14063
772.991	13557
773.099	13895
773.206	12753
773.313	13145
773.420	12219
773.528	11621
773.635	11725
773.742	11749
773.849	11138
773.956	10942
774.063	10743
774.170	9166
774.277	10234
774.384	9725
774.491	9748
774.598	8651
774.705	8846
774.812	9324
774.919	9336
775.026	8251
775.133	7710
775.239	7797
775.346	7852
775.453	7548
775.560	7115
775.667	7740
775.773	6529
775.880	7644
775.987	7371
776.093	7068
776.200	7504
776.307	5899
776.413	7239
776.520	6682
776.627	6413
776.733	5646
776.840	5289
776.946	8357
777.053	6402
777.159	6724
777.266	4760
777.372	7529
777.478	6145
777.585	7061
777.691	5186
777.798	6366
777.904	5707
778.010	5952
778.117	5112
778.223	5669
778.329	5468
778.435	5119
778.542	5849
778.648	5324
778.754	4316
778.860	5210
778.966	4605
779.072	4889
779.178	4716
779.284	5520
779.391	4869
779.497	5571
779.603	8766
779.708	11059
779.815	26216
779.920	86123
780.026	130196
780.132	23305
780.238	6067
780.344	6430
780.450	5661
780.556	4928
780.661	3871
780.767	4709
780.873	3657
780.979	4082
781.085	4320
781.190	3767
781.296	4412
781.402	2811
781.507	3353
781.613	3831
781.719	3689
781.824	3901
781.930	3641
782.035	4300
782.141	3476
782.246	3771
782.352	3728
782.457	3327
782.563	3507
782.668	3358
782.773	2457
782.879	2751
782.984	3582
783.090	3634
783.195	3444
783.300	3261
783.405	3342
783.511	2978
783.616	3131
783.721	2503
783.826	2685
783.932	3099
784.037	2739
784.142	2818
784.247	2577
784.352	3217
784.457	2236
784.562	3322
784.667	2783
784.772	2913
784.877	1399
784.982	3672
785.087	2339
785.192	2598
785.297	2177
785.402	2353
785.507	2014
785.611	1165
785.716	2721
785.821	2728
785.926	2047
786.031	1803
786.135	1646
786.240	1740
786.345	979
786.450	2875
786.554	1989
786.659	2486
786.763	1681
786.868	2715
786.973	3285
787.077	2109
787.182	2240
787.286	1927
787.391	2865
787.495	1773
787.600	2026
787.704	1194
787.809	2473
787.913	2074
788.017	2971
788.122	2454
788.226	2099
788.330	1576
788.435	1351
788.539	2999
788.643	1171
788.747	2559
788.852	2724
788.956	2063
789.060	2307
789.164	1642
789.268	1640
789.372	2380
789.476	2104
789.580	2074
789.684	1347
789.788	2151
789.892	1918
789.996	2709
790.100	1621
790.204	2474
790.308	1566
790.412	1925
790.516	1714
790.620	2087
790.724	1988
790.828	1366
790.931	1422
791.035	2930
791.139	1528
791.242	1098
791.346	933
791.450	1522
791.554	1488
791.657	983
791.761	2479
791.864	2488
791.968	1816
792.072	1917
792.175	2189
792.279	1686
792.382	1553
792.486	1548
792.589	538
792.693	2150
792.796	1219
792.899	2505
793.003	2406
793.106	640
793.209	1112
793.313	2634
793.416	-647
793.519	2600
793.623	2390
793.726	2014
793.829	2307
793.932	1654
794.035	1112
794.138	2596
794.242	2554
794.345	3596
794.448	5236
794.551	12992
794.654	49755
794.757	81781
794.860	14257
794.963	3263
795.066	2188
795.169	3209
795.272	1675
795.375	2181
795.477	1058
795.580	2570
795.683	916
795.786	2310
795.889	237
795.991	1809
796.094	1620
796.197	512
796.300	2371
796.402	863
796.505	877
796.608	1728
796.710	1891
796.813	1322
796.915	986
797.018	1413
797.120	1618
797.223	-130
797.326	1590
797.428	826
797.530	875
797.633	1473
797.735	2144
797.838	1793
797.940	1900
798.042	744
798.145	1532
798.247	1767
798.349	-391
798.452	1607
798.554	391
798.656	131
798.758	1792
798.860	1367
798.962	1375
799.065	413
799.167	253
799.269	2202
799.371	2075
799.473	262
799.575	128
799.677	1602
799.779	1676
799.881	777
799.983	1679
800.085	420
800.187	306
800.289	-300
800.390	1010
800.492	1283
800.594	2098
800.696	1083
800.798	-73
800.899	332
801.001	1004
801.103	1196
801.205	1163
801.306	431
801.408	49
801.509	369
801.611	547
801.713	1371
801.814	621
801.916	1383
802.017	841
802.119	205
802.220	736
802.322	-748
802.423	1088
802.525	-239
802.626	699
802.727	1463
802.829	457
802.930	-1363
803.031	1763
803.133	676
803.234	794
803.335	807
803.436	-586
803.538	515
803.639	558
803.740	1856
803.841	-725
803.942	1040
804.043	1911
804.144	-88
804.245	45
804.346	174
804.447	-168
804.548	293
804.649	1026
804.750	447
804.851	474
804.952	387
805.053	-215
805.154	-544
805.255	1685
805.355	187
805.456	92
805.557	68
805.658	-737
805.758	1089
805.859	478
805.960	1098
806.061	105
806.161	866
806.262	-54
806.362	541
806.463	-130
806.564	1355
806.664	-35
806.765	684
806.865	5
806.966	487
807.066	-1010
807.166	1385
807.267	1075
807.367	-276
807.468	1191
807.568	-782
807.668	81
807.769	1619
807.869	755
807.969	297
808.069	177
808.170	733
808.270	455
808.370	1328
808.470	163
808.570	-32
808.670	597
808.770	13
808.870	-541
808.970	476
809.070	161
809.170	490
809.271	771
809.370	432
809.470	925
809.570	-10
809.670	-101
809.770	347
809.870	662
809.970	1224
810.070	98
810.169	1072
810.269	-681
810.369	890
810.469	807
810.568	333
810.668	387
810.768	-679
810.867	152
810.967	224
811.066	464
811.166	-247
811.265	507
811.365	-115
811.464	228
811.564	969
811.663	634
811.763	-1279
811.862	690
811.962	1078
812.061	59
812.160	255
812.260	790
812.359	800
812.458	-132
812.557	1720
812.657	2734
812.756	1110
812.855	766
812.954	308
813.053	738
813.153	-275
813.252	-916
813.351	955
813.450	-34
813.549	-139
813.648	556
813.747	356
813.846	620
813.945	9
814.044	556
814.143	798
814.242	1295
814.341	323
814.439	-285
814.538	983
814.637	294
814.736	-66
814.835	563
814.933	-72
815.032	-211
815.131	-22
815.229	219
815.328	1105
815.427	475
815.525	631
815.624	632
815.722	199
815.821	1040
815.919	444
816.018	-480
816.116	1013
816.215	537
816.313	98
816.412	293
816.510	387
816.609	1488
816.707	1072
816.805	462
816.904	347
817.002	1009
817.100	1080
817.198	974
817.296	891
817.395	974
817.493	1282
817.591	390
817.689	1424
817.787	204
817.885	970
817.983	262
818.081	2088
818.179	2202
818.277	7241
818.375	7094
818.473	1932
818.571	513
818.669	698
818.767	699
818.865	1705
818.963	636
819.061	515
819.158	462
819.256	3858
819.354	6140
819.452	15540
819.549	7595
819.647	3596
819.745	1158
819.842	1690
819.940	1185
820.038	-82
820.135	183
820.233	1216
820.330	305
820.428	505
820.525	1415
820.623	558
820.720	-113
820.818	1194
820.915	748
821.012	608
821.110	-773
821.207	954
821.304	-628
821.402	894
821.499	1092
821.596	1460
821.693	208
821.791	1156
821.888	983
821.985	1791
822.082	-604
822.179	1038
822.276	500
822.373	-85
822.470	258
822.567	304
822.664	-160
822.761	791
822.858	-911
822.955	1149
823.052	-129
823.149	-317
823.246	332
823.343	10
823.440	673
823.536	479
823.633	317
823.730	624
823.827	733
823.923	640
824.020	1890
824.117	537
824.213	-591
824.310	1305
824.407	-290
824.503	1061
824.600	421
824.696	382
824.793	322
824.889	137
824.986	-136
825.082	157
825.179	543
825.275	-210
825.371	286
825.468	431
825.564	-447
825.660	593
825.757	558
825.853	685
825.949	-249
826.045	-219
826.142	-411
826.238	852
826.334	710
826.430	-15
826.526	508
826.622	-368
826.718	797
826.814	532
826.910	618
827.006	514
827.102	315
827.198	661
827.294	-559
827.390	448
827.486	1366
827.582	-970
827.678	-644
827.774	897
827.869	-1074
827.965	1388
828.061	-1293
828.157	799
828.252	351
828.348	-209
828.444	244
828.539	-38
828.635	293
828.731	658
828.826	-957
828.922	1462
829.017	121
829.113	641
829.208	-812
829.304	-19
829.399	732
829.495	-595
829.590	648
829.685	-5
829.781	-27
829.876	-553
829.971	53
830.066	-518
830.162	-803
830.257	107
830.352	-72
830.447	854
830.543	810
830.638	-1205
830.733	877
830.828	-142
830.923	782
831.018	193
831.113	-316
831.208	-338
831.303	-281
831.398	798
831.493	42
831.588	1101
831.683	-944
831.778	-151
831.873	-183
831.967	483
832.062	-1073
832.157	-327
832.252	-147
832.346	132
832.441	459
832.536	441
832.631	802
832.725	179
832.820	-454
832.914	-572
833.009	-720
833.104	16
833.198	697
833.293	-396
833.387	-217
833.482	220
833.576	-1123
833.670	152
833.765	-575
833.859	-507
833.954	-303
834.048	-213
834.142	415
834.237	-356
834.331	-19
834.425	81
834.519	-627
834.613	164
834.708	227
834.802	158
834.896	-724
834.990	-76
835.084	32
835.178	104
835.272	-664
835.366	-370
835.460	518
835.554	-235
835.648	516
835.742	-355
835.836	-162
835.930	-350
836.024	-6
836.117	1134
836.211	-799
836.305	383
836.399	313
836.493	-694
836.586	152
836.680	-1007
836.774	-1461
836.867	699
836.961	-1173
837.055	-39
837.148	-317
837.242	-288
837.335	-289
837.429	250
837.522	-515
837.616	-463
837.709	237
837.803	-677
837.896	-438
837.989	-366
838.083	244
838.176	-88
838.269	184
838.363	123
838.456	-594
838.549	361
838.642	-1520
838.735	444
838.829	-324
838.922	-543
839.015	287
839.108	-396
839.201	51
839.294	-349
839.387	-527
839.480	-675
839.573	-456
839.666	-818
839.759	-864
839.852	-434
839.945	-214
840.038	-273
840.131	-356
840.223	-716
840.316	-57
840.409	-599
840.502	-1169
840.594	1177
840.687	-628
840.780	-548
840.873	-1028
840.965	-671
841.058	-470
841.150	-180
841.243	-593
841.336	312
841.428	-554
841.521	-332
841.613	-1416
841.706	-289
841.798	-802
841.890	-440
841.983	-1141
842.075	807
842.167	-259
842.260	942
842.352	269
842.444	-9
842.537	530
842.629	880
842.721	-616
842.813	-571
842.905	-966
842.997	-347
843.090	-643
843.182	484
843.274	-343
843.366	2048
843.458	2877
843.550	3107
843.642	-631
843.734	243
843.826	-151
843.918	632
844.009	-353
844.101	-521
844.193	-758
844.285	-547
844.377	-565
844.469	282
844.560	-643
844.652	-881
844.744	-268
844.835	-637
844.927	-519
845.019	-65
845.110	-963
845.202	-146
845.293	-417
845.385	-245
845.476	-354
845.568	50
845.659	-228
845.751	-2
845.842	-975
845.934	-1241
846.025	-579
846.116	-6
846.208	-621
846.299	-824
846.390	-243
846.482	-758
846.573	-457
846.664	390
846.755	-85
846.846	726
846.937	-645
847.029	-155
847.120	-1177
847.211	-613
847.302	99
847.393	-814
847.484	-437
847.575	-771
847.666	-868
847.757	-404
847.847	-696
847.938	-33
848.029	-1078
848.120	-1043
848.211	-917
848.302	-1567
848.392	-252
848.483	-365
848.574	-1704
848.664	-679
848.755	-1072
848.846	-245
848.936	-226
849.027	-496
849.118	-228
849.208	-1186
849.299	-221
849.389	133
849.480	-523
849.570	884
849.661	1641
849.751	4803
849.841	2012
849.932	-187
850.022	453
850.112	-9
850.203	-1391
850.293	-1023
850.383	-178
850.474	-1004
850.564	-742
850.654	-1131
850.744	-908
850.834	285
850.924	-774
851.014	-302
851.104	-230
851.194	-630
851.284	146
851.374	-145
851.464	-1260
851.554	-965
851.644	-165
851.734	724
851.824	259
851.914	656
852.004	1353
852.094	879
852.183	-77
852.273	192
852.363	-970
852.452	-317
852.542	-60
852.632	-921
852.721	-731
852.811	-285
852.901	-674
852.990	-1012
853.080	-824
853.169	-478
853.259	-259
853.348	-781
853.438	-101
853.527	-297
853.617	-581
853.706	748
853.795	1337
853.885	4827
853.974	9016
854.063	17632
854.152	31522
854.242	11837
854.331	226
854.420	-600
854.509	167
854.598	417
854.687	-239
854.777	-105
854.866	-1034
854.955	-631
855.044	-1116
855.133	-888
855.222	-918
855.311	-871
855.400	-1302
855.488	-758
855.577	-1221
855.666	-1179
855.755	-1239
855.844	118
855.933	-537
856.021	-89
856.110	-402
856.199	-489
856.288	-713
856.376	-824
856.465	-489
856.554	347
856.642	-942
856.731	-454
856.819	-1236
856.908	-1372
856.996	-880
857.085	-550
857.173	-714
857.262	-665
857.350	-781
857.438	-726
857.527	-381
857.615	-1409
857.703	-914
857.792	-835
857.880	-1037
857.968	-1332
858.056	-689
858.145	-652
858.233	-1693
858.321	-1118
858.409	-635
858.497	-902
858.585	-967
858.673	3
858.761	-976
858.849	-1096
858.937	-1015
859.025	322
859.113	-969
859.201	-1183
859.289	-656
859.377	-1062
859.465	427
859.552	-722
859.640	-761
859.728	-220
859.816	-1045
859.903	-1266
859.991	-735
860.079	-181
860.166	-1360
860.254	-977
860.342	-578
860.429	-899
860.517	-892
860.604	-696
860.692	-465
860.779	-553
860.867	-1135
860.954	-216
861.042	-1104
861.129	-744
861.216	-321
861.304	-1167
861.391	-295
861.478	-1494
861.565	-1428
861.653	-407
861.740	-864
861.827	-995
861.914	-1278
862.001	-508
862.089	-1837
862.176	-1284
862.263	-778
862.350	47
862.437	-1126
862.524	-592
862.611	-1107
862.698	-1011
862.785	-724
862.871	-313
862.958	-542
863.045	-829
863.132	-1082
863.219	-877
863.306	-1890
863.392	45
863.479	-1314
863.566	-920
863.652	-663
863.739	-1135
863.826	-286
863.912	-542
863.999	-1207
864.086	-558
864.172	-549
864.259	-626
864.345	-1197
864.432	-1022
864.518	-1541
864.604	-571
864.691	-1525
864.777	-564
864.863	-570
864.950	-33
865.036	-946
865.122	-861
865.209	-96
865.295	359
865.381	-30
865.467	58
865.553	85
865.639	-193
865.726	437
865.812	2413
865.898	4077
865.984	7500
866.070	12570
866.156	16567
866.242	3694
866.328	685
866.414	-520
866.499	172
866.585	-492
866.671	-451
866.757	-402
866.843	256
866.928	-675
867.014	-359
867.100	492
867.186	-203
867.271	208
867.357	32
867.442	-257
867.528	197
867.614	-516
867.699	230
867.785	1007
867.870	81
867.956	-296
868.041	1128
868.127	-457
868.212	-927
868.297	120
868.383	-190
868.468	-150
868.553	-61
868.639	-545
868.724	402
868.809	321
868.894	-295
868.979	57
869.065	606
869.150	-960
869.235	136
869.320	-655
869.405	-89
869.490	-715
869.575	243
869.660	-1095
869.745	21
869.830	-813
869.915	-323
870.000	-691
870.085	169
870.169	-1195
870.254	149
870.339	-672
870.424	-755
870.509	-366
870.593	-432
870.678	-657
870.763	298
870.847	-756
870.932	-1329
871.016	-562
871.101	-539
871.186	-1072
871.270	363
871.355	-1386
871.439	-454
871.523	-659
871.608	-54
871.692	-853
871.777	-156
871.861	-243
871.945	-904
872.030	-875
872.114	-998
872.198	-890
872.282	-1020
872.367	-296
872.451	-472
872.535	-177
872.619	-1130
872.703	-1061
872.787	-366
872.871	-879
872.955	-347
873.039	-886
873.123	-1579
873.207	-20
873.291	-412
873.375	-971
873.459	68
873.543	-704
873.627	-683
873.711	-476
873.794	-121
873.878	-882
873.962	-1487
874.045	-353
874.129	-1323
874.137	-1250
874.213	-521
874.245	-715
874.296	-1025
874.352	-214
874.380	174
874.460	-1261
874.464	-1317
874.547	-240
874.568	-268
874.631	-376
874.676	-510
874.714	-616
874.784	-493
874.798	-479
874.881	299
874.892	135
874.965	-955
874.999	-1046
875.048	-1188
875.107	-843
875.131	-703
875.215	-487
875.215	-487
875.298	-504
875.323	-696
875.381	-1079
875.430	-475
875.465	-83
875.538	-621
875.548	-693
875.631	-892
875.646	-835
875.714	-607
875.753	-394
875.798	-114
875.861	-598
875.881	-767
875.964	-555
875.968	-572
876.047	-843
876.076	-835
876.130	-772
876.183	-731
876.213	-754
876.291	-411
876.296	-379
876.379	-555
876.398	-577
876.462	-817
876.506	-750
876.545	-591
876.613	-817
876.628	-893
876.711	-959
876.721	-925
876.794	-520
876.828	-482
876.877	-467
876.935	-622
876.960	-659
877.043	-959
877.043	-959
877.125	-711
877.150	-500
877.208	-91
877.258	-393
877.291	-573
877.365	-397
877.374	-379
877.456	-78
877.472	-152
877.539	-415
877.579	-375
877.622	-284
877.687	-200
877.704	-243
877.787	-559
877.794	-628
877.869	-966
877.901	-826
877.952	-768
878.008	-579
878.034	-479
878.115	-343
878.117	-341
878.199	-1066
878.222	-964
878.282	-553
878.329	-737
878.364	-907
878.437	320
878.447	511
878.529	-502
878.544	-318
878.611	261
878.651	-24
878.694	-261
878.758	127
878.776	240
878.858	-848
878.865	-838
878.941	-809
878.972	-840
879.023	-711
879.078	-382
879.105	-253
879.185	-839
879.187	-850
879.269	-288
879.292	-364
879.351	-579
879.399	-766
879.433	-806
879.506	34
879.516	93
879.598	-261
879.613	-360
879.680	-364
879.720	-463
879.762	-738
879.827	-695
879.844	-638
879.926	-661
879.933	-659
880.007	-694
880.040	-548
880.089	-275
880.147	-242
880.171	-299
880.253	264
880.254	257
880.335	-723
880.360	-483
880.417	221
880.467	929
880.499	1518
880.574	2369
880.580	2349
880.662	615
880.680	351
880.744	-269
880.787	-346
880.825	-258
880.893	-276
880.907	-338
880.989	-495
881.000	-542
881.070	-492
881.106	-452
881.152	-295
881.213	67
881.233	36
881.315	-104
881.319	-131
881.396	-356
881.426	-475
881.478	-504
881.532	-194
881.559	-27
881.639	-355
881.641	-369
881.722	4
881.745	-100
881.803	70
881.852	80
881.885	-186
881.958	-330
881.966	-301
882.047	149
882.064	-11
882.129	-808
882.171	-707
882.210	-557
882.277	-388
882.291	-261
882.372	-32
882.383	35
882.454	-59
882.489	-229
882.535	-374
882.596	-431
882.616	-335
882.697	-90
882.702	-64
882.778	44
882.808	58
882.859	-160
882.914	-484
882.940	-410
883.020	79
883.021	84
883.102	-10
883.127	-32
883.183	21
883.233	4
883.264	-6
883.339	221
883.345	200
883.426	-495
883.445	-508
883.507	401
883.551	702
883.587	481
883.657	318
883.668	369
883.749	373
883.763	442
883.830	255
883.869	-26
883.910	-224
883.975	-474
883.991	-422
884.072	-241
884.081	-195
884.152	-268
884.187	-387
884.233	-21
884.292	555
884.314	474
884.394	-174
884.398	-195
884.475	-62
884.504	-65
884.555	25
884.610	13
884.636	-87
884.716	-264
884.716	-258
884.797	-91
884.821	65
884.877	205
884.927	77
884.958	34
885.033	-389
885.038	-410
885.118	-262
885.139	-349
885.199	-599
885.244	-505
885.279	-178
885.350	334
885.359	360
885.439	385
885.456	407
885.520	31
885.561	-197
885.600	-182
885.667	-248
885.680	-191
885.760	360
885.773	376
885.840	148
885.878	162
885.920	137
885.984	-16
886.000	79
886.080	628
886.089	682
886.160	373
886.195	220
886.240	293
886.300	332
886.320	332
886.400	328
886.406	321
886.480	-190
886.511	-395
886.560	-98
886.616	335
886.640	425
886.720	537
886.722	535
886.800	-49
886.827	-207
886.879	25
886.932	279
886.959	462
887.038	897
887.039	893
887.119	-9
887.143	-204
887.198	-54
887.248	34
887.278	39
887.354	-52
887.358	-45
887.437	166
887.459	233
887.517	642
887.564	849
887.596	574
887.669	1
887.676	11
887.755	163
887.774	165
887.835	311
887.880	537
887.914	548
887.985	346
887.994	395
888.073	893
888.090	1002
888.153	673
888.195	417
888.232	614
888.300	962
888.311	930
888.391	564
888.405	530
888.470	225
888.510	-55
888.549	287
888.615	890
888.628	809
888.708	333
888.720	255
888.787	718
888.825	937
888.866	733
888.930	454
888.945	477
889.024	561
889.035	574
889.103	309
889.140	124
889.182	275
889.245	552
889.261	642
889.340	1026
889.349	1067
889.419	831
889.454	711
889.498	629
889.559	501
889.577	478
889.656	382
889.664	373
889.735	1237
889.768	1645
889.814	1191
889.873	579
889.978	-10
890.083	1191
890.187	224
890.292	905
890.397	515
890.501	287
890.606	382
890.710	1045
890.815	821
890.919	571
891.024	135
891.128	854
891.233	518
891.337	843
891.442	33
891.546	293
891.650	443
891.755	348
891.859	1530
891.963	473
892.068	758
892.172	626
892.276	360
892.380	536
892.484	498
892.589	-129
892.693	239
892.797	505
892.901	528
893.005	346
893.109	279
893.213	1211
893.317	625
893.421	735
893.525	636
893.629	322
893.733	262
893.837	171
893.941	-107
894.045	637
894.148	500
894.252	1090
894.356	1215
894.460	778
894.564	32
894.667	242
894.771	723
894.875	103
894.978	128
895.082	-111
895.186	880
895.289	523
895.393	311
895.496	43
895.600	-466
895.703	774
895.807	-342
895.910	577
896.014	-288
896.117	877
896.221	652
896.324	-17
896.427	-18
896.531	951
896.634	-83
896.737	126
896.840	-65
896.944	-351
897.047	158
897.150	755
897.253	327
897.356	748
897.460	-266
897.563	-441
897.666	65
897.769	507
897.872	322
897.975	-149
898.078	-52
898.181	185
898.284	427
898.387	-303
898.490	-12
898.593	1029
898.695	308
898.798	119
898.901	539
899.004	1082
899.107	-101
899.209	104
899.312	1229
899.415	-500
899.518	-177
899.620	-338
899.723	800
899.826	-106
899.928	822
900.031	-553
900.133	76
900.236	-28
900.338	-618
900.441	71
900.543	-17
900.646	351
900.748	128
900.851	-558
900.953	-24
901.055	315
901.158	-119
901.260	132
901.362	299
901.465	447
901.567	-32
901.669	967
901.771	-294
901.873	35
901.976	681
902.078	67
902.180	289
902.282	49
902.384	283
902.486	418
902.588	-20
902.690	-303
902.792	-288
902.894	37
902.996	-382
903.098	667
903.200	132
903.302	-197
903.404	332
903.505	-2
903.607	125
903.709	-226
903.811	-587
903.913	-428
904.014	-256
904.116	281
904.218	-487
904.319	-105
904.421	755
904.523	-342
904.624	483
904.726	329
904.827	-430
904.929	-232
905.030	271
905.132	79
905.233	-150
905.335	-157
905.436	134
905.537	-205
905.639	-210
905.740	-74
905.841	107
905.943	756
906.044	428
906.145	143
906.247	-303
906.348	-22
906.449	480
906.550	-113
906.651	371
906.752	-351
906.854	-267
906.955	274
907.056	141
907.157	-329
907.258	-453
907.359	59
907.460	129
907.561	160
907.662	-220
907.762	127
907.863	-272
907.964	-394
908.065	657
908.166	6
908.267	215
908.367	260
908.468	-58
908.569	-26
908.670	-480
908.770	-30
908.871	448
908.971	-423
909.072	55
909.173	-191
909.273	495
909.374	560
909.474	-450
909.575	-46
909.675	173
909.776	705
909.876	172
909.977	-144
910.077	-75
910.177	-762
910.278	-309
910.378	-406
910.478	274
910.579	-775
910.679	299
910.779	-333
910.879	271
910.980	-344
911.080	-731
911.180	743
911.280	18
911.380	-27
911.480	-321
911.580	379
911.680	282
911.780	-431
911.880	-298
911.980	439
912.080	-959
912.180	-617
912.280	-327
912.380	-506
912.480	-16
912.580	147
912.679	-205
912.779	288
912.879	262
912.979	-479
913.078	-361
913.178	-1393
913.278	157
913.377	206
913.477	-45
913.577	-98
913.676	633
913.776	11
913.875	552
913.975	64
914.074	-320
914.174	-281
914.273	-369
914.373	153
914.472	-567
914.572	-791
914.671	152
914.770	-538
914.870	-640
914.969	144
915.068	88
915.167	-1276
915.267	-1042
915.366	-301
915.465	-533
915.564	-269
915.663	-635
915.763	121
915.862	-780
915.961	90
916.060	239
916.159	-31
916.258	-306
916.357	-733
916.456	140
916.555	-285
916.654	-387
916.752	-176
916.851	-938
916.950	-747
917.049	108
917.148	-666
917.247	-321
917.345	190
917.444	-639
917.543	-423
917.642	-568
917.740	-251
917.839	-377
917.937	688
918.036	-12
918.135	-591
918.233	-815
918.332	-417
918.430	-179
918.529	-1096
918.627	-668
918.726	-889
918.824	-209
918.923	-312
919.021	-704
919.119	-710
919.218	-523
919.316	-600
919.414	-905
919.512	-278
919.611	-968
919.709	-210
919.807	1
919.905	312
920.003	-283
920.102	-220
920.200	4
920.298	-166
920.396	-354
920.494	-749
920.592	-495
920.690	-285
920.788	202
920.886	-156
920.984	-484
921.082	-654
921.180	26
921.277	1015
921.375	-902
921.473	734
921.571	-592
921.669	281
921.766	-843
921.864	-111
921.962	-30
922.060	-946
922.157	-220
922.255	-139
922.352	381
922.450	503
922.548	-215
922.645	-243
922.743	264
922.840	727
922.938	400
923.035	451
923.133	554
923.230	376
923.327	305
923.425	1201
923.522	111
923.619	1356
923.717	534
923.814	473
923.911	354
924.008	985
924.106	358
924.203	-125
924.300	792
924.397	-351
924.494	1262
924.591	-221
924.688	667
924.786	276
924.883	766
924.979	302
925.077	754
925.173	743
925.270	-150
925.367	294
925.464	1091
925.561	715
925.658	414
925.755	343
925.852	634
925.948	-536
926.045	481
926.142	-503
926.239	252
926.335	81
926.432	-272
926.529	657
926.625	682
926.722	41
926.818	31
926.915	440
927.011	0
927.108	825
927.204	453
927.301	103
927.397	-403
927.494	1096
927.590	429
927.687	645
927.783	11
927.879	1224
927.976	258
928.072	712
928.168	-21
928.264	365
928.361	141
928.457	926
928.553	438
928.649	287
928.745	-272
928.841	323
928.937	163
929.033	12
929.129	412
929.225	76
929.321	398
929.417	961
929.513	-209
929.609	-127
929.705	-395
929.801	-440
929.897	-700
929.993	-555
930.089	350
930.184	213
930.280	-94
930.376	281
930.471	-392
930.567	-71
930.663	888
930.758	56
930.854	-139
930.950	513
931.045	-283
931.141	384
931.236	864
931.332	339
931.427	-631
931.523	525
931.618	-62
931.714	-343
931.809	221
931.905	573
932.000	288
932.095	-358
932.191	735
932.286	207
932.381	368
932.476	-661
932.572	166
932.667	-637
932.762	-680
932.857	24
932.952	-493
933.047	-731
933.142	-228
933.237	-479
933.332	142
933.427	-130
933.522	-144
933.617	-259
933.712	-132
933.807	388
933.902	-443
933.997	185
934.092	-354
934.187	-237
934.282	331
934.376	-615
934.471	783
934.566	-34
934.661	-436
934.755	-75
934.850	-290
934.945	294
935.039	-389
935.134	-253
935.228	-349
935.323	-230
935.417	-820
935.512	-54
935.606	-600
935.701	-537
935.795	-1229
935.890	150
935.984	-617
936.079	-735
936.173	27
936.267	-136
936.362	-1067
936.456	119
936.550	145
936.644	-273
936.738	-374
936.833	14
936.927	271
937.021	-228
937.115	-1191
937.209	-187
937.303	280
937.397	-587
937.491	-320
937.585	-169
937.679	-301
937.773	-67
937.867	280
937.961	-412
938.055	27
938.149	-76
938.243	-606
938.337	-557
938.430	-587
938.524	-244
938.618	-824
938.712	366
938.805	264
938.899	-199
938.993	183
939.086	-498
939.180	-238
939.274	-278
939.367	-29
939.461	-412
939.554	-4
939.648	127
939.741	-367
939.835	-711
939.928	-460
940.022	411
940.115	-367
940.208	-30
940.302	125
940.395	40
940.488	-810
940.582	734
940.675	-656
940.768	-445
940.861	-225
940.954	59
941.048	-1292
941.141	-230
941.234	-536
941.327	-423
941.420	-694
941.513	-68
941.606	-829
941.699	306
941.792	-178
941.885	-1049
941.978	-260
942.071	-308
942.164	-501
942.257	-52
942.349	-483
942.442	97
942.535	-383
942.628	-181
942.721	-615
942.813	-1101
942.906	-256
942.999	-483
943.091	-1178
943.184	-683
943.277	-738
943.369	-161
943.462	-745
943.554	-894
943.647	-229
943.739	-318
943.832	-477
943.924	-1274
944.017	-335
944.109	-1604
944.201	427
944.294	252
944.386	-1196
944.478	-106
944.571	-1292
944.663	-202
944.755	39
944.847	-408
944.940	-284
945.032	-834
945.124	-696
945.216	757
945.308	-662
945.400	-709
945.492	-113
945.584	-1346
945.676	-667
945.768	147
945.860	-54
945.952	-1067
946.044	-1066
946.136	-21
946.228	-1238
946.320	-1209
946.412	763
946.503	-105
946.595	-365
946.687	-300
946.779	214
946.870	-824
946.962	-775
947.054	-1145
947.145	-605
947.237	149
947.329	-397
947.420	-817
947.512	-695
947.603	-510
947.695	-877
947.786	-880
947.878	-327
947.969	36
948.061	-872
948.152	-671
948.243	-304
948.335	-625
948.426	-233
948.517	-887
948.609	-25
948.700	-547
948.791	-492
948.882	-767
948.973	-476
949.065	229
949.156	-314
949.247	-1062
949.338	155
949.429	-1296
949.520	-385
949.611	-655
949.702	-535
949.793	-775
949.884	-748
949.975	-453
950.066	-465
950.157	138
950.247	-435
950.338	-437
950.429	-1691
950.520	-601
950.611	-85
950.701	-362
950.792	-334
950.883	-342
950.973	-172
951.064	-375
951.155	-1230
951.245	-126
951.336	-755
951.427	-262
951.517	30
951.608	-500
951.698	-534
951.788	-926
951.879	-536
951.969	-918
952.060	-421
952.150	104
952.240	-35
952.331	-1852
952.421	-100
952.511	-1236
952.602	-641
952.692	-1057
952.782	-480
952.872	-679
952.962	-69
953.052	-619
953.143	-1035
953.233	-124
953.323	-247
953.413	-1314
953.503	-661
953.593	211
953.683	-865
953.773	-1238
953.863	-631
953.953	318
954.042	-600
954.132	-756
954.222	-86
954.312	-303
954.402	-233
954.492	185
954.581	-76
954.671	-377
954.761	-1273
954.850	-212
954.940	-789
955.030	-393
955.119	-1451
955.209	-71
955.298	-913
955.388	-663
955.477	570
955.567	-870
955.656	152
955.746	-259
955.835	-625
955.925	-661
956.014	-555
956.103	-501
956.193	-417
956.282	-967
956.371	-896
956.461	-809
956.550	-852
956.639	-586
956.728	-1303
956.817	340
956.906	-307
956.995	-552
957.085	-1348
957.174	-296
957.263	-837
957.352	-1170
957.441	-260
957.530	-287
957.619	-562
957.708	-445
957.796	-370
957.885	-237
957.974	-1157
958.063	-176
958.152	-969
958.241	-460
958.329	-530
958.418	-878
958.507	-1122
958.596	310
958.684	-1221
958.773	-754
958.861	-682
958.950	-117
959.039	483
959.127	-293
959.216	156
959.304	-504
959.393	-31
959.481	-258
959.570	-739
959.658	-119
959.746	340
959.835	149
959.923	-123
960.011	-396
960.100	-265
960.188	-521
960.276	-923
960.365	-237
960.453	-463
960.541	-1232
960.629	-132
960.717	-1148
960.805	-1165
960.893	-444
960.981	-1200
961.069	595
961.158	-768
961.245	-215
961.333	-169
961.421	-454
961.509	-690
961.597	-1252
961.685	-323
961.773	-1000
961.861	-1529
961.949	-288
962.036	-759
962.124	-182
962.212	-698
962.299	-860
962.387	-905
962.475	-751
962.562	-1640
962.650	-847
962.738	-1080
962.825	-398
962.913	-677
963.000	-1046
963.088	-617
963.175	-1435
963.263	-435
963.350	-1518
963.438	-944
963.525	-877
963.612	-406
963.700	-460
963.787	1840
963.874	1497
963.962	-1004
964.049	-625
964.136	-1299
964.223	-1319
964.310	-1334
964.398	-713
964.485	-1277
964.572	-1312
964.659	-544
964.746	-1024
964.833	-1289
964.920	-1506
965.007	-880
965.094	-1046
965.181	-1072
965.268	-1123
965.355	-440
965.441	-830
965.528	-1629
965.615	-640
965.702	-924
965.789	-961
965.875	-741
965.962	-1021
966.049	-1115
966.136	-751
966.222	-1422
966.309	-608
966.395	-1949
966.482	-374
966.569	-1334
966.655	-1401
966.742	-1088
966.828	-940
966.915	-1739
967.001	-1505
967.087	-1515
967.174	-1715
967.260	-437
967.347	-1098
967.433	-1107
967.519	806
967.605	13
967.692	-1126
967.778	-1508
967.864	-889
967.950	-1241
968.036	-814
968.123	-1116
968.209	-541
968.295	-1449
968.381	-476
968.467	-477
968.553	-2164
968.639	-537
968.725	-2214
968.811	-317
968.897	-409
968.983	-1686
969.069	-1882
969.154	-557
969.240	-883
969.326	-1423
969.412	-1407
969.497	-1260
969.583	-1453
969.669	-709
969.755	-1014
969.840	-1574
969.926	-476
970.012	-1352
970.097	44
970.183	-1526
970.268	-1158
970.354	-715
970.439	-905
970.525	154
970.610	-2027
970.696	-704
970.781	-482
970.866	-1107
970.952	-1193
971.037	-1679
971.122	-921
971.208	-1386
971.293	-1238
971.378	-2554
971.463	-1604
971.549	-1131
971.634	-596
971.719	-640
971.804	-1321
971.889	-701
971.974	-1214
972.059	-1485
972.144	-964
972.229	-1128
972.314	-1461
972.399	-683
972.484	-1978
972.569	-1116
972.654	-1794
972.739	-607
972.824	-1569
972.908	-1144
972.993	-2146
973.078	-1220
973.163	-1393
973.247	-792
973.332	-2386
973.417	-454
973.501	-2496
973.586	-1311
973.671	-1434
973.755	-1344
973.840	-830
973.924	-907
974.009	-1249
974.093	-1341
974.178	-394
974.262	-1040
974.346	-580
974.431	-952
974.515	-1113
974.600	-1758
974.684	-1325
974.768	-547
974.852	-493
974.937	-2186
975.021	-739
975.105	-1561
975.189	-940
975.273	-384
975.358	-1264
975.442	-1576
975.526	-1590
975.610	-1417
975.694	-2533
975.778	-212
975.862	-1781
975.946	-3012
976.030	-489
976.114	-2410
976.198	-1065
976.281	-1527
976.365	-653
976.449	-1485
976.533	-1547
976.617	-2337
976.700	-1423
976.784	-2178
976.868	-1858
976.951	-785
977.035	-854
977.119	-1678
977.202	-1441
977.286	-1213
977.369	-1340
977.453	-1196
977.536	-1131
977.620	-2297
977.703	-1586
977.787	-1764
977.870	-393
977.953	-1808
978.037	-2117
978.120	-187
978.203	-1769
978.287	-1705
978.370	-832
978.453	-1085
978.536	-2018
978.620	-944
978.703	-1703
978.786	-1917
978.869	-1658
978.952	-2275
979.035	130
979.118	-1412
979.201	-2634
979.284	-912
979.367	-2090
979.450	-1020
979.533	-1662
979.616	-1944
979.699	-1278
979.782	-1655
979.865	-1359
979.948	-1463
980.030	-2349
980.113	-805
980.196	-2091
980.279	-805
980.361	-1605
980.444	-927
980.526	-1342
980.609	-1568
980.692	-1648
980.774	-1175
980.857	-2597
980.939	-993
981.022	-1579
981.104	-1439
981.187	-1640
981.269	-867
981.352	-822
981.434	-2857
981.516	-1974
981.599	-352
981.681	-1355
981.763	-994
981.846	-2006
981.928	-1889
982.010	-1946
982.092	-2041
982.174	-1150
982.256	-1335
982.339	-1139
982.421	-1150
982.503	-913
982.585	-2384
982.667	-1381
982.749	-1744
982.831	-2184
982.913	-2785
982.995	-1039
983.077	-2133
983.158	-763
983.240	-2052
983.322	-1863
983.404	-943
983.486	-2514
983.568	-1693
983.649	-1108
983.731	-1063
983.813	-2754
983.894	-1514
983.976	-2157
984.058	-2146
984.139	-318
984.221	-1433
984.302	-984
984.384	-1438
984.465	-1823
984.547	-1940
984.628	-1604
984.710	-779
984.791	-1517
984.872	-2494
984.954	-1892
985.035	-1636
985.116	-1802
985.198	-1805
985.279	-434
985.360	-1765
985.441	-1981
985.522	-554
985.604	-973
985.685	-3273
985.766	-46
985.847	-729
985.928	-2654
986.009	-1769
986.090	-1742
986.171	-927
986.252	-1988
986.333	-1745
986.414	-1668
986.495	-1893
986.576	-2145
986.656	-1947
986.737	-1085
986.818	-1992
986.899	-2140
986.980	-2470
987.060	-1178
987.141	-2158
987.222	-1464
987.302	-729
987.383	-1118
987.464	-1479
987.544	-476
987.625	-1519
987.705	-953
987.786	-1582
987.866	-1879
987.947	-1572
988.027	-999
988.108	-1580
988.188	-1867
988.268	-1318
988.349	-1112
988.429	-1848
988.509	-458
988.589	-998
988.670	-3149
988.750	-416
988.830	-2452
988.910	-1923
988.990	-2140
989.070	-1622
989.151	-1144
989.231	-1092
989.311	-1313
989.391	-2122
989.471	-1572
989.551	-2613
989.631	-1396
989.711	-1654
989.791	-2539
989.870	-1820
989.950	-843
990.030	-2396
990.110	-1408
990.190	-2410
990.269	-2018
990.349	-1685
990.429	-1701
990.509	-1389
990.588	-2078
990.668	-1333
990.747	-1538
990.827	-1799
990.907	-1179
990.986	-1623
991.066	-1963
991.145	-1995
991.225	-862
991.304	-1855
991.383	-2238
991.463	-1151
991.542	-972
991.622	-2167
991.701	-2921
991.780	-2302
991.859	-1950
991.939	-2168
992.018	-2272
992.097	-1506
992.176	-2481
992.256	-1602
992.335	-2325
992.414	-1319
992.493	-2609
992.572	-2378
992.651	-656
992.730	-1982
992.809	-876
992.888	-3017
992.967	-1741
993.046	-1737
993.125	-2041
993.203	-2310
993.282	-647
993.361	-1692
993.440	-1098
993.519	-2849
993.597	-1887
993.676	-2028
993.755	-1148
993.834	-719
993.912	-2169
993.991	-1107
994.069	-2595
994.148	-2317
994.226	-2427
994.305	-1808
994.384	-1951
994.462	-856
994.540	-2980
994.619	-2620
994.697	-1829
994.776	-1912
994.854	-1342
994.932	-2546
995.011	-2780
995.089	-1806
995.167	-2122
995.245	-2125
995.324	-2481
995.402	-1859
995.480	-2137
995.558	-1587
995.636	-2143
995.714	-2446
995.792	-276
995.870	-2405
995.948	-2016
996.026	-1560
996.104	-3254
996.182	-2204
996.260	-2338
996.338	-1248
996.416	-1799
996.494	-2043
996.572	-1852
996.649	-1920
996.727	-2608
996.805	-2229
996.883	-2198
996.960	-2294
997.038	-1149
997.116	-1630
997.193	-2230
997.271	-1835
997.348	-1956
997.426	-1884
997.504	-2843
997.581	-1259
997.658	-1202
997.736	-2349
997.813	-2535
997.891	-1049
997.968	-2744
998.046	-2119
998.123	-1935
998.200	-1958
998.277	-2236
998.355	-1358
998.432	-2681
998.509	-1124
998.586	-1190
998.663	-2093
998.741	-1052
998.818	-2577
998.895	-2194
998.972	-1599
999.049	-1766
999.126	-2471
999.203	-2264
999.280	-2190
999.357	-2430
999.434	-1625
999.511	-1360
999.587	-1128
999.664	-2139
999.741	-1717
999.818	-988
999.895	-2101
999.971	-2537
1000.048	-2502
1000.125	-1735
1000.202	-3107
1000.278	-1766
1000.355	-2019
1000.431	-2334
1000.508	-2996
1000.584	-1699
1000.661	-2106
1000.738	-1911
1000.814	-2372
1000.890	-1661
1000.967	-2587
1001.043	-1907
1001.120	-2852
1001.196	-2622
1001.272	-2981
1001.349	-2198
1001.425	-1150
1001.501	-2454
1001.577	-2379
1001.654	-1930
1001.730	-2105
1001.806	-2146
1001.882	-3201
1001.958	-1824
1002.034	-2077
1002.110	-1867
1002.186	-3325
1002.262	-2198
1002.338	-2663
1002.414	-1857
1002.490	-2238
1002.566	-2203
1002.642	-1847
1002.718	-1143
1002.794	-2394
1002.870	-1975
1002.945	-2127
1003.021	-2596
1003.097	-2303
1003.173	-1477
1003.248	-2524
1003.324	-1960
1003.400	-1620
1003.475	-2151
1003.551	-2118
1003.626	-2249
1003.702	-2670
1003.777	-2584
1003.853	-2758
1003.928	-2753
1004.004	-2011
1004.079	-1368
1004.155	-2649
1004.230	-2864
1004.305	-1193
1004.381	-2051
1004.456	-1888
1004.531	-2058
1004.607	-2175
1004.682	-2490
1004.757	-2005
1004.832	-1678
1004.907	-1899
1004.982	-2077
1005.057	-1814
1005.133	-1921
1005.208	-1709
1005.283	-2609
1005.358	-1816
1005.433	-2156
1005.508	-2000
1005.583	-2785
1005.657	-2576
1005.732	-1244
1005.807	-2675
1005.882	-2139
1005.957	-2496
1006.032	-2022
1006.106	-1907
1006.181	-1219
1006.256	-2021
1006.331	-3126
1006.405	-2122
1006.480	-1973
1006.554	-2764
1006.629	-2554
1006.704	-2803
1006.778	-1244
1006.853	-2121
1006.927	-2313
1007.002	-2438
1007.076	-2269
1007.150	-2442
1007.225	-1885
1007.299	-2595
1007.373	-1770
1007.448	-2153
1007.522	-1399
1007.596	-2735
1007.671	-2555
1007.745	-2783
1007.819	-2461
1007.893	-1794
1007.967	-1253
1008.041	-2378
1008.115	-1610
1008.190	-2707
1008.264	-2186
1008.338	-2523
1008.412	-1826
1008.486	-1958
1008.560	-2120
1008.633	-2669
1008.707	-1754
1008.781	-1354
1008.855	-1745
1008.929	-2445
1009.003	-2034
1009.076	-3045
1009.150	-1832
1009.224	-1522
1009.298	-1538
1009.371	-3003
1009.445	-1632
1009.519	-2710
1009.592	-3142
1009.666	-1720
1009.739	-1582
1009.813	-2925
1009.886	-1874
1009.960	-3236
1010.033	-1287
1010.107	-1963
1010.180	-3367
1010.253	-1962
1010.327	-2146
1010.400	-2179
1010.473	-1868
1010.547	-986
1010.620	-1684
1010.693	-2451
1010.766	-2105
1010.840	-1915
1010.913	-2715
1010.986	-2258
1011.059	-1824
1011.132	-2373
1011.205	-1719
1011.278	-2297
1011.351	-3002
1011.424	-2030
1011.497	-2580
1011.570	-2553
1011.643	-1172
1011.716	-2314
1011.789	-2317
1011.862	-2058
1011.934	-1877
1012.007	-2557
1012.080	-2444
1012.153	-2635
1012.225	-1451
1012.298	-2524
1012.371	-2251
1012.443	-2024
1012.516	-2782
1012.588	-1924
1012.661	-2103
1012.733	-2745
1012.806	-1395
1012.879	-2582
1012.951	-1981
1013.023	-2828
1013.096	-2065
1013.168	-2976
1013.241	-1200
1013.313	-3013
1013.385	-3098
1013.458	-2943
1013.530	-1813
1013.602	-2671
1013.674	-1432
1013.746	-2187
1013.819	-2374
1013.891	-1627
1013.963	-2504
1014.035	-2288
1014.107	-1798
1014.179	-1382
1014.251	-2931
1014.323	-1622
1014.395	-2029
1014.467	-1580
1014.539	-2984
1014.611	-3108
1014.683	-1673
1014.754	-2220
1014.826	-3106
1014.898	-1911
1014.970	-2626
1015.042	-1686
1015.113	-1982
1015.185	-1426
1015.257	-2205
1015.328	-1633
1015.400	-2489
1015.471	-1686
1015.543	-3137
1015.615	-2023
1015.686	-1351
1015.757	-2039
1015.829	-1845
1015.901	-2461
1015.972	-1759
1016.043	-2342
1016.115	-1632
1016.186	-2300
1016.257	-2611
1016.328	-1765
1016.400	-2148
1016.471	-2427
1016.542	-1642
1016.613	-1923
1016.685	-2371
1016.756	-2533
1016.827	-1717
1016.898	-2622
1016.969	-2013
1017.040	-2236
1017.111	-2184
1017.182	-1835
1017.253	-1859
1017.324	-2169
1017.395	-1700
1017.466	-2485
1017.537	-1674
1017.608	-1290
1017.678	-1573
1017.749	-2088
1017.820	-2123
1017.891	-3006
1017.961	-1796
1018.032	-2313
1018.103	-1451
1018.173	-2292
1018.244	-2306
1018.315	-2956
1018.385	-2304
1018.456	-2036
1018.526	-2574
1018.597	-1722
1018.667	-1434
1018.738	-2227
1018.808	-2329
1018.878	-2324
1018.949	-2813
1019.019	-2569
1019.089	-1827
1019.160	-2027
1019.230	-2664
1019.300	-1613
1019.371	-3163
1019.441	-2556
1019.511	-1708
1019.581	-2799
1019.651	-2251
1019.721	-2003
1019.791	-2011
1019.861	-1822
1019.931	-1986
1020.001	-1297
1020.071	-2050
1020.141	-2179
1020.211	-1738
1020.281	-2598
1020.351	-1953
1020.421	-2565
1020.491	-1876
1020.560	-2075
1020.630	-2745
1020.700	-1871
1020.770	-2511
1020.839	-2439
1020.909	-2022
1020.979	-2925
1021.048	-1777
1021.118	-2323
1021.187	-2773
1021.257	-2590
1021.326	-2140
1021.396	-2800
1021.465	-2879
1021.535	-2103
1021.604	-2176
1021.674	-2984
1021.743	-2145
1021.812	-2817
1021.882	-2278
1021.951	-1926
1022.020	-2512
1022.089	-2619
1022.159	-2178
1022.228	-2200
1022.297	-2524
1022.366	-2595
1022.435	-2917
1022.504	-2445
1022.573	-2138
1022.642	-2840
1022.711	-2506
1022.781	-2682
1022.849	-1721
1022.918	-2610
1022.987	-2041
1023.056	-3534
1023.125	-2324
1023.194	-2082
1023.263	-1906
1023.331	-2370
1023.400	-3216
1023.469	-2676
1023.538	-1583
1023.606	-3114
1023.675	-2124
1023.744	-2291
1023.812	-2369
1023.881	-2638
1023.949	-2489
1024.018	-2250
1024.086	-2871
1024.155	-2368
1024.223	-3173
1024.292	-2789
1024.360	-2863
1024.429	-2563
1024.497	-1773
1024.565	-2570
1024.634	-2146
1024.702	-1682
1024.770	-2602
1024.838	-2471
1024.907	-2254
1024.975	-2871
1025.043	-2459
1025.111	-2765
1025.179	-2058
1025.247	-2351
1025.315	-1441
1025.383	-2453
1025.451	-2178
1025.519	-3250
1025.587	-2641
1025.655	-2332
1025.723	-1695
1025.791	-2505
1025.859	-1895
1025.927	-1623
1025.995	-2124
1026.062	-2060
1026.130	-2213
1026.198	-2512
1026.266	-2842
1026.333	-2734
1026.401	-2174
1026.469	-2562
1026.536	-1924
1026.604	-2474
1026.671	-2313
1026.739	-2435
1026.806	-1940
1026.874	-2408
1026.941	-2777
1027.009	-2352
1027.076	-2630
1027.144	-1655
1027.211	-3097
1027.278	-2091
1027.345	-2519
1027.413	-2265
1027.480	-2685
1027.547	-3048
1027.614	-1896
1027.682	-2671
1027.749	-2388
1027.816	-2450
1027.883	-1962
1027.950	-2535
1028.017	-2506
1028.084	-2435
1028.151	-2941
1028.218	-2638
1028.285	-3416
1028.352	-3246
1028.419	-3338
1028.486	-3081
1028.553	-1740
1028.619	-2731
1028.686	-2665
1028.753	-2948
1028.820	-2744
1028.886	-3193
1028.953	-2410
1029.020	-2804
1029.086	-1895
1029.153	-2323
1029.220	-2522
1029.286	-2277
1029.353	-2739
1029.419	-2534
1029.486	-1338
1029.552	-2932
1029.619	-1714
1029.685	-2243
1029.751	-2831
1029.818	-2486
1029.884	-2266
1029.951	-1282
1030.017	-2044
1030.083	-2404
1030.149	-2162
1030.216	-2461
1030.282	-2655
1030.348	-2257
1030.414	-2808
1030.480	-3091
1030.546	-2342
1030.612	-2180
1030.678	-3202
1030.744	-2529
1030.810	-2430
1030.876	-2463
1030.942	-2643
1031.008	-2200
1031.074	-2862
1031.140	-2322
1031.206	-2503
1031.272	-3269
1031.337	-1959
1031.403	-2262
1031.469	-2456
1031.534	-2575
1031.600	-1924
1031.666	-2602
1031.731	-3059
1031.797	-2276
1031.863	-2609
1031.928	-2509
1031.994	-2357
1032.059	-2751
1032.125	-2833
1032.190	-2602
1032.256	-2402
1032.321	-2776
1032.386	-1958
1032.452	-2395
1032.517	-2403
1032.582	-2458
1032.647	-2921
1032.713	-2432
1032.778	-2981
1032.843	-2526
1032.908	-2343
1032.974	-2833
1033.039	-2538
1033.104	-2073
1033.169	-3050
1033.234	-2245
1033.299	-2511
1033.364	-2233
1033.429	-2563
1033.494	-2717
1033.559	-2646
1033.624	-2994
1033.688	-2189
1033.753	-3088
1033.818	-2430
1033.883	-3598
1033.948	-2403
1034.013	-2735
1034.077	-2160
1034.142	-2456
1034.207	-2169
1034.271	-2332
1034.336	-1279
1034.400	-2891
1034.465	-1986
1034.530	-2033
1034.594	-2461
1034.658	-2516
1034.723	-2662
1034.787	-1996
1034.852	-1954
1034.916	-2479
1034.981	-3315
1035.045	-1898
1035.109	-3214
1035.173	-2315
1035.238	-2834
1035.302	-1968
1035.366	-2289
1035.430	-1982
1035.495	-3172
1035.559	-2478
1035.623	-2746
1035.687	-2827
1035.751	-2485
1035.815	-1983
1035.879	-2318
1035.943	-1791
1036.007	-2396
1036.071	-3285
1036.135	-2509
1036.198	-2538
1036.262	-2744
1036.326	-2508
1036.390	-2393
1036.454	-2403
1036.517	-2487
1036.581	-2531
1036.645	-1936
1036.709	-2641
1036.772	-2782
1036.836	-2717
1036.900	-2212
1036.963	-2594
1037.026	-2668
1037.090	-2908
1037.154	-2575
1037.217	-2938
1037.280	-2975
1037.344	-1831
1037.407	-3507
1037.471	-2426
1037.534	-2556
1037.597	-1937
1037.661	-2713
1037.724	-2260
1037.787	-2737
1037.850	-1784
1037.913	-2167
1037.977	-1651
1038.040	-2661
1038.103	-2747
1038.166	-2553
1038.229	-2392
1038.292	-2915
1038.355	-2697
1038.418	-1781
1038.481	-2873
1038.544	-2783
1038.607	-2697
1038.670	-3011
1038.732	-2625
1038.795	-2495
1038.858	-2100
1038.921	-3177
1038.984	-2333
1039.046	-3357
1039.109	-2463
1039.172	-2032
1039.234	-2384
1039.297	-2379
1039.360	-2307
1039.422	-2349
1039.485	-2667
1039.547	-3344
1039.610	-2102
1039.672	-2722
1039.734	-2727
1039.797	-2383
1039.859	-2601
1039.922	-2304
1039.984	-2583
1040.046	-2658
1040.109	-2045
1040.171	-2158
1040.233	-2790
1040.295	-3446
1040.358	-3551
1040.420	-2491
1040.482	-2573
1040.544	-3345
1040.606	-2278
1040.668	-3144
1040.730	-2852
1040.792	-3021
1040.854	-2971
1040.916	-2423
1040.978	-2842
1041.040	-2265
1041.102	-2474
1041.164	-2681
1041.225	-3028
1041.287	-3075
1041.349	-3277
1041.411	-2905
1041.472	-2478
1041.534	-1993
1041.596	-2559
1041.657	-2221
1041.719	-2606
1041.781	-2639
1041.842	-3032
1041.904	-2640
1041.965	-2972
1042.027	-2635
1042.088	-2296
1042.150	-2705
1042.211	-2318
1042.272	-1577
1042.334	-2852
1042.395	-2662
1042.456	-3072
1042.518	-2481
1042.579	-2550
1042.640	-2951
1042.701	-2461
1042.763	-2657
1042.824	-2540
1042.885	-3024
1042.946	-2401
1043.007	-2397
1043.068	-3628
1043.129	-2844
1043.190	-3136
1043.251	-2746
1043.312	-2810
1043.373	-2235
1043.434	-2413
1043.495	-1825
1043.556	-1968
1043.616	-2227
1043.677	-2384
1043.738	-2740
1043.799	-2856
1043.859	-2775
1043.920	-3057
1043.981	-2783
1044.041	-2297
1044.102	-2245
1044.162	-2442
1044.223	-2539
1044.284	-3037
1044.344	-2085
1044.405	-2579
1044.465	-2773
1044.525	-2710
1044.586	-2880
1044.646	-2527
1044.707	-3321
1044.767	-2454
1044.827	-2937
1044.887	-2140
1044.948	-2572
1045.008	-2700
1045.068	-2162
1045.128	-3006
1045.188	-2397
1045.249	-2182
1045.309	-2113
1045.369	-2855
1045.429	-2048
1045.489	-2188
1045.549	-1582
1045.609	-2449
1045.669	-2953
1045.729	-2921
1045.789	-2262
1045.848	-1934
1045.908	-2357
1045.968	-1933
1046.028	-1963
1046.088	-2229
1046.147	-2244
1046.207	-1850
1046.267	-2358
1046.326	-1816
1046.386	-2350
1046.446	-2007
1046.505	-2259
1046.565	-1685
1046.624	-1895
1046.684	-1861
1046.743	-1186
1046.803	-1218
1046.862	-581
1046.922	0
