'Start Wavelength	183.907
'End Wavelength	1046.922
'Gate Delay	5.000
'Gate Width (ms)	1.050
'Laser Output Level	0.000
'X Position	0.000
'Y Position	0.000
'Z Position	0.000
'Grid Point Number	1.000
'Shot Number	100.000
183.907	198.000
183.977	-181.000
184.047	-157
184.116	52
184.186	404
184.256	241
184.325	36
184.395	-370
184.465	257
184.534	-228
184.604	-300
184.674	214
184.743	-438
184.813	206
184.883	-396
184.952	680
185.022	13
185.092	37
185.161	-856
185.231	38
185.301	-525
185.370	335
185.440	-401
185.509	104
185.579	-37
185.649	854
185.718	158
185.788	536
185.857	-323
185.927	168
185.996	-235
186.066	-510
186.136	413
186.205	665
186.275	-659
186.344	374
186.414	-129
186.483	-138
186.553	562
186.622	-49
186.692	-423
186.761	-255
186.831	-187
186.900	-213
186.970	56
187.039	369
187.109	709
187.178	57
187.248	-173
187.317	-671
187.387	-184
187.456	256
187.526	-692
187.595	895
187.664	-408
187.734	232
187.803	-196
187.873	33
187.942	193
188.012	451
188.081	-181
188.150	-548
188.220	738
188.289	-91
188.358	-167
188.428	818
188.497	-492
188.567	-30
188.636	401
188.705	-65
188.775	-577
188.844	-380
188.913	186
188.983	57
189.052	-548
189.121	269
189.191	-475
189.260	-166
189.329	-344
189.399	103
189.468	-460
189.537	293
189.606	-537
189.676	645
189.745	-40
189.814	98
189.883	-548
189.953	-204
190.022	178
190.091	-5
190.161	-476
190.230	159
190.299	-818
190.368	289
190.437	-166
190.507	196
190.576	-85
190.645	327
190.714	-345
190.783	446
190.853	832
190.922	-302
190.991	305
191.060	207
191.129	-1943
191.198	393
191.268	38
191.337	309
191.406	116
191.475	-72
191.544	71
191.613	277
191.682	-161
191.752	807
191.821	294
191.890	-79
191.959	-40
192.028	688
192.097	-195
192.166	577
192.235	-382
192.304	181
192.373	-728
192.442	179
192.511	264
192.580	187
192.650	-176
192.719	-196
192.788	-1262
192.857	870
192.926	-372
192.995	170
193.064	-151
193.133	713
193.202	-574
193.271	38
193.340	620
193.409	976
193.478	352
193.547	688
193.615	433
193.684	125
193.753	-453
193.822	1054
193.891	-558
193.960	215
194.029	-458
194.098	271
194.167	-14
194.236	248
194.305	-10
194.374	-596
194.443	63
194.512	-74
194.580	244
194.649	775
194.718	35
194.787	705
194.856	-408
194.925	746
194.994	-1025
195.062	222
195.131	-878
195.200	-261
195.269	-154
195.338	299
195.407	-708
195.475	42
195.544	-99
195.613	59
195.682	202
195.751	-156
195.819	-338
195.888	180
195.957	1002
196.026	342
196.094	175
196.163	182
196.232	-174
196.301	-369
196.369	-360
196.438	-161
196.507	-87
196.576	-924
196.644	-363
196.713	-188
196.782	-651
196.850	41
196.919	266
196.988	738
197.056	-1015
197.125	833
197.194	-177
197.262	-3
197.331	100
197.400	970
197.468	-745
197.537	416
197.606	94
197.674	-218
197.743	251
197.812	-254
197.880	405
197.949	-35
198.017	-97
198.086	64
198.155	405
198.223	571
198.292	-318
198.360	-226
198.429	-127
198.497	-189
198.566	-267
198.635	171
198.703	98
198.772	266
198.840	456
198.909	-85
198.977	-227
199.046	502
199.114	273
199.183	623
199.251	110
199.320	-488
199.388	-234
199.457	552
199.525	-76
199.594	123
199.662	-17
199.731	126
199.799	-259
199.867	471
199.936	-727
200.004	-403
200.073	-24
200.141	690
200.210	130
200.278	-905
200.346	526
200.415	607
200.483	-272
200.552	88
200.620	-111
200.688	250
200.757	-67
200.825	207
200.893	-320
200.962	-138
201.030	137
201.098	281
201.167	154
201.235	312
201.303	-541
201.372	142
201.440	324
201.508	318
201.577	128
201.645	-305
201.713	112
201.781	115
201.850	-843
201.918	-449
201.986	196
202.055	712
202.123	-133
202.191	278
202.259	-168
202.327	678
202.396	-57
202.464	-301
202.532	335
202.600	1173
202.669	99
202.737	-153
202.805	-333
202.873	580
202.941	-159
203.009	117
203.078	-597
203.146	305
203.214	307
203.282	-353
203.350	-655
203.418	183
203.487	94
203.555	167
203.623	13
203.691	210
203.759	-685
203.827	709
203.895	-620
203.963	141
204.031	-1094
204.099	-294
204.168	-1239
204.236	-62
204.304	-261
204.372	277
204.440	233
204.508	-458
204.576	-1020
204.644	-1040
204.712	551
204.780	706
204.848	-619
204.916	124
204.984	-62
205.052	420
205.120	-79
205.188	174
205.256	31
205.324	1122
205.392	-903
205.460	908
205.528	-228
205.596	624
205.664	-327
205.732	258
205.799	20
205.867	388
205.935	-488
206.003	317
206.071	4
206.139	-275
206.207	-260
206.275	1224
206.343	-498
206.411	605
206.478	715
206.546	1175
206.614	122
206.682	80
206.750	110
206.818	551
206.885	836
206.953	-591
207.021	669
207.089	853
207.157	-820
207.225	400
207.292	23
207.360	541
207.428	27
207.496	-265
207.563	-33
207.631	901
207.699	-608
207.767	332
207.834	-510
207.902	-551
207.970	150
208.038	-133
208.105	140
208.173	405
208.241	-876
208.309	635
208.376	305
208.444	-67
208.512	-123
208.579	-827
208.647	-454
208.715	1293
208.782	-45
208.850	511
208.918	-362
208.985	134
209.053	271
209.120	-156
209.188	-234
209.256	587
209.323	-652
209.391	329
209.459	427
209.526	705
209.594	-196
209.661	353
209.729	-180
209.796	443
209.864	355
209.932	-113
209.999	1405
210.067	236
210.134	-136
210.202	558
210.269	633
210.337	785
210.404	312
210.472	295
210.539	323
210.607	360
210.674	93
210.742	812
210.809	-43
210.877	225
210.944	889
211.012	-605
211.079	1636
211.146	814
211.214	-60
211.281	1507
211.349	851
211.416	571
211.484	-551
211.551	621
211.618	444
211.686	351
211.753	-188
211.821	1185
211.888	445
211.955	508
212.023	-627
212.090	262
212.157	441
212.225	327
212.292	470
212.359	958
212.427	2058
212.494	844
212.561	436
212.629	819
212.696	-30
212.763	143
212.831	208
212.898	1175
212.965	391
213.032	856
213.100	-198
213.167	290
213.234	672
213.301	941
213.369	553
213.436	782
213.503	331
213.570	375
213.638	-158
213.705	118
213.772	-1739
213.839	11
213.906	504
213.973	416
214.041	-169
214.108	1079
214.175	341
214.242	-193
214.309	208
214.376	469
214.444	-93
214.511	-8
214.578	-236
214.645	139
214.712	-15
214.779	321
214.846	-24
214.913	1468
214.980	-235
215.048	958
215.115	1111
215.182	719
215.249	-201
215.316	627
215.383	401
215.450	925
215.517	453
215.584	7
215.651	370
215.718	-90
215.785	906
215.852	-314
215.919	-343
215.986	528
216.053	-294
216.120	-250
216.187	28
216.254	609
216.321	-486
216.388	567
216.455	89
216.522	236
216.589	340
216.656	856
216.722	646
216.789	788
216.856	851
216.923	578
216.990	347
217.057	1076
217.124	-362
217.191	793
217.258	878
217.324	660
217.391	1576
217.458	1454
217.525	1041
217.592	-205
217.659	-483
217.725	1253
217.792	129
217.859	1617
217.926	-173
217.993	546
218.059	518
218.126	123
218.193	-225
218.260	160
218.327	-122
218.393	182
218.460	-334
218.527	-103
218.594	395
218.660	368
218.727	837
218.794	-322
218.860	154
218.927	-266
218.994	142
219.061	-701
219.127	-712
219.194	626
219.261	-55
219.327	-234
219.394	-211
219.461	-759
219.527	286
219.594	784
219.661	-180
219.727	-1270
219.794	518
219.860	-439
219.927	-439
219.994	1047
220.060	882
220.127	1610
220.193	601
220.260	71
220.326	1303
220.393	2157
220.460	2027
220.526	1629
220.593	635
220.659	1894
220.726	663
220.792	1876
220.859	1928
220.925	2936
220.992	4337
221.058	3419
221.125	2358
221.191	2108
221.258	665
221.324	1083
221.391	18
221.457	981
221.524	-908
221.590	513
221.657	1231
221.723	1203
221.789	92
221.856	1236
221.922	-451
221.989	834
222.055	-549
222.121	-611
222.188	743
222.254	879
222.321	367
222.387	-425
222.453	2
222.520	509
222.586	-501
222.652	329
222.719	17
222.785	351
222.851	-1293
222.918	414
222.984	-580
223.050	-381
223.116	-1867
223.183	-59
223.249	-882
223.315	-351
223.382	23
223.448	372
223.514	-708
223.580	-274
223.647	-1030
223.713	-966
223.779	-181
223.845	110
223.911	384
223.978	-660
224.044	-623
224.110	109
224.176	117
224.242	-150
224.309	-1039
224.375	-153
224.441	-328
224.507	-86
224.573	-1186
224.639	495
224.705	-372
224.772	428
224.838	-645
224.904	-344
224.970	-1010
225.036	-193
225.102	-663
225.168	402
225.234	1146
225.300	862
225.366	-527
225.432	21
225.499	-198
225.565	-3
225.631	-774
225.697	-527
225.763	-193
225.829	814
225.895	39
225.961	-69
226.027	58
226.093	157
226.159	1373
226.225	1734
226.291	4159
226.357	6098
226.423	2883
226.489	1862
226.554	516
226.620	778
226.686	1210
226.752	1347
226.818	3070
226.884	6755
226.950	6367
227.016	3536
227.082	1002
227.148	1215
227.214	515
227.279	668
227.345	565
227.411	332
227.477	773
227.543	2136
227.609	1539
227.674	1090
227.740	-413
227.806	299
227.872	-438
227.938	801
228.003	-31
228.069	-429
228.135	199
228.201	397
228.267	-231
228.332	-169
228.398	-549
228.464	146
228.530	-516
228.595	362
228.661	-982
228.727	-764
228.792	779
228.858	-307
228.924	-1578
228.990	1301
229.055	-1016
229.121	485
229.187	-632
229.252	454
229.318	-693
229.384	250
229.449	131
229.515	-1749
229.581	-913
229.646	1350
229.712	-131
229.777	202
229.843	-75
229.909	533
229.974	276
230.040	-101
230.105	-153
230.171	248
230.236	612
230.302	-95
230.368	-97
230.433	-504
230.499	-278
230.564	1173
230.630	-1012
230.695	210
230.761	173
230.826	-528
230.892	406
230.957	-1208
231.023	-1544
231.088	153
231.154	-227
231.219	759
231.284	422
231.350	364
231.415	-1053
231.481	46
231.546	-397
231.612	172
231.677	-614
231.742	-1054
231.808	1048
231.873	-600
231.939	-1874
232.004	1236
232.069	189
232.135	-146
232.200	-951
232.265	200
232.331	-779
232.396	277
232.461	-953
232.527	-81
232.592	-1234
232.657	-253
232.723	-476
232.788	-309
232.853	-103
232.918	-78
232.984	-1120
233.049	-673
233.114	-269
233.179	-289
233.245	117
233.310	444
233.375	-1077
233.440	-754
233.506	-96
233.571	-424
233.636	-142
233.701	-159
233.766	-472
233.832	186
233.897	-960
233.962	-1532
234.027	1068
234.092	0
234.157	-66
234.222	-213
234.288	-687
234.353	160
234.418	1110
234.483	792
234.548	688
234.613	243
234.678	181
234.743	-343
234.808	1155
234.873	-555
234.938	997
235.004	-231
235.069	-753
235.134	-797
235.199	573
235.264	574
235.329	-1394
235.394	782
235.459	1031
235.524	-976
235.589	-109
235.654	5
235.719	-1390
235.784	1194
235.849	-360
235.913	395
235.978	469
236.043	575
236.108	-118
236.173	-359
236.238	313
236.303	188
236.368	-41
236.433	454
236.498	-239
236.563	1170
236.627	2273
236.692	9225
236.757	7406
236.822	2883
236.887	924
236.952	2060
237.017	-140
237.081	1944
237.146	1001
237.211	5351
237.276	8720
237.341	13247
237.405	6800
237.470	2031
237.535	1778
237.600	1078
237.664	697
237.729	134
237.794	-205
237.859	4413
237.923	1280
237.988	183
238.053	974
238.118	26
238.182	875
238.247	2214
238.312	-250
238.376	456
238.441	-1340
238.506	1038
238.570	-1574
238.635	457
238.700	119
238.764	-548
238.829	172
238.893	165
238.958	104
239.023	166
239.087	99
239.152	942
239.216	-118
239.281	300
239.346	-315
239.410	668
239.475	-780
239.539	2318
239.604	-143
239.668	-182
239.733	-389
239.797	1513
239.862	4217
239.926	3866
239.991	1469
240.055	967
240.120	-180
240.184	356
240.249	-808
240.313	-464
240.378	-451
240.442	782
240.507	1097
240.571	30
240.635	-929
240.700	-251
240.764	-360
240.829	354
240.893	-1617
240.957	581
241.022	720
241.086	1288
241.151	-890
241.215	-1022
241.279	266
241.344	139
241.408	41
241.472	-466
241.537	389
241.601	487
241.665	-618
241.730	-254
241.794	666
241.858	-286
241.922	-644
241.987	-333
242.051	-594
242.115	-34
242.179	-77
242.244	-831
242.308	279
242.372	971
242.436	-515
242.501	297
242.565	-1310
242.629	-414
242.693	-193
242.757	-625
242.822	-1082
242.886	222
242.950	377
243.014	-1010
243.078	-347
243.142	-245
243.206	-482
243.271	404
243.335	-661
243.399	1315
243.463	1255
243.527	8276
243.591	1095
243.655	603
243.719	-1032
243.783	1630
243.847	209
243.911	1426
243.975	-248
244.040	-293
244.104	1201
244.168	-345
244.232	179
244.296	1001
244.360	705
244.424	-56
244.488	-646
244.552	440
244.615	-1511
244.679	299
244.743	-219
244.807	-475
244.871	-382
244.935	631
244.999	-1053
245.063	-344
245.127	381
245.191	-173
245.255	-77
245.319	484
245.383	-1529
245.446	376
245.510	-948
245.574	489
245.638	11
245.702	-1376
245.766	1397
245.829	853
245.893	-1150
245.957	-925
246.021	1074
246.085	-549
246.149	-118
246.212	1774
246.276	1676
246.340	-84
246.404	427
246.467	422
246.531	-1903
246.595	1220
246.659	-2
246.722	-999
246.786	253
246.850	667
246.913	817
246.977	-978
247.041	34
247.104	282
247.168	-107
247.232	1186
247.295	2279
247.359	1150
247.423	694
247.486	1121
247.550	1388
247.614	-240
247.677	616
247.741	258
247.804	-328
247.868	1006
247.932	668
247.995	3285
248.059	217
248.122	-666
248.186	1030
248.249	967
248.313	4619
248.376	5473
248.440	2100
248.503	-621
248.567	1638
248.630	-286
248.694	1006
248.757	2839
248.821	5453
248.884	3658
248.948	1183
249.011	4346
249.075	5836
249.138	4826
249.202	1751
249.265	612
249.328	1069
249.392	-97
249.455	1376
249.519	790
249.582	238
249.645	2578
249.709	798
249.772	711
249.835	48
249.899	582
249.962	836
250.025	114
250.089	770
250.152	3453
250.215	750
250.279	-212
250.342	865
250.405	257
250.468	-301
250.532	1047
250.595	1978
250.658	6690
250.721	14982
250.785	4694
250.848	2301
250.911	893
250.974	1408
251.038	1142
251.101	2989
251.164	575
251.227	1505
251.290	1244
251.354	2990
251.417	11520
251.480	12653
251.543	6789
251.606	22373
251.669	16290
251.732	4941
251.795	3781
251.859	5142
251.922	13854
251.985	8206
252.048	2833
252.111	1234
252.174	614
252.237	2392
252.300	7569
252.363	6195
252.426	19501
252.489	5683
252.552	2315
252.615	1000
252.678	1857
252.741	4162
252.804	6225
252.867	17714
252.930	8993
252.993	4208
253.056	2415
253.119	1539
253.182	336
253.245	1623
253.308	1989
253.371	444
253.434	1185
253.497	383
253.559	3156
253.622	984
253.685	2167
253.748	1334
253.811	801
253.874	1189
253.937	134
254.000	352
254.062	1488
254.125	2102
254.188	2553
254.251	2130
254.314	367
254.376	970
254.439	1903
254.502	865
254.565	1648
254.628	3251
254.690	1588
254.753	235
254.816	264
254.878	31
254.941	1586
255.004	1394
255.067	540
255.129	-35
255.192	153
255.255	-907
255.317	254
255.380	434
255.443	385
255.505	-485
255.568	-705
255.631	-431
255.693	-49
255.756	-820
255.819	797
255.881	-577
255.944	156
256.006	-23
256.069	-73
256.132	-748
256.194	357
256.257	454
256.319	553
256.382	-707
256.444	1005
256.507	508
256.569	-73
256.632	-206
256.694	339
256.757	5014
256.819	17766
256.882	5702
256.944	1925
257.007	1361
257.069	814
257.132	582
257.194	410
257.257	-63
257.319	292
257.381	449
257.444	4468
257.506	18253
257.569	21210
257.631	7392
257.693	3549
257.756	1029
257.818	987
257.880	514
257.943	808
258.005	224
258.067	343
258.130	-124
258.192	248
258.254	-536
258.317	905
258.379	568
258.441	1282
258.503	1558
258.566	1039
258.628	1420
258.690	-348
258.753	358
258.815	1561
258.877	162
258.939	19
259.001	-229
259.064	-38
259.126	-564
259.188	-63
259.250	-442
259.312	269
259.375	296
259.437	609
259.499	-545
259.561	158
259.623	-92
259.685	59
259.747	39
259.809	940
259.872	2544
259.934	4885
259.996	4919
260.058	1434
260.120	-476
260.182	985
260.244	-251
260.306	-795
260.368	703
260.430	454
260.492	872
260.554	2082
260.616	-607
260.678	2091
260.740	2422
260.802	-171
260.864	-51
260.926	-518
260.988	310
261.050	-758
261.112	214
261.174	4722
261.236	954
261.298	34
261.359	516
261.421	2040
261.483	-240
261.545	138
261.607	-1758
261.669	903
261.731	365
261.793	1955
261.854	-406
261.916	459
261.978	366
262.040	1227
262.102	-493
262.164	-534
262.225	-233
262.287	-36
262.349	814
262.411	433
262.472	185
262.534	-424
262.596	803
262.658	598
262.719	-1033
262.781	848
262.843	-125
262.904	352
262.966	57
263.028	299
263.090	3098
263.151	10013
263.213	3240
263.275	1298
263.336	244
263.398	97
263.459	-421
263.521	-102
263.583	309
263.644	825
263.706	-273
263.767	-516
263.829	582
263.891	-182
263.952	-915
264.014	123
264.075	-40
264.137	2155
264.198	290
264.260	-541
264.321	-54
264.383	316
264.444	4597
264.506	826
264.567	20
264.629	1334
264.690	2060
264.752	1361
264.813	-22
264.875	-526
264.936	297
264.998	-360
265.059	-584
265.120	881
265.182	870
265.243	9349
265.305	9406
265.366	2477
265.427	-25
265.489	1206
265.550	-1588
265.611	387
265.673	-1048
265.734	736
265.795	-145
265.857	270
265.918	-405
265.979	2649
266.040	13801
266.102	12905
266.163	2891
266.224	1102
266.286	-51
266.347	-538
266.408	-525
266.469	250
266.530	-493
266.592	-421
266.653	196
266.714	1255
266.775	-783
266.836	-644
266.898	-870
266.959	-488
267.020	-359
267.081	132
267.142	223
267.203	-370
267.264	-410
267.326	192
267.387	-598
267.448	-214
267.509	-271
267.570	41
267.631	-1325
267.692	-967
267.753	-38
267.814	-1037
267.875	-182
267.936	1594
267.997	-71
268.058	310
268.119	-987
268.180	-48
268.241	-1190
268.302	125
268.363	-644
268.424	-598
268.485	34
268.546	-727
268.607	-999
268.668	-555
268.729	-1309
268.790	-646
268.851	80
268.912	1073
268.972	770
269.033	-232
269.094	-1366
269.155	-516
269.216	-1206
269.277	-174
269.338	-247
269.398	-204
269.459	-932
269.520	-155
269.581	-373
269.642	38
269.702	-1209
269.763	132
269.824	-476
269.885	-543
269.945	802
270.006	253
270.067	-1243
270.128	-61
270.188	-1542
270.249	-1194
270.310	-973
270.370	190
270.431	-1114
270.492	-152
270.553	-239
270.613	-116
270.674	1794
270.734	-564
270.795	-165
270.856	434
270.916	-1242
270.977	-116
271.038	221
271.098	-393
271.159	-441
271.219	476
271.280	-405
271.340	-157
271.401	-863
271.462	551
271.522	-186
271.583	-99
271.643	125
271.704	-752
271.764	-5
271.825	945
271.885	4320
271.946	6730
272.006	1653
272.066	1941
272.127	5202
272.187	2400
272.248	-103
272.308	219
272.369	2978
272.429	1581
272.489	166
272.550	1297
272.610	-77
272.671	480
272.731	-702
272.791	500
272.852	-786
272.912	426
272.972	-645
273.033	108
273.093	-707
273.153	1120
273.214	175
273.274	-147
273.334	1875
273.394	4753
273.455	1069
273.515	1261
273.575	4769
273.635	1529
273.696	1863
273.756	3920
273.816	986
273.876	1333
273.936	1037
273.997	2392
274.057	-180
274.117	-421
274.177	499
274.237	6040
274.297	5104
274.358	2352
274.418	3054
274.478	2341
274.538	100
274.598	-450
274.658	1642
274.718	1856
274.778	479
274.838	352
274.898	-25
274.958	3166
275.018	3353
275.078	2703
275.138	196
275.198	272
275.258	-128
275.318	434
275.378	-100
275.438	1062
275.498	254
275.558	1102
275.618	3254
275.678	3597
275.738	1189
275.798	515
275.858	395
275.918	-30
275.978	-698
276.038	302
276.098	-302
276.157	152
276.217	3176
276.277	1047
276.337	218
276.397	-116
276.457	-541
276.517	349
276.576	-990
276.636	-470
276.696	-627
276.756	1464
276.815	1047
276.875	430
276.935	175
276.995	-105
277.055	8
277.114	-575
277.174	-55
277.234	2963
277.293	678
277.353	-401
277.413	163
277.472	178
277.532	-899
277.592	793
277.651	2205
277.711	6494
277.771	1395
277.830	7187
277.890	5833
277.950	2587
278.009	12451
278.069	4750
278.128	4370
278.188	6943
278.248	2434
278.307	6522
278.367	4423
278.426	746
278.486	-673
278.545	-39
278.605	-788
278.664	-126
278.724	-525
278.783	1788
278.843	5031
278.902	1262
278.962	-66
279.021	325
279.081	1205
279.140	120
279.199	-300
279.259	1080
279.318	901
279.378	1529
279.437	1412
279.496	9614
279.556	39179
279.615	30098
279.675	6559
279.734	2718
279.793	3382
279.853	6556
279.912	2067
279.971	1487
280.031	795
280.090	3004
280.149	5354
280.208	4665
280.268	24817
280.327	28226
280.386	4442
280.445	2864
280.505	2592
280.564	557
280.623	742
280.682	921
280.742	2459
280.801	391
280.860	-1005
280.919	514
280.978	-422
281.037	19
281.097	-803
281.156	387
281.215	-268
281.274	143
281.333	2768
281.392	2723
281.451	306
281.510	-20
281.569	-290
281.628	-772
281.688	-210
281.747	421
281.806	-487
281.865	-81
281.924	29
281.983	-369
282.042	-715
282.101	-159
282.160	-751
282.219	-407
282.278	-606
282.337	1328
282.396	1500
282.454	-11
282.513	-334
282.572	2542
282.631	1416
282.690	41
282.749	-1564
282.808	448
282.867	-418
282.926	124
282.985	-463
283.043	-265
283.102	-836
283.161	-613
283.220	1107
283.279	2992
283.338	415
283.396	-6
283.455	-821
283.514	-6
283.573	-206
283.631	417
283.690	-614
283.749	-351
283.808	839
283.866	1184
283.925	-460
283.984	-5
284.043	-999
284.101	314
284.160	164
284.219	558
284.277	-308
284.336	679
284.395	3375
284.453	3542
284.512	867
284.570	2304
284.629	1099
284.688	1517
284.746	1084
284.805	1997
284.863	2395
284.922	4594
284.981	4699
285.039	6727
285.098	12011
285.156	26088
285.215	42404
285.273	40406
285.332	28568
285.390	16030
285.449	9316
285.507	7341
285.566	4469
285.624	3579
285.683	3432
285.741	1924
285.799	1249
285.858	1877
285.916	314
285.975	1354
286.033	233
286.091	356
286.150	-697
286.208	142
286.267	-35
286.325	2
286.383	740
286.442	525
286.500	-1042
286.558	673
286.616	-553
286.675	974
286.733	-321
286.791	381
286.850	-54
286.908	107
286.966	1376
287.024	457
287.083	-287
287.141	921
287.199	147
287.257	835
287.315	-389
287.374	-416
287.432	840
287.490	1483
287.548	-226
287.606	213
287.664	951
287.723	888
287.781	761
287.839	427
287.897	-317
287.955	520
288.013	571
288.071	2982
288.129	15423
288.187	52226
288.245	22902
288.303	6653
288.361	3155
288.419	1973
288.477	1321
288.535	786
288.593	-89
288.651	79
288.709	-84
288.767	-172
288.825	-267
288.883	-101
288.941	-73
288.999	-692
289.057	-617
289.115	-462
289.173	-654
289.231	-567
289.289	-821
289.346	-329
289.404	-746
289.462	229
289.520	137
289.578	56
289.636	-322
289.694	-521
289.751	-827
289.809	-493
289.867	-955
289.925	1022
289.983	-533
290.040	85
290.098	217
290.156	-799
290.214	-644
290.271	135
290.329	-215
290.387	-177
290.444	-575
290.502	-374
290.560	-140
290.617	-159
290.675	-1472
290.733	-88
290.790	-427
290.848	144
290.906	-1060
290.963	28
291.021	-848
291.078	57
291.136	41
291.194	1807
291.251	3659
291.309	1128
291.366	122
291.424	-74
291.481	-720
291.539	-424
291.596	669
291.654	371
291.711	-581
291.769	93
291.826	238
291.884	242
291.941	-793
291.999	-476
292.056	-185
292.114	-350
292.171	43
292.228	265
292.286	-585
292.343	387
292.401	688
292.458	1135
292.515	-323
292.573	869
292.630	-102
292.687	33
292.745	-147
292.802	352
292.859	1928
292.917	4065
292.974	1810
293.031	574
293.089	-274
293.146	-219
293.203	533
293.260	584
293.318	-404
293.375	375
293.432	160
293.489	-154
293.546	-370
293.604	704
293.661	1156
293.718	6010
293.775	3539
293.832	1319
293.889	570
293.947	1132
294.004	17
294.061	330
294.118	822
294.175	4968
294.232	6529
294.289	2140
294.346	-476
294.403	1431
294.460	576
294.517	-394
294.574	208
294.631	390
294.688	499
294.745	1196
294.802	7642
294.859	10902
294.916	2959
294.973	1016
295.030	452
295.087	367
295.144	-311
295.201	479
295.258	-471
295.315	728
295.372	1717
295.429	5045
295.486	1642
295.542	1794
295.599	3937
295.656	8864
295.713	4283
295.770	6062
295.827	1760
295.883	522
295.940	286
295.997	142
296.054	1091
296.111	707
296.167	176
296.224	-98
296.281	-691
296.338	-228
296.394	-1180
296.451	535
296.508	1615
296.564	4469
296.621	2623
296.678	5584
296.734	7799
296.791	3051
296.848	1531
296.904	1250
296.961	2864
297.018	5525
297.074	4465
297.131	1937
297.187	215
297.244	768
297.301	4232
297.357	10209
297.414	2593
297.470	2235
297.527	-131
297.583	288
297.640	405
297.696	682
297.753	-558
297.809	443
297.866	551
297.922	381
297.979	249
298.035	266
298.092	-384
298.148	3297
298.204	3012
298.261	912
298.317	1626
298.374	7611
298.430	3571
298.486	1775
298.543	454
298.599	562
298.656	-10
298.712	1703
298.768	5069
298.824	4335
298.881	545
298.937	125
298.993	-23
299.050	8
299.106	480
299.162	639
299.218	-235
299.275	635
299.331	-94
299.387	1872
299.443	6597
299.500	11684
299.556	6648
299.612	2387
299.668	1930
299.724	5263
299.780	7166
299.837	2453
299.893	1886
299.949	7525
300.005	11616
300.061	8295
300.117	13431
300.173	5746
300.229	1265
300.285	1875
300.341	2104
300.397	702
300.453	588
300.510	1047
300.566	376
300.622	2059
300.678	9477
300.734	16052
300.790	8847
300.845	8002
300.901	7137
300.957	12005
301.013	6852
301.069	2525
301.125	1150
301.181	869
301.237	718
301.293	-81
301.349	-665
301.405	172
301.461	-67
301.516	500
301.572	-355
301.628	1397
301.684	714
301.740	1017
301.796	3213
301.851	2229
301.907	3773
301.963	3744
302.019	4373
302.074	17419
302.130	18032
302.186	8484
302.242	2721
302.297	1600
302.353	1174
302.409	3337
302.464	3402
302.520	1739
302.576	5893
302.631	7386
302.687	4529
302.743	1737
302.798	766
302.854	1268
302.910	815
302.965	916
303.021	1671
303.076	2669
303.132	2035
303.187	2775
303.243	1479
303.299	938
303.354	473
303.410	1353
303.465	149
303.521	-156
303.576	413
303.632	1714
303.687	1637
303.743	5345
303.798	5047
303.853	1932
303.909	1081
303.964	530
304.020	1021
304.075	2277
304.130	1335
304.186	3418
304.241	4886
304.297	3692
304.352	1612
304.358	1552
304.407	1066
304.449	829
304.463	748
304.518	1019
304.539	947
304.573	837
304.629	558
304.630	559
304.684	658
304.720	2662
304.739	3668
304.794	6775
304.811	5948
304.850	3908
304.902	1332
304.905	1171
304.960	1471
304.992	987
305.015	607
305.071	1279
305.083	1021
305.126	93
305.173	609
305.181	707
305.236	260
305.264	584
305.292	883
305.347	146
305.354	275
305.402	1101
305.445	1270
305.457	1317
305.512	1645
305.535	1370
305.567	973
305.622	1194
305.626	1237
305.678	2487
305.716	5842
305.733	7034
305.788	7441
305.807	6361
305.843	4553
305.897	6017
305.898	6030
305.953	5852
305.988	4035
306.008	3104
306.063	1678
306.078	1521
306.118	1147
306.168	946
306.173	945
306.228	555
306.259	549
306.283	444
306.338	-173
306.349	-12
306.393	726
306.440	837
306.448	867
306.503	1426
306.530	1501
306.558	1867
306.613	3396
306.620	3542
306.668	4171
306.711	5912
306.723	6190
306.778	5081
306.801	3839
306.833	2296
306.888	1002
306.892	983
306.943	1247
306.982	620
306.997	354
307.052	1145
307.072	865
307.107	528
307.162	1401
307.163	1405
307.217	1971
307.253	2448
307.272	2585
307.327	2854
307.343	2609
307.381	1971
307.434	1360
307.436	1398
307.491	3202
307.524	5022
307.546	5471
307.600	6093
307.614	5367
307.655	3314
307.704	2247
307.710	2216
307.765	2280
307.795	2820
307.819	3502
307.874	5747
307.885	5832
307.929	5076
307.975	4319
307.984	4464
308.038	7139
308.065	8617
308.093	14912
308.148	32379
308.156	36480
308.202	56588
308.246	68387
308.257	66716
308.312	37806
308.336	25909
308.366	18747
308.421	10793
308.426	10202
308.475	6709
308.517	4750
308.530	4260
308.585	3489
308.607	3341
308.639	3304
308.694	2982
308.697	3018
308.748	5426
308.787	7782
308.803	7794
308.857	5997
308.877	5351
308.912	4998
308.967	4672
308.967	4684
309.021	7406
309.058	9308
309.076	11577
309.130	20125
309.148	23829
309.185	43653
309.238	78102
309.239	78339
309.293	84324
309.328	78775
309.348	68873
309.402	34700
309.418	25975
309.457	18272
309.508	11550
309.511	11305
309.566	9422
309.598	8645
309.620	9158
309.674	11532
309.688	12385
309.729	12137
309.778	9529
309.783	9265
309.837	6684
309.868	5381
309.892	5680
309.946	7017
309.959	7620
310.001	9624
310.049	10902
310.055	10561
310.109	6912
310.139	4579
310.163	3519
310.218	2106
310.229	1836
310.272	1778
310.319	1747
310.326	1692
310.381	1497
310.409	1469
310.435	1409
310.489	981
310.499	912
310.543	1028
310.589	1164
310.598	1160
310.652	1503
310.679	1405
310.706	1175
310.760	1048
310.769	994
310.814	1181
310.859	1523
310.868	1508
310.923	1155
310.948	1075
310.977	1129
311.031	1202
311.038	1209
311.085	1037
311.128	862
311.139	930
311.193	1347
311.218	1462
311.247	1684
311.301	2197
311.308	2242
311.356	1710
311.398	1324
311.410	1336
311.464	1288
311.488	1293
311.518	1214
311.572	970
311.578	956
311.626	1178
311.668	1275
311.680	1355
311.734	1713
311.758	1890
311.788	1776
311.842	1544
311.847	1516
311.896	2090
311.937	2618
311.950	2510
312.004	2009
312.027	1784
312.058	1651
312.112	1423
312.117	1400
312.165	1314
312.207	1241
312.297	1727
312.386	1738
312.476	998
312.566	2398
312.656	468
312.745	1159
312.835	1487
312.925	896
313.015	1613
313.104	1733
313.194	1329
313.284	1462
313.374	1346
313.463	2190
313.553	1861
313.643	1584
313.732	1560
313.822	1398
313.912	1665
314.001	1996
314.091	1399
314.180	2008
314.270	1635
314.360	1950
314.449	1866
314.539	1661
314.628	2187
314.718	1897
314.808	2326
314.897	1578
314.987	2511
315.076	2258
315.166	1826
315.255	2097
315.345	1898
315.434	2537
315.524	2614
315.613	1918
315.703	2995
315.792	5553
315.881	20214
315.971	5650
316.060	3228
316.150	4151
316.239	4912
316.328	2257
316.418	2113
316.507	1376
316.597	2168
316.686	2549
316.775	2966
316.865	4619
316.954	1707
317.043	1832
317.133	1281
317.222	904
317.311	1233
317.400	1187
317.490	2472
317.579	1748
317.668	2205
317.757	2839
317.847	10305
317.936	34303
318.025	10626
318.114	7655
318.203	3815
318.293	3035
318.382	5137
318.471	4224
318.560	6152
318.649	14872
318.738	3427
318.828	2427
318.917	1561
319.006	2228
319.095	5441
319.184	16505
319.273	7626
319.362	4220
319.451	1717
319.540	1563
319.629	2667
319.718	4351
319.807	3152
319.896	5738
319.985	20274
320.074	5992
320.163	1441
320.252	2165
320.341	3025
320.430	2677
320.519	2310
320.608	1629
320.697	2000
320.786	1747
320.875	2636
320.964	3081
321.053	4395
321.142	4146
321.230	4709
321.319	4573
321.408	8745
321.497	4345
321.586	4648
321.675	5152
321.764	4450
321.852	4089
321.941	3984
322.030	3546
322.119	4388
322.207	8745
322.296	7590
322.385	4708
322.474	6124
322.562	11126
322.651	6440
322.740	3515
322.829	5534
322.917	5435
323.006	3147
323.095	2872
323.183	2533
323.272	3682
323.361	6562
323.449	18544
323.538	5470
323.626	11269
323.715	6486
323.804	3003
323.892	9831
323.981	5380
324.069	2352
324.158	6723
324.246	5517
324.335	2072
324.424	3322
324.512	2036
324.601	1815
324.689	2203
324.778	3471
324.866	3523
324.954	1775
325.043	1210
325.131	2223
325.220	4447
325.308	4957
325.397	3433
325.485	2529
325.574	1287
325.662	963
325.750	1617
325.839	1659
325.927	1020
326.015	610
326.104	2272
326.192	2540
326.280	822
326.369	1332
326.457	1205
326.545	2598
326.634	1563
326.722	510
326.810	1766
326.898	1651
326.987	1347
327.075	1345
327.163	2474
327.251	1208
327.340	1566
327.428	2171
327.516	1876
327.604	1161
327.692	1108
327.781	1419
327.869	1397
327.957	1608
328.045	729
328.133	1493
328.221	572
328.309	721
328.397	1351
328.485	1631
328.574	2281
328.662	5340
328.750	3080
328.838	1385
328.926	1551
329.014	1294
329.102	667
329.190	3524
329.278	2265
329.366	726
329.454	418
329.542	1358
329.630	681
329.718	1050
329.806	1242
329.893	1153
329.981	408
330.069	1153
330.157	1406
330.245	2451
330.333	2118
330.421	1244
330.509	1358
330.597	5218
330.684	3581
330.772	1665
330.860	2257
330.948	2723
331.036	902
331.123	388
331.211	1739
331.299	1234
331.387	2376
331.475	4328
331.562	1183
331.650	1525
331.738	644
331.825	1451
331.913	792
332.001	594
332.089	1901
332.176	2308
332.264	5331
332.352	3705
332.439	1205
332.527	1037
332.614	669
332.702	1434
332.790	1161
332.877	2365
332.965	5075
333.052	2206
333.140	2042
333.228	4095
333.315	1152
333.403	1326
333.490	2899
333.578	2380
333.665	5614
333.753	1987
333.840	749
333.928	1387
334.015	4322
334.103	6733
334.190	21095
334.278	6943
334.365	4911
334.452	5223
334.540	3352
334.627	3216
334.715	3120
334.802	6311
334.889	26189
334.977	29808
335.064	8775
335.151	3531
335.239	2358
335.326	3021
335.413	12808
335.501	14971
335.588	2882
335.675	2387
335.762	3489
335.850	5532
335.937	5271
336.024	12983
336.111	36930
336.199	20922
336.286	6750
336.373	3357
336.460	2669
336.547	1544
336.635	2819
336.722	1864
336.809	1331
336.896	1883
336.983	5948
337.070	15465
337.157	23992
337.245	14297
337.332	9665
337.419	1878
337.506	1229
337.593	2342
337.680	4812
337.767	14681
337.854	3340
337.941	4055
338.028	3532
338.115	1622
338.202	2095
338.289	3660
338.376	12763
338.463	4509
338.550	8354
338.637	8020
338.724	2187
338.811	3509
338.898	1574
338.984	1251
339.071	1053
339.158	1516
339.245	2404
339.332	1793
339.419	3284
339.506	2910
339.593	570
339.679	593
339.766	878
339.853	1712
339.940	2079
340.027	953
340.113	1382
340.200	611
340.287	187
340.374	893
340.460	1704
340.547	370
340.634	1950
340.720	5170
340.807	1890
340.894	1005
340.980	1466
341.067	839
341.154	1743
341.240	963
341.327	1996
341.414	1319
341.500	505
341.587	1400
341.674	638
341.760	1693
341.847	2274
341.933	682
342.020	226
342.106	973
342.193	1440
342.279	1884
342.366	1295
342.452	1998
342.539	677
342.625	1507
342.712	5248
342.798	1880
342.885	1276
342.971	450
343.058	588
343.144	1004
343.230	1161
343.317	347
343.403	978
343.490	1223
343.576	509
343.662	1133
343.749	432
343.835	1631
343.921	2139
344.008	13382
344.094	30406
344.180	5599
344.267	2892
344.353	7247
344.439	7809
344.525	2111
344.612	2442
344.698	1808
344.784	727
344.870	1305
344.957	672
345.043	1875
345.129	137
345.215	2024
345.301	1022
345.387	779
345.474	612
345.560	332
345.646	193
345.732	697
345.818	1022
345.904	1009
345.990	1423
346.076	1193
346.162	1302
346.249	1852
346.335	90
346.421	1940
346.507	3363
346.593	10900
346.679	1608
346.765	1902
346.851	1348
346.937	691
347.023	1124
347.108	891
347.194	925
347.280	293
347.366	1658
347.452	5383
347.538	14852
347.624	10976
347.710	7760
347.796	1473
347.882	960
347.967	662
348.053	809
348.139	554
348.225	1583
348.311	659
348.397	605
348.482	1363
348.568	682
348.654	1414
348.740	3678
348.825	3076
348.911	3090
348.997	6442
349.083	12158
349.168	2312
349.254	1007
349.340	695
349.425	797
349.511	1135
349.597	1177
349.682	1596
349.768	7842
349.854	2763
349.939	1010
350.025	435
350.110	1271
350.196	1059
350.282	779
350.367	1359
350.453	1089
350.538	1044
350.624	353
350.709	1383
350.795	418
350.880	-25
350.966	1008
351.051	1429
351.137	827
351.222	1270
351.308	1971
351.393	5767
351.479	1476
351.564	158
351.649	1673
351.735	847
351.820	768
351.906	960
351.991	470
352.076	3986
352.162	5244
352.247	1215
352.332	938
352.418	858
352.503	1664
352.588	8891
352.673	5468
352.759	1749
352.844	987
352.929	40
353.014	894
353.100	1785
353.185	1252
353.270	1121
353.355	2390
353.441	1110
353.526	1284
353.611	1344
353.696	1256
353.781	2458
353.866	233
353.952	1489
354.037	1362
354.122	3962
354.207	3198
354.292	1025
354.377	449
354.462	628
354.547	1206
354.632	1770
354.717	1394
354.802	1325
354.887	91
354.972	759
355.057	702
355.142	454
355.227	997
355.312	1321
355.397	2021
355.482	5423
355.567	2286
355.652	2337
355.737	2827
355.822	8640
355.907	6184
355.991	2120
356.076	127
356.161	1162
356.246	375
356.331	775
356.416	2375
356.501	17052
356.585	15164
356.670	1696
356.755	2707
356.840	1756
356.924	10701
357.009	36370
357.094	12976
357.179	2392
357.263	1625
357.348	2571
357.433	1795
357.517	1275
357.602	1384
357.687	651
357.771	2077
357.856	4916
357.941	3565
358.025	8589
358.110	38539
358.195	15535
358.279	2149
358.364	922
358.448	5753
358.533	15384
358.617	9199
358.702	10895
358.787	2753
358.871	1822
358.956	2042
359.040	1148
359.125	671
359.209	1274
359.294	2601
359.378	4805
359.462	2287
359.547	1863
359.631	1252
359.716	431
359.800	870
359.885	2537
359.969	115
360.053	1667
360.138	754
360.222	1516
360.306	1988
360.391	1026
360.475	2717
360.559	6301
360.644	5197
360.728	3586
360.812	9381
360.896	25510
360.981	8771
361.065	3521
361.149	2073
361.233	1633
361.318	1289
361.402	1977
361.486	765
361.570	1011
361.654	1075
361.739	2648
361.823	14584
361.907	24814
361.991	4185
362.075	2208
362.159	3947
362.243	5363
362.327	10859
362.411	19952
362.495	7349
362.580	2894
362.664	2108
362.748	2188
362.832	3907
362.916	8667
363.000	32353
363.084	58529
363.168	39406
363.252	8333
363.336	3828
363.420	4439
363.503	15396
363.587	17932
363.671	3245
363.755	1426
363.839	4171
363.923	1295
364.007	3035
364.091	3945
364.175	7999
364.258	35588
364.342	41982
364.426	76930
364.510	37644
364.594	11046
364.677	7111
364.761	21626
364.845	16035
364.929	3953
365.013	3133
365.096	2849
365.180	3089
365.264	6656
365.347	28083
365.431	10513
365.515	1966
365.598	1719
365.682	2303
365.766	2361
365.849	2197
365.933	887
366.017	2804
366.100	944
366.184	333
366.267	1488
366.351	1490
366.435	647
366.518	307
366.602	1051
366.685	1153
366.769	1079
366.852	1693
366.936	3473
367.019	1752
367.103	502
367.186	3072
367.270	1179
367.353	394
367.436	2163
367.520	1118
367.603	1194
367.687	794
367.770	1611
367.853	1959
367.937	6270
368.020	8922
368.104	1097
368.187	1762
368.270	2863
368.353	2019
368.437	3480
368.520	8934
368.603	4151
368.687	5478
368.770	12385
368.853	2827
368.936	2970
369.020	3283
369.103	810
369.186	828
369.269	714
369.352	1255
369.436	1361
369.519	1591
369.602	-152
369.685	1947
369.768	281
369.851	427
369.934	473
370.018	686
370.101	790
370.184	3400
370.267	2047
370.350	1421
370.433	3059
370.516	11142
370.599	18592
370.682	4360
370.765	6055
370.848	8182
370.931	14794
371.014	6380
371.097	130
371.180	1583
371.263	494
371.346	-551
371.429	1360
371.511	-740
371.594	1057
371.677	2793
371.760	4329
371.843	2329
371.926	13284
372.009	29045
372.091	9472
372.174	5761
372.257	15206
372.340	4973
372.423	4406
372.505	5199
372.588	2188
372.671	4738
372.754	14281
372.836	7117
372.919	6717
373.002	14337
373.085	3071
373.167	2779
373.250	6018
373.332	14558
373.415	20939
373.498	42613
373.580	15448
373.663	27676
373.746	32724
373.828	5496
373.911	3474
373.993	3095
374.076	14972
374.159	11741
374.241	4386
374.324	11701
374.406	8292
374.489	11892
374.571	34081
374.654	12313
374.736	7144
374.819	19956
374.901	31063
374.983	31586
375.066	5358
375.148	2865
375.231	11431
375.313	23047
375.395	7411
375.478	2023
375.560	2298
375.643	2152
375.725	6269
375.807	27109
375.890	21917
375.972	7417
376.054	4036
376.136	6737
376.219	2270
376.301	8344
376.383	22201
376.465	8203
376.548	3081
376.630	5853
376.712	18527
376.794	7810
376.877	1347
376.959	394
377.041	1628
377.123	1857
377.205	3609
377.287	254
377.369	958
377.452	999
377.534	593
377.616	237
377.698	686
377.780	-304
377.862	642
377.944	1902
378.026	572
378.108	656
378.190	447
378.272	1271
378.354	-154
378.436	-450
378.518	629
378.600	5321
378.682	3979
378.764	8395
378.846	6071
378.928	1702
379.010	1680
379.091	1840
379.173	916
379.255	-274
379.337	276
379.419	3165
379.501	12134
379.583	4833
379.664	740
379.746	1882
379.828	9085
379.910	9788
379.991	9766
380.073	1265
380.155	1507
380.237	383
380.318	945
380.400	209
380.482	1596
380.564	1438
380.645	1173
380.727	1671
380.809	2038
380.890	847
380.972	783
381.053	746
381.135	1981
381.217	1831
381.298	9339
381.380	3639
381.461	3472
381.543	18840
381.624	22205
381.706	3892
381.787	1559
381.869	1988
381.951	8128
382.032	31897
382.113	22277
382.195	2964
382.276	3756
382.358	4997
382.439	15571
382.521	20331
382.602	31367
382.684	12908
382.765	22697
382.846	25670
382.928	40857
383.009	21490
383.090	15372
383.172	59826
383.253	92418
383.334	29385
383.416	27035
383.497	13746
383.578	6210
383.659	11193
383.741	49297
383.822	138148
383.903	65380
383.984	18432
384.066	31950
384.147	18362
384.228	4264
384.309	3789
384.390	2915
384.471	1803
384.553	2959
384.634	1995
384.715	3434
384.796	1071
384.877	2661
384.958	8191
385.039	8943
385.120	3153
385.201	3278
385.282	2268
385.363	3558
385.444	1524
385.525	4862
385.606	13692
385.687	11478
385.768	3377
385.849	3335
385.930	15510
386.011	26399
386.092	6389
386.173	2460
386.254	1789
386.335	2271
386.416	1996
386.496	5868
386.577	8186
386.658	3381
386.739	1611
386.820	4067
386.901	1728
386.981	2790
387.062	2415
387.143	3092
387.224	9458
387.304	9649
387.385	4848
387.466	2541
387.547	4405
387.627	2786
387.708	5930
387.789	17053
387.869	19256
387.950	7685
388.031	1458
388.111	155
388.192	4672
388.273	6080
388.353	2623
388.434	2072
388.514	4205
388.595	15848
388.676	18849
388.756	8264
388.837	7648
388.917	4487
388.998	498
389.078	2079
389.159	1924
389.239	40
389.320	3468
389.400	137
389.480	4727
389.561	8895
389.641	5810
389.722	1618
389.802	1935
389.883	4690
389.963	12479
390.043	7793
390.124	1986
390.204	3351
390.284	9119
390.365	5688
390.445	9389
390.525	19198
390.605	16870
390.686	4515
390.766	3694
390.846	2586
390.927	1147
391.007	625
391.087	3161
391.167	2170
391.247	329
391.328	3532
391.408	3971
391.488	3522
391.568	772
391.648	1719
391.728	2851
391.808	3589
391.888	2564
391.969	6523
392.049	8356
392.129	5087
392.209	5486
392.289	12894
392.369	8686
392.449	8181
392.529	5334
392.609	5605
392.689	6190
392.769	14670
392.849	13383
392.929	13490
393.009	24874
393.089	24786
393.169	38735
393.248	114196
393.328	342290
393.408	355327
393.488	117913
393.568	36774
393.648	18885
393.728	11255
393.807	7237
393.887	7472
393.967	6115
394.047	6021
394.127	6529
394.206	9684
394.286	34534
394.366	131190
394.446	137199
394.525	31889
394.605	9128
394.685	6745
394.764	12108
394.844	17358
394.924	14627
395.003	4969
395.083	3668
395.163	2939
395.242	2585
395.322	3651
395.402	1314
395.481	4851
395.561	7597
395.640	21700
395.720	24960
395.799	24915
395.879	18413
395.958	14426
396.038	51225
396.117	172704
396.197	179563
396.276	54722
396.356	18294
396.435	12491
396.515	12127
396.594	14691
396.673	30980
396.753	115602
396.832	307370
396.912	219001
396.991	52776
397.070	18106
397.150	8973
397.229	9371
397.308	14674
397.388	26771
397.467	12501
397.546	4099
397.625	1075
397.705	3953
397.784	3098
397.863	2138
397.942	1765
398.022	2462
398.101	6308
398.180	16479
398.259	7957
398.338	3454
398.417	861
398.497	478
398.576	2301
398.655	238
398.734	1694
398.813	1463
398.892	5880
398.971	18544
399.050	8250
399.129	1009
399.208	1936
399.287	1724
399.366	1082
399.445	1099
399.524	1449
399.603	-860
399.682	1830
399.761	4079
399.840	19988
399.919	15363
399.998	1387
400.077	-95
400.156	-512
400.235	2798
400.313	219
400.392	-660
400.471	4406
400.550	6907
400.629	-152
400.708	1703
400.786	823
400.865	3462
400.944	1706
401.023	3055
401.102	157
401.180	564
401.259	617
401.338	7
401.416	1099
401.495	95
401.574	934
401.652	-106
401.731	764
401.810	-80
401.888	-405
401.967	136
402.046	228
402.124	741
402.203	240
402.281	1777
402.360	1946
402.438	4694
402.517	1810
402.596	1339
402.674	1123
402.753	455
402.831	1039
402.910	1501
402.988	2334
403.066	8953
403.145	5775
403.223	3675
403.302	7345
403.380	5968
403.459	5309
403.537	2419
403.615	609
403.694	-935
403.772	1262
403.850	963
403.929	104
404.007	740
404.085	2221
404.164	413
404.242	887
404.320	4936
404.398	13053
404.477	11870
404.555	26800
404.633	23519
404.711	10527
404.789	5171
404.868	804
404.946	-374
405.024	600
405.102	294
405.180	-784
405.258	-937
405.336	761
405.415	-317
405.493	1341
405.571	1099
405.649	-189
405.727	-673
405.805	1792
405.883	672
405.961	965
406.039	592
406.117	-126
406.195	774
406.273	4044
406.351	19755
406.429	11979
406.507	698
406.585	-217
406.663	496
406.740	711
406.818	-455
406.896	-540
406.974	680
407.052	-71
407.130	10804
407.208	14372
407.285	2751
407.363	-414
407.441	-269
407.519	-241
407.596	1518
407.674	6008
407.752	28621
407.830	22112
407.907	4150
407.985	-278
408.063	840
408.141	319
408.218	1465
408.296	-190
408.373	832
408.451	545
408.529	841
408.606	22
408.684	866
408.762	-32
408.839	417
408.917	-138
408.994	785
409.072	-96
409.149	708
409.227	2802
409.304	3877
409.382	3517
409.459	4269
409.537	6468
409.614	5291
409.692	3499
409.769	2897
409.846	6147
409.924	8944
410.001	3670
410.079	3466
410.156	2566
410.233	2236
410.311	640
410.388	682
410.465	1647
410.543	102
410.620	1056
410.697	1136
410.775	811
410.852	-327
410.929	1575
411.006	2500
411.083	129
411.161	1180
411.238	1585
411.315	965
411.392	824
411.469	488
411.547	970
411.624	-288
411.701	-413
411.778	364
411.855	638
411.932	533
412.009	356
412.086	477
412.163	753
412.240	507
412.317	1972
412.394	-634
412.471	471
412.548	-306
412.625	287
412.702	286
412.779	1068
412.856	452
412.933	-501
413.010	29
413.087	600
413.164	2918
413.241	4943
413.318	333
413.395	1263
413.471	253
413.548	288
413.625	1025
413.702	-800
413.779	-542
413.855	812
413.932	494
414.009	-1165
414.086	532
414.162	58
414.239	687
414.316	3297
414.393	8386
414.469	1668
414.546	228
414.623	-243
414.699	46
414.776	-318
414.853	-284
414.929	852
415.006	-72
415.082	45
415.159	573
415.236	-225
415.312	211
415.389	1161
415.465	347
415.542	331
415.618	-263
415.695	453
415.771	-31
415.848	60
415.924	455
416.000	617
416.077	413
416.153	-1159
416.230	-636
416.306	-793
416.383	-337
416.459	812
416.535	-390
416.612	178
416.688	469
416.764	139
416.841	-376
416.917	-59
416.993	-87
417.069	-86
417.146	545
417.222	404
417.298	-237
417.374	-322
417.451	-89
417.527	-281
417.603	-51
417.679	574
417.755	-66
417.831	-728
417.908	-230
417.984	264
418.060	-837
418.136	1152
418.212	294
418.288	413
418.364	252
418.440	-1099
418.516	373
418.592	342
418.668	1183
418.744	1060
418.820	1407
418.896	323
418.972	-654
419.048	-453
419.124	1874
419.200	-544
419.276	266
419.352	-703
419.428	-308
419.504	119
419.579	-269
419.655	146
419.731	728
419.807	1450
419.883	2299
419.959	2314
420.034	785
420.110	945
420.186	4897
420.262	3916
420.337	589
420.413	1049
420.489	744
420.565	1062
420.640	45
420.716	380
420.792	-300
420.867	1444
420.943	708
421.019	1341
421.094	-441
421.170	1169
421.245	247
421.321	1258
421.397	1676
421.472	7555
421.548	18182
421.623	10484
421.699	4392
421.774	3662
421.850	2710
421.925	4161
422.001	5787
422.076	6158
422.152	8045
422.227	10279
422.302	15867
422.378	23262
422.453	42381
422.529	86865
422.604	159427
422.679	182935
422.755	154316
422.830	87345
422.905	44581
422.981	25113
423.056	16656
423.131	12472
423.207	9071
423.282	6848
423.357	6402
423.432	4902
423.508	4725
423.583	5145
423.658	4186
423.733	3426
423.808	2497
423.883	3086
423.959	2418
424.034	3253
424.109	4181
424.184	1688
424.259	1136
424.334	1336
424.409	1000
424.484	572
424.559	1211
424.634	847
424.709	688
424.784	613
424.859	123
424.934	910
425.009	3955
425.084	6197
425.159	1770
425.234	1077
425.309	157
425.384	1991
425.459	2385
425.534	1016
425.609	-75
425.683	184
425.758	-202
425.833	260
425.908	918
425.983	2139
426.058	5777
426.132	2008
426.207	640
426.282	1805
426.357	341
426.431	982
426.506	513
426.581	406
426.655	903
426.730	-106
426.805	-1145
426.879	542
426.954	-79
427.029	167
427.103	6337
427.178	16147
427.253	7477
427.327	193
427.402	931
427.476	3317
427.551	519
427.625	1373
427.700	408
427.774	-148
427.849	738
427.923	-716
427.998	394
428.072	320
428.147	3221
428.221	16367
428.296	51744
428.370	27317
428.444	2750
428.519	1051
428.593	2594
428.667	1896
428.742	3936
428.816	6882
428.890	32525
428.965	49502
429.039	12195
429.113	4110
429.188	1291
429.262	610
429.336	532
429.410	2567
429.485	1958
429.559	2526
429.633	2697
429.707	1120
429.781	5158
429.855	31361
429.930	45791
430.004	15766
430.078	17418
430.152	24477
430.226	68072
430.300	65660
430.374	11154
430.448	3494
430.522	6132
430.596	16014
430.670	14658
430.744	44021
430.818	53578
430.892	8545
430.966	411
431.040	620
431.114	-195
431.188	-446
431.262	-209
431.336	-694
431.410	1493
431.484	2966
431.557	1804
431.631	598
431.705	1270
431.779	11740
431.853	49333
431.927	30990
432.000	3496
432.074	322
432.148	91
432.222	-868
432.295	491
432.369	255
432.443	-51
432.516	5751
432.590	17037
432.664	5938
432.737	213
432.811	-887
432.885	14
432.958	381
433.032	-736
433.106	-573
433.179	-73
433.253	-75
433.326	-789
433.400	-20
433.473	-148
433.547	-726
433.620	-253
433.694	-449
433.767	52
433.841	-510
433.914	-902
433.988	-958
434.061	-884
434.134	-182
434.208	-551
434.281	-1369
434.355	-717
434.428	-84
434.501	-707
434.575	-730
434.648	-278
434.721	-929
434.795	-885
434.868	-943
434.941	-761
435.014	-1121
435.088	-540
435.161	391
435.234	920
435.307	443
435.381	105
435.454	1263
435.527	3226
435.600	3074
435.673	2413
435.746	1628
435.819	1042
435.892	619
435.966	250
436.039	-81
436.112	711
436.185	-523
436.258	-7
436.331	-1174
436.404	144
436.477	-435
436.550	-481
436.623	-180
436.696	-524
436.769	-218
436.842	10
436.915	141
436.987	-599
437.060	-41
437.133	-70
437.206	-577
437.279	585
437.352	-472
437.425	-275
437.498	-258
437.570	699
437.643	-319
437.716	-13
437.789	-939
437.861	501
437.934	785
438.007	30
438.080	-494
438.152	-28
438.225	992
438.298	9666
438.370	25807
438.443	9159
438.516	785
438.588	-218
438.661	-1171
438.734	-798
438.806	-460
438.879	-355
438.951	-224
439.024	755
439.096	-769
439.169	-334
439.241	-306
439.314	-646
439.386	-246
439.459	427
439.531	1172
439.604	-886
439.676	77
439.749	-838
439.821	-724
439.893	-737
439.966	-53
440.038	-78
440.110	-343
440.183	-284
440.255	-478
440.327	682
440.400	3176
440.472	14171
440.544	8936
440.617	580
440.689	1544
440.761	465
440.833	755
440.905	264
440.978	-830
441.050	-320
441.122	-258
441.194	-359
441.266	58
441.338	-119
441.411	-82
441.483	3181
441.555	5691
441.627	941
441.699	140
441.771	490
441.843	202
441.915	2
441.987	-516
442.059	330
442.131	558
442.203	943
442.275	1065
442.347	1934
442.419	5943
442.491	33015
442.563	74501
442.635	28880
442.706	6862
442.778	3980
442.850	716
442.922	178
442.994	1025
443.066	952
443.137	1098
443.209	1824
443.281	3077
443.353	8186
443.425	37189
443.496	121683
443.568	120654
443.640	44701
443.711	8018
443.783	3444
443.855	1531
443.926	1347
443.998	954
444.070	1177
444.141	465
444.213	392
444.285	1333
444.356	716
444.428	668
444.499	-275
444.571	189
444.642	-243
444.714	576
444.785	122
444.857	1465
444.928	2719
445.000	1797
445.071	2415
445.143	3394
445.214	3633
445.285	7025
445.357	20253
445.428	77250
445.500	154606
445.571	107430
445.642	67007
445.714	20800
445.785	9659
445.856	1978
445.928	1862
445.999	1062
446.070	1137
446.141	455
446.213	870
446.284	-31
446.355	826
446.426	496
446.497	-148
446.569	153
446.640	811
446.711	459
446.782	-233
446.853	470
446.924	260
446.995	-91
447.066	-150
447.138	925
447.209	282
447.280	-1036
447.351	-346
447.422	-451
447.493	-955
447.564	81
447.635	-146
447.706	-685
447.777	-839
447.847	74
447.918	-770
447.989	-224
448.060	650
448.131	751
448.202	644
448.273	671
448.344	-53
448.414	-229
448.485	-612
448.556	-98
448.627	-1125
448.698	883
448.768	-480
448.839	-596
448.910	-620
448.981	435
449.051	-272
449.122	-537
449.193	-310
449.263	136
449.334	-277
449.405	-734
449.475	898
449.546	507
449.616	529
449.687	-149
449.758	41
449.828	-825
449.899	-427
449.969	-383
450.040	-66
450.110	261
450.181	725
450.251	-1
450.322	-265
450.392	-419
450.463	506
450.533	-1257
450.604	-67
450.674	-527
450.744	1066
450.815	602
450.885	231
450.955	14
451.026	-815
451.096	-528
451.166	-438
451.237	1241
451.307	3659
451.377	1050
451.447	-467
451.518	-412
451.588	-182
451.658	-252
451.728	275
451.799	2845
451.869	3497
451.939	218
452.009	-346
452.079	-634
452.149	-141
452.219	19
452.289	3434
452.360	2589
452.430	249
452.500	606
452.570	744
452.640	3815
452.710	10055
452.780	13000
452.850	5820
452.920	2290
452.990	1187
453.060	1171
453.129	461
453.199	267
453.269	4972
453.339	9825
453.409	14716
453.479	14735
453.549	21494
453.619	22385
453.688	6918
453.758	1245
453.828	313
453.898	98
453.968	-49
454.037	796
454.087	242
454.107	-1
454.168	-393
454.177	-473
454.247	346
454.249	319
454.316	-842
454.330	-461
454.386	915
454.411	1313
454.456	1794
454.492	2280
454.525	2711
454.574	1503
454.595	957
454.655	177
454.665	43
454.734	811
454.736	857
454.804	1296
454.817	1955
454.873	4223
454.898	4121
454.943	3801
454.979	2594
455.013	1627
455.060	893
455.082	586
455.141	927
455.152	977
455.221	4583
455.222	4675
455.291	7229
455.303	7624
455.360	8470
455.384	11566
455.430	15530
455.465	11432
455.499	8005
455.546	5824
455.569	4727
455.627	3323
455.638	3107
455.707	1110
455.708	1131
455.777	476
455.789	585
455.846	994
455.869	949
455.916	798
455.950	754
455.985	697
456.031	1064
456.054	1186
456.112	939
456.124	903
456.193	706
456.193	680
456.262	1600
456.274	1631
456.332	1794
456.355	1811
456.401	1561
456.436	1459
456.470	1335
456.516	1088
456.540	994
456.597	822
456.609	741
456.678	1519
456.678	1502
456.747	1337
456.759	1338
456.817	1367
456.840	1370
456.886	1214
456.920	1457
456.955	1650
457.001	2025
457.024	2187
457.082	1918
457.093	1857
457.162	2408
457.163	2428
457.232	1836
457.243	1879
457.301	2009
457.324	1904
457.370	1755
457.405	2301
457.439	2757
457.485	2731
457.508	2823
457.566	3305
457.577	3496
457.646	5214
457.647	5257
457.715	9630
457.727	10751
457.784	18333
457.808	23136
457.853	27401
457.889	30806
457.922	29568
457.969	19839
457.991	20650
458.050	26445
458.060	27656
458.129	47156
458.130	47738
458.198	40918
458.211	36337
458.267	20280
458.292	13856
458.336	9889
458.372	10133
458.405	14961
458.453	22450
458.474	28166
458.533	49464
458.543	50759
458.611	72211
458.614	72603
458.680	39901
458.694	30376
458.749	14552
458.775	10500
458.818	6991
458.855	5781
458.887	4914
458.936	4254
458.955	4196
459.016	4294
459.024	4273
459.093	4373
459.097	4372
459.162	3999
459.177	3944
459.230	3862
459.257	3998
459.299	4329
459.338	4544
459.368	4492
459.418	4311
459.437	4175
459.499	3984
459.505	3991
459.574	4424
459.579	4438
459.643	4198
459.659	4005
459.711	3651
459.740	3848
459.780	4048
459.820	4057
459.849	4164
459.900	4391
459.917	4361
459.981	4268
459.986	4250
460.054	4246
460.061	4270
460.123	4821
460.141	5094
460.191	5605
460.222	5469
460.260	5504
460.302	6055
460.328	5908
460.382	5690
460.397	5989
460.462	6715
460.465	6948
460.534	13026
460.543	13849
460.602	35845
460.623	44169
460.671	69005
460.703	89719
460.739	76302
460.783	53974
460.808	43787
460.864	11128
460.876	9131
460.944	5977
460.945	5940
461.013	5608
461.024	5401
461.081	4848
461.104	5088
461.150	5256
461.184	5240
461.218	5304
461.264	5203
461.286	5204
461.345	5240
461.355	5199
461.423	4728
461.425	4716
461.491	4649
461.505	4778
461.559	6251
461.585	6915
461.628	9253
461.665	11363
461.696	11771
461.745	13307
461.764	12080
461.825	5928
461.832	5902
461.901	5774
461.905	5831
461.969	5130
461.985	4861
462.037	5444
462.065	5800
462.105	5364
462.145	5243
462.173	6281
462.225	7863
462.241	8272
462.305	10211
462.310	10007
462.378	6640
462.385	6161
462.446	5184
462.465	5146
462.514	5601
462.545	5831
462.582	5486
462.625	4991
462.650	4996
462.705	5210
462.718	5295
462.785	5841
462.786	5853
462.854	6109
462.865	6162
462.922	7177
462.945	7633
462.990	6624
463.025	5625
463.058	5518
463.104	5387
463.126	5268
463.184	4930
463.194	4974
463.262	5369
463.264	5380
463.330	5775
463.344	5819
463.398	6493
463.424	6836
463.466	6146
463.504	5700
463.533	5939
463.583	6224
463.601	6260
463.663	5950
463.669	5938
463.737	6250
463.743	6275
463.805	8477
463.823	8995
463.873	11830
463.903	13892
463.940	14555
463.982	14954
464.008	12813
464.062	7905
464.076	7738
464.142	7018
464.144	6999
464.211	6138
464.221	6034
464.279	6506
464.301	6622
464.347	6965
464.381	7176
464.414	7243
464.461	7439
464.482	7333
464.540	7065
464.550	7079
464.617	6835
464.620	6826
464.685	8263
464.699	8538
464.753	11278
464.779	12622
464.820	13901
464.859	15148
464.888	14026
464.938	11913
464.956	12157
465.018	12863
465.023	12789
465.091	11552
465.098	11433
465.158	11279
465.177	11184
465.226	10959
465.257	10754
465.293	10881
465.336	10985
465.361	11037
465.416	11100
465.428	11435
465.495	13160
465.496	13211
465.563	17579
465.575	18319
465.631	20476
465.654	21406
465.698	16188
465.734	11557
465.765	11480
465.813	11330
465.833	10983
465.893	10135
465.900	10183
465.968	10313
465.972	10305
466.035	10506
466.052	10543
466.102	10294
466.131	10138
466.170	9827
466.210	9402
466.237	9830
466.290	10694
466.304	10755
466.369	10816
466.372	10827
466.439	10577
466.449	10526
466.506	10998
466.528	11115
466.573	12958
466.607	14325
466.641	17861
466.687	22722
466.708	24177
466.766	28119
466.775	26514
466.842	13973
466.845	13350
466.909	11535
466.925	11093
466.977	11220
467.004	11281
467.044	12358
467.083	13376
467.111	15095
467.163	18259
467.178	18694
467.242	20295
467.245	20220
467.312	17816
467.321	17460
467.379	16516
467.400	16127
467.446	16700
467.480	17055
467.559	16373
467.638	15382
467.717	14335
467.796	16312
467.875	15967
467.955	16520
468.034	18613
468.113	29685
468.192	38383
468.271	19631
468.350	21627
468.429	25422
468.508	27128
468.588	20297
468.667	15824
468.746	14862
468.825	15339
468.904	14083
468.983	14020
469.062	16578
469.141	18101
469.220	14305
469.299	14520
469.378	15934
469.456	21089
469.535	18205
469.614	17156
469.693	17215
469.772	18284
469.851	19622
469.930	17776
470.009	15650
470.088	15399
470.166	15691
470.245	17226
470.324	17490
470.403	16635
470.482	14072
470.560	14381
470.639	14193
470.718	15345
470.797	14225
470.875	14837
470.954	16033
471.033	17787
471.111	12673
471.190	13303
471.269	13467
471.347	13171
471.426	12706
471.505	15326
471.583	17434
471.662	16050
471.740	14152
471.819	15692
471.898	14651
471.976	14987
472.055	14691
472.133	15815
472.212	18130
472.290	15906
472.369	13566
472.447	14098
472.526	12770
472.604	13945
472.683	13826
472.761	12423
472.839	12566
472.918	12711
472.996	13670
473.075	13185
473.153	13445
473.231	12062
473.310	13409
473.388	13175
473.466	13670
473.545	14545
473.623	16403
473.701	15454
473.780	14053
473.858	12589
473.936	14731
474.014	13546
474.093	14893
474.171	16531
474.249	17574
474.327	14048
474.405	12262
474.484	12208
474.562	12547
474.640	12892
474.718	11855
474.796	12566
474.874	11918
474.952	10603
475.030	10984
475.108	11395
475.187	11264
475.265	12035
475.343	13550
475.421	14107
475.499	12666
475.577	12351
475.655	13893
475.733	17492
475.811	23458
475.889	21193
475.966	16702
476.044	11604
476.122	12275
476.200	12581
476.278	10873
476.356	11443
476.434	11661
476.512	11636
476.590	12646
476.667	12327
476.745	10870
476.823	12004
476.901	11485
476.979	11284
477.056	11221
477.134	11646
477.212	11983
477.290	11854
477.367	10090
477.445	11059
477.523	10667
477.601	10927
477.678	10410
477.756	12127
477.834	11224
477.911	9860
477.989	10757
478.066	10235
478.144	10802
478.222	11046
478.299	12175
478.377	12907
478.454	11378
478.532	10505
478.609	10050
478.687	10869
478.764	8929
478.842	10832
478.919	9949
478.997	10046
479.074	9758
479.152	10499
479.229	11673
479.307	9688
479.384	10489
479.461	9565
479.539	9433
479.616	10397
479.694	8690
479.771	10012
479.848	8948
479.926	9602
480.003	12484
480.080	9962
480.157	9488
480.235	9281
480.312	9641
480.389	10274
480.467	10364
480.544	12747
480.621	10008
480.698	10712
480.775	10550
480.853	10101
480.930	9565
481.007	10987
481.084	12654
481.161	16819
481.238	12853
481.315	9469
481.392	9477
481.470	9664
481.547	9693
481.624	9357
481.701	8830
481.778	9835
481.855	10222
481.932	11812
482.009	15955
482.086	13189
482.163	9457
482.240	12299
482.317	13410
482.393	11331
482.470	9089
482.547	10636
482.624	9447
482.701	10334
482.778	9775
482.855	8929
482.932	9292
483.009	8552
483.085	11724
483.162	14244
483.239	13916
483.316	10611
483.393	11086
483.469	9637
483.546	10425
483.623	9743
483.699	9262
483.776	8524
483.853	9881
483.930	12875
484.006	21517
484.083	35213
484.160	36024
484.236	60581
484.313	43876
484.389	34086
484.466	30449
484.543	30717
484.619	31808
484.696	34212
484.772	30837
484.849	30211
484.925	27552
485.002	27326
485.078	26786
485.155	26902
485.231	25406
485.308	25454
485.384	25457
485.461	26428
485.537	31778
485.614	33244
485.690	25031
485.766	23025
485.843	23469
485.919	25515
485.995	24037
486.072	22563
486.148	22542
486.224	21806
486.301	22726
486.377	23422
486.453	23118
486.530	26508
486.606	35248
486.682	37398
486.758	34731
486.835	35071
486.911	30396
486.987	37109
487.063	34247
487.139	37185
487.215	37336
487.292	31000
487.368	28735
487.444	31774
487.520	36491
487.596	42699
487.672	73668
487.748	192205
487.824	273983
487.900	86360
487.976	36795
488.052	28161
488.128	27278
488.204	24549
488.280	23812
488.356	24697
488.432	32401
488.508	37502
488.584	22800
488.660	20553
488.736	20986
488.812	21036
488.888	23813
488.964	26048
489.039	30450
489.115	36191
489.191	27523
489.267	21031
489.343	20592
489.418	19141
489.494	18424
489.570	16759
489.646	19636
489.722	18557
489.797	19680
489.873	22759
489.949	30405
490.024	26910
490.100	17180
490.176	17917
490.251	18163
490.327	19495
490.403	15662
490.478	16471
490.554	15054
490.629	17227
490.705	14768
490.781	16561
490.856	14711
490.932	16806
491.007	15729
491.083	16335
491.158	14477
491.234	18724
491.309	23707
491.385	23460
491.460	13779
491.536	16574
491.611	14104
491.686	13705
491.762	15633
491.837	17751
491.913	26041
491.988	30372
492.063	34479
492.139	18283
492.214	16179
492.289	13566
492.365	11749
492.440	14824
492.515	12466
492.590	13999
492.666	11500
492.741	14933
492.816	16933
492.891	12080
492.967	13810
493.042	11478
493.117	13549
493.192	14246
493.267	20298
493.342	50995
493.418	62575
493.493	16094
493.568	10980
493.643	11798
493.718	12880
493.793	13355
493.868	15199
493.943	11844
494.018	11790
494.093	10608
494.168	11552
494.243	10717
494.318	10282
494.393	10984
494.468	10572
494.543	10417
494.618	10337
494.693	10228
494.768	9655
494.842	10747
494.917	9468
494.992	11103
495.067	9371
495.142	10383
495.217	10931
495.292	10234
495.366	11160
495.441	10822
495.516	13979
495.591	14029
495.665	26883
495.740	49708
495.815	22998
495.890	11606
495.964	9360
496.039	13957
496.114	12203
496.188	18988
496.263	15541
496.338	11023
496.412	11780
496.487	12539
496.561	11672
496.636	12839
496.710	11488
496.785	12890
496.860	11486
496.934	9358
497.009	10241
497.083	11068
497.158	10901
497.232	12248
497.307	12383
497.381	11372
497.455	11823
497.530	14634
497.604	10656
497.679	11118
497.753	14581
497.827	15271
497.902	12872
497.976	17971
498.050	41380
498.125	146221
498.199	132095
498.273	17620
498.348	11409
498.422	12487
498.496	12197
498.570	11347
498.645	9999
498.719	10159
498.793	11829
498.867	16028
498.941	22377
499.016	62714
499.090	152187
499.164	48764
499.238	11898
499.312	10116
499.386	13097
499.460	11352
499.534	10320
499.609	13537
499.683	15479
499.757	15076
499.831	30490
499.905	103581
499.979	86876
500.053	16737
500.127	15687
500.201	12149
500.275	10936
500.349	10429
500.422	10976
500.496	13328
500.570	22286
500.644	57170
500.718	100057
500.792	22894
500.866	10414
500.940	12508
501.013	10891
501.087	9995
501.161	13832
501.235	15775
501.309	35287
501.382	89821
501.456	71173
501.530	18873
501.603	29948
501.677	13900
501.751	7832
501.825	10930
501.898	15993
501.972	36691
502.046	22735
502.119	9733
502.193	18683
502.266	37613
502.340	19415
502.413	19807
502.487	32656
502.561	19150
502.634	9435
502.708	8854
502.781	7226
502.855	8323
502.928	6774
503.002	8264
503.075	7044
503.149	8213
503.222	7731
503.295	8460
503.369	9607
503.442	11827
503.516	28923
503.589	62624
503.662	40893
503.736	18105
503.809	34062
503.882	30309
503.956	47806
504.029	55683
504.102	99347
504.175	138056
504.249	46674
504.322	19939
504.395	14904
504.468	10313
504.542	9196
504.615	7607
504.688	8559
504.761	5546
504.834	8613
504.907	8083
504.980	9800
505.053	7391
505.127	6403
505.200	11574
505.273	8984
505.346	6957
505.419	6134
505.492	7151
505.565	4993
505.638	5912
505.711	6366
505.784	4683
505.857	5517
505.930	8007
506.003	5102
506.076	8320
506.149	7225
506.221	6942
506.294	8450
506.367	16615
506.440	48238
506.513	24521
506.586	9396
506.659	6455
506.731	6194
506.804	6369
506.877	6981
506.950	7551
507.022	6858
507.095	5810
507.168	7210
507.241	6865
507.313	5233
507.386	4943
507.459	6355
507.531	5386
507.604	4627
507.677	6056
507.749	4580
507.822	7763
507.894	15496
507.967	21375
508.040	13468
508.112	11816
508.185	11271
508.257	8622
508.330	11923
508.402	9242
508.475	10130
508.547	10384
508.620	10655
508.692	12316
508.765	10121
508.837	8034
508.909	8431
508.982	9632
509.054	9810
509.127	8766
509.199	8938
509.271	7842
509.344	8182
509.416	8753
509.488	8794
509.560	9338
509.633	9059
509.705	8773
509.777	8768
509.849	11179
509.922	9557
509.994	9850
510.066	10552
510.138	11044
510.210	23757
510.283	19957
510.355	14355
510.427	13654
510.499	12383
510.571	11964
510.643	12260
510.715	14106
510.787	11836
510.859	12631
510.931	12592
511.003	13774
511.076	13648
511.148	10475
511.219	11926
511.291	15294
511.363	14802
511.435	10805
511.507	9752
511.579	12009
511.651	11325
511.723	10738
511.795	9931
511.867	10474
511.939	11635
512.010	12752
512.082	13274
512.154	8420
512.226	9922
512.298	17738
512.369	20772
512.441	16240
512.513	15892
512.585	13143
512.656	13137
512.728	12284
512.800	12104
512.871	12221
512.943	12575
513.015	10064
513.086	11216
513.158	11624
513.230	11268
513.301	11543
513.373	12634
513.444	11012
513.516	10875
513.588	10542
513.659	10940
513.731	11310
513.802	9274
513.874	14855
513.945	16404
514.016	10387
514.088	9998
514.159	10294
514.231	12987
514.302	18607
514.374	15395
514.445	13245
514.516	19901
514.588	14285
514.659	12773
514.730	16560
514.802	13740
514.873	10582
514.944	12848
515.016	12069
515.087	11304
515.158	12855
515.229	16058
515.301	9506
515.372	11064
515.443	10352
515.514	10592
515.585	8776
515.656	11569
515.728	10701
515.799	10212
515.870	10650
515.941	10705
516.012	10973
516.083	16020
516.154	14645
516.225	14458
516.296	14814
516.367	12949
516.438	13102
516.509	14596
516.580	18882
516.651	46420
516.722	128250
516.793	53067
516.864	18401
516.935	16793
517.006	19369
517.077	22858
517.148	47337
517.219	163409
517.289	226432
517.360	68128
517.431	25918
517.502	12948
517.573	14120
517.643	14964
517.714	15859
517.785	15963
517.856	14849
517.926	18508
517.997	17535
518.068	18706
518.138	24182
518.209	34100
518.280	115209
518.350	375657
518.421	124926
518.492	25689
518.562	22919
518.633	25155
518.703	31539
518.774	69832
518.845	176235
518.915	153867
518.986	43270
519.056	23822
519.127	23425
519.197	29294
519.268	54796
519.338	35827
519.408	15390
519.479	14359
519.549	11429
519.620	12437
519.690	10189
519.760	9979
519.831	9616
519.901	10295
519.971	9865
520.042	9190
520.112	10043
520.182	11667
520.253	11929
520.323	10013
520.393	11641
520.463	14924
520.534	8867
520.604	18249
520.674	12793
520.744	11536
520.814	16931
520.885	16442
520.955	23201
521.025	63957
521.095	24529
521.165	11011
521.235	9183
521.305	9446
521.375	9050
521.445	10414
521.515	8529
521.585	11264
521.655	8245
521.725	10206
521.795	10524
521.865	7354
521.935	12485
522.005	9385
522.075	7575
522.145	9822
522.215	9048
522.285	10987
522.355	12303
522.424	18101
522.494	15090
522.564	10548
522.634	14506
522.704	29120
522.774	12857
522.843	9047
522.913	9088
522.983	8879
523.053	7626
523.122	8986
523.192	9158
523.262	15687
523.331	13633
523.401	8715
523.471	7952
523.540	8753
523.610	7082
523.680	8597
523.749	8562
523.819	10038
523.888	9774
523.958	7771
524.027	7894
524.097	8255
524.166	8074
524.236	7350
524.305	8900
524.375	7229
524.444	7017
524.514	9390
524.583	7554
524.653	8174
524.722	9706
524.791	7251
524.861	8532
524.930	7517
524.999	8118
525.069	9290
525.138	8564
525.207	9387
525.277	9558
525.346	9046
525.415	8978
525.484	10085
525.554	10817
525.623	13079
525.692	16208
525.761	15708
525.830	17484
525.900	20959
525.969	31350
526.038	57710
526.107	125022
526.176	347399
526.245	250955
526.314	75969
526.383	176599
526.452	225579
526.522	365336
526.591	301582
526.660	49544
526.729	31029
526.797	36573
526.867	61488
526.935	208638
527.004	602869
527.073	319586
527.142	36525
527.211	17828
527.280	14277
527.349	12352
527.418	8575
527.487	9667
527.555	8156
527.624	7948
527.693	6591
527.762	9258
527.831	6475
527.899	7539
527.968	6668
528.037	5432
528.106	7605
528.174	9870
528.243	9023
528.312	10402
528.380	9748
528.449	6508
528.518	7280
528.586	4953
528.655	8251
528.723	7026
528.792	6955
528.861	5714
528.929	5655
528.998	8065
529.066	9496
529.135	13614
529.203	12442
529.272	15639
529.340	19753
529.409	18393
529.477	16134
529.545	16630
529.614	20548
529.682	20757
529.751	22699
529.819	25374
529.887	26534
529.956	22842
530.024	23990
530.092	19558
530.161	21159
530.229	21907
530.297	23684
530.365	22728
530.434	25039
530.502	24167
530.570	22036
530.638	18522
530.707	19435
530.775	19940
530.843	18837
530.911	21654
530.979	20521
531.047	24118
531.115	23099
531.183	19946
531.252	20417
531.320	18433
531.388	18889
531.456	22678
531.524	20738
531.592	24227
531.660	27231
531.728	22816
531.796	22970
531.864	23822
531.932	22250
532.000	22976
532.067	24958
532.135	26126
532.203	27356
532.271	28177
532.339	30747
532.407	32432
532.475	29199
532.542	26694
532.610	27499
532.678	28814
532.746	47301
532.814	73189
532.881	35257
532.949	27316
533.017	24707
533.084	24927
533.152	24199
533.220	23049
533.287	22385
533.355	24476
533.423	24780
533.490	25647
533.558	24122
533.625	24615
533.693	23534
533.761	22928
533.828	22735
533.896	22221
533.963	28728
534.031	29434
534.098	30723
534.166	26738
534.233	24263
534.300	25899
534.368	25625
534.435	23522
534.503	24008
534.570	26085
534.637	25477
534.705	27375
534.772	30656
534.840	45868
534.907	167827
534.974	180253
535.041	30564
535.109	21924
535.176	19333
535.243	20705
535.310	19152
535.378	19360
535.445	18878
535.512	18096
535.579	18178
535.646	16851
535.714	17837
535.781	21193
535.848	19967
535.915	22146
535.982	22177
536.049	20519
536.116	19433
536.183	17486
536.250	16837
536.317	16242
536.384	16762
536.451	18062
536.518	17684
536.585	16036
536.652	19760
536.719	19104
536.786	16520
536.853	16098
536.920	17701
536.987	18751
537.053	17876
537.120	38000
537.187	34321
537.254	16400
537.321	15904
537.388	16952
537.454	15028
537.521	14727
537.588	14269
537.654	16726
537.721	17714
537.788	17746
537.855	14824
537.921	15774
537.988	15540
538.055	16067
538.121	12928
538.188	13747
538.254	13980
538.321	16917
538.388	14729
538.454	15436
538.521	15086
538.587	14500
538.654	14262
538.720	14819
538.787	15116
538.853	13814
538.920	14556
538.986	13444
539.053	13257
539.119	13335
539.185	13003
539.252	14994
539.318	15330
539.385	17431
539.451	15764
539.517	16614
539.583	16162
539.650	18806
539.716	27993
539.782	16060
539.849	12418
539.915	13927
539.981	12825
540.047	13506
540.114	13106
540.180	15108
540.246	13010
540.312	15405
540.378	16233
540.444	17875
540.510	20233
540.576	31322
540.643	16513
540.709	12316
540.775	13771
540.841	13483
540.907	14572
540.973	18187
541.039	16093
541.105	15523
541.171	14109
541.237	13025
541.303	14500
541.369	15737
541.435	15879
541.500	15615
541.566	12407
541.632	12618
541.698	12670
541.764	14520
541.830	13309
541.896	11768
541.961	13094
542.027	12522
542.093	13740
542.159	15100
542.224	12741
542.290	16645
542.356	16030
542.421	15507
542.487	15288
542.553	13202
542.618	14302
542.684	12287
542.750	12619
542.815	14251
542.881	15280
542.947	28740
543.012	22786
543.078	13160
543.143	12593
543.209	13668
543.274	12493
543.340	14261
543.405	18742
543.471	20140
543.536	13218
543.602	14109
543.667	12543
543.732	14256
543.798	12312
543.863	13897
543.928	12799
543.994	12171
544.059	13323
544.124	13676
544.190	13831
544.255	14900
544.320	14773
544.386	13972
544.451	15577
544.516	14845
544.581	15419
544.646	23797
544.712	28741
544.777	16431
544.842	15294
544.907	14578
544.972	15121
545.037	14912
545.102	16113
545.168	16319
545.233	16175
545.298	17003
545.363	16853
545.428	18066
545.493	20482
545.558	26020
545.623	18978
545.688	16614
545.753	17671
545.818	17114
545.883	17959
545.947	18827
546.012	20363
546.077	19627
546.142	20814
546.207	19817
546.272	23081
546.337	21872
546.401	22456
546.466	23631
546.531	23229
546.596	25319
546.661	26247
546.725	26839
546.790	26722
546.855	30536
546.919	30889
546.984	35380
547.049	36180
547.113	42365
547.178	45755
547.243	52131
547.307	60371
547.372	65461
547.436	66061
547.501	67779
547.565	72923
547.630	65591
547.695	65260
547.759	65041
547.823	66177
547.888	66875
547.952	68331
548.017	72512
548.081	76842
548.146	74109
548.210	75297
548.274	79496
548.339	77894
548.403	70133
548.468	67012
548.532	66115
548.596	67977
548.660	69574
548.725	74898
548.789	80801
548.853	78872
548.917	75357
548.982	74902
549.046	66703
549.110	59551
549.174	63707
549.238	73716
549.303	79746
549.367	80818
549.431	76232
549.495	72263
549.559	72903
549.623	86433
549.687	92255
549.751	92915
549.815	107231
549.879	107798
549.943	104620
550.007	108992
550.071	107717
550.135	97341
550.199	94705
550.263	93314
550.327	88388
550.391	92755
550.455	100506
550.519	103994
550.582	111828
550.646	126287
550.710	126784
550.774	125511
550.838	124621
550.901	127811
550.965	136638
551.029	141109
551.093	148841
551.156	160114
551.220	177069
551.284	192041
551.347	153714
551.411	145325
551.475	142344
551.538	138513
551.602	128808
551.666	123585
551.729	116902
551.793	116026
551.856	114033
551.920	113642
551.983	112998
552.047	111979
552.110	113657
552.174	114117
552.237	115901
552.301	108061
552.364	103804
552.428	102158
552.491	105339
552.554	107956
552.618	106725
552.681	109020
552.745	103883
552.808	110008
552.871	117040
552.934	111751
552.998	108430
553.061	106711
553.124	103736
553.187	103724
553.251	107905
553.314	109478
553.377	109047
553.440	121104
553.503	156158
553.567	171113
553.630	122303
553.693	118368
553.756	118672
553.819	116659
553.882	113575
553.945	115762
554.008	114790
554.071	116475
554.134	118224
554.197	111219
554.260	111773
554.323	114420
554.386	114269
554.449	115903
554.512	115312
554.575	111590
554.638	111027
554.701	109392
554.764	110086
554.827	107347
554.889	102735
554.952	99030
555.015	96772
555.078	97386
555.141	99238
555.203	97628
555.266	98070
555.329	95878
555.391	92918
555.454	91508
555.517	87749
555.580	83399
555.642	81911
555.705	80806
555.768	80225
555.830	79084
555.893	74801
555.955	72271
556.018	71013
556.080	71192
556.143	72923
556.206	70340
556.268	68992
556.330	67410
556.393	66470
556.455	63939
556.518	64085
556.580	61990
556.643	58959
556.705	59608
556.767	57413
556.830	57164
556.892	55444
556.955	55571
557.017	53662
557.079	53191
557.142	51081
557.204	51191
557.266	52442
557.328	48912
557.391	44996
557.453	43695
557.515	44477
557.577	44673
557.639	42967
557.701	42395
557.764	42267
557.826	43273
557.888	44368
557.950	45548
558.012	48263
558.074	59455
558.136	117508
558.198	237245
558.260	85895
558.322	44770
558.384	44561
558.446	47945
558.508	50379
558.570	56379
558.632	64170
558.694	84315
558.756	134506
558.818	363189
558.880	725820
558.942	258345
559.003	247523
559.065	114524
559.127	53601
559.189	53370
559.251	60200
559.312	85437
559.374	193823
559.436	534747
559.498	240839
559.559	56960
559.621	52057
559.683	60718
559.744	100895
559.806	290298
559.868	378198
559.929	79664
559.991	57416
560.052	89336
560.114	231636
560.176	137211
560.237	136076
560.299	196543
560.360	45559
560.422	25350
560.483	23927
560.545	21673
560.606	22321
560.667	20678
560.729	20784
560.790	19537
560.852	18867
560.913	18685
560.974	18787
561.036	18311
561.097	18404
561.158	17809
561.220	19191
561.281	17203
561.342	16985
561.403	18818
561.465	18357
561.526	22175
561.587	23941
561.648	17267
561.709	16637
561.771	16952
561.832	15713
561.893	16634
561.954	15806
562.015	15709
562.076	14696
562.137	15566
562.198	14684
562.259	15391
562.320	14917
562.381	15458
562.442	16880
562.503	15302
562.564	14089
562.625	14973
562.686	14765
562.747	15017
562.808	14833
562.869	13792
562.930	14700
562.991	13606
563.051	14827
563.112	14389
563.173	14001
563.234	13175
563.294	13293
563.355	13102
563.416	14193
563.477	13448
563.537	12904
563.598	12903
563.659	13938
563.720	12792
563.780	12458
563.841	12817
563.901	13224
563.962	12799
564.023	13090
564.083	11966
564.144	12895
564.204	12725
564.265	12830
564.325	13651
564.386	16392
564.446	15157
564.507	11974
564.567	12624
564.628	12731
564.688	12453
564.749	12363
564.809	13441
564.869	13401
564.930	11466
564.990	12767
565.050	11332
565.111	12520
565.171	12195
565.231	12309
565.292	13481
565.352	11604
565.412	11250
565.472	11571
565.532	11667
565.593	11751
565.653	11700
565.713	12286
565.773	11969
565.833	12378
565.893	12876
565.953	10933
566.013	12235
566.074	12054
566.134	12336
566.194	13541
566.254	14145
566.314	12935
566.374	11545
566.434	11503
566.494	11742
566.554	11088
566.614	12289
566.673	12518
566.733	12093
566.793	11743
566.853	11423
566.913	11766
566.973	12273
567.033	12476
567.092	11576
567.152	11237
567.212	11966
567.272	12451
567.331	12059
567.391	12445
567.451	12305
567.511	13715
567.570	13051
567.630	12618
567.690	11866
567.749	11563
567.809	12297
567.868	11902
567.928	12182
567.988	12023
568.047	12509
568.107	11993
568.166	11917
568.226	12626
568.285	12100
568.345	12554
568.404	12086
568.464	12155
568.523	11092
568.582	12214
568.642	11954
568.701	11604
568.761	12150
568.820	12967
568.879	13148
568.939	13396
568.998	12883
569.057	11493
569.116	11917
569.176	11961
569.235	11141
569.294	11177
569.353	11465
569.413	11464
569.472	10696
569.531	10718
569.590	10269
569.649	10544
569.708	10766
569.767	12032
569.827	11852
569.886	11231
569.945	10933
570.004	10999
570.063	10826
570.122	11494
570.181	10726
570.240	11801
570.299	12174
570.358	11704
570.417	11293
570.475	10603
570.534	11802
570.593	11295
570.652	12058
570.711	11968
570.770	11401
570.829	10494
570.887	11405
570.946	12399
571.005	10508
571.064	11432
571.122	11092
571.181	11486
571.240	10449
571.299	10236
571.357	11281
571.416	11404
571.475	12133
571.533	11552
571.592	11890
571.650	12069
571.709	11558
571.768	13026
571.826	12400
571.885	12955
571.943	11803
572.002	10649
572.060	11070
572.119	10485
572.177	11207
572.236	10847
572.294	10628
572.352	11426
572.411	10879
572.469	11557
572.528	11087
572.586	10039
572.644	10837
572.703	11474
572.761	9877
572.819	9884
572.877	9336
572.936	10467
572.994	10194
573.052	10735
573.110	10761
573.169	10556
573.227	10293
573.285	10498
573.343	10443
573.401	9939
573.459	10090
573.517	9742
573.576	9897
573.634	10794
573.692	10572
573.750	10196
573.808	9237
573.866	9551
573.924	10758
573.982	10892
574.040	9396
574.098	9738
574.155	9526
574.213	10205
574.271	9764
574.329	9874
574.387	8192
574.445	9111
574.503	8816
574.560	8202
574.618	8339
574.676	8361
574.734	8962
574.792	9076
574.849	8772
574.907	8169
574.965	8314
575.022	7992
575.080	7761
575.138	8338
575.195	9062
575.253	7874
575.311	7957
575.368	7593
575.426	7442
575.483	7940
575.541	8310
575.598	7829
575.656	8625
575.713	7518
575.771	8044
575.828	8177
575.886	7760
575.943	8168
576.001	7822
576.058	7540
576.115	8539
576.173	8844
576.230	8792
576.287	8823
576.345	9504
576.402	7375
576.459	7990
576.517	7402
576.574	8573
576.631	8286
576.688	7994
576.746	8092
576.803	7193
576.860	6874
576.917	8173
576.974	7819
577.031	7393
577.089	8457
577.146	7486
577.203	7749
577.260	8203
577.317	8031
577.374	8569
577.431	7961
577.488	7518
577.545	7673
577.602	8344
577.659	7576
577.716	7551
577.773	9139
577.830	8052
577.886	8303
577.943	8054
578.000	8822
578.057	7477
578.114	8475
578.171	10165
578.227	12953
578.284	11685
578.341	10761
578.398	9361
578.454	8613
578.511	8564
578.568	8976
578.625	7990
578.681	8451
578.738	7989
578.794	7025
578.851	8309
578.908	7641
578.964	8126
579.021	8332
579.077	8140
579.134	7759
579.190	7571
579.247	7277
579.303	7858
579.360	6422
579.416	7527
579.473	6797
579.529	7448
579.586	7451
579.642	7854
579.698	8387
579.755	8149
579.811	7950
579.867	9523
579.924	8164
579.980	8361
580.036	10482
580.093	12474
580.149	16569
580.205	18061
580.261	12536
580.317	10603
580.374	9986
580.430	10477
580.486	9972
580.542	8831
580.598	9302
580.619	9360
580.654	9470
580.692	9420
580.710	9416
580.765	8339
580.767	8314
580.823	9167
580.838	9151
580.879	9158
580.911	9079
580.935	9048
580.984	8541
580.991	8482
581.047	9943
581.057	9754
581.103	8986
581.130	10142
581.159	11355
581.203	11831
581.215	11982
581.270	10732
581.276	10620
581.326	9629
581.349	9711
581.382	9870
581.422	10277
581.438	10455
581.494	9859
581.494	9850
581.550	9805
581.567	9797
581.606	9835
581.640	9322
581.661	8998
581.713	10418
581.717	10542
581.773	9588
581.786	9652
581.829	9855
581.859	9833
581.885	9889
581.932	10007
581.940	10030
581.996	11143
582.004	10929
582.052	9692
582.077	9477
582.107	9304
582.150	9538
582.163	9606
582.219	10061
582.223	10098
582.274	10593
582.296	10526
582.330	10443
582.368	10432
582.386	10465
582.441	10386
582.441	10390
582.497	10336
582.514	10315
582.552	10423
582.587	10850
582.608	11035
582.659	10100
582.663	10037
582.719	11297
582.732	11283
582.774	11304
582.805	11213
582.830	11138
582.877	11617
582.885	11682
582.941	13119
582.950	13183
582.996	13600
583.023	14560
583.052	15776
583.095	15865
583.107	15818
583.162	16713
583.168	16628
583.218	15653
583.240	14699
583.273	13435
583.313	12690
583.328	12451
583.384	11759
583.385	11739
583.439	10737
583.458	10535
583.494	10427
583.531	10830
583.549	11019
583.603	9507
583.605	9455
583.660	9930
583.676	9933
583.715	10011
583.748	10062
583.770	10088
583.820	9849
583.825	9843
583.881	10293
583.893	10149
583.936	9346
583.965	9493
583.991	9732
584.038	10247
584.046	10314
584.101	9808
584.110	9921
584.156	10609
584.183	10525
584.211	10224
584.255	10070
584.266	10099
584.321	10170
584.328	10202
584.376	10382
584.400	10610
584.431	10944
584.472	10720
584.486	10572
584.541	10639
584.545	10678
584.596	11213
584.617	11116
584.651	11372
584.689	11510
584.706	11332
584.761	12401
584.762	12396
584.816	11281
584.834	11433
584.871	11831
584.906	12011
584.926	12103
584.978	12649
584.980	12643
585.035	13297
585.051	13210
585.090	13737
585.123	14740
585.145	15074
585.195	14846
585.200	14887
585.254	15721
585.267	16544
585.309	19325
585.340	21127
585.364	22333
585.412	23405
585.419	23615
585.473	29259
585.484	30698
585.528	38359
585.556	47282
585.583	61413
585.628	96521
585.637	108338
585.692	219436
585.700	238058
585.747	312064
585.772	259823
585.801	158440
585.845	58558
585.856	44849
585.910	24480
585.917	22705
585.965	18565
585.989	17171
586.019	16290
586.061	15000
586.074	14606
586.128	14399
586.133	14335
586.183	13553
586.205	13357
586.237	13046
586.277	12758
586.292	12719
586.346	12596
586.349	12606
586.401	12435
586.421	12302
586.455	12403
586.493	13276
586.509	13610
586.564	13804
586.565	13871
586.618	17209
586.637	17465
586.672	16547
586.709	15450
586.727	15093
586.781	15770
586.781	15755
586.835	12754
586.853	12278
586.889	11519
586.925	10697
586.944	10320
586.996	10494
586.998	10498
587.052	10425
587.068	10565
587.106	10831
587.140	10482
587.161	10283
587.212	10481
587.215	10493
587.269	11204
587.284	11277
587.323	10889
587.356	10969
587.377	11073
587.427	10711
587.431	10705
587.485	11103
587.499	11203
587.539	11214
587.571	11354
587.593	11428
587.643	11829
587.648	11834
587.702	11408
587.715	11522
587.755	12388
587.786	12837
587.810	12702
587.858	11781
587.864	11737
587.917	12245
587.930	12426
587.971	12945
588.001	13169
588.025	13187
588.073	13059
588.079	13075
588.133	13821
588.145	14068
588.187	14411
588.217	14188
588.241	14264
588.288	15111
588.295	15192
588.348	16285
588.360	16457
588.402	17145
588.431	17892
588.456	18656
588.503	19846
588.510	19992
588.564	22369
588.575	22983
588.617	25422
588.646	27154
588.671	28692
588.718	33247
588.725	34409
588.778	46603
588.789	50018
588.832	76072
588.861	98906
588.886	140602
588.932	237586
588.939	247513
588.993	308728
589.004	304743
589.047	169791
589.075	93383
589.100	65770
589.147	35123
589.154	33869
589.207	28609
589.218	27825
589.261	27909
589.290	28945
589.314	29943
589.361	33401
589.368	34845
589.421	49653
589.433	53931
589.475	95139
589.504	130810
589.528	173624
589.576	262697
589.582	256578
589.635	137176
589.647	114217
589.689	56986
589.718	27495
589.742	23824
589.790	18700
589.795	18467
589.849	17282
589.861	17182
589.902	17008
589.932	16457
589.955	15251
590.004	12970
590.009	12946
590.062	13558
590.075	13632
590.115	12504
590.146	11981
590.168	12047
590.218	11731
590.222	11669
590.275	11666
590.289	11660
590.328	12408
590.360	12973
590.381	12600
590.431	11923
590.435	11921
590.488	12297
590.503	12417
590.541	12351
590.574	12442
590.594	12406
590.645	12427
590.647	12393
590.700	12099
590.716	12056
590.753	12374
590.787	12768
590.806	12606
590.859	12217
590.859	12197
590.912	13107
590.930	13412
590.965	13257
591.001	13249
591.018	13074
591.071	12535
591.072	12563
591.124	12634
591.143	12695
591.177	12737
591.214	13003
591.230	13067
591.283	13266
591.285	13305
591.336	13023
591.356	12919
591.389	13125
591.427	13434
591.442	13069
591.495	11880
591.498	11826
591.547	12169
591.569	12445
591.600	12758
591.640	13080
591.653	13030
591.706	13123
591.711	13165
591.759	13817
591.782	14187
591.811	14239
591.853	14448
591.864	14441
591.917	14510
591.924	14555
591.969	14546
591.995	14636
592.022	14139
592.066	13432
592.075	13536
592.127	14455
592.137	14671
592.180	15504
592.208	16116
592.233	15583
592.279	14672
592.285	14651
592.338	14878
592.350	14974
592.390	14485
592.421	14202
592.443	14715
592.491	15990
592.495	15874
592.548	14896
592.562	14680
592.600	14232
592.633	13954
592.653	13976
592.704	14115
592.705	14186
592.775	13785
592.846	15661
592.916	15588
592.987	15810
593.058	16341
593.128	15585
593.199	14834
593.270	15891
593.341	15913
593.411	16714
593.482	15817
593.553	17006
593.623	16672
593.694	17585
593.764	18587
593.835	18200
593.906	18506
593.976	19526
594.047	18965
594.117	20101
594.188	20712
594.258	19462
594.329	19914
594.399	20506
594.470	20357
594.540	21151
594.611	22361
594.681	21095
594.751	20753
594.822	23260
594.892	22731
594.963	23264
595.033	24855
595.103	24827
595.174	25387
595.244	28090
595.314	29378
595.384	26660
595.455	27324
595.525	28563
595.595	29078
595.665	29645
595.736	28319
595.806	28881
595.876	29812
595.946	29684
596.016	30798
596.087	31827
596.157	33630
596.227	32262
596.297	34347
596.367	36813
596.437	38835
596.507	40007
596.577	40490
596.647	39588
596.717	40030
596.787	41135
596.857	40526
596.927	40523
596.997	42157
597.067	42121
597.137	44333
597.207	44159
597.277	44155
597.347	41859
597.417	40464
597.487	42197
597.557	43876
597.626	43585
597.696	44503
597.766	44894
597.836	43617
597.906	40463
597.975	38714
598.045	40220
598.115	41054
598.185	43759
598.254	48846
598.324	53207
598.394	52715
598.464	51453
598.533	51313
598.603	49091
598.672	47499
598.742	49734
598.812	49657
598.881	51260
598.951	49960
599.020	49696
599.090	52840
599.159	53869
599.229	51865
599.299	50656
599.368	52355
599.437	52600
599.507	48663
599.576	47899
599.646	48384
599.715	47471
599.785	46759
599.854	46139
599.924	46803
599.993	46293
600.062	48405
600.132	49472
600.201	51019
600.270	57739
600.340	60357
600.409	59455
600.478	59749
600.547	60627
600.617	56787
600.686	48597
600.755	45886
600.824	45088
600.894	44695
600.963	45891
601.032	44832
601.101	44614
601.170	45251
601.239	43446
601.308	44051
601.378	44751
601.447	45129
601.516	46658
601.585	47181
601.654	47161
601.723	48281
601.792	49534
601.861	51176
601.930	54672
601.999	56169
602.068	53970
602.137	54239
602.206	55414
602.275	56276
602.343	56681
602.412	57979
602.481	57283
602.550	57605
602.619	58985
602.688	58437
602.756	59252
602.825	61218
602.894	61726
602.963	61298
603.032	62497
603.100	61881
603.169	60320
603.238	63510
603.307	61049
603.375	62258
603.444	63657
603.513	60988
603.581	63542
603.650	66530
603.719	59583
603.787	58677
603.856	60566
603.924	60820
603.993	63329
604.061	64931
604.130	66626
604.198	67641
604.267	69325
604.335	70094
604.404	71519
604.472	73049
604.541	73273
604.609	75016
604.678	75308
604.746	76568
604.815	79896
604.883	78411
604.951	76139
605.020	78730
605.088	76408
605.156	74484
605.225	76509
605.293	75584
605.361	76462
605.429	75388
605.498	76604
605.566	78508
605.634	82900
605.702	82679
605.771	85094
605.839	86391
605.907	83192
605.975	83203
606.043	80991
606.111	78828
606.180	81583
606.248	78550
606.316	77410
606.384	78550
606.452	73525
606.520	69453
606.588	71537
606.656	70474
606.724	68947
606.792	65103
606.860	58960
606.928	55412
606.996	52758
607.064	51469
607.132	53666
607.200	56242
607.267	57844
607.335	58278
607.403	60719
607.471	57308
607.539	56872
607.607	56459
607.674	52016
607.742	50730
607.810	50864
607.878	50512
607.946	51281
608.013	53468
608.081	55411
608.149	55484
608.216	57960
608.284	59363
608.352	57316
608.419	57454
608.487	57763
608.555	54694
608.622	56724
608.690	60475
608.757	65989
608.825	67491
608.893	64797
608.960	62415
609.028	60504
609.095	59641
609.163	58840
609.230	52141
609.298	48169
609.365	50815
609.432	54479
609.500	59993
609.567	66847
609.635	76254
609.702	81620
609.769	77951
609.837	62400
609.904	52913
609.971	56436
610.039	65687
610.106	90506
610.173	173547
610.241	401979
610.308	254450
610.375	98376
610.442	63663
610.509	56609
610.577	55405
610.644	55877
610.711	57252
610.778	59126
610.845	61572
610.912	65482
610.980	67997
611.047	69408
611.114	68004
611.181	63513
611.248	63205
611.315	68170
611.382	69000
611.449	71165
611.516	72620
611.583	71311
611.650	72412
611.717	73172
611.784	75391
611.851	79857
611.918	85991
611.984	102191
612.051	147850
612.118	296504
612.185	680100
612.252	455955
612.319	132182
612.386	99340
612.452	88192
612.519	84604
612.586	82595
612.653	82016
612.719	85682
612.786	79874
612.853	76064
612.919	72432
612.986	74389
613.053	68659
613.120	65982
613.186	63556
613.253	65539
613.319	64195
613.386	65114
613.453	65282
613.519	67294
613.586	64259
613.652	68350
613.719	66189
613.785	67705
613.852	66726
613.918	65374
613.985	67434
614.051	73338
614.118	81454
614.184	76821
614.250	67493
614.317	68029
614.383	66154
614.449	66496
614.516	67407
614.582	68095
614.648	66383
614.715	65517
614.781	63621
614.847	63207
614.914	64319
614.980	61818
615.046	62403
615.112	63929
615.179	63911
615.245	65183
615.311	64256
615.377	65200
615.443	66187
615.509	67227
615.575	70378
615.642	68356
615.708	71251
615.774	75016
615.840	80859
615.906	89476
615.972	110122
616.038	170046
616.104	350149
616.170	766201
616.236	665120
616.302	196279
616.368	138330
616.434	98230
616.500	88632
616.565	99099
616.631	127373
616.697	102311
616.763	104959
616.829	162802
616.895	295956
616.961	283282
617.026	117074
617.092	77090
617.158	70254
617.224	67359
617.289	62527
617.355	59782
617.421	57370
617.487	59464
617.552	55903
617.618	55346
617.684	54214
617.749	56301
617.815	52579
617.880	51769
617.946	51297
618.012	53586
618.077	52925
618.143	52358
618.208	52530
618.274	55320
618.339	56249
618.405	46602
618.470	47274
618.536	46667
618.601	46936
618.667	43276
618.732	40931
618.798	40785
618.863	41415
618.928	39390
618.994	41077
619.059	40541
619.124	42256
619.190	40987
619.255	40533
619.320	40328
619.386	40660
619.451	40480
619.516	38800
619.581	40018
619.647	40804
619.712	40664
619.777	39723
619.842	38645
619.907	40124
619.972	40309
620.038	39238
620.103	38377
620.168	38526
620.233	39304
620.298	39343
620.363	40222
620.428	41660
620.493	41049
620.558	42700
620.623	43263
620.688	43064
620.753	42251
620.818	42777
620.883	42876
620.948	42840
621.013	42637
621.078	42238
621.143	41889
621.207	44875
621.272	43712
621.337	41042
621.402	42253
621.467	42219
621.532	42514
621.596	42565
621.661	40211
621.726	40232
621.791	39907
621.855	40134
621.920	40779
621.985	40546
622.049	43170
622.114	41457
622.179	42596
622.243	42042
622.308	43933
622.373	47433
622.437	44529
622.502	41380
622.566	42458
622.631	40398
622.695	42979
622.760	42703
622.824	43335
622.889	42569
622.953	41811
623.018	46004
623.082	46093
623.147	44654
623.211	43935
623.276	42981
623.340	41670
623.404	41719
623.469	41147
623.533	41100
623.597	39301
623.662	40166
623.726	37205
623.790	35813
623.854	34794
623.919	35039
623.983	34898
624.047	35613
624.111	36502
624.176	37285
624.240	35964
624.304	39212
624.368	37141
624.432	37177
624.496	38247
624.560	40079
624.625	38944
624.689	39772
624.753	40681
624.817	40352
624.881	36785
624.945	34754
625.009	33533
625.073	35291
625.137	34726
625.201	37130
625.265	37967
625.329	34322
625.393	35594
625.456	35841
625.520	37026
625.584	37081
625.648	39884
625.712	42822
625.776	49933
625.839	51711
625.903	35170
625.967	30008
626.031	35734
626.095	43475
626.158	34491
626.222	26338
626.286	25962
626.349	24655
626.413	22586
626.477	23734
626.540	23149
626.604	22685
626.668	22951
626.731	22538
626.795	22265
626.858	22584
626.922	20999
626.986	22499
627.049	20238
627.113	23884
627.176	23581
627.240	21915
627.303	22167
627.366	20683
627.430	21526
627.493	21223
627.557	19792
627.620	22356
627.684	22632
627.747	22300
627.810	19729
627.874	19076
627.937	17097
628.000	19861
628.064	17772
628.127	14857
628.190	16223
628.253	15967
628.317	15480
628.380	15190
628.443	14635
628.506	14535
628.569	14287
628.632	12509
628.696	13456
628.759	12758
628.822	12492
628.885	12102
628.948	12682
629.011	12550
629.074	12006
629.137	11008
629.200	10440
629.263	12586
629.326	10238
629.389	10608
629.452	11835
629.515	11034
629.578	10367
629.641	11725
629.704	10920
629.767	10849
629.830	10735
629.892	10535
629.955	10414
630.018	12556
630.081	9416
630.144	11787
630.207	10124
630.269	11662
630.332	9089
630.395	9914
630.458	9641
630.520	8684
630.583	10201
630.646	10006
630.708	9329
630.771	10246
630.834	10890
630.896	10606
630.959	10044
631.021	9474
631.084	8817
631.146	10676
631.209	10653
631.272	9753
631.334	10660
631.397	10545
631.459	10136
631.522	11115
631.584	11659
631.646	13388
631.709	13525
631.771	13808
631.834	13054
631.896	12257
631.958	10540
632.021	11271
632.083	8858
632.145	9913
632.208	8793
632.270	10087
632.332	8719
632.395	9202
632.457	9778
632.519	8874
632.581	10034
632.643	8834
632.706	10155
632.768	7998
632.830	9140
632.892	9637
632.954	9189
633.016	10010
633.078	8449
633.141	9775
633.203	8249
633.265	8710
633.327	8911
633.389	7985
633.451	9884
633.513	9507
633.575	10111
633.637	9393
633.698	9447
633.760	10113
633.822	11424
633.884	10803
633.946	11365
634.008	10218
634.070	12816
634.132	14114
634.193	14001
634.255	15822
634.317	15662
634.379	15416
634.441	13459
634.502	12002
634.564	12002
634.626	9653
634.687	9749
634.749	10204
634.811	9435
634.873	8558
634.934	8735
634.996	9099
635.057	7799
635.119	8208
635.181	9414
635.242	10082
635.304	7429
635.365	11528
635.427	8754
635.488	9445
635.550	8644
635.611	10162
635.673	8447
635.734	11585
635.796	10252
635.857	12476
635.918	13057
635.980	15022
636.041	15260
636.102	17100
636.164	17343
636.225	17705
636.286	12444
636.348	12440
636.409	10898
636.470	9779
636.531	9344
636.593	8961
636.654	9328
636.715	8168
636.776	7503
636.838	7580
636.899	8287
636.960	7938
637.021	7277
637.082	7297
637.143	7759
637.204	6899
637.265	7187
637.326	8484
637.387	8073
637.448	5941
637.509	7770
637.570	7403
637.631	7175
637.692	5669
637.753	5652
637.814	7335
637.875	6579
637.936	7447
637.997	6362
638.058	7446
638.119	7645
638.179	6634
638.240	6022
638.301	7213
638.362	5816
638.423	6608
638.483	7080
638.544	5542
638.605	6909
638.666	5153
638.726	6095
638.787	7040
638.848	6963
638.908	5972
638.969	5343
639.030	5649
639.090	5598
639.151	4980
639.211	6933
639.272	6157
639.332	7922
639.393	6569
639.453	6051
639.514	7436
639.574	6493
639.635	5374
639.695	7007
639.756	4030
639.816	6258
639.877	6288
639.937	7444
639.997	7489
640.058	5088
640.118	4865
640.178	6575
640.239	5671
640.299	5730
640.359	5802
640.420	7179
640.480	6781
640.540	8355
640.600	7303
640.661	7717
640.721	6084
640.781	9279
640.841	6366
640.901	6587
640.961	6685
641.021	6800
641.082	6797
641.142	5493
641.202	6703
641.262	4119
641.322	5607
641.382	4639
641.442	5923
641.502	5181
641.562	6081
641.622	4458
641.682	5993
641.742	6815
641.802	6371
641.861	5684
641.921	4888
641.981	5437
642.041	5247
642.101	4491
642.161	3865
642.221	4014
642.280	4314
642.340	5255
642.400	4040
642.460	6461
642.519	5187
642.579	5049
642.639	6340
642.698	2513
642.758	7118
642.818	5275
642.877	4332
642.937	5916
642.997	6270
643.056	5905
643.116	4295
643.175	6824
643.235	5203
643.294	5151
643.354	6719
643.414	7254
643.473	9130
643.532	10544
643.592	15059
643.651	26773
643.711	46022
643.770	92192
643.830	218212
643.889	443310
643.948	122719
644.008	22905
644.067	12887
644.126	9536
644.186	7765
644.245	8171
644.304	5187
644.363	7816
644.423	4733
644.482	5177
644.541	6962
644.600	4307
644.659	8925
644.719	11138
644.778	17435
644.837	31796
644.896	66441
644.955	156492
645.014	52716
645.073	11008
645.132	6703
645.191	7437
645.250	6219
645.309	8060
645.368	7677
645.427	10944
645.486	18614
645.545	33775
645.604	10517
645.663	6608
645.722	6352
645.781	7625
645.840	7578
645.898	10137
645.957	16106
646.016	22927
646.075	44158
646.134	86630
646.192	230611
646.251	340058
646.310	57708
646.369	16538
646.427	12525
646.486	8608
646.545	6703
646.603	6966
646.662	6268
646.721	4716
646.779	5672
646.838	5027
646.896	8131
646.955	10785
647.014	18673
647.072	36243
647.131	102888
647.189	50162
647.248	7229
647.306	5932
647.365	5091
647.423	3149
647.481	5978
647.540	2827
647.598	3332
647.657	3896
647.715	4107
647.773	2805
647.832	3763
647.890	2254
647.948	2478
648.007	3592
648.065	3018
648.123	2518
648.181	4021
648.240	4400
648.298	2764
648.356	2327
648.414	3305
648.472	3468
648.531	3488
648.589	3563
648.647	3529
648.705	3371
648.763	3554
648.821	3163
648.879	2997
648.937	3973
648.995	6268
649.053	6404
649.111	12367
649.169	20862
649.227	37941
649.285	79578
649.343	227944
649.401	113125
649.459	16513
649.516	9231
649.574	6760
649.632	11413
649.690	13853
649.748	10621
649.806	14183
649.863	28289
649.921	71021
649.979	49520
650.037	7115
650.094	2925
650.152	3710
650.210	2496
650.268	4305
650.325	3594
650.383	4756
650.440	1515
650.498	3491
650.556	2160
650.613	2460
650.671	2651
650.728	2621
650.786	2318
650.843	3563
650.901	2535
650.958	2212
651.016	2302
651.073	2340
651.131	1575
651.188	888
651.246	2020
651.303	924
651.360	2257
651.418	1494
651.475	2074
651.532	812
651.590	2569
651.647	952
651.704	1577
651.762	1189
651.819	1753
651.876	1073
651.933	1801
651.990	2919
652.048	533
652.105	1126
652.162	1511
652.219	598
652.276	1488
652.333	2067
652.390	202
652.448	2122
652.505	1913
652.562	2227
652.619	796
652.676	2964
652.733	3221
652.790	1181
652.847	808
652.904	2224
652.961	178
653.017	906
653.074	1456
653.131	1474
653.188	477
653.245	1496
653.302	891
653.359	1187
653.415	1283
653.472	677
653.529	2301
653.586	442
653.642	155
653.699	1978
653.756	277
653.813	947
653.869	2023
653.926	1177
653.983	373
654.039	2409
654.096	807
654.152	2087
654.209	-74
654.266	1204
654.322	-61
654.379	978
654.435	2410
654.492	994
654.548	1180
654.605	2006
654.661	1550
654.717	984
654.774	1231
654.830	1106
654.887	995
654.943	1535
655.000	2218
655.056	2090
655.112	1732
655.168	584
655.225	905
655.281	2006
655.337	1277
655.394	1772
655.450	2076
655.506	2417
655.562	1817
655.618	2398
655.675	183
655.731	1433
655.787	899
655.843	2456
655.899	881
655.955	1656
656.011	2000
656.067	1081
656.123	1824
656.179	2950
656.235	3870
656.291	1533
656.347	3110
656.403	1278
656.459	2480
656.515	1788
656.571	1348
656.627	1579
656.683	677
656.739	1498
656.795	1696
656.850	1030
656.906	2305
656.962	1970
657.018	1204
657.074	1201
657.129	2369
657.185	4053
657.241	8779
657.297	5562
657.352	2157
657.408	1048
657.464	1338
657.519	1003
657.575	377
657.630	634
657.686	200
657.742	222
657.797	379
657.853	119
657.908	1364
657.964	114
658.019	1428
658.075	1245
658.130	1150
658.186	-130
658.241	1111
658.297	-22
658.352	832
658.407	729
658.463	455
658.518	1285
658.573	363
658.629	-147
658.684	1083
658.739	842
658.795	228
658.850	976
658.905	268
658.960	1479
659.016	614
659.071	-119
659.126	505
659.181	421
659.236	2954
659.291	2055
659.346	377
659.401	1118
659.457	1723
659.512	952
659.567	2061
659.622	724
659.677	1252
659.732	-381
659.787	459
659.842	884
659.897	1155
659.952	1385
660.007	626
660.061	615
660.116	71
660.171	379
660.226	643
660.281	1575
660.336	-113
660.391	1335
660.445	504
660.500	1228
660.555	65
660.610	676
660.664	1169
660.719	329
660.774	622
660.828	-107
660.883	1019
660.938	1796
660.992	-536
661.047	1212
661.101	171
661.156	796
661.211	471
661.265	112
661.320	-215
661.374	1169
661.429	1033
661.483	1230
661.538	135
661.592	942
661.647	404
661.701	1937
661.755	1187
661.810	624
661.864	-724
661.919	536
661.973	719
662.027	604
662.081	377
662.136	792
662.190	538
662.244	1191
662.299	292
662.353	936
662.407	242
662.461	-211
662.515	960
662.569	-166
662.624	744
662.678	261
662.732	325
662.786	-219
662.840	429
662.894	690
662.948	510
663.002	536
663.056	512
663.110	239
663.164	506
663.218	552
663.272	522
663.326	961
663.380	211
663.434	218
663.488	299
663.542	794
663.595	376
663.649	1185
663.703	725
663.757	226
663.811	160
663.864	1101
663.918	1414
663.972	377
664.026	85
664.079	21
664.133	1330
664.187	189
664.240	711
664.294	943
664.348	709
664.401	682
664.455	676
664.508	1185
664.562	232
664.615	862
664.669	307
664.722	829
664.776	-315
664.829	742
664.883	1000
664.936	400
664.990	-10
665.043	422
665.097	-221
665.150	1559
665.203	395
665.257	73
665.310	222
665.363	492
665.417	843
665.470	421
665.523	483
665.576	819
665.630	832
665.683	994
665.736	447
665.789	212
665.842	179
665.895	891
665.949	294
666.002	25
666.055	556
666.108	1349
666.161	13
666.214	906
666.267	696
666.320	927
666.373	848
666.426	674
666.479	-246
666.532	791
666.585	1091
666.638	1019
666.691	502
666.744	1130
666.796	240
666.849	597
666.902	1149
666.955	788
667.008	-144
667.060	428
667.113	-3
667.166	772
667.219	444
667.271	793
667.324	767
667.377	1554
667.430	654
667.482	1052
667.535	955
667.587	1150
667.640	854
667.693	1093
667.745	1310
667.798	1273
667.850	680
667.903	393
667.955	96
668.008	759
668.060	1234
668.113	566
668.165	758
668.218	571
668.270	614
668.322	934
668.375	395
668.427	834
668.479	1168
668.532	762
668.584	962
668.636	561
668.689	470
668.741	734
668.793	933
668.845	610
668.898	971
668.950	1013
669.002	764
669.054	131
669.106	442
669.158	891
669.211	46
669.263	428
669.315	1530
669.367	1435
669.419	-191
669.471	1232
669.523	1191
669.575	2704
669.627	853
669.679	1189
669.731	507
669.783	1597
669.835	1371
669.886	818
669.938	1539
669.990	338
670.042	586
670.094	1200
670.146	1303
670.197	884
670.249	2376
670.301	2035
670.353	3518
670.404	5008
670.456	7760
670.508	12745
670.560	21272
670.611	35900
670.663	61897
670.715	139541
670.766	224176
670.818	88472
670.869	17798
670.921	8462
670.972	6201
671.024	2747
671.075	3211
671.127	2533
671.178	2259
671.230	1873
671.281	1728
671.333	1702
671.384	1725
671.436	3228
671.487	4065
671.538	5598
671.590	8538
671.641	14983
671.692	26323
671.744	52842
671.795	37213
671.846	10593
671.897	4501
671.949	4289
672.000	1964
672.051	1696
672.102	1304
672.153	785
672.204	1046
672.256	1866
672.307	1335
672.358	836
672.409	702
672.460	695
672.511	325
672.562	204
672.613	328
672.664	507
672.715	313
672.766	744
672.817	578
672.868	640
672.919	1309
672.970	338
673.021	492
673.071	82
673.122	818
673.173	61
673.224	-88
673.275	635
673.326	99
673.376	696
673.427	-641
673.478	26
673.528	365
673.579	16
673.630	-336
673.680	1472
673.731	622
673.782	-236
673.832	764
673.883	960
673.934	10
673.984	349
674.035	804
674.085	628
674.136	423
674.186	743
674.237	-149
674.287	681
674.338	413
674.388	203
674.438	211
674.489	388
674.539	953
674.589	333
674.640	798
674.690	635
674.740	63
674.791	657
674.841	627
674.891	208
674.942	313
674.992	358
675.042	253
675.092	-143
675.142	-81
675.193	-100
675.243	-103
675.293	173
675.343	106
675.393	62
675.443	285
675.493	764
675.543	-53
675.593	469
675.643	383
675.693	480
675.743	65
675.793	374
675.843	-413
675.893	-619
675.943	-59
675.993	727
676.043	45
676.093	259
676.142	46
676.192	26
676.242	156
676.292	-217
676.341	-435
676.391	-126
676.441	-607
676.491	-309
676.540	-441
676.590	492
676.640	-278
676.689	146
676.739	-242
676.789	-323
676.838	-533
676.888	383
676.937	102
676.987	6
677.037	-124
677.086	-784
677.136	-397
677.185	-818
677.235	-200
677.284	279
677.333	-1134
677.383	-111
677.432	-516
677.482	-568
677.531	255
677.580	-426
677.630	-176
677.679	25
677.728	112
677.778	129
677.827	-489
677.876	585
677.925	520
677.975	213
678.024	376
678.073	351
678.122	178
678.171	42
678.220	334
678.269	302
678.319	511
678.368	-68
678.417	391
678.466	479
678.515	76
678.564	-22
678.613	-437
678.662	-154
678.711	45
678.760	-310
678.809	-123
678.857	85
678.906	145
678.955	-819
679.004	-188
679.053	178
679.102	448
679.151	-93
679.199	-212
679.248	134
679.297	-160
679.346	-948
679.394	-842
679.443	-790
679.492	28
679.540	-282
679.589	309
679.638	41
679.686	137
679.735	166
679.784	-176
679.832	1181
679.881	-114
679.929	194
679.978	-204
680.026	296
680.075	340
680.123	59
680.172	-886
680.220	-249
680.268	-369
680.317	-370
680.365	-300
680.414	-728
680.462	-253
680.510	-132
680.559	-9
680.607	-330
680.655	-210
680.703	-381
680.752	-482
680.800	-319
680.848	214
680.896	-450
680.945	-539
680.993	-542
681.041	-708
681.089	64
681.137	-433
681.185	63
681.233	-595
681.258	-404
681.281	-245
681.329	364
681.377	-666
681.380	-598
681.425	272
681.473	1017
681.502	354
681.521	-151
681.569	330
681.617	771
681.624	760
681.665	552
681.713	134
681.745	187
681.761	174
681.809	-599
681.857	690
681.867	659
681.904	496
681.952	621
681.989	623
682.000	591
682.048	491
682.096	273
682.111	239
682.143	101
682.191	317
682.233	971
682.239	1047
682.286	835
682.334	228
682.354	596
682.382	1050
682.430	1320
682.476	937
682.477	910
682.525	340
682.572	394
682.598	762
682.620	1060
682.667	995
682.715	699
682.720	685
682.763	301
682.810	1441
682.841	1379
682.857	1352
682.905	461
682.952	1715
682.963	1747
683.000	1743
683.047	694
683.085	1637
683.095	1874
683.142	1192
683.190	1101
683.206	1175
683.237	1228
683.284	1264
683.328	1048
683.332	1018
683.379	1722
683.426	1435
683.449	1458
683.473	1451
683.521	1576
683.568	1645
683.571	1626
683.615	1156
683.662	1972
683.693	1956
683.709	1912
683.757	2006
683.804	2042
683.814	2013
683.851	1841
683.898	1908
683.936	2067
683.945	2103
683.992	1830
684.039	2038
684.057	1971
684.086	1825
684.133	2208
684.179	2005
684.180	1982
684.227	2510
684.274	2688
684.300	2738
684.321	2815
684.368	1695
684.415	2064
684.422	2160
684.462	2628
684.509	1920
684.543	2260
684.556	2347
684.603	2880
684.649	3182
684.665	3058
684.696	2831
684.743	2416
684.786	3168
684.790	3220
684.837	2869
684.883	3423
684.908	3240
684.930	2992
684.977	2745
685.023	2348
685.029	2368
685.070	2546
685.117	3086
685.150	3118
685.164	3135
685.210	2653
685.257	3911
685.272	3864
685.303	3592
685.350	3334
685.393	3080
685.396	3067
685.443	3657
685.490	3342
685.514	3483
685.536	3545
685.583	3579
685.629	3444
685.636	3492
685.675	3709
685.722	4115
685.757	3745
685.768	3638
685.815	3350
685.861	4300
685.878	4127
685.908	3755
685.954	3861
686.000	4612
686.000	4622
686.047	3841
686.093	4796
686.121	5005
686.139	5046
686.185	4310
686.232	4182
686.242	4060
686.278	3623
686.324	3934
686.363	3953
686.370	3970
686.416	4062
686.463	4222
686.484	4348
686.509	4476
686.555	4109
686.601	4779
686.606	4811
686.647	4913
686.693	4238
686.727	4094
686.739	4102
686.785	4423
686.831	4427
686.848	4329
686.877	4027
686.923	4236
686.969	4765
686.969	4768
687.015	4753
687.061	5122
687.090	5539
687.107	5640
687.153	5197
687.199	4781
687.211	4697
687.245	4607
687.291	4892
687.332	4797
687.336	4793
687.382	4636
687.428	5175
687.453	5413
687.474	5554
687.520	5527
687.565	5411
687.574	5290
687.611	5044
687.657	6065
687.695	6211
687.702	6318
687.748	7366
687.794	8534
687.816	8557
687.839	7822
687.885	7283
687.931	6225
687.937	6147
687.976	6136
688.022	5608
688.058	5837
688.067	5953
688.113	5315
688.158	5436
688.179	5513
688.204	5623
688.249	5713
688.295	5769
688.300	5723
688.340	5438
688.386	6015
688.421	5765
688.431	5699
688.477	6109
688.522	6101
688.542	6324
688.567	6623
688.613	6251
688.658	6279
688.663	6306
688.703	6488
688.749	6389
688.784	6591
688.794	6666
688.839	6174
688.884	6136
688.905	6360
688.930	6580
688.975	6165
689.020	5938
689.026	5934
689.065	6142
689.110	6378
689.146	6457
689.155	6500
689.201	6885
689.246	6998
689.267	7171
689.291	7195
689.336	6838
689.381	6386
689.388	6409
689.426	6649
689.471	6894
689.509	6608
689.516	6586
689.561	6916
689.606	6470
689.630	6560
689.651	6668
689.696	6382
689.741	7048
689.750	7030
689.785	7023
689.830	7018
689.871	6994
689.875	6982
689.920	7305
689.965	6559
689.992	6550
690.010	6648
690.054	6720
690.099	6750
690.112	6785
690.144	6954
690.189	7327
690.233	7135
690.233	7144
690.278	7166
690.323	7096
690.354	7046
690.367	7140
690.412	7217
690.457	7473
690.474	7380
690.501	7131
690.546	7662
690.590	7678
690.595	7640
690.635	7804
690.680	7887
690.716	8374
690.724	8560
690.769	9370
690.813	10404
690.836	10564
690.857	11655
690.902	14262
690.946	17045
690.957	17744
690.991	23498
691.035	31151
691.077	38712
691.080	38714
691.124	35887
691.168	33299
691.198	31410
691.213	29009
691.257	22346
691.301	15745
691.318	12998
691.346	12108
691.390	11234
691.434	9821
691.439	9623
691.478	8964
691.522	8974
691.559	8842
691.567	8888
691.611	8849
691.655	8593
691.680	8608
691.699	8621
691.743	8208
691.787	8179
691.800	8144
691.831	8343
691.875	8791
691.919	8801
691.921	8790
691.964	8614
692.008	8619
692.041	8109
692.052	8054
692.096	8181
692.139	8459
692.162	8465
692.183	8401
692.227	8269
692.271	8233
692.282	8280
692.315	8614
692.359	8330
692.402	8313
692.403	8330
692.447	8239
692.490	8142
692.523	8211
692.534	8314
692.578	8266
692.622	8167
692.643	8307
692.666	8409
692.709	8205
692.753	8162
692.763	8117
692.797	8140
692.840	8335
692.884	8152
692.884	8172
692.928	8687
692.971	8617
693.004	8790
693.015	8814
693.059	9022
693.102	8981
693.124	8948
693.146	9188
693.189	9407
693.233	10022
693.245	10102
693.276	10136
693.320	10284
693.363	10219
693.365	10197
693.407	10850
693.450	11505
693.485	12222
693.493	12720
693.537	14835
693.580	17047
693.605	18289
693.624	20731
693.667	26603
693.710	32427
693.725	34474
693.753	45858
693.797	63841
693.840	81990
693.845	83875
693.883	77629
693.926	70305
693.966	63792
693.970	62428
694.013	47139
694.056	31742
694.086	21188
694.099	20337
694.142	17575
694.185	14568
694.206	13104
694.229	12735
694.272	12308
694.315	11605
694.326	11387
694.358	11295
694.401	11275
694.444	11039
694.446	11006
694.487	10658
694.530	10424
694.566	10028
694.573	10019
694.616	9765
694.659	9735
694.686	9494
694.702	9504
694.745	9700
694.787	9711
694.806	9758
694.830	9636
694.873	9551
694.916	9146
694.926	9003
694.959	8953
695.002	9196
695.044	9278
695.046	9254
695.087	9174
695.130	9133
695.166	9050
695.172	9137
695.215	9702
695.258	10166
695.286	10444
695.301	10366
695.343	10085
695.386	9801
695.406	9556
695.428	9628
695.471	9893
695.514	10238
695.526	10243
695.556	10465
695.599	11123
695.641	11223
695.646	11250
695.684	11093
695.726	10747
695.766	10373
695.769	10387
695.811	10202
695.854	9992
695.886	9929
695.896	10090
695.938	10441
695.981	10756
696.005	11028
696.023	11327
696.065	11811
696.108	12442
696.125	12612
696.150	12601
696.192	12614
696.235	12632
696.245	12594
696.277	12646
696.319	12650
696.361	12706
696.365	12681
696.404	12571
696.446	12268
696.485	11936
696.488	11964
696.530	11899
696.572	12011
696.604	12016
696.614	12045
696.656	12045
696.698	11999
696.724	11937
696.740	12067
696.783	12150
696.825	12497
696.844	12604
696.867	12615
696.909	12483
696.951	12331
696.964	12301
696.992	12388
697.034	12204
697.076	12257
697.083	12215
697.118	12486
697.160	12772
697.202	13070
697.203	13041
697.244	12514
697.286	11982
697.323	11373
697.327	11433
697.369	11809
697.411	12113
697.442	12313
697.453	12309
697.494	12175
697.536	12015
697.562	11880
697.578	11988
697.620	12194
697.661	12369
697.682	12428
697.703	12597
697.744	12848
697.786	13175
697.801	13212
697.828	13278
697.869	13377
697.911	13502
697.921	13492
697.952	13390
697.994	13177
698.035	12962
698.040	12909
698.077	12906
698.118	12750
698.160	12609
698.160	12572
698.201	12780
698.243	12884
698.279	13061
698.284	13142
698.325	13487
698.367	13825
698.399	14049
698.408	13996
698.449	13601
698.491	13176
698.518	12845
698.532	13161
698.573	14064
698.614	14912
698.638	15375
698.656	15301
698.697	15025
698.738	14741
698.757	14574
698.779	14544
698.820	14381
698.862	14240
698.877	14144
698.903	14375
698.944	14691
698.985	14996
698.996	15041
699.026	14925
699.067	14707
699.116	14407
699.235	14290
699.354	14033
699.474	13237
699.593	13386
699.713	14179
699.832	13669
699.951	14862
700.070	14064
700.190	13008
700.309	13400
700.428	12765
700.547	12347
700.667	12144
700.786	12647
700.905	12413
701.024	13608
701.143	12125
701.262	12359
701.381	12685
701.500	13211
701.619	12214
701.738	13174
701.857	12706
701.976	11871
702.095	11996
702.214	13994
702.333	12468
702.452	12690
702.571	12290
702.690	12841
702.809	11549
702.928	11758
703.047	11369
703.165	12337
703.284	12650
703.403	11464
703.522	11634
703.640	11634
703.759	11976
703.878	12338
703.997	11229
704.115	12258
704.234	11487
704.353	11729
704.471	10481
704.590	10709
704.708	10806
704.827	10578
704.946	10467
705.064	10764
705.183	11188
705.301	10803
705.420	12255
705.538	12634
705.656	11122
705.775	11060
705.893	16706
706.012	21135
706.130	11195
706.249	12512
706.367	11010
706.485	12188
706.604	10589
706.722	11814
706.840	13553
706.958	20112
707.077	14215
707.195	10644
707.313	10517
707.431	10597
707.549	9728
707.668	9860
707.786	9950
707.904	9352
708.022	10281
708.140	9824
708.258	9641
708.376	10537
708.494	9266
708.612	10313
708.730	12785
708.848	11848
708.966	10009
709.084	11065
709.202	10681
709.320	10396
709.438	9805
709.556	10133
709.674	9735
709.791	11045
709.909	9691
710.027	9908
710.145	10490
710.263	9815
710.380	9785
710.498	8658
710.616	10055
710.733	10244
710.851	8615
710.969	10472
711.086	9838
711.204	9670
711.322	9410
711.439	9090
711.557	9732
711.674	9298
711.792	9269
711.909	10735
712.027	9630
712.144	9240
712.262	9305
712.379	9286
712.497	10912
712.614	11079
712.732	10261
712.849	9086
712.966	8993
713.084	11202
713.201	9364
713.318	10783
713.436	10437
713.553	10697
713.670	10350
713.787	10593
713.905	10948
714.022	10456
714.139	10978
714.256	13762
714.373	17461
714.490	29637
714.608	74750
714.725	307053
714.842	319688
714.959	31958
715.076	15288
715.193	12254
715.310	11419
715.427	10224
715.544	10250
715.661	10807
715.778	9244
715.895	9898
716.011	9527
716.128	8607
716.245	9229
716.362	9074
716.479	9265
716.596	8206
716.713	9327
716.829	9060
716.946	8055
717.063	8437
717.180	7918
717.296	8764
717.413	7715
717.530	8040
717.646	7431
717.763	7508
717.880	7683
717.996	7692
718.113	7508
718.229	7638
718.346	6490
718.462	7668
718.579	8086
718.695	9347
718.812	8311
718.928	9211
719.045	8240
719.161	7719
719.277	7665
719.394	8085
719.510	7253
719.626	7478
719.743	9760
719.859	14611
719.975	26228
720.092	104868
720.208	248901
720.324	32603
720.440	9965
720.557	8863
720.673	10170
720.789	10619
720.905	17036
721.021	8976
721.137	6934
721.253	7037
721.369	6993
721.486	7411
721.602	8087
721.718	6844
721.834	6188
721.950	6275
722.066	5588
722.181	6573
722.297	6495
722.413	5882
722.529	6630
722.645	7106
722.761	6448
722.877	6631
722.993	6611
723.108	8692
723.224	6745
723.340	5354
723.456	5319
723.571	6516
723.687	5109
723.803	5975
723.918	5171
724.034	5463
724.150	5460
724.265	6015
724.381	8013
724.497	8724
724.612	5850
724.728	5207
724.843	5160
724.959	5614
725.074	7375
725.190	9709
725.305	6252
725.421	5471
725.536	5185
725.651	6418
725.767	5178
725.882	5921
725.997	5559
726.113	4981
726.228	5425
726.343	5270
726.459	5497
726.574	5512
726.689	4215
726.804	4386
726.920	5234
727.035	5752
727.150	5171
727.265	4486
727.380	5608
727.495	4760
727.610	4744
727.725	4521
727.841	5774
727.956	9004
728.071	7418
728.186	5072
728.301	4243
728.416	5190
728.531	4455
728.645	4477
728.760	4302
728.875	5001
728.990	4898
729.105	4877
729.220	5091
729.335	5187
729.449	5168
729.564	4825
729.679	4427
729.794	4274
729.908	5204
730.023	4331
730.138	4648
730.253	4989
730.367	3830
730.482	4402
730.596	5573
730.711	5620
730.826	6847
730.940	7660
731.055	5667
731.169	4932
731.284	4928
731.398	5290
731.513	5391
731.627	6081
731.742	6564
731.856	7985
731.970	6891
732.085	9534
732.199	12614
732.313	21736
732.428	58403
732.542	178260
732.656	106696
732.771	19869
732.885	10351
732.999	8862
733.113	10094
733.227	8858
733.342	7453
733.456	7121
733.570	7423
733.684	8335
733.798	6338
733.912	7409
734.026	6995
734.140	6481
734.254	6666
734.368	8356
734.482	8680
734.596	6566
734.710	6525
734.824	7151
734.938	5949
735.052	6800
735.166	6390
735.280	7660
735.393	6303
735.507	6904
735.621	6497
735.735	8375
735.849	6351
735.962	6629
736.076	6251
736.190	6338
736.303	6275
736.417	7062
736.531	5626
736.644	5777
736.758	5215
736.872	6485
736.985	5795
737.099	5420
737.212	5339
737.326	5907
737.439	5467
737.553	5849
737.666	5359
737.780	4917
737.893	6097
738.007	6394
738.120	4499
738.233	5176
738.347	5355
738.460	5778
738.573	5662
738.687	5169
738.800	5616
738.913	5309
739.026	5370
739.140	6154
739.253	5257
739.366	5471
739.479	4812
739.592	4475
739.705	4616
739.818	5550
739.932	4639
740.045	5302
740.158	5586
740.271	5404
740.384	4436
740.497	5045
740.610	5032
740.723	5121
740.836	5395
740.949	6385
741.062	5766
741.174	5240
741.287	4306
741.400	6039
741.513	5295
741.626	5250
741.739	4818
741.851	5181
741.964	4778
742.077	4610
742.189	4455
742.302	6294
742.415	4778
742.527	5042
742.640	4834
742.753	4503
742.865	4384
742.978	4523
743.090	4218
743.203	5061
743.316	4510
743.428	4181
743.541	4351
743.653	3841
743.766	4653
743.878	4729
743.990	5085
744.103	6208
744.215	6871
744.327	4838
744.440	5134
744.552	6138
744.664	4464
744.777	4720
744.889	3930
745.001	5409
745.113	4484
745.226	4165
745.338	4218
745.450	4417
745.562	4287
745.674	4389
745.786	3419
745.898	4509
746.010	3244
746.122	4785
746.234	3964
746.347	4278
746.459	4076
746.570	4433
746.682	5620
746.794	7833
746.906	4764
747.018	5069
747.130	4804
747.242	3742
747.354	4364
747.466	4529
747.577	3696
747.689	4171
747.801	3995
747.913	3033
748.024	4074
748.136	4339
748.248	3606
748.359	3952
748.471	4383
748.583	4460
748.694	3333
748.806	5372
748.918	3179
749.029	3839
749.141	4068
749.252	4347
749.364	2939
749.475	4415
749.587	4275
749.698	4410
749.809	3995
749.921	4345
750.032	3854
750.144	4563
750.255	2742
750.366	3809
750.478	3989
750.589	3828
750.700	2451
750.811	3826
750.923	3918
751.034	4590
751.145	5197
751.256	3105
751.367	3443
751.479	3124
751.590	3664
751.701	4200
751.812	4096
751.923	3797
752.034	3756
752.145	3641
752.256	3568
752.367	3680
752.478	3742
752.589	3220
752.700	3569
752.811	3665
752.922	3352
753.032	3978
753.143	4454
753.254	3585
753.365	4132
753.476	4455
753.586	3819
753.697	3639
753.808	3967
753.919	3963
754.029	2845
754.140	3409
754.251	4146
754.361	4363
754.472	3354
754.582	3285
754.693	3119
754.804	4642
754.914	3345
755.025	4120
755.135	3381
755.246	4761
755.356	2938
755.466	4365
755.577	4069
755.687	4137
755.798	3576
755.908	3633
756.018	4530
756.129	4179
756.239	3648
756.349	4570
756.460	4474
756.570	4448
756.680	4235
756.790	4160
756.900	4143
757.011	4189
757.121	4154
757.231	4182
757.341	3822
757.451	3883
757.561	4149
757.671	4742
757.781	3460
757.891	4868
758.001	4304
758.111	4831
758.221	4459
758.331	4636
758.441	5021
758.551	5569
758.661	4639
758.771	5664
758.880	4501
758.990	5326
759.100	4777
759.210	5910
759.320	5057
759.429	5874
759.539	5742
759.649	4975
759.758	5363
759.868	7123
759.978	5691
760.087	6938
760.197	6761
760.307	7175
760.416	5820
760.526	6123
760.635	5997
760.745	6434
760.854	7290
760.964	8490
761.073	8327
761.182	8253
761.292	7236
761.401	8335
761.511	6733
761.620	7301
761.729	7615
761.839	6531
761.948	7454
762.057	7480
762.166	8221
762.276	6431
762.385	8426
762.494	7893
762.603	8236
762.712	8416
762.822	8972
762.931	8968
763.040	8634
763.149	9982
763.258	9857
763.367	11139
763.476	11093
763.585	11495
763.694	12660
763.803	12188
763.912	12836
764.021	14201
764.130	13864
764.238	16248
764.347	16267
764.456	17937
764.565	19330
764.674	21095
764.783	22110
764.891	24750
765.000	29111
765.109	31484
765.217	35951
765.326	41940
765.435	48932
765.543	58674
765.652	70589
765.761	88553
765.869	112889
765.978	148714
766.086	198475
766.195	270289
766.303	355579
766.412	362255
766.520	297344
766.629	297998
766.737	249138
766.846	189705
766.954	145796
767.062	111730
767.171	86767
767.279	70220
767.387	57192
767.496	47422
767.604	40541
767.712	36609
767.820	32382
767.928	30065
768.037	27865
768.145	26333
768.253	25047
768.361	24503
768.469	23788
768.577	24450
768.685	25493
768.793	27284
768.901	29457
769.009	35429
769.117	40913
769.225	51401
769.333	67918
769.441	97834
769.549	144826
769.657	228726
769.765	338872
769.873	305289
769.981	262061
770.088	210651
770.196	142122
770.304	101708
770.412	75000
770.519	58423
770.627	46910
770.735	38080
770.842	32743
770.950	28383
771.058	24674
771.165	23788
771.273	20351
771.380	19882
771.488	18611
771.595	16768
771.703	14957
771.810	15541
771.918	13145
772.025	13826
772.133	12638
772.240	13103
772.348	13029
772.455	12761
772.562	10663
772.670	11195
772.777	11499
772.884	10005
772.991	9120
773.099	10090
773.206	8546
773.313	9745
773.420	8714
773.528	8035
773.635	7248
773.742	9560
773.849	8319
773.956	8771
774.063	7223
774.170	7390
774.277	7871
774.384	7839
774.491	6917
774.598	7534
774.705	6633
774.812	6923
774.919	7546
775.026	7216
775.133	5964
775.239	5720
775.346	5987
775.453	6957
775.560	6121
775.667	6983
775.773	5258
775.880	6031
775.987	5399
776.093	6146
776.200	6658
776.307	4913
776.413	5729
776.520	5985
776.627	5886
776.733	5208
776.840	3765
776.946	7135
777.053	8116
777.159	10480
777.266	6122
777.372	10099
777.478	7999
777.585	5658
777.691	4119
777.798	5003
777.904	5915
778.010	5336
778.117	4811
778.223	4124
778.329	5030
778.435	4770
778.542	3971
778.648	4638
778.754	3223
778.860	4011
778.966	4093
779.072	4135
779.178	3798
779.284	3745
779.391	4128
779.497	3233
779.603	6955
779.708	6177
779.815	13153
779.920	41472
780.026	75484
780.132	15274
780.238	5949
780.344	4915
780.450	4734
780.556	3791
780.661	3896
780.767	4075
780.873	3375
780.979	3802
781.085	2947
781.190	3488
781.296	2873
781.402	3184
781.507	2875
781.613	3320
781.719	2801
781.824	3075
781.930	2990
782.035	2935
782.141	4474
782.246	2471
782.352	2119
782.457	3003
782.563	3369
782.668	3219
782.773	2434
782.879	2108
782.984	2893
783.090	3715
783.195	3452
783.300	3440
783.405	2390
783.511	3617
783.616	2317
783.721	3081
783.826	2295
783.932	3501
784.037	2553
784.142	2758
784.247	2676
784.352	3274
784.457	2599
784.562	3007
784.667	3578
784.772	2287
784.877	1266
784.982	2718
785.087	2295
785.192	3749
785.297	1892
785.402	2651
785.507	2912
785.611	3167
785.716	2563
785.821	2385
785.926	2419
786.031	2073
786.135	2128
786.240	2208
786.345	650
786.450	3149
786.554	1697
786.659	2327
786.763	1107
786.868	2805
786.973	3544
787.077	2266
787.182	1355
787.286	2408
787.391	1626
787.495	2011
787.600	1952
787.704	1536
787.809	2259
787.913	2453
788.017	2522
788.122	2809
788.226	2114
788.330	2022
788.435	1643
788.539	2621
788.643	1179
788.747	851
788.852	2457
788.956	1935
789.060	2594
789.164	2542
789.268	1281
789.372	2087
789.476	1300
789.580	1520
789.684	1110
789.788	2050
789.892	1300
789.996	2592
790.100	1480
790.204	1365
790.308	1236
790.412	1796
790.516	1897
790.620	1234
790.724	1658
790.828	1427
790.931	411
791.035	2992
791.139	1436
791.242	604
791.346	2251
791.450	1139
791.554	1334
791.657	805
791.761	2130
791.864	2629
791.968	1877
792.072	1956
792.175	1420
792.279	1874
792.382	1456
792.486	1453
792.589	702
792.693	1928
792.796	828
792.899	2586
793.003	1586
793.106	476
793.209	1779
793.313	1692
793.416	383
793.519	2709
793.623	2061
793.726	1831
793.829	1322
793.932	1360
794.035	245
794.138	1637
794.242	2510
794.345	2768
794.448	2939
794.551	6551
794.654	23092
794.757	47233
794.860	8844
794.963	2542
795.066	1077
795.169	2870
795.272	430
795.375	1214
795.477	1061
795.580	1878
795.683	83
795.786	926
795.889	557
795.991	2012
796.094	1595
796.197	141
796.300	2306
796.402	1851
796.505	1278
796.608	833
796.710	1566
796.813	2003
796.915	1262
797.018	1516
797.120	1111
797.223	84
797.326	2526
797.428	328
797.530	1060
797.633	907
797.735	2071
797.838	1032
797.940	1807
798.042	767
798.145	329
798.247	2193
798.349	-111
798.452	2096
798.554	434
798.656	270
798.758	2235
798.860	1291
798.962	631
799.065	1067
799.167	615
799.269	1880
799.371	882
799.473	1946
799.575	610
799.677	1289
799.779	2738
799.881	249
799.983	1785
800.085	1402
800.187	1114
800.289	22
800.390	475
800.492	1568
800.594	2112
800.696	731
800.798	785
800.899	707
801.001	723
801.103	575
801.205	435
801.306	754
801.408	756
801.509	1725
801.611	767
801.713	775
801.814	-132
801.916	493
802.017	414
802.119	605
802.220	496
802.322	-824
802.423	1983
802.525	413
802.626	975
802.727	672
802.829	360
802.930	-1294
803.031	1525
803.133	825
803.234	610
803.335	808
803.436	80
803.538	1457
803.639	279
803.740	1420
803.841	-17
803.942	915
804.043	985
804.144	542
804.245	1111
804.346	417
804.447	-497
804.548	688
804.649	1780
804.750	543
804.851	-191
804.952	227
805.053	683
805.154	-255
805.255	1697
805.355	277
805.456	362
805.557	399
805.658	-783
805.758	1297
805.859	1721
805.960	682
806.061	450
806.161	-252
806.262	605
806.362	147
806.463	32
806.564	930
806.664	701
806.765	1263
806.865	559
806.966	500
807.066	-255
807.166	1147
807.267	918
807.367	546
807.468	930
807.568	-490
807.668	1133
807.769	958
807.869	36
807.969	1023
808.069	-196
808.170	601
808.270	-261
808.370	927
808.470	619
808.570	-395
808.670	540
808.770	1403
808.870	150
808.970	701
809.070	-51
809.170	123
809.271	128
809.370	0
809.470	498
809.570	545
809.670	85
809.770	1768
809.870	465
809.970	674
810.070	244
810.169	910
810.269	-832
810.369	1117
810.469	44
810.568	331
810.668	-440
810.768	258
810.867	201
810.967	554
811.066	-93
811.166	-161
811.265	810
811.365	421
811.464	-599
811.564	635
811.663	193
811.763	-1157
811.862	607
811.962	566
812.061	-92
812.160	-105
812.260	496
812.359	315
812.458	1110
812.557	2789
812.657	4182
812.756	1199
812.855	623
812.954	86
813.053	-16
813.153	966
813.252	-853
813.351	742
813.450	448
813.549	382
813.648	1178
813.747	9
813.846	1074
813.945	-192
814.044	512
814.143	1203
814.242	247
814.341	168
814.439	1282
814.538	543
814.637	163
814.736	319
814.835	773
814.933	529
815.032	956
815.131	782
815.229	1935
815.328	2327
815.427	1703
815.525	1422
815.624	1814
815.722	1205
815.821	1408
815.919	1273
816.018	1170
816.116	2272
816.215	831
816.313	1481
816.412	2057
816.510	2432
816.609	3087
816.707	2940
816.805	2185
816.904	2421
817.002	2030
817.100	2692
817.198	3085
817.296	1875
817.395	1812
817.493	2455
817.591	1359
817.689	1865
817.787	2785
817.885	2022
817.983	1880
818.081	3031
818.179	4597
818.277	13106
818.375	10886
818.473	5015
818.571	2035
818.669	2897
818.767	3398
818.865	2149
818.963	2197
819.061	2804
819.158	2384
819.256	5907
819.354	9016
819.452	23359
819.549	14070
819.647	4670
819.745	2930
819.842	2437
819.940	1460
820.038	1941
820.135	1065
820.233	3038
820.330	633
820.428	752
820.525	2703
820.623	1876
820.720	1437
820.818	1413
820.915	2237
821.012	2540
821.110	456
821.207	2182
821.304	827
821.402	2148
821.499	3226
821.596	2681
821.693	1021
821.791	2242
821.888	2233
821.985	2793
822.082	1076
822.179	2707
822.276	1352
822.373	1574
822.470	832
822.567	1399
822.664	203
822.761	2041
822.858	541
822.955	1334
823.052	665
823.149	537
823.246	1057
823.343	1463
823.440	1661
823.536	1520
823.633	1220
823.730	1340
823.827	735
823.923	1542
824.020	2156
824.117	1798
824.213	1106
824.310	2086
824.407	1193
824.503	1420
824.600	1501
824.696	731
824.793	1949
824.889	1695
824.986	566
825.082	1017
825.179	1292
825.275	1440
825.371	923
825.468	526
825.564	88
825.660	1651
825.757	1393
825.853	2341
825.949	755
826.045	1332
826.142	314
826.238	885
826.334	1380
826.430	-256
826.526	2157
826.622	250
826.718	915
826.814	870
826.910	1625
827.006	-336
827.102	-469
827.198	2554
827.294	767
827.390	1054
827.486	924
827.582	-50
827.678	454
827.774	1404
827.869	-149
827.965	2273
828.061	-372
828.157	2113
828.252	557
828.348	156
828.444	870
828.539	-30
828.635	350
828.731	1304
828.826	-1489
828.922	699
829.017	663
829.113	1415
829.208	561
829.304	461
829.399	1665
829.495	889
829.590	792
829.685	433
829.781	714
829.876	1284
829.971	517
830.066	37
830.162	-96
830.257	920
830.352	-450
830.447	892
830.543	247
830.638	-547
830.733	1178
830.828	694
830.923	993
831.018	539
831.113	729
831.208	894
831.303	690
831.398	1180
831.493	-198
831.588	1804
831.683	-123
831.778	1190
831.873	109
831.967	1234
832.062	420
832.157	373
832.252	896
832.346	-35
832.441	701
832.536	1032
832.631	1251
832.725	1015
832.820	-4
832.914	627
833.009	-446
833.104	195
833.198	59
833.293	259
833.387	717
833.482	521
833.576	510
833.670	1542
833.765	257
833.859	880
833.954	381
834.048	1145
834.142	848
834.237	154
834.331	412
834.425	383
834.519	-240
834.613	956
834.708	160
834.802	858
834.896	454
834.990	242
835.084	113
835.178	291
835.272	-32
835.366	623
835.460	824
835.554	1124
835.648	-619
835.742	-363
835.836	-68
835.930	-384
836.024	479
836.117	1144
836.211	-32
836.305	1025
836.399	825
836.493	-273
836.586	426
836.680	554
836.774	-371
836.867	1194
836.961	-392
837.055	-316
837.148	-721
837.242	725
837.335	270
837.429	-44
837.522	-491
837.616	810
837.709	1390
837.803	61
837.896	180
837.989	451
838.083	386
838.176	616
838.269	-362
838.363	694
838.456	-449
838.549	929
838.642	-277
838.735	2109
838.829	706
838.922	508
839.015	38
839.108	-605
839.201	-285
839.294	1057
839.387	150
839.480	497
839.573	-598
839.666	252
839.759	-110
839.852	-478
839.945	298
840.038	187
840.131	-397
840.223	-144
840.316	431
840.409	492
840.502	-569
840.594	1359
840.687	-847
840.780	58
840.873	-549
840.965	-15
841.058	951
841.150	1251
841.243	17
841.336	957
841.428	-45
841.521	48
841.613	-835
841.706	1128
841.798	161
841.890	-90
841.983	-1184
842.075	1073
842.167	105
842.260	-46
842.352	630
842.444	-249
842.537	53
842.629	2470
842.721	329
842.813	507
842.905	-354
842.997	800
843.090	457
843.182	1180
843.274	908
843.366	1706
843.458	3810
843.550	3691
843.642	-4
843.734	837
843.826	-209
843.918	305
844.009	586
844.101	-964
844.193	-467
844.285	-44
844.377	465
844.469	1332
844.560	757
844.652	1070
844.744	126
844.835	26
844.927	-196
845.019	265
845.110	20
845.202	-10
845.293	360
845.385	-975
845.476	484
845.568	847
845.659	198
845.751	477
845.842	-178
845.934	-373
846.025	-183
846.116	501
846.208	-106
846.299	-184
846.390	-535
846.482	229
846.573	171
846.664	245
846.755	-204
846.846	341
846.937	-1192
847.029	-647
847.120	-358
847.211	-514
847.302	605
847.393	-1395
847.484	-346
847.575	-255
847.666	-619
847.757	-231
847.847	879
847.938	635
848.029	-264
848.120	-221
848.211	-513
848.302	-943
848.392	-540
848.483	525
848.574	-647
848.664	-414
848.755	-453
848.846	-586
848.936	-655
849.027	-5
849.118	735
849.208	-436
849.299	648
849.389	1959
849.480	3622
849.570	7666
849.661	15210
849.751	26367
849.841	9058
849.932	1252
850.022	-159
850.112	870
850.203	134
850.293	-239
850.383	-41
850.474	-378
850.564	-294
850.654	764
850.744	-266
850.834	351
850.924	-255
851.014	708
851.104	-375
851.194	-333
851.284	377
851.374	-76
851.464	-884
851.554	-112
851.644	253
851.734	969
851.824	630
851.914	670
852.004	930
852.094	1428
852.183	-112
852.273	-58
852.363	-25
852.452	-38
852.542	103
852.632	-267
852.721	-416
852.811	-91
852.901	-153
852.990	380
853.080	408
853.169	180
853.259	-417
853.348	-579
853.438	797
853.527	1103
853.617	1067
853.706	4189
853.795	8294
853.885	19279
853.974	36241
854.063	68566
854.152	103888
854.242	41778
854.331	8719
854.420	3596
854.509	1639
854.598	1546
854.687	1302
854.777	1354
854.866	204
854.955	1092
855.044	157
855.133	297
855.222	-325
855.311	-161
855.400	39
855.488	510
855.577	-226
855.666	114
855.755	319
855.844	-104
855.933	272
856.021	-162
856.110	-361
856.199	-535
856.288	-465
856.376	-446
856.465	-1019
856.554	-543
856.642	-202
856.731	383
856.819	-150
856.908	56
856.996	65
857.085	-39
857.173	-57
857.262	-254
857.350	466
857.438	-119
857.527	-607
857.615	-977
857.703	433
857.792	146
857.880	-420
857.968	-21
858.056	-155
858.145	-607
858.233	-477
858.321	119
858.409	-190
858.497	-606
858.585	-814
858.673	496
858.761	-1187
858.849	-576
858.937	-1004
859.025	-545
859.113	-657
859.201	-221
859.289	825
859.377	-862
859.465	323
859.552	-707
859.640	-800
859.728	-177
859.816	37
859.903	-20
859.991	-1485
860.079	-409
860.166	-144
860.254	518
860.342	-331
860.429	-411
860.517	-637
860.604	420
860.692	-651
860.779	-334
860.867	-614
860.954	-162
861.042	-513
861.129	-465
861.216	-206
861.304	-597
861.391	118
861.478	-488
861.565	-232
861.653	764
861.740	-1382
861.827	-566
861.914	-230
862.001	-410
862.089	258
862.176	-461
862.263	-634
862.350	-979
862.437	-355
862.524	-199
862.611	-672
862.698	147
862.785	-586
862.871	-31
862.958	-877
863.045	-205
863.132	-178
863.219	-236
863.306	-865
863.392	-640
863.479	-561
863.566	-98
863.652	-404
863.739	-210
863.826	-408
863.912	-286
863.999	-768
864.086	-211
864.172	-924
864.259	377
864.345	-410
864.432	-181
864.518	-163
864.604	-130
864.691	-15
864.777	379
864.863	116
864.950	223
865.036	1265
865.122	3043
865.209	2456
865.295	2290
865.381	2215
865.467	2833
865.553	2318
865.639	2693
865.726	5770
865.812	10732
865.898	20990
865.984	29599
866.070	55568
866.156	62157
866.242	18571
866.328	5261
866.414	2742
866.499	2590
866.585	1698
866.671	2082
866.757	1642
866.843	2130
866.928	1000
867.014	869
867.100	1379
867.186	1247
867.271	1108
867.357	1737
867.442	1136
867.528	1188
867.614	927
867.699	1992
867.785	1107
867.870	1937
867.956	1738
868.041	1525
868.127	1978
868.212	1349
868.297	1203
868.383	1571
868.468	969
868.553	2150
868.639	1398
868.724	1774
868.809	2236
868.894	1427
868.979	1557
869.065	1911
869.150	855
869.235	1372
869.320	621
869.405	758
869.490	40
869.575	582
869.660	685
869.745	1594
869.830	1116
869.915	862
870.000	113
870.085	271
870.169	878
870.254	1443
870.339	288
870.424	655
870.509	1487
870.593	2051
870.678	1498
870.763	1001
870.847	45
870.932	979
871.016	1028
871.101	57
871.186	634
871.270	1325
871.355	664
871.439	1429
871.523	1369
871.608	514
871.692	-450
871.777	407
871.861	1007
871.945	587
872.030	1324
872.114	352
872.198	87
872.282	725
872.367	548
872.451	651
872.535	893
872.619	254
872.703	54
872.787	819
872.871	563
872.955	494
873.039	441
873.123	823
873.207	1361
873.291	135
873.375	158
873.459	1474
873.543	-173
873.627	358
873.711	525
873.794	1305
873.878	345
873.962	-49
874.045	-602
874.129	519
874.137	514
874.213	465
874.245	390
874.296	270
874.352	24
874.380	-98
874.460	481
874.464	504
874.547	125
874.568	234
874.631	527
874.676	359
874.714	220
874.784	681
874.798	774
874.881	1192
874.892	1114
874.965	597
874.999	1019
875.048	1578
875.107	593
875.131	180
875.215	368
875.215	368
875.298	-171
875.323	64
875.381	639
875.430	1110
875.465	1414
875.538	362
875.548	215
875.631	-111
875.646	-173
875.714	-433
875.753	10
875.798	563
875.861	334
875.881	220
875.964	714
875.968	704
876.047	656
876.076	684
876.130	783
876.183	373
876.213	95
876.291	1331
876.296	1415
876.379	374
876.398	410
876.462	588
876.506	89
876.545	-402
876.613	255
876.628	411
876.711	174
876.721	240
876.794	855
876.828	988
876.877	1017
876.935	993
876.960	1037
877.043	318
877.043	322
877.125	1329
877.150	1264
877.208	1118
877.258	999
877.291	970
877.365	323
877.374	231
877.456	680
877.472	589
877.539	282
877.579	872
877.622	1454
877.687	970
877.704	873
877.787	1018
877.794	983
877.869	559
877.901	807
877.952	1137
878.008	1012
878.034	979
878.115	220
878.117	202
878.199	286
878.222	394
878.282	995
878.329	1040
878.364	1009
878.437	1174
878.447	1159
878.529	-122
878.544	45
878.611	1037
878.651	793
878.694	534
878.758	896
878.776	999
878.858	513
878.865	541
878.941	746
878.972	342
879.023	-223
879.078	289
879.105	533
879.185	792
879.187	803
879.269	946
879.292	867
879.351	519
879.399	584
879.433	597
879.506	606
879.516	616
879.598	493
879.613	431
879.680	301
879.720	714
879.762	1105
879.827	518
879.844	367
879.926	1117
879.933	1094
880.007	743
880.040	636
880.089	729
880.147	996
880.171	1099
880.253	1300
880.254	1298
880.335	1182
880.360	1513
880.417	2384
880.467	2598
880.499	2799
880.574	3701
880.580	3715
880.662	1289
880.680	1143
880.744	958
880.787	887
880.825	807
880.893	798
880.907	826
880.989	850
881.000	858
881.070	897
881.106	767
881.152	717
881.213	1231
881.233	1356
881.315	697
881.319	721
881.396	1286
881.426	1101
881.478	825
881.532	1050
881.559	1175
881.639	1287
881.641	1277
881.722	801
881.745	485
881.803	313
881.852	663
881.885	857
881.958	933
881.966	928
882.047	1306
882.064	1151
882.129	466
882.171	489
882.210	597
882.277	520
882.291	589
882.372	876
882.383	963
882.454	1296
882.489	1385
882.535	1279
882.596	1095
882.616	1158
882.697	1318
882.702	1322
882.778	922
882.808	796
882.859	919
882.914	892
882.940	807
883.020	786
883.021	791
883.102	633
883.127	748
883.183	1350
883.233	1637
883.264	1386
883.339	1054
883.345	1071
883.426	335
883.445	372
883.507	663
883.551	746
883.587	793
883.657	1075
883.668	1178
883.749	1493
883.763	1562
883.830	1021
883.869	589
883.910	532
883.975	948
883.991	1079
884.072	1290
884.081	1303
884.152	1348
884.187	1272
884.233	1378
884.292	1968
884.314	1863
884.394	565
884.398	530
884.475	810
884.504	796
884.555	673
884.610	753
884.636	841
884.716	1081
884.716	1089
884.797	1615
884.821	1766
884.877	1395
884.927	1240
884.958	1105
885.033	216
885.038	195
885.118	379
885.139	392
885.199	514
885.244	656
885.279	905
885.350	1132
885.359	1176
885.439	1771
885.456	1813
885.520	1402
885.561	1312
885.600	1414
885.667	1353
885.680	1307
885.760	1206
885.773	1162
885.840	952
885.878	885
885.920	1034
885.984	1166
886.000	1175
886.080	1266
886.089	1267
886.160	1614
886.195	1728
886.240	1699
886.300	1569
886.320	1547
886.400	1700
886.406	1693
886.480	1244
886.511	1100
886.560	913
886.616	518
886.640	554
886.720	844
886.722	843
886.800	912
886.827	1012
886.879	1616
886.932	1998
886.959	2067
887.038	2429
887.039	2432
887.119	1772
887.143	1615
887.198	1464
887.248	1232
887.278	1285
887.354	1617
887.358	1633
887.437	1615
887.459	1595
887.517	1493
887.564	1506
887.596	1460
887.669	1208
887.676	1159
887.755	632
887.774	458
887.835	522
887.880	668
887.914	911
887.985	1286
887.994	1347
888.073	1941
888.090	2020
888.153	2300
888.195	2517
888.232	2193
888.300	1580
888.311	1575
888.391	1542
888.405	1524
888.470	1629
888.510	1648
888.549	1469
888.615	1209
888.628	1263
888.708	1554
888.720	1602
888.787	1901
888.825	1987
888.866	1571
888.930	1041
888.945	1084
889.024	1184
889.035	1204
889.103	1908
889.140	2258
889.182	1706
889.245	905
889.261	998
889.340	1409
889.349	1454
889.419	2095
889.454	2401
889.498	2027
889.559	1508
889.577	1396
889.656	880
889.664	829
889.735	1710
889.768	2120
889.814	2061
889.873	1975
889.978	1717
890.083	1376
890.187	2056
890.292	2204
890.397	2208
890.501	1578
890.606	920
890.710	2157
890.815	2353
890.919	1308
891.024	1010
891.128	1785
891.233	1042
891.337	2293
891.442	1931
891.546	1580
891.650	1435
891.755	872
891.859	2263
891.963	1836
892.068	1400
892.172	1399
892.276	874
892.380	954
892.484	1743
892.589	2336
892.693	1572
892.797	659
892.901	974
893.005	2052
893.109	1611
893.213	1915
893.317	1791
893.421	1043
893.525	584
893.629	1242
893.733	1220
893.837	1521
893.941	1004
894.045	2100
894.148	1311
894.252	2462
894.356	2238
894.460	2087
894.564	1878
894.667	1399
894.771	1364
894.875	337
894.978	1166
895.082	525
895.186	2726
895.289	2143
895.393	1812
895.496	1138
895.600	1177
895.703	297
895.807	-251
895.910	1892
896.014	943
896.117	1252
896.221	1342
896.324	1079
896.427	1178
896.531	1133
896.634	998
896.737	1139
896.840	1276
896.944	1124
897.047	1073
897.150	1320
897.253	595
897.356	1534
897.460	719
897.563	858
897.666	1467
897.769	1187
897.872	410
897.975	832
898.078	223
898.181	1128
898.284	1112
898.387	1754
898.490	1750
898.593	507
898.695	1132
898.798	692
898.901	977
899.004	1240
899.107	1229
899.209	1811
899.312	1508
899.415	1081
899.518	121
899.620	1026
899.723	1319
899.826	1470
899.928	1015
900.031	879
900.133	908
900.236	776
900.338	122
900.441	589
900.543	1022
900.646	856
900.748	434
900.851	2214
900.953	1492
901.055	1301
901.158	594
901.260	637
901.362	451
901.465	787
901.567	976
901.669	1943
901.771	1188
901.873	1453
901.976	742
902.078	1784
902.180	309
902.282	863
902.384	1518
902.486	1682
902.588	2073
902.690	1246
902.792	1074
902.894	1303
902.996	1575
903.098	1505
903.200	264
903.302	1022
903.404	1248
903.505	596
903.607	1166
903.709	1746
903.811	1149
903.913	1215
904.014	1097
904.116	1014
904.218	405
904.319	1553
904.421	1860
904.523	2472
904.624	1654
904.726	862
904.827	280
904.929	1267
905.030	1542
905.132	1003
905.233	2243
905.335	440
905.436	-345
905.537	208
905.639	1245
905.740	1365
905.841	1256
905.943	1789
906.044	1029
906.145	426
906.247	-29
906.348	1028
906.449	864
906.550	999
906.651	1482
906.752	418
906.854	687
906.955	1001
907.056	354
907.157	664
907.258	1110
907.359	14
907.460	326
907.561	649
907.662	792
907.762	1182
907.863	1171
907.964	1449
908.065	520
908.166	1559
908.267	678
908.367	291
908.468	752
908.569	930
908.670	1692
908.770	941
908.871	810
908.971	873
909.072	1450
909.173	192
909.273	302
909.374	970
909.474	821
909.575	475
909.675	904
909.776	1344
909.876	198
909.977	-45
910.077	890
910.177	524
910.278	1212
910.378	-3
910.478	-137
910.579	676
910.679	297
910.779	1103
910.879	519
910.980	802
911.080	1392
911.180	246
911.280	-5
911.380	1229
911.480	923
911.580	127
911.680	839
911.780	904
911.880	960
911.980	546
912.080	299
912.180	826
912.280	586
912.380	871
912.480	349
912.580	248
912.679	-109
912.779	1379
912.879	616
912.979	683
913.078	487
913.178	728
913.278	-95
913.377	178
913.477	301
913.577	-286
913.676	921
913.776	1205
913.875	152
913.975	802
914.074	315
914.174	1082
914.273	-319
914.373	1013
914.472	26
914.572	585
914.671	1173
914.770	243
914.870	-708
914.969	347
915.068	710
915.167	1437
915.267	320
915.366	415
915.465	740
915.564	96
915.663	1053
915.763	634
915.862	875
915.961	1197
916.060	752
916.159	1220
916.258	-36
916.357	-57
916.456	981
916.555	509
916.654	220
916.752	1355
916.851	924
916.950	1048
917.049	-129
917.148	-103
917.247	797
917.345	690
917.444	85
917.543	532
917.642	265
917.740	1675
917.839	480
917.937	1115
918.036	1189
918.135	905
918.233	424
918.332	62
918.430	483
918.529	740
918.627	581
918.726	1824
918.824	815
918.923	307
919.021	155
919.119	-107
919.218	292
919.316	496
919.414	453
919.512	-668
919.611	556
919.709	-158
919.807	1261
919.905	1431
920.003	1274
920.102	463
920.200	904
920.298	1702
920.396	1213
920.494	416
920.592	-56
920.690	1355
920.788	715
920.886	632
920.984	1383
921.082	1027
921.180	1839
921.277	1805
921.375	1203
921.473	1924
921.571	2180
921.669	2105
921.766	1886
921.864	2456
921.962	2549
922.060	2118
922.157	1776
922.255	2119
922.352	2123
922.450	2227
922.548	3102
922.645	2877
922.743	2788
922.840	5053
922.938	6943
923.035	6003
923.133	5548
923.230	5459
923.327	8201
923.425	7433
923.522	7000
923.619	6530
923.717	5875
923.814	5253
923.911	4996
924.008	5255
924.106	5136
924.203	5361
924.300	4934
924.397	4883
924.494	5553
924.591	5034
924.688	4411
924.786	5135
924.883	4819
924.979	5460
925.077	5264
925.173	3826
925.270	5035
925.367	5427
925.464	5952
925.561	6168
925.658	6377
925.755	4960
925.852	5090
925.948	5602
926.045	5338
926.142	6059
926.239	6293
926.335	4612
926.432	5005
926.529	6504
926.625	6342
926.722	5719
926.818	4612
926.915	5711
927.011	4315
927.108	4598
927.204	5307
927.301	4600
927.397	4571
927.494	5628
927.590	3808
927.687	2936
927.783	5282
927.879	4103
927.976	4554
928.072	4728
928.168	4304
928.264	4274
928.361	3361
928.457	4439
928.553	4244
928.649	4108
928.745	4700
928.841	3171
928.937	4374
929.033	4618
929.129	4250
929.225	5189
929.321	4354
929.417	3134
929.513	4715
929.609	3980
929.705	3816
929.801	4470
929.897	3698
929.993	3560
930.089	5246
930.184	3317
930.280	4051
930.376	5957
930.471	3489
930.567	3006
930.663	3670
930.758	3546
930.854	4165
930.950	3450
931.045	3318
931.141	3515
931.236	4217
931.332	5082
931.427	2116
931.523	4743
931.618	4096
931.714	2977
931.809	2736
931.905	4190
932.000	3076
932.095	2309
932.191	4228
932.286	5516
932.381	4391
932.476	2712
932.572	2856
932.667	2984
932.762	3201
932.857	3702
932.952	3547
933.047	3441
933.142	2468
933.237	2969
933.332	3677
933.427	4187
933.522	3143
933.617	2527
933.712	2664
933.807	3688
933.902	3779
933.997	4317
934.092	2885
934.187	3214
934.282	3498
934.376	3671
934.471	3686
934.566	2913
934.661	3220
934.755	3486
934.850	3897
934.945	3469
935.039	2157
935.134	2335
935.228	2532
935.323	5057
935.417	1994
935.512	2014
935.606	2134
935.701	2651
935.795	3055
935.890	2734
935.984	2800
936.079	2290
936.173	3243
936.267	2634
936.362	1857
936.456	2331
936.550	3756
936.644	3950
936.738	1755
936.833	2785
936.927	938
937.021	2008
937.115	2683
937.209	2807
937.303	2923
937.397	1897
937.491	2009
937.585	2659
937.679	2683
937.773	2690
937.867	1219
937.961	1723
938.055	3491
938.149	3434
938.243	1875
938.337	1751
938.430	2763
938.524	4393
938.618	4498
938.712	3890
938.805	2148
938.899	3922
938.993	3858
939.086	2928
939.180	3308
939.274	4068
939.367	3667
939.461	3619
939.554	1426
939.648	1817
939.741	1906
939.835	2628
939.928	3292
940.022	2981
940.115	2385
940.208	3130
940.302	3400
940.395	3779
940.488	2057
940.582	1731
940.675	1089
940.768	2072
940.861	2287
940.954	3601
941.048	1250
941.141	1403
941.234	1562
941.327	1307
941.420	2873
941.513	2794
941.606	2422
941.699	1877
941.792	2261
941.885	2561
941.978	2457
942.071	1818
942.164	841
942.257	973
942.349	1399
942.442	2647
942.535	975
942.628	1612
942.721	1860
942.813	1092
942.906	2176
942.999	2389
943.091	620
943.184	2253
943.277	1659
943.369	1466
943.462	154
943.554	1677
943.647	1419
943.739	2641
943.832	2147
943.924	586
944.017	894
944.109	564
944.201	882
944.294	1831
944.386	801
944.478	1047
944.571	1188
944.663	1456
944.755	1819
944.847	2396
944.940	1486
945.032	114
945.124	680
945.216	2156
945.308	1638
945.400	1467
945.492	2095
945.584	1693
945.676	2313
945.768	1280
945.860	2172
945.952	2230
946.044	2547
946.136	1778
946.228	1538
946.320	1352
946.412	1245
946.503	1956
946.595	2287
946.687	1002
946.779	776
946.870	1653
946.962	1616
947.054	1132
947.145	1754
947.237	1419
947.329	1522
947.420	1036
947.512	443
947.603	1080
947.695	1194
947.786	830
947.878	1127
947.969	1272
948.061	563
948.152	1151
948.243	646
948.335	564
948.426	889
948.517	471
948.609	1903
948.700	1672
948.791	1242
948.882	621
948.973	428
949.065	1357
949.156	575
949.247	1008
949.338	970
949.429	-173
949.520	646
949.611	567
949.702	900
949.793	804
949.884	1047
949.975	745
950.066	371
950.157	1079
950.247	-6
950.338	738
950.429	238
950.520	1252
950.611	703
950.701	736
950.792	1715
950.883	1341
950.973	372
951.064	2042
951.155	1492
951.245	1135
951.336	795
951.427	1121
951.517	1950
951.608	1630
951.698	-259
951.788	473
951.879	136
951.969	790
952.060	1205
952.150	1039
952.240	1817
952.331	210
952.421	1649
952.511	233
952.602	465
952.692	-113
952.782	-113
952.872	409
952.962	970
953.052	822
953.143	449
953.233	742
953.323	873
953.413	398
953.503	1433
953.593	818
953.683	1296
953.773	296
953.863	338
953.953	138
954.042	-390
954.132	742
954.222	1423
954.312	450
954.402	-432
954.492	829
954.581	1505
954.671	1165
954.761	616
954.850	1255
954.940	545
955.030	-264
955.119	620
955.209	111
955.298	285
955.388	696
955.477	2153
955.567	-456
955.656	428
955.746	318
955.835	-44
955.925	507
956.014	120
956.103	675
956.193	1097
956.282	1307
956.371	668
956.461	839
956.550	-313
956.639	774
956.728	471
956.817	999
956.906	744
956.995	1371
957.085	257
957.174	333
957.263	39
957.352	37
957.441	490
957.530	596
957.619	956
957.708	82
957.796	406
957.885	54
957.974	-38
958.063	790
958.152	-1090
958.241	1136
958.329	499
958.418	-27
958.507	-178
958.596	1777
958.684	-506
958.773	1583
958.861	444
958.950	595
959.039	442
959.127	200
959.216	622
959.304	621
959.393	217
959.481	1316
959.570	679
959.658	215
959.746	62
959.835	767
959.923	1072
960.011	-247
960.100	1196
960.188	867
960.276	769
960.365	562
960.453	468
960.541	-157
960.629	135
960.717	-444
960.805	-867
960.893	452
960.981	-265
961.069	1067
961.158	307
961.245	1098
961.333	1141
961.421	-287
961.509	-172
961.597	509
961.685	380
961.773	-245
961.861	163
961.949	938
962.036	-515
962.124	1022
962.212	892
962.299	225
962.387	-929
962.475	393
962.562	-927
962.650	1263
962.738	166
962.825	4
962.913	-653
963.000	-777
963.088	315
963.175	-448
963.263	24
963.350	-883
963.438	450
963.525	-867
963.612	659
963.700	630
963.787	1842
963.874	1335
963.962	-116
964.049	-202
964.136	-944
964.223	-1187
964.310	-789
964.398	-348
964.485	-512
964.572	347
964.659	-253
964.746	-40
964.833	-182
964.920	34
965.007	-547
965.094	-444
965.181	-653
965.268	-161
965.355	202
965.441	-396
965.528	-1324
965.615	-47
965.702	13
965.789	-1071
965.875	-246
965.962	975
966.049	-1017
966.136	-176
966.222	-231
966.309	897
966.395	-951
966.482	-213
966.569	-645
966.655	69
966.742	279
966.828	184
966.915	101
967.001	751
967.087	-991
967.174	311
967.260	164
967.347	-894
967.433	685
967.519	884
967.605	-461
967.692	-804
967.778	-267
967.864	-467
967.950	-42
968.036	-11
968.123	-208
968.209	103
968.295	-959
968.381	619
968.467	-480
968.553	-1765
968.639	-378
968.725	-720
968.811	46
968.897	-127
968.983	-561
969.069	-621
969.154	-441
969.240	-102
969.326	-1264
969.412	-1401
969.497	-1093
969.583	-518
969.669	589
969.755	103
969.840	-302
969.926	657
970.012	953
970.097	2292
970.183	-46
970.268	-390
970.354	639
970.439	-423
970.525	1173
970.610	-423
970.696	65
970.781	-302
970.866	-1795
970.952	-116
971.037	-50
971.122	-150
971.208	75
971.293	-869
971.378	-1547
971.463	-437
971.549	-424
971.634	-355
971.719	-4
971.804	-537
971.889	-676
971.974	-375
972.059	-635
972.144	64
972.229	-1219
972.314	-1344
972.399	-375
972.484	-745
972.569	-1002
972.654	-1052
972.739	320
972.824	-766
972.908	-1466
972.993	-706
973.078	-335
973.163	-800
973.247	391
973.332	-1111
973.417	627
973.501	-1807
973.586	-571
973.671	-932
973.755	-609
973.840	-582
973.924	-48
974.009	-889
974.093	-266
974.178	782
974.262	17
974.346	-925
974.431	-654
974.515	-438
974.600	-507
974.684	-273
974.768	-904
974.852	-229
974.937	-1189
975.021	197
975.105	-317
975.189	-651
975.273	-483
975.358	-1027
975.442	-718
975.526	-672
975.610	-1482
975.694	-1436
975.778	-248
975.862	-275
975.946	-2578
976.030	1325
976.114	-1056
976.198	-810
976.281	-1214
976.365	-976
976.449	-804
976.533	-470
976.617	-1566
976.700	-683
976.784	-864
976.868	-728
976.951	-648
977.035	-845
977.119	-566
977.202	-731
977.286	-197
977.369	208
977.453	851
977.536	-327
977.620	-516
977.703	90
977.787	-1666
977.870	494
977.953	733
978.037	-1411
978.120	107
978.203	-867
978.287	136
978.370	-163
978.453	-844
978.536	-1584
978.620	226
978.703	223
978.786	127
978.869	-1028
978.952	-1500
979.035	184
979.118	-54
979.201	-1129
979.284	-594
979.367	-1233
979.450	-672
979.533	-954
979.616	-1051
979.699	-1069
979.782	-643
979.865	282
979.948	-1165
980.030	-459
980.113	-1137
980.196	-2187
980.279	-529
980.361	-549
980.444	-931
980.526	-26
980.609	713
980.692	109
980.774	41
980.857	-1306
980.939	270
981.022	-996
981.104	-624
981.187	-618
981.269	-275
981.352	-1099
981.434	-1244
981.516	-944
981.599	293
981.681	-800
981.763	-1018
981.846	-877
981.928	-987
982.010	-699
982.092	-1250
982.174	221
982.256	-238
982.339	-464
982.421	-1190
982.503	117
982.585	-1289
982.667	-486
982.749	-1069
982.831	20
982.913	-1446
982.995	203
983.077	-1349
983.158	-236
983.240	-1480
983.322	556
983.404	956
983.486	353
983.568	528
983.649	-553
983.731	923
983.813	32
983.894	425
983.976	-353
984.058	-451
984.139	455
984.221	-441
984.302	550
984.384	-343
984.465	-1025
984.547	494
984.628	-362
984.710	46
984.791	-379
984.872	-467
984.954	-859
985.035	21
985.116	-222
985.198	-888
985.279	744
985.360	-514
985.441	-22
985.522	-216
985.604	-27
985.685	-1600
985.766	1279
985.847	343
985.928	-577
986.009	-710
986.090	-278
986.171	10
986.252	89
986.333	124
986.414	862
986.495	-343
986.576	206
986.656	93
986.737	420
986.818	504
986.899	-194
986.980	217
987.060	214
987.141	-536
987.222	751
987.302	1270
987.383	772
987.464	-274
987.544	1294
987.625	186
987.705	1428
987.786	909
987.866	896
987.947	167
988.027	158
988.108	664
988.188	1265
988.268	1218
988.349	703
988.429	483
988.509	498
988.589	244
988.670	-888
988.750	1597
988.830	-325
988.910	316
988.990	297
989.070	-630
989.151	403
989.231	-681
989.311	159
989.391	388
989.471	667
989.551	3
989.631	-265
989.711	175
989.791	-516
989.870	50
989.950	929
990.030	166
990.110	-798
990.190	-1198
990.269	-811
990.349	149
990.429	210
990.509	43
990.588	-510
990.668	-292
990.747	-839
990.827	-303
990.907	-24
990.986	-430
991.066	152
991.145	-967
991.225	113
991.304	48
991.383	-34
991.463	-308
991.542	40
991.622	-397
991.701	-363
991.780	218
991.859	-387
991.939	-1155
992.018	82
992.097	215
992.176	-323
992.256	-1148
992.335	-558
992.414	-514
992.493	-511
992.572	-1173
992.651	575
992.730	-59
992.809	-230
992.888	-557
992.967	138
993.046	-198
993.125	-1218
993.203	-731
993.282	-195
993.361	-41
993.440	-430
993.519	-924
993.597	141
993.676	-684
993.755	177
993.834	-1042
993.912	-1465
993.991	228
994.069	-748
994.148	-225
994.226	-780
994.305	-57
994.384	-780
994.462	534
994.540	-1282
994.619	-950
994.697	-322
994.776	-374
994.854	298
994.932	-887
995.011	-334
995.089	-249
995.167	-580
995.245	-611
995.324	-1353
995.402	-596
995.480	-1656
995.558	-281
995.636	-1236
995.714	-731
995.792	671
995.870	-1744
995.948	-359
996.026	-1051
996.104	-1170
996.182	-624
996.260	-1030
996.338	-612
996.416	-1103
996.494	-1352
996.572	505
996.649	-961
996.727	-1223
996.805	131
996.883	-1134
996.960	-1353
997.038	-345
997.116	-80
997.193	-1570
997.271	-482
997.348	-139
997.426	-917
997.504	-1275
997.581	-1388
997.658	-615
997.736	-2196
997.813	-1141
997.891	363
997.968	-988
998.046	-880
998.123	-1096
998.200	-618
998.277	-1444
998.355	-632
998.432	-1750
998.509	-1614
998.586	-1330
998.663	-582
998.741	-1223
998.818	-1218
998.895	-416
998.972	-449
999.049	-172
999.126	-1513
999.203	-272
999.280	-1171
999.357	-761
999.434	-903
999.511	-366
999.587	-128
999.664	-1425
999.741	-949
999.818	-1038
999.895	-1952
999.971	-1157
1000.048	-1052
1000.125	129
1000.202	-1334
1000.278	-621
1000.355	-390
1000.431	-862
1000.508	-1330
1000.584	-597
1000.661	-932
1000.738	-1025
1000.814	-985
1000.890	-692
1000.967	-1765
1001.043	-895
1001.120	-1579
1001.196	-686
1001.272	-1585
1001.349	-1363
1001.425	-815
1001.501	-513
1001.577	-1493
1001.654	-821
1001.730	-2132
1001.806	-876
1001.882	-1917
1001.958	-356
1002.034	-1477
1002.110	-1023
1002.186	-1575
1002.262	-1504
1002.338	-2240
1002.414	-304
1002.490	-838
1002.566	-1597
1002.642	-1954
1002.718	-567
1002.794	-1173
1002.870	-2054
1002.945	-1908
1003.021	-609
1003.097	-1497
1003.173	-983
1003.248	-1390
1003.324	-1397
1003.400	-1075
1003.475	-1714
1003.551	-936
1003.626	-1495
1003.702	-1709
1003.777	-1361
1003.853	-1831
1003.928	-1930
1004.004	-1903
1004.079	-1276
1004.155	-446
1004.230	-2476
1004.305	-1236
1004.381	-1242
1004.456	-1428
1004.531	-1243
1004.607	-953
1004.682	-1263
1004.757	-1227
1004.832	-1562
1004.907	-1901
1004.982	-917
1005.057	-1534
1005.133	-1363
1005.208	-977
1005.283	-843
1005.358	-823
1005.433	-1676
1005.508	-1570
1005.583	-1450
1005.657	-1682
1005.732	-500
1005.807	-1322
1005.882	-1220
1005.957	-1974
1006.032	-1467
1006.106	-2048
1006.181	-986
1006.256	-1279
1006.331	-2034
1006.405	-1836
1006.480	-1184
1006.554	-1828
1006.629	-1743
1006.704	-2036
1006.778	-1003
1006.853	-1234
1006.927	-1998
1007.002	-1984
1007.076	-1380
1007.150	-1751
1007.225	-1460
1007.299	-1122
1007.373	-2657
1007.448	-1100
1007.522	-485
1007.596	-1268
1007.671	-1928
1007.745	-850
1007.819	-1849
1007.893	-1730
1007.967	-1227
1008.041	-2952
1008.115	-390
1008.190	-1526
1008.264	-1206
1008.338	-2454
1008.412	-1184
1008.486	-1535
1008.560	-1089
1008.633	-1981
1008.707	-225
1008.781	-559
1008.855	-1245
1008.929	-1426
1009.003	-2213
1009.076	-1880
1009.150	-1428
1009.224	-2225
1009.298	-1477
1009.371	-1937
1009.445	-1084
1009.519	-1556
1009.592	-1736
1009.666	-2497
1009.739	-1477
1009.813	-2857
1009.886	-1227
1009.960	-2794
1010.033	-2099
1010.107	-849
1010.180	-1988
1010.253	-2003
1010.327	-1809
1010.400	-1622
1010.473	-1005
1010.547	-289
1010.620	-1561
1010.693	-1615
1010.766	-1755
1010.840	-1380
1010.913	-1210
1010.986	-2841
1011.059	-1500
1011.132	-2259
1011.205	-1658
1011.278	-2197
1011.351	-1454
1011.424	-1827
1011.497	-2227
1011.570	-1965
1011.643	-1071
1011.716	-2194
1011.789	-2263
1011.862	-1840
1011.934	-1175
1012.007	-2534
1012.080	-1413
1012.153	-1454
1012.225	-728
1012.298	-2440
1012.371	-2099
1012.443	-927
1012.516	-2552
1012.588	-1646
1012.661	-1197
1012.733	-2161
1012.806	-1620
1012.879	-2001
1012.951	-1466
1013.023	-1739
1013.096	-1825
1013.168	-2769
1013.241	-791
1013.313	-1607
1013.385	-1929
1013.458	-2133
1013.530	-614
1013.602	-1927
1013.674	-1464
1013.746	-2767
1013.819	-1745
1013.891	-2541
1013.963	-2342
1014.035	-1941
1014.107	-1185
1014.179	-1431
1014.251	-2823
1014.323	-1533
1014.395	-1783
1014.467	-1864
1014.539	-1434
1014.611	-2113
1014.683	-2073
1014.754	-2109
1014.826	-2073
1014.898	-1980
1014.970	-2875
1015.042	-1436
1015.113	-1630
1015.185	-2140
1015.257	-1902
1015.328	-513
1015.400	-2293
1015.471	-2381
1015.543	-2816
1015.615	-1962
1015.686	-1833
1015.757	-2657
1015.829	-2319
1015.901	-1812
1015.972	-2237
1016.043	-1533
1016.115	-1982
1016.186	-1778
1016.257	-1906
1016.328	-2045
1016.400	-1225
1016.471	-2179
1016.542	-2657
1016.613	-2849
1016.685	-1795
1016.756	-1307
1016.827	-2485
1016.898	-2537
1016.969	-1154
1017.040	-2479
1017.111	-2484
1017.182	-2567
1017.253	-1523
1017.324	-2361
1017.395	-2438
1017.466	-1785
1017.537	-1863
1017.608	-1748
1017.678	-2743
1017.749	-2411
1017.820	-2144
1017.891	-2091
1017.961	-2532
1018.032	-2245
1018.103	-1403
1018.173	-2404
1018.244	-2189
1018.315	-2242
1018.385	-1565
1018.456	-2422
1018.526	-2190
1018.597	-1914
1018.667	-1526
1018.738	-3069
1018.808	-2173
1018.878	-2475
1018.949	-1938
1019.019	-2540
1019.089	-1617
1019.160	-1684
1019.230	-2785
1019.300	-1924
1019.371	-3011
1019.441	-1286
1019.511	-2302
1019.581	-2569
1019.651	-2417
1019.721	-1614
1019.791	-2227
1019.861	-1681
1019.931	-1722
1020.001	-2675
1020.071	-2069
1020.141	-2225
1020.211	-2169
1020.281	-2951
1020.351	-2450
1020.421	-1479
1020.491	-1420
1020.560	-2723
1020.630	-2053
1020.700	-2430
1020.770	-1814
1020.839	-1591
1020.909	-2624
1020.979	-1875
1021.048	-2477
1021.118	-2628
1021.187	-1968
1021.257	-2884
1021.326	-2609
1021.396	-2404
1021.465	-2243
1021.535	-2184
1021.604	-2423
1021.674	-2437
1021.743	-2503
1021.812	-2596
1021.882	-2122
1021.951	-2286
1022.020	-1632
1022.089	-2081
1022.159	-2041
1022.228	-2252
1022.297	-2468
1022.366	-2460
1022.435	-1857
1022.504	-3019
1022.573	-2359
1022.642	-1960
1022.711	-1934
1022.781	-2395
1022.849	-2582
1022.918	-2866
1022.987	-2348
1023.056	-2095
1023.125	-2636
1023.194	-1764
1023.263	-2126
1023.331	-2129
1023.400	-2158
1023.469	-2773
1023.538	-2331
1023.606	-2703
1023.675	-2448
1023.744	-2426
1023.812	-2880
1023.881	-1573
1023.949	-1884
1024.018	-2579
1024.086	-2138
1024.155	-2129
1024.223	-2682
1024.292	-2932
1024.360	-2351
1024.429	-3432
1024.497	-3346
1024.565	-2527
1024.634	-2105
1024.702	-1572
1024.770	-1000
1024.838	-2841
1024.907	-1485
1024.975	-2189
1025.043	-2175
1025.111	-2031
1025.179	-1368
1025.247	-2243
1025.315	-3318
1025.383	-2347
1025.451	-2589
1025.519	-2545
1025.587	-2842
1025.655	-2165
1025.723	-2350
1025.791	-2720
1025.859	-2559
1025.927	-3004
1025.995	-1979
1026.062	-1978
1026.130	-2306
1026.198	-2912
1026.266	-2044
1026.333	-2480
1026.401	-1740
1026.469	-2177
1026.536	-2301
1026.604	-2706
1026.671	-2572
1026.739	-1784
1026.806	-1816
1026.874	-2775
1026.941	-2369
1027.009	-2393
1027.076	-2582
1027.144	-1916
1027.211	-2758
1027.278	-2828
1027.345	-1961
1027.413	-2442
1027.480	-2956
1027.547	-3113
1027.614	-2531
1027.682	-2369
1027.749	-2861
1027.816	-2594
1027.883	-2187
1027.950	-2499
1028.017	-2732
1028.084	-2096
1028.151	-2688
1028.218	-2403
1028.285	-2701
1028.352	-3239
1028.419	-2218
1028.486	-3037
1028.553	-2188
1028.619	-2437
1028.686	-2030
1028.753	-2650
1028.820	-2690
1028.886	-3176
1028.953	-2531
1029.020	-2408
1029.086	-3260
1029.153	-2543
1029.220	-2503
1029.286	-2789
1029.353	-2661
1029.419	-3456
1029.486	-2557
1029.552	-3211
1029.619	-3178
1029.685	-3735
1029.751	-2706
1029.818	-1353
1029.884	-2392
1029.951	-1476
1030.017	-3250
1030.083	-2539
1030.149	-2236
1030.216	-2842
1030.282	-2358
1030.348	-2680
1030.414	-3334
1030.480	-3050
1030.546	-2083
1030.612	-2628
1030.678	-2266
1030.744	-2171
1030.810	-2769
1030.876	-2459
1030.942	-1649
1031.008	-2508
1031.074	-2801
1031.140	-2374
1031.206	-1880
1031.272	-3733
1031.337	-2054
1031.403	-1864
1031.469	-2822
1031.534	-2917
1031.600	-2517
1031.666	-3770
1031.731	-3416
1031.797	-2080
1031.863	-2795
1031.928	-2606
1031.994	-2384
1032.059	-1896
1032.125	-2509
1032.190	-2664
1032.256	-2146
1032.321	-2541
1032.386	-2551
1032.452	-2487
1032.517	-2089
1032.582	-2839
1032.647	-2135
1032.713	-2540
1032.778	-3209
1032.843	-2660
1032.908	-3134
1032.974	-2093
1033.039	-3030
1033.104	-2160
1033.169	-2846
1033.234	-2319
1033.299	-1808
1033.364	-2468
1033.429	-2257
1033.494	-2327
1033.559	-2644
1033.624	-2544
1033.688	-1537
1033.753	-2566
1033.818	-2498
1033.883	-2369
1033.948	-2211
1034.013	-2444
1034.077	-1869
1034.142	-1657
1034.207	-1509
1034.271	-797
1034.336	-235
1034.400	-1478
1034.465	-1873
1034.530	-2190
1034.594	-2092
1034.658	-2551
1034.723	-2895
1034.787	-2894
1034.852	-1865
1034.916	-1777
1034.981	-2827
1035.045	-3201
1035.109	-2377
1035.173	-2388
1035.238	-2131
1035.302	-2896
1035.366	-2360
1035.430	-2532
1035.495	-2865
1035.559	-2596
1035.623	-2150
1035.687	-2840
1035.751	-2599
1035.815	-2801
1035.879	-1683
1035.943	-2141
1036.007	-3119
1036.071	-2490
1036.135	-1556
1036.198	-2238
1036.262	-2275
1036.326	-2336
1036.390	-2706
1036.454	-2322
1036.517	-2079
1036.581	-2469
1036.645	-2435
1036.709	-2481
1036.772	-3093
1036.836	-2291
1036.900	-1814
1036.963	-3318
1037.026	-2363
1037.090	-2821
1037.154	-2190
1037.217	-1965
1037.280	-2832
1037.344	-2436
1037.407	-3131
1037.471	-2769
1037.534	-2712
1037.597	-2785
1037.661	-2474
1037.724	-2394
1037.787	-2413
1037.850	-2497
1037.913	-2850
1037.977	-1817
1038.040	-2260
1038.103	-2814
1038.166	-2387
1038.229	-2386
1038.292	-2598
1038.355	-2497
1038.418	-1945
1038.481	-1959
1038.544	-2859
1038.607	-1800
1038.670	-2950
1038.732	-2292
1038.795	-2815
1038.858	-2679
1038.921	-1889
1038.984	-1582
1039.046	-2430
1039.109	-2094
1039.172	-1997
1039.234	-2883
1039.297	-2553
1039.360	-2204
1039.422	-2104
1039.485	-2362
1039.547	-3255
1039.610	-2628
1039.672	-2803
1039.734	-3062
1039.797	-2046
1039.859	-3109
1039.922	-2537
1039.984	-2253
1040.046	-1884
1040.109	-1981
1040.171	-2522
1040.233	-2505
1040.295	-2298
1040.358	-2127
1040.420	-2026
1040.482	-2591
1040.544	-2630
1040.606	-1713
1040.668	-2248
1040.730	-2677
1040.792	-2368
1040.854	-2385
1040.916	-2866
1040.978	-1884
1041.040	-1878
1041.102	-2909
1041.164	-2341
1041.225	-1830
1041.287	-2642
1041.349	-2359
1041.411	-2018
1041.472	-1660
1041.534	-2132
1041.596	-2821
1041.657	-1648
1041.719	-1845
1041.781	-2110
1041.842	-2615
1041.904	-2476
1041.965	-2261
1042.027	-1918
1042.088	-2063
1042.150	-2356
1042.211	-1707
1042.272	-2238
1042.334	-2522
1042.395	-2418
1042.456	-2559
1042.518	-2128
1042.579	-1522
1042.640	-1810
1042.701	-3810
1042.763	-2661
1042.824	-2170
1042.885	-2412
1042.946	-2181
1043.007	-1565
1043.068	-2381
1043.129	-2390
1043.190	-2139
1043.251	-1766
1043.312	-2533
1043.373	-2618
1043.434	-2207
1043.495	-2312
1043.556	-1589
1043.616	-1946
1043.677	-2376
1043.738	-1684
1043.799	-2951
1043.859	-2757
1043.920	-2182
1043.981	-1948
1044.041	-2466
1044.102	-1810
1044.162	-2100
1044.223	-2895
1044.284	-2376
1044.344	-1902
1044.405	-1973
1044.465	-1678
1044.525	-2232
1044.586	-2784
1044.646	-2063
1044.707	-2274
1044.767	-2317
1044.827	-2216
1044.887	-2193
1044.948	-1908
1045.008	-1774
1045.068	-2264
1045.128	-2255
1045.188	-1506
1045.249	-2110
1045.309	-2112
1045.369	-2527
1045.429	-1809
1045.489	-2580
1045.549	-2060
1045.609	-2260
1045.669	-1923
1045.729	-1858
1045.789	-1855
1045.848	-2080
1045.908	-1508
1045.968	-973
1046.028	-967
1046.088	-1475
1046.147	-1436
1046.207	-2361
1046.267	-1868
1046.326	-1810
1046.386	-2204
1046.446	-1271
1046.505	-1147
1046.565	-1892
1046.624	-1676
1046.684	-975
1046.743	-1384
1046.803	-516
1046.862	-1028
1046.922	0
