'Start Wavelength	183.907
'End Wavelength	1046.922
'Gate Delay	5.000
'Gate Width (ms)	1.050
'Laser Output Level	0.000
'X Position	0.000
'Y Position	0.000
'Z Position	0.000
'Grid Point Number	1.000
'Shot Number	100.000
183.907	338.000
183.977	-464.000
184.047	430
184.116	232
184.186	-50
184.256	326
184.325	47
184.395	-451
184.465	577
184.534	-188
184.604	-260
184.674	235
184.743	-489
184.813	207
184.883	-103
184.952	-257
185.022	363
185.092	160
185.161	424
185.231	-789
185.301	-205
185.370	89
185.440	250
185.509	-947
185.579	232
185.649	198
185.718	536
185.788	200
185.857	79
185.927	195
185.996	-315
186.066	-229
186.136	-189
186.205	-330
186.275	-37
186.344	3
186.414	342
186.483	-660
186.553	446
186.622	-519
186.692	479
186.761	620
186.831	-585
186.900	-255
186.970	85
187.039	-84
187.109	153
187.178	-500
187.248	-13
187.317	-150
187.387	-259
187.456	177
187.526	683
187.595	450
187.664	-110
187.734	-81
187.803	680
187.873	-306
187.942	-566
188.012	-133
188.081	35
188.150	-405
188.220	37
188.289	520
188.358	-248
188.428	-238
188.497	-563
188.567	437
188.636	-290
188.705	-541
188.775	-385
188.844	-205
188.913	431
188.983	330
189.052	-345
189.121	-291
189.191	439
189.260	-270
189.329	-692
189.399	-248
189.468	569
189.537	-89
189.606	-299
189.676	-451
189.745	-254
189.814	547
189.883	-165
189.953	-101
190.022	55
190.091	-217
190.161	-318
190.230	-408
190.299	-228
190.368	-561
190.437	-218
190.507	-221
190.576	-412
190.645	-358
190.714	-621
190.783	-55
190.853	1
190.922	-223
190.991	-563
191.060	-301
191.129	-757
191.198	-50
191.268	225
191.337	-22
191.406	150
191.475	193
191.544	-588
191.613	-412
191.682	-501
191.752	433
191.821	-187
191.890	-701
191.959	-416
192.028	-407
192.097	171
192.166	46
192.235	-602
192.304	1019
192.373	-627
192.442	-298
192.511	-382
192.580	-676
192.650	64
192.719	-777
192.788	408
192.857	-5
192.926	164
192.995	-276
193.064	-76
193.133	336
193.202	-272
193.271	-111
193.340	-425
193.409	154
193.478	-259
193.547	-56
193.615	-94
193.684	-182
193.753	81
193.822	128
193.891	-53
193.960	-40
194.029	-359
194.098	-259
194.167	124
194.236	31
194.305	-94
194.374	-47
194.443	189
194.512	200
194.580	213
194.649	-218
194.718	-328
194.787	-337
194.856	-565
194.925	48
194.994	-114
195.062	435
195.131	356
195.200	-277
195.269	-693
195.338	508
195.407	267
195.475	-227
195.544	377
195.613	-410
195.682	-232
195.751	-444
195.819	-55
195.888	71
195.957	762
196.026	-746
196.094	860
196.163	-299
196.232	136
196.301	-100
196.369	-277
196.438	682
196.507	-479
196.576	-390
196.644	184
196.713	93
196.782	-744
196.850	-444
196.919	-34
196.988	-182
197.056	-429
197.125	-83
197.194	-123
197.262	61
197.331	149
197.400	-343
197.468	110
197.537	-745
197.606	-381
197.674	-23
197.743	-232
197.812	184
197.880	-126
197.949	198
198.017	-377
198.086	129
198.155	58
198.223	550
198.292	56
198.360	-418
198.429	-881
198.497	176
198.566	435
198.635	607
198.703	793
198.772	192
198.840	388
198.909	80
198.977	-199
199.046	142
199.114	190
199.183	-43
199.251	-25
199.320	-511
199.388	-453
199.457	-520
199.525	885
199.594	-91
199.662	48
199.731	-367
199.799	-379
199.867	326
199.936	-181
200.004	-20
200.073	373
200.141	-428
200.210	-159
200.278	-875
200.346	-335
200.415	933
200.483	-409
200.552	44
200.620	-42
200.688	-348
200.757	-489
200.825	-709
200.893	-116
200.962	-247
201.030	0
201.098	264
201.167	362
201.235	-882
201.303	430
201.372	-286
201.440	-174
201.508	-221
201.577	109
201.645	1061
201.713	-525
201.781	-488
201.850	-17
201.918	-70
201.986	18
202.055	-71
202.123	-265
202.191	-19
202.259	389
202.327	-823
202.396	-364
202.464	-108
202.532	-903
202.600	386
202.669	-377
202.737	-318
202.805	-344
202.873	-92
202.941	122
203.009	-95
203.078	-291
203.146	-3
203.214	206
203.282	-779
203.350	-322
203.418	-1173
203.487	380
203.555	-316
203.623	-281
203.691	63
203.759	-78
203.827	138
203.895	-87
203.963	-249
204.031	82
204.099	186
204.168	-789
204.236	-205
204.304	-74
204.372	-559
204.440	-38
204.508	-311
204.576	-139
204.644	101
204.712	-1073
204.780	-164
204.848	223
204.916	-1079
204.984	-189
205.052	96
205.120	-476
205.188	-307
205.256	464
205.324	-639
205.392	-946
205.460	-157
205.528	-518
205.596	-271
205.664	-642
205.732	-895
205.799	-352
205.867	204
205.935	-393
206.003	549
206.071	-612
206.139	-745
206.207	-384
206.275	-373
206.343	-590
206.411	464
206.478	-445
206.546	153
206.614	183
206.682	-102
206.750	-800
206.818	-189
206.885	331
206.953	-1633
207.021	385
207.089	469
207.157	-713
207.225	387
207.292	-749
207.360	-906
207.428	-644
207.496	-557
207.563	-220
207.631	262
207.699	-295
207.767	87
207.834	-565
207.902	-72
207.970	-354
208.038	-509
208.105	-447
208.173	-539
208.241	-519
208.309	14
208.376	13
208.444	-571
208.512	174
208.579	-366
208.647	412
208.715	188
208.782	-326
208.850	-513
208.918	325
208.985	146
209.053	-108
209.120	-372
209.188	-798
209.256	-407
209.323	-545
209.391	-511
209.459	1141
209.526	262
209.594	-525
209.661	-985
209.729	-678
209.796	-183
209.864	-516
209.932	-1168
209.999	940
210.067	-95
210.134	-323
210.202	-836
210.269	354
210.337	61
210.404	-107
210.472	-132
210.539	-55
210.607	-723
210.674	-188
210.742	211
210.809	159
210.877	-317
210.944	-32
211.012	-1037
211.079	1106
211.146	-156
211.214	272
211.281	-576
211.349	313
211.416	-140
211.484	1083
211.551	-181
211.618	-147
211.686	-556
211.753	-537
211.821	-4
211.888	-703
211.955	-58
212.023	222
212.090	144
212.157	-142
212.225	-456
212.292	660
212.359	819
212.427	731
212.494	326
212.561	-297
212.629	-260
212.696	-737
212.763	-404
212.831	-687
212.898	-4
212.965	-267
213.032	-336
213.100	-207
213.167	-747
213.234	-260
213.301	-449
213.369	359
213.436	-157
213.503	-8
213.570	-481
213.638	-1216
213.705	-236
213.772	-358
213.839	-719
213.906	173
213.973	-172
214.041	-1150
214.108	-495
214.175	303
214.242	-417
214.309	701
214.376	37
214.444	-855
214.511	135
214.578	-543
214.645	-534
214.712	116
214.779	200
214.846	-556
214.913	-113
214.980	269
215.048	-350
215.115	-239
215.182	-354
215.249	-381
215.316	-809
215.383	391
215.450	-492
215.517	-169
215.584	-42
215.651	-385
215.718	-665
215.785	286
215.852	-664
215.919	152
215.986	-238
216.053	78
216.120	-1091
216.187	119
216.254	-381
216.321	70
216.388	-797
216.455	-71
216.522	-584
216.589	-986
216.656	-891
216.722	35
216.789	464
216.856	389
216.923	-169
216.990	-92
217.057	99
217.124	-495
217.191	-8
217.258	-312
217.324	39
217.391	-11
217.458	-358
217.525	114
217.592	-9
217.659	-415
217.725	773
217.792	-651
217.859	256
217.926	-736
217.993	-536
218.059	375
218.126	-594
218.193	223
218.260	-358
218.327	18
218.393	-394
218.460	-330
218.527	-812
218.594	-174
218.660	-624
218.727	465
218.794	-1342
218.860	83
218.927	-554
218.994	-871
219.061	112
219.127	-145
219.194	-561
219.261	-704
219.327	-329
219.394	675
219.461	-871
219.527	-623
219.594	-356
219.661	-629
219.727	-953
219.794	-342
219.860	-293
219.927	-38
219.994	-66
220.060	286
220.127	326
220.193	-407
220.260	-618
220.326	-105
220.393	73
220.460	-519
220.526	-301
220.593	-959
220.659	652
220.726	-758
220.792	-222
220.859	-234
220.925	457
220.992	476
221.058	1393
221.125	1146
221.191	-212
221.258	-750
221.324	854
221.391	-243
221.457	-562
221.524	5
221.590	502
221.657	1101
221.723	-376
221.789	-259
221.856	-354
221.922	-1429
221.989	-520
222.055	-340
222.121	-697
222.188	937
222.254	11
222.321	-540
222.387	-65
222.453	664
222.520	-487
222.586	-691
222.652	-338
222.719	-457
222.785	-1092
222.851	-305
222.918	-782
222.984	-21
223.050	9
223.116	-1419
223.183	-107
223.249	49
223.315	-751
223.382	-825
223.448	-161
223.514	-682
223.580	-830
223.647	-723
223.713	-1029
223.779	-523
223.845	-450
223.911	-411
223.978	-1561
224.044	106
224.110	-648
224.176	74
224.242	-913
224.309	-1175
224.375	-765
224.441	-281
224.507	-630
224.573	-1043
224.639	320
224.705	-380
224.772	118
224.838	-1218
224.904	-342
224.970	-773
225.036	-941
225.102	-878
225.168	549
225.234	527
225.300	-857
225.366	-548
225.432	-292
225.499	-458
225.565	-155
225.631	-1285
225.697	-663
225.763	-221
225.829	-741
225.895	418
225.961	515
226.027	-286
226.093	-895
226.159	444
226.225	-83
226.291	416
226.357	1878
226.423	885
226.489	-559
226.554	-104
226.620	770
226.686	384
226.752	573
226.818	1149
226.884	2227
226.950	1283
227.016	175
227.082	691
227.148	33
227.214	248
227.279	-26
227.345	-731
227.411	-760
227.477	-279
227.543	-369
227.609	-1043
227.674	481
227.740	-657
227.806	406
227.872	-384
227.938	307
228.003	2
228.069	259
228.135	37
228.201	-129
228.267	-609
228.332	-533
228.398	-2252
228.464	-220
228.530	-986
228.595	-166
228.661	-551
228.727	-393
228.792	570
228.858	-334
228.924	-1733
228.990	850
229.055	-437
229.121	-524
229.187	372
229.252	-1087
229.318	-311
229.384	-720
229.449	-424
229.515	-1747
229.581	-1230
229.646	1317
229.712	84
229.777	-400
229.843	-915
229.909	557
229.974	-263
230.040	-30
230.105	-71
230.171	-1597
230.236	72
230.302	-591
230.368	-400
230.433	-434
230.499	-879
230.564	309
230.630	-774
230.695	166
230.761	-1
230.826	-2020
230.892	95
230.957	-1036
231.023	-632
231.088	73
231.154	-589
231.219	286
231.284	-632
231.350	299
231.415	-815
231.481	299
231.546	-240
231.612	-532
231.677	-404
231.742	-858
231.808	837
231.873	-1160
231.939	-2182
232.004	937
232.069	-10
232.135	-579
232.200	-44
232.265	-92
232.331	-771
232.396	-307
232.461	-1548
232.527	-1176
232.592	-735
232.657	-354
232.723	-1467
232.788	16
232.853	93
232.918	285
232.984	-741
233.049	-741
233.114	-1535
233.179	-282
233.245	-181
233.310	178
233.375	-1278
233.440	36
233.506	-870
233.571	-713
233.636	-305
233.701	-282
233.766	-636
233.832	-331
233.897	-194
233.962	-1641
234.027	924
234.092	-138
234.157	-775
234.222	-535
234.288	-337
234.353	156
234.418	459
234.483	580
234.548	-270
234.613	-263
234.678	-206
234.743	-337
234.808	476
234.873	-1103
234.938	266
235.004	-123
235.069	-165
235.134	-1344
235.199	-267
235.264	-410
235.329	-1394
235.394	195
235.459	107
235.524	-1634
235.589	32
235.654	-691
235.719	-1237
235.784	305
235.849	-596
235.913	255
235.978	-706
236.043	-156
236.108	-238
236.173	-723
236.238	807
236.303	-939
236.368	-1375
236.433	455
236.498	-54
236.563	544
236.627	458
236.692	2641
236.757	2464
236.822	740
236.887	-611
236.952	1126
237.017	-631
237.081	730
237.146	-439
237.211	1625
237.276	2391
237.341	3374
237.405	2081
237.470	1172
237.535	-133
237.600	131
237.664	561
237.729	-199
237.794	-992
237.859	1786
237.923	-203
237.988	-495
238.053	347
238.118	-385
238.182	218
238.247	462
238.312	-1078
238.376	682
238.441	-1355
238.506	1527
238.570	-633
238.635	458
238.700	79
238.764	-669
238.829	-492
238.893	-941
238.958	-167
239.023	66
239.087	-829
239.152	-186
239.216	-1131
239.281	-265
239.346	-448
239.410	-459
239.475	-447
239.539	834
239.604	-1313
239.668	-351
239.733	-1041
239.797	-394
239.862	537
239.926	-129
239.991	185
240.055	-265
240.120	-982
240.184	-244
240.249	-534
240.313	-158
240.378	-482
240.442	130
240.507	530
240.571	-1047
240.635	-891
240.700	-172
240.764	-330
240.829	-442
240.893	-1146
240.957	-598
241.022	558
241.086	1278
241.151	-1075
241.215	-791
241.279	404
241.344	-944
241.408	61
241.472	-718
241.537	359
241.601	-317
241.665	-1013
241.730	0
241.794	922
241.858	-1066
241.922	-218
241.987	229
242.051	-783
242.115	-968
242.179	229
242.244	-927
242.308	66
242.372	178
242.436	-578
242.501	-214
242.565	-283
242.629	-363
242.693	294
242.757	-509
242.822	-510
242.886	412
242.950	875
243.014	-1498
243.078	-263
243.142	101
243.206	-655
243.271	715
243.335	-700
243.399	497
243.463	-207
243.527	2186
243.591	-234
243.655	-286
243.719	-664
243.783	1143
243.847	465
243.911	820
243.975	-415
244.040	-1171
244.104	1452
244.168	-548
244.232	-767
244.296	266
244.360	796
244.424	-1804
244.488	177
244.552	-380
244.615	-1595
244.679	-260
244.743	-815
244.807	-856
244.871	-270
244.935	990
244.999	-735
245.063	-785
245.127	496
245.191	-249
245.255	-363
245.319	330
245.383	-2052
245.446	462
245.510	-1448
245.574	11
245.638	512
245.702	-1722
245.766	398
245.829	775
245.893	-175
245.957	-260
246.021	813
246.085	-367
246.149	79
246.212	745
246.276	730
246.340	-903
246.404	-427
246.467	611
246.531	-1896
246.595	528
246.659	782
246.722	-1366
246.786	459
246.850	-127
246.913	-348
246.977	-1053
247.041	-256
247.104	-744
247.168	-389
247.232	329
247.295	1581
247.359	536
247.423	26
247.486	162
247.550	605
247.614	-828
247.677	119
247.741	520
247.804	18
247.868	73
247.932	-349
247.995	2395
248.059	755
248.122	-982
248.186	1169
248.249	191
248.313	2492
248.376	3480
248.440	1059
248.503	-778
248.567	1854
248.630	-249
248.694	841
248.757	2219
248.821	3421
248.884	3319
248.948	903
249.011	2208
249.075	2629
249.138	3743
249.202	1632
249.265	698
249.328	241
249.392	469
249.455	1456
249.519	-385
249.582	-164
249.645	1120
249.709	792
249.772	-115
249.835	104
249.899	132
249.962	458
250.025	-334
250.089	583
250.152	2049
250.215	40
250.279	-392
250.342	178
250.405	-181
250.468	-316
250.532	-536
250.595	1410
250.658	1265
250.721	5158
250.785	1809
250.848	1770
250.911	-812
250.974	799
251.038	354
251.101	2485
251.164	289
251.227	996
251.290	778
251.354	921
251.417	3202
251.480	4141
251.543	2339
251.606	7248
251.669	5709
251.732	2169
251.795	2891
251.859	2092
251.922	4162
251.985	3213
252.048	2295
252.111	280
252.174	451
252.237	1293
252.300	4098
252.363	3426
252.426	7228
252.489	1963
252.552	1402
252.615	-362
252.678	1207
252.741	2954
252.804	2450
252.867	6751
252.930	4212
252.993	2414
253.056	1526
253.119	118
253.182	-815
253.245	523
253.308	435
253.371	98
253.434	45
253.497	-76
253.559	2132
253.622	1150
253.685	892
253.748	755
253.811	495
253.874	823
253.937	-58
254.000	-88
254.062	758
254.125	1446
254.188	3430
254.251	1192
254.314	-488
254.376	254
254.439	1605
254.502	1170
254.565	531
254.628	2447
254.690	771
254.753	245
254.816	530
254.878	559
254.941	552
255.004	569
255.067	4
255.129	-63
255.192	309
255.255	-741
255.317	289
255.380	75
255.443	-635
255.505	-336
255.568	-732
255.631	-378
255.693	-118
255.756	-1142
255.819	903
255.881	-626
255.944	-575
256.006	-178
256.069	-861
256.132	-646
256.194	-301
256.257	-730
256.319	221
256.382	-265
256.444	-525
256.507	459
256.569	-502
256.632	191
256.694	-674
256.757	2226
256.819	5942
256.882	1413
256.944	429
257.007	691
257.069	84
257.132	-128
257.194	969
257.257	-520
257.319	-533
257.381	-813
257.444	2097
257.506	6115
257.569	7615
257.631	1981
257.693	685
257.756	294
257.818	195
257.880	-408
257.943	-109
258.005	-154
258.067	-171
258.130	200
258.192	-501
258.254	-415
258.317	-337
258.379	159
258.441	-237
258.503	791
258.566	46
258.628	1916
258.690	-971
258.753	602
258.815	347
258.877	-1014
258.939	34
259.001	916
259.064	-350
259.126	-281
259.188	-548
259.250	-423
259.312	169
259.375	-75
259.437	-281
259.499	61
259.561	-597
259.623	92
259.685	-701
259.747	-550
259.809	152
259.872	482
259.934	2139
259.996	3501
260.058	1292
260.120	-752
260.182	-43
260.244	-555
260.306	-706
260.368	47
260.430	174
260.492	877
260.554	2742
260.616	-807
260.678	210
260.740	1235
260.802	-404
260.864	622
260.926	-672
260.988	571
261.050	-280
261.112	1175
261.174	3904
261.236	1345
261.298	-195
261.359	-275
261.421	518
261.483	-217
261.545	206
261.607	-605
261.669	-128
261.731	-76
261.793	937
261.854	-1113
261.916	-191
261.978	-49
262.040	27
262.102	-193
262.164	-673
262.225	-1112
262.287	681
262.349	251
262.411	-182
262.472	737
262.534	-319
262.596	-227
262.658	-26
262.719	-1269
262.781	427
262.843	-106
262.904	-483
262.966	-533
263.028	569
263.090	878
263.151	4216
263.213	2371
263.275	445
263.336	-34
263.398	882
263.459	-902
263.521	-138
263.583	557
263.644	556
263.706	-408
263.767	-1618
263.829	188
263.891	-470
263.952	-717
264.014	-891
264.075	174
264.137	2292
264.198	860
264.260	-102
264.321	-452
264.383	85
264.444	3565
264.506	-17
264.567	196
264.629	1381
264.690	2302
264.752	245
264.813	477
264.875	-954
264.936	493
264.998	-580
265.059	-960
265.120	-321
265.182	-442
265.243	2518
265.305	2949
265.366	83
265.427	-198
265.489	85
265.550	-1807
265.611	-1288
265.673	-892
265.734	355
265.795	-247
265.857	-1161
265.918	-855
265.979	342
266.040	3897
266.102	4605
266.163	1378
266.224	74
266.286	-90
266.347	-777
266.408	-378
266.469	246
266.530	-906
266.592	-410
266.653	-250
266.714	231
266.775	-94
266.836	-22
266.898	-1342
266.959	-650
267.020	-305
267.081	522
267.142	-639
267.203	-715
267.264	-1496
267.326	437
267.387	-762
267.448	-1070
267.509	-782
267.570	-869
267.631	-1239
267.692	-1223
267.753	170
267.814	-956
267.875	203
267.936	762
267.997	154
268.058	-561
268.119	-824
268.180	158
268.241	-1583
268.302	-616
268.363	-417
268.424	-1292
268.485	49
268.546	-868
268.607	-352
268.668	-604
268.729	-659
268.790	-1070
268.851	-565
268.912	-221
268.972	603
269.033	-595
269.094	-911
269.155	-227
269.216	-162
269.277	-1058
269.338	-806
269.398	60
269.459	-1196
269.520	-290
269.581	-594
269.642	-390
269.702	-605
269.763	-121
269.824	-381
269.885	-467
269.945	462
270.006	-519
270.067	-1187
270.128	-1842
270.188	-1367
270.249	-1270
270.310	-911
270.370	-264
270.431	-878
270.492	-460
270.553	-397
270.613	-345
270.674	611
270.734	-864
270.795	-274
270.856	-710
270.916	-1024
270.977	-430
271.038	-281
271.098	-615
271.159	-575
271.219	90
271.280	-487
271.340	-682
271.401	-882
271.462	-1042
271.522	-478
271.583	-467
271.643	-727
271.704	-803
271.764	-522
271.825	295
271.885	3723
271.946	5179
272.006	811
272.066	899
272.127	3643
272.187	1025
272.248	-428
272.308	-666
272.369	1805
272.429	705
272.489	63
272.550	211
272.610	904
272.671	501
272.731	128
272.791	-937
272.852	-268
272.912	529
272.972	-165
273.033	-357
273.093	-419
273.153	1168
273.214	-440
273.274	-773
273.334	1768
273.394	3276
273.455	730
273.515	1234
273.575	3215
273.635	981
273.696	1026
273.756	3269
273.816	723
273.876	446
273.936	57
273.997	1872
274.057	-471
274.117	-273
274.177	399
274.237	3739
274.297	4418
274.358	1347
274.418	1842
274.478	2953
274.538	-565
274.598	-1056
274.658	1248
274.718	844
274.778	601
274.838	-284
274.898	-103
274.958	1467
275.018	2864
275.078	1842
275.138	922
275.198	-596
275.258	-1318
275.318	-521
275.378	891
275.438	724
275.498	-33
275.558	194
275.618	2609
275.678	3012
275.738	1799
275.798	965
275.858	428
275.918	-1452
275.978	-289
276.038	-441
276.098	-915
276.157	-126
276.217	3195
276.277	744
276.337	-566
276.397	-743
276.457	-331
276.517	-1122
276.576	-48
276.636	-849
276.696	341
276.756	1260
276.815	492
276.875	-735
276.935	-517
276.995	131
277.055	-627
277.114	-444
277.174	-66
277.234	1293
277.293	426
277.353	-315
277.413	-1115
277.472	-703
277.532	-724
277.592	-415
277.651	318
277.711	1998
277.771	-585
277.830	2538
277.890	2677
277.950	168
278.009	3525
278.069	1358
278.128	2013
278.188	1508
278.248	101
278.307	1113
278.367	872
278.426	-101
278.486	-733
278.545	-402
278.605	-860
278.664	-413
278.724	170
278.783	671
278.843	4071
278.902	274
278.962	-559
279.021	-714
279.081	-434
279.140	540
279.199	-307
279.259	-541
279.318	585
279.378	-261
279.437	481
279.496	3645
279.556	10573
279.615	8202
279.675	1758
279.734	742
279.793	1328
279.853	3432
279.912	1329
279.971	178
280.031	-536
280.090	407
280.149	3476
280.208	1084
280.268	7878
280.327	8761
280.386	1190
280.445	575
280.505	1727
280.564	367
280.623	-221
280.682	70
280.742	2030
280.801	-478
280.860	-1100
280.919	-433
280.978	-921
281.037	-715
281.097	-610
281.156	-518
281.215	-743
281.274	-374
281.333	1384
281.392	1212
281.451	-326
281.510	-332
281.569	-755
281.628	-813
281.688	-222
281.747	39
281.806	-1108
281.865	701
281.924	-560
281.983	-927
282.042	-823
282.101	-533
282.160	-254
282.219	-1677
282.278	-375
282.337	1137
282.396	209
282.454	-831
282.513	-654
282.572	2302
282.631	1542
282.690	-663
282.749	-804
282.808	-280
282.867	-195
282.926	-793
282.985	128
283.043	-1442
283.102	-1081
283.161	113
283.220	667
283.279	3245
283.338	444
283.396	-253
283.455	397
283.514	-400
283.573	1574
283.631	61
283.690	430
283.749	-252
283.808	363
283.866	1357
283.925	-291
283.984	-783
284.043	-446
284.101	474
284.160	-634
284.219	361
284.277	322
284.336	-247
284.395	3152
284.453	2891
284.512	-887
284.570	1198
284.629	333
284.688	-48
284.746	298
284.805	590
284.863	1105
284.922	1976
284.981	1044
285.039	2334
285.098	4596
285.156	10607
285.215	19197
285.273	19074
285.332	13765
285.390	7175
285.449	4091
285.507	2675
285.566	1134
285.624	493
285.683	19
285.741	379
285.799	-168
285.858	-358
285.916	164
285.975	-723
286.033	278
286.091	-603
286.150	-337
286.208	-308
286.267	-52
286.325	-239
286.383	1066
286.442	189
286.500	-1159
286.558	-122
286.616	-440
286.675	-66
286.733	331
286.791	-682
286.850	-751
286.908	80
286.966	1578
287.024	-221
287.083	-663
287.141	-467
287.199	-5
287.257	75
287.315	-12
287.374	-1101
287.432	906
287.490	1234
287.548	671
287.606	456
287.664	-410
287.723	-85
287.781	80
287.839	-518
287.897	697
287.955	-605
288.013	49
288.071	612
288.129	6305
288.187	23089
288.245	11358
288.303	3664
288.361	589
288.419	837
288.477	112
288.535	-532
288.593	205
288.651	-900
288.709	-751
288.767	-1116
288.825	-776
288.883	-674
288.941	-806
288.999	-1432
289.057	-592
289.115	-1008
289.173	-1282
289.231	115
289.289	-753
289.346	-355
289.404	-206
289.462	472
289.520	326
289.578	-885
289.636	-1276
289.694	-835
289.751	-674
289.809	-625
289.867	-528
289.925	540
289.983	317
290.040	-765
290.098	-806
290.156	-1449
290.214	-2
290.271	-568
290.329	-886
290.387	-980
290.444	-902
290.502	-1009
290.560	-241
290.617	-1035
290.675	-539
290.733	-989
290.790	391
290.848	-847
290.906	-142
290.963	-251
291.021	-859
291.078	-77
291.136	-1099
291.194	1364
291.251	5932
291.309	1533
291.366	-596
291.424	-498
291.481	-257
291.539	-916
291.596	-445
291.654	-1580
291.711	-428
291.769	-859
291.826	143
291.884	573
291.941	-934
291.999	-824
292.056	-242
292.114	-430
292.171	-637
292.228	-202
292.286	-202
292.343	313
292.401	976
292.458	-105
292.515	149
292.573	160
292.630	-966
292.687	-682
292.745	-270
292.802	600
292.859	2653
292.917	4733
292.974	2518
293.031	298
293.089	-109
293.146	-659
293.203	-209
293.260	-439
293.318	-475
293.375	1574
293.432	129
293.489	-56
293.546	-172
293.604	-216
293.661	1216
293.718	6593
293.775	4650
293.832	1584
293.889	407
293.947	-169
294.004	-254
294.061	96
294.118	1693
294.175	4753
294.232	8640
294.289	3273
294.346	1340
294.403	395
294.460	-177
294.517	-546
294.574	-160
294.631	-881
294.688	-214
294.745	659
294.802	8642
294.859	13543
294.916	4894
294.973	845
295.030	-8
295.087	688
295.144	6
295.201	109
295.258	0
295.315	217
295.372	1800
295.429	4895
295.486	2756
295.542	1268
295.599	5079
295.656	9903
295.713	6802
295.770	6774
295.827	2585
295.883	90
295.940	1112
295.997	1491
296.054	2085
296.111	943
296.167	27
296.224	-499
296.281	-971
296.338	-186
296.394	-903
296.451	-357
296.508	1844
296.564	5757
296.621	4343
296.678	6105
296.734	10267
296.791	4690
296.848	1772
296.904	1709
296.961	3968
297.018	6523
297.074	5776
297.131	2758
297.187	1094
297.244	1144
297.301	4449
297.357	10559
297.414	4916
297.470	1352
297.527	1232
297.583	385
297.640	624
297.696	526
297.753	-10
297.809	-300
297.866	-788
297.922	711
297.979	-26
298.035	611
298.092	951
298.148	3864
298.204	4408
298.261	2217
298.317	3447
298.374	8682
298.430	5601
298.486	2904
298.543	1229
298.599	1455
298.656	1152
298.712	1723
298.768	5099
298.824	2769
298.881	864
298.937	294
298.993	529
299.050	776
299.106	1028
299.162	83
299.218	220
299.275	501
299.331	264
299.387	1340
299.443	5923
299.500	7784
299.556	2849
299.612	1278
299.668	442
299.724	1033
299.780	1247
299.837	706
299.893	758
299.949	5508
300.005	8662
300.061	5987
300.117	10775
300.173	6405
300.229	2262
300.285	2434
300.341	3336
300.397	1686
300.453	482
300.510	303
300.566	231
300.622	1748
300.678	2408
300.734	6582
300.790	6605
300.845	7353
300.901	4768
300.957	5840
301.013	5841
301.069	1980
301.125	1631
301.181	591
301.237	902
301.293	-309
301.349	337
301.405	803
301.461	-403
301.516	1409
301.572	1191
301.628	1846
301.684	1756
301.740	3051
301.796	3757
301.851	3526
301.907	5181
301.963	5057
302.019	5951
302.074	17843
302.130	21832
302.186	11643
302.242	4892
302.297	2180
302.353	2167
302.409	4136
302.464	4086
302.520	3094
302.576	6388
302.631	9451
302.687	5722
302.743	1664
302.798	1174
302.854	849
302.910	1717
302.965	1942
303.021	2827
303.076	3046
303.132	3326
303.187	3950
303.243	2791
303.299	1108
303.354	1133
303.410	-316
303.465	483
303.521	984
303.576	414
303.632	186
303.687	2226
303.743	6243
303.798	6196
303.853	2733
303.909	1626
303.964	508
304.020	2003
304.075	2241
304.130	3823
304.186	4670
304.241	6286
304.297	5381
304.352	2674
304.358	2589
304.407	1899
304.449	1427
304.463	1269
304.518	417
304.539	661
304.573	1049
304.629	1435
304.630	1423
304.684	920
304.720	3723
304.739	5145
304.794	7746
304.811	6828
304.850	4661
304.902	2147
304.905	1980
304.960	1002
304.992	664
305.015	422
305.071	1777
305.083	1620
305.126	1063
305.173	982
305.181	978
305.236	137
305.264	249
305.292	323
305.347	623
305.354	718
305.402	1297
305.445	1598
305.457	1715
305.512	1931
305.535	1849
305.567	1624
305.622	1712
305.626	1735
305.678	2610
305.716	5307
305.733	6245
305.788	8511
305.807	7561
305.843	6035
305.897	6062
305.898	6054
305.953	7280
305.988	5148
306.008	3946
306.063	2181
306.078	1780
306.118	786
306.168	486
306.173	463
306.228	742
306.259	800
306.283	904
306.338	711
306.349	678
306.393	422
306.440	689
306.448	749
306.503	877
306.530	1117
306.558	1545
306.613	2917
306.620	3326
306.668	5918
306.711	6950
306.723	7003
306.778	6045
306.801	4854
306.833	3491
306.888	1559
306.892	1478
306.943	778
306.982	1178
306.997	1274
307.052	629
307.072	643
307.107	884
307.162	878
307.163	892
307.217	2292
307.253	2868
307.272	3037
307.327	3246
307.343	2958
307.381	2213
307.434	1951
307.436	1990
307.491	3653
307.524	5779
307.546	6664
307.600	6946
307.614	6188
307.655	3647
307.704	2126
307.710	2056
307.765	1580
307.795	2080
307.819	2508
307.874	4954
307.885	4850
307.929	3856
307.975	3131
307.984	3122
308.038	3844
308.065	4485
308.093	6328
308.148	13341
308.156	14978
308.202	23852
308.246	29877
308.257	29958
308.312	20203
308.336	15850
308.366	12342
308.421	7971
308.426	7600
308.475	4703
308.517	3216
308.530	2775
308.585	2511
308.607	2052
308.639	1582
308.694	1922
308.697	1948
308.748	3371
308.787	5535
308.803	5844
308.857	4941
308.877	4403
308.912	3860
308.967	3079
308.967	3083
309.021	3506
309.058	4245
309.076	5216
309.130	9330
309.148	11121
309.185	17832
309.238	29782
309.239	29845
309.293	33920
309.328	31826
309.348	28679
309.402	16527
309.418	13309
309.457	9243
309.508	5848
309.511	5657
309.566	3858
309.598	3362
309.620	3607
309.674	4778
309.688	5149
309.729	5107
309.778	4361
309.783	4293
309.837	3400
309.868	3011
309.892	3746
309.946	6069
309.959	7023
310.001	9826
310.049	11989
310.055	11671
310.109	7491
310.139	4849
310.163	3676
310.218	1796
310.229	1515
310.272	1253
310.319	1230
310.326	1198
310.381	831
310.409	796
310.435	786
310.489	491
310.499	491
310.543	818
310.589	1197
310.598	1254
310.652	1610
310.679	1606
310.706	1389
310.760	1239
310.769	1208
310.814	883
310.859	444
310.868	426
310.923	508
310.948	521
310.977	551
311.031	673
311.038	701
311.085	1109
311.128	1312
311.139	1281
311.193	1240
311.218	1208
311.247	1176
311.301	1127
311.308	1119
311.356	883
311.398	737
311.410	838
311.464	1226
311.488	1398
311.518	1096
311.572	580
311.578	519
311.626	1198
311.668	1884
311.680	1922
311.734	2048
311.758	2062
311.788	1718
311.842	1185
311.847	1128
311.896	1669
311.937	2200
311.950	2186
312.004	2152
312.027	2116
312.058	1767
312.112	1183
312.117	1132
312.165	965
312.207	838
312.297	1135
312.386	1488
312.476	621
312.566	2441
312.656	1477
312.745	1037
312.835	1180
312.925	1631
313.015	867
313.104	1888
313.194	1405
313.284	1322
313.374	1413
313.463	1524
313.553	565
313.643	349
313.732	1432
313.822	690
313.912	1213
314.001	2019
314.091	913
314.180	1485
314.270	1620
314.360	1837
314.449	1210
314.539	583
314.628	710
314.718	1407
314.808	1072
314.897	845
314.987	881
315.076	911
315.166	1087
315.255	1122
315.345	1078
315.434	744
315.524	1328
315.613	1107
315.703	1081
315.792	2034
315.881	1585
315.971	330
316.060	2236
316.150	2893
316.239	2440
316.328	1297
316.418	1186
316.507	1096
316.597	1798
316.686	888
316.775	1014
316.865	2738
316.954	339
317.043	1354
317.133	-263
317.222	1094
317.311	472
317.400	96
317.490	2143
317.579	1086
317.668	778
317.757	1429
317.847	1671
317.936	2422
318.025	2253
318.114	1401
318.203	473
318.293	1876
318.382	3114
318.471	3657
318.560	4938
318.649	10149
318.738	1859
318.828	959
318.917	1208
319.006	1589
319.095	3712
319.184	12426
319.273	6215
319.362	3486
319.451	1094
319.540	785
319.629	2213
319.718	3849
319.807	1244
319.896	4189
319.985	14363
320.074	5463
320.163	1610
320.252	1182
320.341	2454
320.430	2511
320.519	1827
320.608	786
320.697	863
320.786	898
320.875	932
320.964	2213
321.053	1942
321.142	3485
321.230	3789
321.319	3453
321.408	7571
321.497	3725
321.586	2664
321.675	2288
321.764	3002
321.852	2529
321.941	4301
322.030	2888
322.119	2954
322.207	7746
322.296	6134
322.385	2392
322.474	2848
322.562	7609
322.651	4399
322.740	3484
322.829	4163
322.917	3523
323.006	2825
323.095	1468
323.183	1187
323.272	2634
323.361	3921
323.449	11259
323.538	3758
323.626	9068
323.715	3712
323.804	1538
323.892	7254
323.981	3587
324.069	920
324.158	3988
324.246	3499
324.335	2133
324.424	2779
324.512	1628
324.601	1584
324.689	5613
324.778	10705
324.866	2887
324.954	738
325.043	1042
325.131	895
325.220	3034
325.308	3576
325.397	2497
325.485	1243
325.574	446
325.662	526
325.750	541
325.839	869
325.927	-206
326.015	283
326.104	813
326.192	2403
326.280	1058
326.369	648
326.457	1656
326.545	1790
326.634	941
326.722	446
326.810	434
326.898	126
326.987	608
327.075	1017
327.163	2067
327.251	1123
327.340	5347
327.428	7738
327.516	597
327.604	266
327.692	435
327.781	1038
327.869	1753
327.957	551
328.045	763
328.133	644
328.221	314
328.309	452
328.397	912
328.485	385
328.574	1160
328.662	3591
328.750	2745
328.838	42
328.926	623
329.014	-144
329.102	1248
329.190	3648
329.278	2115
329.366	1064
329.454	-137
329.542	376
329.630	-636
329.718	448
329.806	266
329.893	825
329.981	652
330.069	342
330.157	404
330.245	784
330.333	187
330.421	-130
330.509	651
330.597	4916
330.684	2697
330.772	1463
330.860	1911
330.948	3670
331.036	1105
331.123	-328
331.211	50
331.299	519
331.387	2678
331.475	4680
331.562	1371
331.650	-8
331.738	-341
331.825	822
331.913	29
332.001	-411
332.089	528
332.176	1315
332.264	4146
332.352	2223
332.439	822
332.527	116
332.614	-102
332.702	-59
332.790	96
332.877	1668
332.965	3501
333.052	-168
333.140	869
333.228	841
333.315	31
333.403	623
333.490	1627
333.578	407
333.665	1000
333.753	890
333.840	-122
333.928	1019
334.015	3031
334.103	3801
334.190	14098
334.278	3920
334.365	784
334.452	267
334.540	-40
334.627	-508
334.715	1235
334.802	1275
334.889	11871
334.977	10043
335.064	1504
335.151	39
335.239	884
335.326	1429
335.413	6647
335.501	9373
335.588	832
335.675	-20
335.762	1136
335.850	3288
335.937	1580
336.024	2828
336.111	14514
336.199	5374
336.286	706
336.373	50
336.460	257
336.547	245
336.635	737
336.722	608
336.809	904
336.896	581
336.983	5226
337.070	11565
337.157	13988
337.245	7844
337.332	5013
337.419	778
337.506	470
337.593	892
337.680	3452
337.767	13135
337.854	2771
337.941	3211
338.028	3013
338.115	179
338.202	1631
338.289	1741
338.376	8014
338.463	2200
338.550	7704
338.637	7642
338.724	2360
338.811	2731
338.898	639
338.984	460
339.071	536
339.158	603
339.245	3113
339.332	1891
339.419	1761
339.506	1552
339.593	-663
339.679	-86
339.766	296
339.853	1030
339.940	939
340.027	153
340.113	373
340.200	1159
340.287	302
340.374	148
340.460	1692
340.547	159
340.634	1381
340.720	4640
340.807	2188
340.894	-295
340.980	316
341.067	-233
341.154	1056
341.240	668
341.327	2195
341.414	1460
341.500	813
341.587	-194
341.674	909
341.760	2636
341.847	1708
341.933	-476
342.020	-434
342.106	583
342.193	466
342.279	848
342.366	462
342.452	1594
342.539	-2
342.625	1561
342.712	4900
342.798	1143
342.885	853
342.971	88
343.058	-98
343.144	-425
343.230	781
343.317	613
343.403	-90
343.490	-142
343.576	-280
343.662	-328
343.749	407
343.835	1312
343.921	1493
344.008	8958
344.094	21277
344.180	3673
344.267	608
344.353	5829
344.439	6483
344.525	2638
344.612	2501
344.698	2006
344.784	-71
344.870	463
344.957	468
345.043	787
345.129	-680
345.215	1984
345.301	956
345.387	968
345.474	-710
345.560	179
345.646	-356
345.732	-347
345.818	1006
345.904	930
345.990	572
346.076	-15
346.162	1239
346.249	725
346.335	-379
346.421	211
346.507	1963
346.593	8374
346.679	524
346.765	147
346.851	-269
346.937	-1001
347.023	1160
347.108	77
347.194	-862
347.280	-5
347.366	369
347.452	2628
347.538	8967
347.624	8548
347.710	6286
347.796	395
347.882	202
347.967	262
348.053	614
348.139	742
348.225	143
348.311	-903
348.397	245
348.482	312
348.568	430
348.654	-1277
348.740	-110
348.825	-1610
348.911	1234
348.997	3861
349.083	8442
349.168	574
349.254	793
349.340	603
349.425	-391
349.511	-20
349.597	545
349.682	1175
349.768	6103
349.854	2549
349.939	688
350.025	-533
350.110	-36
350.196	-26
350.282	-204
350.367	92
350.453	474
350.538	375
350.624	489
350.709	447
350.795	-518
350.880	-362
350.966	983
351.051	725
351.137	37
351.222	290
351.308	2020
351.393	5522
351.479	1135
351.564	-169
351.649	388
351.735	-11
351.820	70
351.906	381
351.991	448
352.076	3661
352.162	5574
352.247	571
352.332	373
352.418	598
352.503	2408
352.588	9570
352.673	5962
352.759	906
352.844	391
352.929	596
353.014	34
353.100	296
353.185	-24
353.270	572
353.355	1058
353.441	910
353.526	-167
353.611	1103
353.696	1046
353.781	1030
353.866	-268
353.952	444
354.037	958
354.122	2830
354.207	2849
354.292	941
354.377	524
354.462	-362
354.547	-161
354.632	711
354.717	576
354.802	217
354.887	-293
354.972	314
355.057	-495
355.142	-811
355.227	293
355.312	-39
355.397	1310
355.482	5536
355.567	2103
355.652	2144
355.737	1584
355.822	7745
355.907	4745
355.991	619
356.076	-818
356.161	32
356.246	193
356.331	-68
356.416	601
356.501	11402
356.585	10283
356.670	145
356.755	2383
356.840	1341
356.924	6583
357.009	25711
357.094	9820
357.179	501
357.263	974
357.348	1222
357.433	955
357.517	1091
357.602	605
357.687	-1025
357.771	618
357.856	4134
357.941	2440
358.025	4694
358.110	25397
358.195	10895
358.279	1192
358.364	-312
358.448	4530
358.533	15489
358.617	9996
358.702	10473
358.787	3769
358.871	1055
358.956	1052
359.040	-335
359.125	-272
359.209	-209
359.294	1083
359.378	3158
359.462	542
359.547	427
359.631	-802
359.716	-994
359.800	2
359.885	1311
359.969	-644
360.053	218
360.138	267
360.222	308
360.306	988
360.391	960
360.475	1669
360.559	5354
360.644	4389
360.728	2674
360.812	6256
360.896	16791
360.981	6874
361.065	2196
361.149	1357
361.233	-19
361.318	-274
361.402	275
361.486	925
361.570	-409
361.654	188
361.739	1350
361.823	10209
361.907	17867
361.991	1887
362.075	479
362.159	1921
362.243	1906
362.327	588
362.411	1949
362.495	472
362.580	546
362.664	37
362.748	-793
362.832	-201
362.916	61
363.000	3329
363.084	10636
363.168	17695
363.252	3953
363.336	1823
363.420	2158
363.503	9676
363.587	11500
363.671	1039
363.755	42
363.839	2280
363.923	-525
364.007	1019
364.091	1016
364.175	1768
364.258	17583
364.342	7545
364.426	5923
364.510	1739
364.594	2526
364.677	3454
364.761	14523
364.845	10551
364.929	3552
365.013	1977
365.096	2031
365.180	1810
365.264	3780
365.347	16404
365.431	6690
365.515	1472
365.598	75
365.682	1613
365.766	827
365.849	2222
365.933	235
366.017	2256
366.100	563
366.184	-1132
366.267	972
366.351	611
366.435	-592
366.518	-446
366.602	-595
366.685	-130
366.769	-737
366.852	2073
366.936	2887
367.019	481
367.103	-460
367.186	3142
367.270	315
367.353	-1351
367.436	-344
367.520	-744
367.603	102
367.687	-434
367.770	851
367.853	1146
367.937	5488
368.020	7060
368.104	-371
368.187	1897
368.270	2299
368.353	2329
368.437	1933
368.520	5229
368.603	3438
368.687	4533
368.770	9816
368.853	1459
368.936	2106
369.020	3454
369.103	-489
369.186	-440
369.269	-651
369.352	1254
369.436	948
369.519	1077
369.602	-2088
369.685	1201
369.768	-1199
369.851	10
369.934	-82
370.018	-920
370.101	40
370.184	2413
370.267	603
370.350	695
370.433	2316
370.516	6571
370.599	8102
370.682	162
370.765	6492
370.848	7525
370.931	11677
371.014	6201
371.097	-1088
371.180	468
371.263	-245
371.346	-2081
371.429	-73
371.511	-1348
371.594	153
371.677	2179
371.760	3522
371.843	1234
371.926	8719
372.009	21522
372.091	7490
372.174	3840
372.257	10822
372.340	3187
372.423	3162
372.505	6019
372.588	616
372.671	2980
372.754	11006
372.836	4786
372.919	4834
373.002	11158
373.085	1751
373.167	1282
373.250	3862
373.332	11450
373.415	14665
373.498	27853
373.580	10419
373.663	12424
373.746	16665
373.828	1797
373.911	1803
373.993	804
374.076	8907
374.159	8696
374.241	2667
374.324	10626
374.406	6564
374.489	7523
374.571	25626
374.654	9491
374.736	4015
374.819	14453
374.901	21704
374.983	21155
375.066	2707
375.148	1042
375.231	6862
375.313	15264
375.395	5166
375.478	-102
375.560	207
375.643	877
375.725	2554
375.807	16874
375.890	15661
375.972	3830
376.054	2508
376.136	4068
376.219	1775
376.301	5597
376.383	15545
376.465	5438
376.548	1407
376.630	4472
376.712	14310
376.794	5885
376.877	-67
376.959	-769
377.041	-74
377.123	1650
377.205	2911
377.287	-783
377.369	-852
377.452	194
377.534	-415
377.616	-24
377.698	-967
377.780	-1851
377.862	-515
377.944	994
378.026	-980
378.108	200
378.190	-1160
378.272	66
378.354	-897
378.436	-766
378.518	-267
378.600	4233
378.682	3322
378.764	7230
378.846	5806
378.928	1122
379.010	1383
379.091	706
379.173	-353
379.255	-1176
379.337	-345
379.419	2053
379.501	10622
379.583	3475
379.664	98
379.746	916
379.828	7682
379.910	9888
379.991	8151
380.073	-83
380.155	-310
380.237	-773
380.318	-1254
380.400	-771
380.482	279
380.564	1274
380.645	-34
380.727	797
380.809	1400
380.890	-225
380.972	-1904
381.053	-718
381.135	194
381.217	659
381.298	7285
381.380	2615
381.461	2038
381.543	13011
381.624	15036
381.706	2581
381.787	628
381.869	1334
381.951	4421
382.032	21053
382.113	15018
382.195	1108
382.276	1159
382.358	2441
382.439	11634
382.521	13677
382.602	20305
382.684	8704
382.765	16972
382.846	11535
382.928	9024
383.009	3740
383.090	2968
383.172	11944
383.253	19512
383.334	9245
383.416	16486
383.497	7522
383.578	1284
383.659	2745
383.741	10035
383.822	30262
383.903	14773
383.984	9446
384.066	24055
384.147	13416
384.228	1329
384.309	353
384.390	187
384.471	-411
384.553	392
384.634	781
384.715	803
384.796	-355
384.877	200
384.958	5829
385.039	7227
385.120	1788
385.201	677
385.282	939
385.363	1052
385.444	-512
385.525	1098
385.606	8235
385.687	7323
385.768	1396
385.849	1346
385.930	11154
386.011	17556
386.092	3613
386.173	-86
386.254	-19
386.335	1344
386.416	719
386.496	4113
386.577	7754
386.658	2202
386.739	571
386.820	1059
386.901	-699
386.981	1025
387.062	-793
387.143	305
387.224	6876
387.304	6946
387.385	2130
387.466	-884
387.547	1615
387.627	-506
387.708	1778
387.789	13859
387.869	15204
387.950	3799
388.031	-684
388.111	-2082
388.192	3280
388.273	4885
388.353	2099
388.434	-232
388.514	1209
388.595	10536
388.676	15138
388.756	7811
388.837	6519
388.917	3799
388.998	-1164
389.078	886
389.159	484
389.239	-2029
389.320	1690
389.400	-1895
389.480	3029
389.561	7887
389.641	4145
389.722	670
389.802	770
389.883	2581
389.963	9502
390.043	4536
390.124	558
390.204	1405
390.284	8335
390.365	3236
390.445	6185
390.525	7023
390.605	6348
390.686	2310
390.766	1294
390.846	280
390.927	-762
391.007	-1056
391.087	275
391.167	-980
391.247	-2051
391.328	176
391.408	2479
391.488	942
391.568	-1368
391.648	-171
391.728	1055
391.808	1725
391.888	140
391.969	3206
392.049	6632
392.129	2819
392.209	2827
392.289	8879
392.369	4333
392.449	4194
392.529	1514
392.609	1389
392.689	1993
392.769	6793
392.849	5890
392.929	5787
393.009	13122
393.089	6542
393.169	2874
393.248	6144
393.328	38661
393.408	41161
393.488	8444
393.568	1306
393.648	142
393.728	-342
393.807	-1478
393.887	236
393.967	-144
394.047	332
394.127	459
394.206	1778
394.286	9974
394.366	41513
394.446	44928
394.525	10344
394.605	2194
394.685	1719
394.764	7064
394.844	10829
394.924	6602
395.003	669
395.083	100
395.163	-28
395.242	-57
395.322	310
395.402	-1724
395.481	625
395.561	2573
395.640	11351
395.720	8665
395.799	12253
395.879	9206
395.958	4237
396.038	15891
396.117	55271
396.197	58657
396.276	21171
396.356	6776
396.435	4944
396.515	3391
396.594	850
396.673	2570
396.753	10062
396.832	38952
396.912	32885
396.991	7645
397.070	1599
397.150	-1025
397.229	829
397.308	10
397.388	224
397.467	821
397.546	-965
397.625	-2004
397.705	959
397.784	-251
397.863	-1524
397.942	-469
398.022	-1395
398.101	2456
398.180	11910
398.259	6765
398.338	1421
398.417	21
398.497	-490
398.576	611
398.655	-1702
398.734	174
398.813	-928
398.892	3085
398.971	12843
399.050	4880
399.129	-1010
399.208	-519
399.287	-576
399.366	-1201
399.445	-1085
399.524	-545
399.603	-3371
399.682	-355
399.761	2495
399.840	13113
399.919	10328
399.998	-171
400.077	-2006
400.156	-1658
400.235	824
400.313	-1377
400.392	-932
400.471	3359
400.550	6316
400.629	768
400.708	-622
400.786	-675
400.865	2558
400.944	2689
401.023	2011
401.102	-686
401.180	-1001
401.259	-530
401.338	-1437
401.416	21
401.495	-1085
401.574	-179
401.652	-944
401.731	327
401.810	-1764
401.888	-651
401.967	-1688
402.046	-996
402.124	-359
402.203	-1178
402.281	-1112
402.360	-109
402.438	3748
402.517	1450
402.596	-189
402.674	184
402.753	-1287
402.831	-385
402.910	-369
402.988	756
403.066	5058
403.145	2777
403.223	924
403.302	3511
403.380	3130
403.459	1835
403.537	322
403.615	-742
403.694	-1648
403.772	-105
403.850	-1225
403.929	-1313
404.007	-845
404.085	861
404.164	-419
404.242	-1107
404.320	2519
404.398	9383
404.477	9938
404.555	19063
404.633	16742
404.711	8334
404.789	4254
404.868	157
404.946	-1831
405.024	-816
405.102	-1278
405.180	-670
405.258	-2598
405.336	143
405.415	-1500
405.493	216
405.571	360
405.649	-1392
405.727	-2205
405.805	669
405.883	-461
405.961	73
406.039	-267
406.117	-2169
406.195	-1396
406.273	2235
406.351	15082
406.429	9669
406.507	602
406.585	-714
406.663	-880
406.740	-973
406.818	-1586
406.896	-1788
406.974	-19
407.052	-1044
407.130	8207
407.208	13199
407.285	1630
407.363	-1691
407.441	-1940
407.519	-1838
407.596	-978
407.674	867
407.752	3201
407.830	4891
407.907	710
407.985	-1117
408.063	330
408.141	-1304
408.218	792
408.296	-1481
408.373	-1202
408.451	-716
408.529	-2033
408.606	-1611
408.684	-1047
408.762	-1035
408.839	-920
408.917	-1487
408.994	-1729
409.072	-2489
409.149	-1200
409.227	-537
409.304	-1486
409.382	-1074
409.459	-1494
409.537	-680
409.614	-1090
409.692	-1083
409.769	-1730
409.846	-1501
409.924	-308
410.001	-2056
410.079	-1543
410.156	-301
410.233	-635
410.311	-1552
410.388	-1532
410.465	-1239
410.543	-1440
410.620	-887
410.697	-1053
410.775	-1780
410.852	-3074
410.929	-795
411.006	-1066
411.083	-1905
411.161	-886
411.238	-489
411.315	-615
411.392	-1456
411.469	-907
411.547	-1406
411.624	-1862
411.701	-2321
411.778	-1161
411.855	-714
411.932	-1438
412.009	-1726
412.086	-842
412.163	-541
412.240	-603
412.317	32
412.394	-1385
412.471	-419
412.548	-1552
412.625	-1037
412.702	-879
412.779	-284
412.856	-1244
412.933	-1116
413.010	-1177
413.087	-719
413.164	2033
413.241	5012
413.318	-1453
413.395	-247
413.471	-1092
413.548	-779
413.625	-612
413.702	-1768
413.779	-1055
413.855	-764
413.932	-1658
414.009	-1927
414.086	-1271
414.162	-765
414.239	-907
414.316	2241
414.393	7947
414.469	471
414.546	-1382
414.623	-1480
414.699	-1102
414.776	-1120
414.853	-1774
414.929	-1314
415.006	-1049
415.082	-735
415.159	-853
415.236	-961
415.312	-988
415.389	-539
415.465	-881
415.542	-2099
415.618	-2057
415.695	-915
415.771	-1288
415.848	-1270
415.924	-1033
416.000	-1169
416.077	-1095
416.153	-2435
416.230	-1492
416.306	-1488
416.383	-1422
416.459	-701
416.535	-1583
416.612	-1875
416.688	-1752
416.764	-1146
416.841	-2450
416.917	-1389
416.993	-1672
417.069	-393
417.146	-1743
417.222	-728
417.298	-955
417.374	-1781
417.451	-1376
417.527	-1716
417.603	-1623
417.679	-1732
417.755	-1824
417.831	-1737
417.908	-970
417.984	-2004
418.060	-2286
418.136	288
418.212	-886
418.288	-1260
418.364	-700
418.440	-1820
418.516	-338
418.592	-430
418.668	599
418.744	1602
418.820	237
418.896	-1749
418.972	-1795
419.048	-1257
419.124	-13
419.200	-1894
419.276	-1507
419.352	-1669
419.428	-1263
419.504	-1801
419.579	-1303
419.655	-1513
419.731	-1730
419.807	-205
419.883	285
419.959	491
420.034	-1287
420.110	-383
420.186	3949
420.262	3313
420.337	-1222
420.413	-1009
420.489	-1602
420.565	-787
420.640	-1154
420.716	-1077
420.792	-1845
420.867	-830
420.943	-2167
421.019	-1591
421.094	-1600
421.170	-1393
421.245	-2109
421.321	-583
421.397	-1656
421.472	-227
421.548	-149
421.623	970
421.699	-959
421.774	-47
421.850	-1403
421.925	-901
422.001	-1674
422.076	-667
422.152	-1878
422.227	-800
422.302	396
422.378	634
422.453	1005
422.529	8497
422.604	27961
422.679	48765
422.755	30475
422.830	10043
422.905	2389
422.981	-186
423.056	-1058
423.131	-377
423.207	-835
423.282	-417
423.357	465
423.432	-661
423.508	-126
423.583	343
423.658	-138
423.733	-521
423.808	-1208
423.883	199
423.959	-810
424.034	-1759
424.109	-608
424.184	-1268
424.259	-1990
424.334	-499
424.409	-1519
424.484	-1033
424.559	-1289
424.634	-1514
424.709	-1212
424.784	-1673
424.859	-1256
424.934	-1148
425.009	2333
425.084	4933
425.159	414
425.234	-853
425.309	-1606
425.384	292
425.459	706
425.534	-754
425.609	-1384
425.683	-740
425.758	-1128
425.833	-1021
425.908	-150
425.983	358
426.058	5214
426.132	1302
426.207	-1347
426.282	414
426.357	-722
426.431	-1083
426.506	-1747
426.581	-719
426.655	-1385
426.730	-1540
426.805	-1341
426.879	-1415
426.954	-1270
427.029	-697
427.103	4376
427.178	13983
427.253	5735
427.327	-533
427.402	-545
427.476	2410
427.551	-295
427.625	-363
427.700	-1018
427.774	-1767
427.849	-934
427.923	-1433
427.998	-1851
428.072	-1261
428.147	-232
428.221	2540
428.296	6855
428.370	2334
428.444	-179
428.519	287
428.593	1859
428.667	2119
428.742	1988
428.816	1686
428.890	6239
428.965	9550
429.039	3121
429.113	2846
429.188	-157
429.262	-1595
429.336	-405
429.410	2467
429.485	1046
429.559	1712
429.633	761
429.707	-1080
429.781	-426
429.855	7676
429.930	12577
430.004	7605
430.078	14988
430.152	11027
430.226	10204
430.300	9605
430.374	-340
430.448	-90
430.522	2995
430.596	11921
430.670	7130
430.744	10020
430.818	16548
430.892	2477
430.966	-1216
431.040	-875
431.114	-1790
431.188	-1848
431.262	-2115
431.336	-1755
431.410	377
431.484	3088
431.557	1642
431.631	-1210
431.705	-1811
431.779	27
431.853	5772
431.927	3756
432.000	-628
432.074	-1311
432.148	-749
432.222	-1238
432.295	-1859
432.369	-1244
432.443	-844
432.516	4488
432.590	14517
432.664	4908
432.737	-800
432.811	-2053
432.885	-1285
432.958	-1542
433.032	-2806
433.106	-1878
433.179	-1344
433.253	-1544
433.326	-1314
433.400	-2168
433.473	-1437
433.547	-1798
433.620	-1392
433.694	-1564
433.767	-1634
433.841	-1349
433.914	-1695
433.988	-1860
434.061	-1067
434.134	-1486
434.208	-1794
434.281	-1661
434.355	-1921
434.428	-1251
434.501	-1278
434.575	-1401
434.648	-1422
434.721	-1714
434.795	-1299
434.868	-1481
434.941	-2337
435.014	-2597
435.088	-2006
435.161	-1261
435.234	-1685
435.307	-1210
435.381	-2007
435.454	-1664
435.527	-1512
435.600	-1457
435.673	-2061
435.746	-1902
435.819	-1817
435.892	-1967
435.966	-2420
436.039	-1396
436.112	-1044
436.185	-2269
436.258	-1796
436.331	-2493
436.404	-1931
436.477	-1790
436.550	-1424
436.623	-1049
436.696	-1698
436.769	-1427
436.842	-1775
436.915	-1585
436.987	-1695
437.060	-2204
437.133	-1551
437.206	-2065
437.279	-2190
437.352	-1703
437.425	-2101
437.498	-1701
437.570	35
437.643	-622
437.716	-1714
437.789	-1396
437.861	-1439
437.934	90
438.007	-1243
438.080	-2239
438.152	-1778
438.225	-695
438.298	5561
438.370	19636
438.443	7059
438.516	-336
438.588	-1679
438.661	-1664
438.734	-1409
438.806	-1411
438.879	-1911
438.951	-1011
439.024	-1629
439.096	-2510
439.169	-1821
439.241	-1720
439.314	-1462
439.386	-1628
439.459	-1410
439.531	-1159
439.604	-2284
439.676	-935
439.749	-1839
439.821	-2225
439.893	-1583
439.966	-1557
440.038	-1349
440.110	-1822
440.183	-2542
440.255	-1480
440.327	-1526
440.400	2099
440.472	13122
440.544	6983
440.617	-1549
440.689	-666
440.761	-847
440.833	-596
440.905	-1083
440.978	-2064
441.050	-2187
441.122	-1068
441.194	-2039
441.266	-2096
441.338	-1725
441.411	-1246
441.483	3225
441.555	5171
441.627	-309
441.699	-562
441.771	-478
441.843	-1696
441.915	-1683
441.987	-2354
442.059	-2219
442.131	-636
442.203	-1365
442.275	-843
442.347	-541
442.419	-1014
442.491	2274
442.563	7218
442.635	3710
442.706	3416
442.778	2280
442.850	-1278
442.922	-2190
442.994	-1494
443.066	-1274
443.137	-1519
443.209	-2038
443.281	-582
443.353	350
443.425	4294
443.496	13712
443.568	14259
443.640	4492
443.711	28
443.783	-1444
443.855	-969
443.926	-2038
443.998	-952
444.070	-928
444.141	-1530
444.213	-1213
444.285	-771
444.356	-1929
444.428	-623
444.499	-1601
444.571	-1147
444.642	-1381
444.714	-1012
444.785	-1293
444.857	-417
444.928	1350
445.000	1097
445.071	413
445.143	992
445.214	-39
445.285	679
445.357	5954
445.428	11054
445.500	27413
445.571	18901
445.642	8134
445.714	4345
445.785	5278
445.856	8
445.928	-794
445.999	-733
446.070	-1541
446.141	-1195
446.213	-209
446.284	-1374
446.355	-799
446.426	-1141
446.497	-1881
446.569	-795
446.640	-371
446.711	-175
446.782	-1761
446.853	-1221
446.924	-981
446.995	-1470
447.066	-735
447.138	-500
447.209	-733
447.280	-1841
447.351	-1602
447.422	-1965
447.493	-850
447.564	-852
447.635	-994
447.706	-1812
447.777	-1351
447.847	-1282
447.918	-2091
447.989	-267
448.060	-308
448.131	1255
448.202	783
448.273	307
448.344	-929
448.414	-1099
448.485	-2179
448.556	-980
448.627	-1617
448.698	-914
448.768	-1706
448.839	-1861
448.910	-473
448.981	-135
449.051	-1002
449.122	-1377
449.193	-1788
449.263	-1321
449.334	-1814
449.405	-553
449.475	66
449.546	-407
449.616	851
449.687	75
449.758	-1083
449.828	-1380
449.899	-1869
449.969	-1953
450.040	-1445
450.110	-1482
450.181	-1247
450.251	-1802
450.322	-1171
450.392	-977
450.463	-1208
450.533	-1252
450.604	-702
450.674	-1343
450.744	-792
450.815	-2170
450.885	-1458
450.955	-1260
451.026	-1788
451.096	-1264
451.166	-1279
451.237	-28
451.307	4215
451.377	524
451.447	-1765
451.518	-859
451.588	-1300
451.658	-1520
451.728	-493
451.799	2738
451.869	5054
451.939	-589
452.009	-1455
452.079	-1816
452.149	-388
452.219	-318
452.289	5035
452.360	2423
452.430	-382
452.500	-999
452.570	-665
452.640	-487
452.710	2690
452.780	5293
452.850	2560
452.920	1092
452.990	-1004
453.060	-761
453.129	-725
453.199	-270
453.269	3863
453.339	10812
453.409	17801
453.479	18477
453.549	27622
453.619	31443
453.688	11722
453.758	330
453.828	-1726
453.898	-796
453.968	-727
454.037	-859
454.087	-883
454.107	-908
454.168	-1159
454.177	-1213
454.247	-1240
454.249	-1215
454.316	-1057
454.330	-799
454.386	25
454.411	921
454.456	2102
454.492	2928
454.525	3652
454.574	1485
454.595	565
454.655	-638
454.665	-819
454.734	-75
454.736	-5
454.804	746
454.817	1754
454.873	4950
454.898	5298
454.943	5744
454.979	2606
455.013	-80
455.060	137
455.082	463
455.141	1146
455.152	1155
455.221	4436
455.222	4585
455.291	9000
455.303	8569
455.360	6521
455.384	7541
455.430	8388
455.465	7108
455.499	5876
455.546	5815
455.569	5456
455.627	3192
455.638	2890
455.707	-438
455.708	-421
455.777	-259
455.789	-231
455.846	-89
455.869	44
455.916	128
455.950	-67
455.985	-217
456.031	-122
456.054	-173
456.112	-460
456.124	-475
456.193	-300
456.193	-319
456.262	651
456.274	663
456.332	500
456.355	395
456.401	-62
456.436	-388
456.470	-662
456.516	-90
456.540	241
456.597	-518
456.609	-682
456.678	439
456.678	427
456.747	-384
456.759	-484
456.817	-546
456.840	-450
456.886	-489
456.920	-388
456.955	-331
457.001	-256
457.024	-124
457.082	222
457.093	292
457.162	237
457.163	261
457.232	448
457.243	429
457.301	447
457.324	285
457.370	127
457.405	283
457.439	326
457.485	340
457.508	406
457.566	797
457.577	776
457.646	298
457.647	305
457.715	556
457.727	820
457.784	2409
457.808	2998
457.853	3141
457.889	3052
457.922	2740
457.969	2204
457.991	2400
458.050	3084
458.060	3270
458.129	5488
458.130	5574
458.198	4847
458.211	4190
458.267	1811
458.292	1279
458.336	1262
458.372	1155
458.405	1679
458.453	2841
458.474	3443
458.533	5706
458.543	5937
458.611	8400
458.614	8493
458.680	4581
458.694	3435
458.749	2120
458.775	1607
458.818	984
458.855	1160
458.887	1268
458.936	914
458.955	725
459.016	656
459.024	745
459.093	1898
459.097	1922
459.162	986
459.177	967
459.230	1839
459.257	2315
459.299	2390
459.338	2008
459.368	1785
459.418	1670
459.437	1611
459.499	1464
459.505	1458
459.574	1452
459.579	1487
459.643	1488
459.659	1343
459.711	1361
459.740	1436
459.780	1467
459.820	1843
459.849	2011
459.900	2019
459.917	1909
459.981	1643
459.986	1668
460.054	1999
460.061	2031
460.123	1897
460.141	2021
460.191	3007
460.222	3341
460.260	3509
460.302	3709
460.328	3189
460.382	2667
460.397	2761
460.462	2424
460.465	2492
460.534	4864
460.543	5076
460.602	12009
460.623	14884
460.671	23523
460.703	30974
460.739	26581
460.783	19566
460.808	16990
460.864	5428
460.876	4425
460.944	2997
460.945	2983
461.013	2883
461.024	2921
461.081	2384
461.104	2109
461.150	2092
461.184	2306
461.218	2441
461.264	2286
461.286	2338
461.345	2556
461.355	2469
461.423	2164
461.425	2156
461.491	2892
461.505	3027
461.559	6075
461.585	7461
461.628	11712
461.665	15972
461.696	16971
461.745	19150
461.764	16333
461.825	4595
461.832	4466
461.901	3414
461.905	3417
461.969	2559
461.985	2407
462.037	3160
462.065	3623
462.105	4134
462.145	4465
462.173	6071
462.225	9119
462.241	9898
462.305	13651
462.310	13208
462.378	6036
462.385	5087
462.446	3611
462.465	3314
462.514	3225
462.545	3172
462.582	3293
462.625	3767
462.650	3583
462.705	3024
462.718	3243
462.785	4440
462.786	4463
462.854	5395
462.865	5601
462.922	7280
462.945	8019
462.990	6006
463.025	4120
463.058	3648
463.104	3000
463.126	3070
463.184	3423
463.194	3507
463.262	3600
463.264	3632
463.330	4618
463.344	4726
463.398	5169
463.424	5367
463.466	4864
463.504	4586
463.533	4750
463.583	4480
463.601	4418
463.663	4668
463.669	4860
463.737	6992
463.743	7180
463.805	10784
463.823	11803
463.873	17420
463.903	21116
463.940	21567
463.982	21924
464.008	17268
464.062	6667
464.076	6221
464.142	3755
464.144	3766
464.211	4358
464.221	4507
464.279	4146
464.301	3988
464.347	4471
464.381	4694
464.414	5554
464.461	6934
464.482	7023
464.540	7147
464.550	6842
464.617	4538
464.620	4448
464.685	5556
464.699	5817
464.753	6541
464.779	6985
464.820	8195
464.859	9045
464.888	8263
464.938	7126
464.956	7649
465.018	9464
465.023	9320
465.091	6788
465.098	6568
465.158	6718
465.177	6708
465.226	6532
465.257	6423
465.293	6899
465.336	7392
465.361	7829
465.416	8701
465.428	9359
465.495	12918
465.496	12998
465.563	21915
465.575	23431
465.631	26994
465.654	28572
465.698	17769
465.734	8353
465.765	7293
465.813	5599
465.833	5655
465.893	6286
465.900	6233
465.968	5570
465.972	5512
466.035	4945
466.052	4776
466.102	5758
466.131	6348
466.170	6231
466.210	6074
466.237	6208
466.290	6363
466.304	6352
466.369	6288
466.372	6323
466.439	6952
466.449	7021
466.506	7419
466.528	7582
466.573	11369
466.607	14168
466.641	20888
466.687	30196
466.708	32860
466.766	40116
466.775	36784
466.842	11088
466.845	9846
466.909	8181
466.925	7803
466.977	7285
467.004	7019
467.044	7875
467.083	8713
467.111	9510
467.163	10937
467.178	11021
467.242	11278
467.245	11253
467.312	10288
467.321	10142
467.379	10608
467.400	10747
467.446	11874
467.480	12651
467.559	11211
467.638	8540
467.717	9683
467.796	10354
467.875	11851
467.955	10043
468.034	16493
468.113	36886
468.192	52675
468.271	12123
468.350	9515
468.429	9361
468.508	9795
468.588	9307
468.667	11764
468.746	16166
468.825	14962
468.904	8639
468.983	10608
469.062	15124
469.141	18093
469.220	8460
469.299	8789
469.378	8568
469.456	11521
469.535	9796
469.614	9946
469.693	10397
469.772	13630
469.851	17388
469.930	11589
470.009	8173
470.088	8144
470.166	9145
470.245	9539
470.324	9323
470.403	8582
470.482	8402
470.560	8600
470.639	8788
470.718	10483
470.797	8895
470.875	11611
470.954	16773
471.033	18048
471.111	7926
471.190	8584
471.269	7458
471.347	7715
471.426	7875
471.505	9713
471.583	9591
471.662	9371
471.740	8376
471.819	9415
471.898	8365
471.976	8141
472.055	7398
472.133	9178
472.212	12524
472.290	12078
472.369	7629
472.447	8806
472.526	6822
472.604	7870
472.683	7389
472.761	8580
472.839	7318
472.918	7494
472.996	7101
473.075	9312
473.153	9314
473.231	8954
473.310	9007
473.388	9237
473.466	8834
473.545	9437
473.623	10789
473.701	10674
473.780	8688
473.858	9266
473.936	14132
474.014	9209
474.093	8910
474.171	12785
474.249	16959
474.327	10540
474.405	6020
474.484	6755
474.562	6697
474.640	7486
474.718	7684
474.796	6403
474.874	6197
474.952	5972
475.030	6138
475.108	7080
475.187	6685
475.265	6805
475.343	8213
475.421	9749
475.499	6740
475.577	7762
475.655	10053
475.733	20046
475.811	32045
475.889	30022
475.966	18033
476.044	7471
476.122	8148
476.200	10347
476.278	8412
476.356	6381
476.434	8370
476.512	8827
476.590	8454
476.667	9833
476.745	7548
476.823	8144
476.901	7564
476.979	7948
477.056	7710
477.134	9107
477.212	11222
477.290	8654
477.367	7015
477.445	7459
477.523	6706
477.601	7222
477.678	7376
477.756	9657
477.834	9465
477.911	7525
477.989	7934
478.066	7124
478.144	7860
478.222	8156
478.299	7300
478.377	8630
478.454	7294
478.532	7135
478.609	6190
478.687	7965
478.764	6671
478.842	7546
478.919	7277
478.997	6789
479.074	6379
479.152	8282
479.229	10029
479.307	6944
479.384	5778
479.461	6230
479.539	7232
479.616	7270
479.694	6126
479.771	7518
479.848	6862
479.926	10331
480.003	10769
480.080	6595
480.157	6017
480.235	6084
480.312	6569
480.389	7620
480.467	12503
480.544	15269
480.621	8543
480.698	7815
480.775	8516
480.853	9200
480.930	8253
481.007	7570
481.084	8531
481.161	9894
481.238	8945
481.315	7347
481.392	6669
481.470	9785
481.547	10863
481.624	7190
481.701	6482
481.778	7344
481.855	8029
481.932	11902
482.009	19333
482.086	12956
482.163	6958
482.240	7585
482.317	9706
482.393	9365
482.470	6792
482.547	6176
482.624	6545
482.701	7751
482.778	7322
482.855	6480
482.932	5268
483.009	6435
483.085	5762
483.162	7891
483.239	6869
483.316	5454
483.393	6282
483.469	7702
483.546	7102
483.623	8591
483.699	7418
483.776	7754
483.853	8413
483.930	11887
484.006	28429
484.083	47990
484.160	21850
484.236	31571
484.313	22975
484.389	18694
484.466	16765
484.543	14800
484.619	15888
484.696	18594
484.772	17583
484.849	19700
484.925	15293
485.002	15011
485.078	16304
485.155	16010
485.231	13969
485.308	14640
485.384	14275
485.461	19395
485.537	29061
485.614	33434
485.690	14238
485.766	14270
485.843	14480
485.919	19191
485.995	17756
486.072	12929
486.148	12677
486.224	12074
486.301	13355
486.377	15566
486.453	14074
486.530	15247
486.606	20526
486.682	22387
486.758	24903
486.835	28270
486.911	22411
486.987	36875
487.063	32970
487.139	35675
487.215	25630
487.292	16386
487.368	13050
487.444	14720
487.520	15585
487.596	15070
487.672	19427
487.748	35090
487.824	43033
487.900	19103
487.976	14667
488.052	14572
488.128	16059
488.204	13419
488.280	13285
488.356	17560
488.432	33407
488.508	47515
488.584	15871
488.660	12369
488.736	12515
488.812	13175
488.888	16290
488.964	19555
489.039	36412
489.115	48385
489.191	27622
489.267	13595
489.343	12550
489.418	10702
489.494	10504
489.570	10143
489.646	11252
489.722	12004
489.797	12173
489.873	19187
489.949	37904
490.024	28058
490.100	10371
490.176	10495
490.251	11322
490.327	14219
490.403	9183
490.478	9503
490.554	9102
490.629	9673
490.705	8168
490.781	10820
490.856	9190
490.932	11486
491.007	9026
491.083	10609
491.158	9090
491.234	14158
491.309	29797
491.385	26715
491.460	9263
491.536	11080
491.611	9329
491.686	10638
491.762	12189
491.837	22484
491.913	35457
491.988	50233
492.063	54747
492.139	20566
492.214	13332
492.289	8733
492.365	7262
492.440	9695
492.515	9624
492.590	9579
492.666	8411
492.741	12486
492.816	16777
492.891	8799
492.967	7313
493.042	8318
493.117	7394
493.192	8762
493.267	12719
493.342	36420
493.418	42630
493.493	9380
493.568	6606
493.643	7801
493.718	9568
493.793	13688
493.868	13258
493.943	8555
494.018	7811
494.093	8306
494.168	7436
494.243	7152
494.318	6517
494.393	7595
494.468	6197
494.543	6129
494.618	7092
494.693	6860
494.768	7480
494.842	7370
494.917	6154
494.992	6195
495.067	6451
495.142	6618
495.217	6523
495.292	7338
495.366	7647
495.441	10307
495.516	11362
495.591	17342
495.665	47536
495.740	98635
495.815	32830
495.890	10480
495.964	8106
496.039	11178
496.114	9090
496.188	9927
496.263	9988
496.338	9182
496.412	9766
496.487	11955
496.561	10397
496.636	12046
496.710	9140
496.785	10379
496.860	11501
496.934	8890
497.009	9354
497.083	8487
497.158	8725
497.232	10828
497.307	12148
497.381	9628
497.455	11267
497.530	15791
497.604	9890
497.679	10957
497.753	17201
497.827	19002
497.902	13187
497.976	18947
498.050	50964
498.125	185962
498.199	155790
498.273	20961
498.348	13808
498.422	11513
498.496	12078
498.570	11173
498.645	9298
498.719	9759
498.793	12878
498.867	22501
498.941	28790
499.016	84448
499.090	204522
499.164	55206
499.238	10839
499.312	9889
499.386	12379
499.460	10919
499.534	10369
499.609	13589
499.683	19381
499.757	18118
499.831	40204
499.905	147568
499.979	115707
500.053	23068
500.127	21996
500.201	13908
500.275	10708
500.349	10664
500.422	11636
500.496	15950
500.570	32906
500.644	84419
500.718	144808
500.792	26593
500.866	11888
500.940	15200
501.013	11932
501.087	12009
501.161	19227
501.235	24441
501.309	58989
501.382	148638
501.456	106210
501.530	28456
501.603	50848
501.677	17693
501.751	8471
501.825	11804
501.898	23007
501.972	65173
502.046	32403
502.119	11891
502.193	29515
502.266	67928
502.340	26625
502.413	33092
502.487	57072
502.561	31603
502.634	10102
502.708	7806
502.781	7310
502.855	7774
502.928	5937
503.002	6740
503.075	7006
503.149	7618
503.222	8173
503.295	7856
503.369	10234
503.442	15521
503.516	47801
503.589	114319
503.662	62530
503.736	22897
503.809	52893
503.882	38786
503.956	64693
504.029	48290
504.102	22573
504.175	23807
504.249	9879
504.322	10455
504.395	9072
504.468	7429
504.542	7404
504.615	6293
504.688	5853
504.761	4828
504.834	8368
504.907	7977
504.980	11703
505.053	8021
505.127	8752
505.200	11186
505.273	10900
505.346	7173
505.419	4741
505.492	6869
505.565	4263
505.638	5758
505.711	4810
505.784	5251
505.857	4794
505.930	6811
506.003	5536
506.076	8529
506.149	7936
506.221	9566
506.294	10045
506.367	25615
506.440	83254
506.513	35863
506.586	10774
506.659	5612
506.731	6350
506.804	6818
506.877	7928
506.950	6770
507.022	5622
507.095	7418
507.168	8679
507.241	6408
507.313	4734
507.386	5015
507.459	7261
507.531	4190
507.604	4852
507.677	6010
507.749	3988
507.822	8225
507.894	11541
507.967	14090
508.040	7961
508.112	7945
508.185	7196
508.257	5431
508.330	10510
508.402	7093
508.475	6735
508.547	7903
508.620	7561
508.692	12399
508.765	7216
508.837	4871
508.909	5157
508.982	6223
509.054	5812
509.127	6023
509.199	5230
509.271	4980
509.344	5235
509.416	5424
509.488	5524
509.560	6385
509.633	5131
509.705	7099
509.777	6857
509.849	9781
509.922	5740
509.994	6684
510.066	6689
510.138	6630
510.210	14129
510.283	10619
510.355	9044
510.427	7345
510.499	8555
510.571	8390
510.643	7136
510.715	12673
510.787	8292
510.859	9693
510.931	9253
511.003	11511
511.076	10627
511.148	6477
511.219	6612
511.291	13180
511.363	13851
511.435	8085
511.507	6222
511.579	7284
511.651	6333
511.723	6793
511.795	6074
511.867	6681
511.939	8161
512.010	16945
512.082	11649
512.154	5747
512.226	5764
512.298	10745
512.369	13185
512.441	10888
512.513	9059
512.585	6978
512.656	8277
512.728	9259
512.800	6808
512.871	7634
512.943	6571
513.015	6472
513.086	6957
513.158	7270
513.230	6055
513.301	9326
513.373	10379
513.444	7611
513.516	5329
513.588	6098
513.659	6723
513.731	8505
513.802	6568
513.874	14645
513.945	19885
514.016	7299
514.088	6571
514.159	6388
514.231	8358
514.302	12491
514.374	9027
514.445	8736
514.516	19193
514.588	11641
514.659	9194
514.730	17864
514.802	10828
514.873	5780
514.944	8852
515.016	7677
515.087	7942
515.158	12864
515.229	15597
515.301	5313
515.372	6375
515.443	4777
515.514	6451
515.585	4614
515.656	6999
515.728	6008
515.799	5674
515.870	6209
515.941	6504
516.012	5867
516.083	8417
516.154	8617
516.225	11069
516.296	9984
516.367	7974
516.438	7747
516.509	9799
516.580	14138
516.651	34783
516.722	101491
516.793	42253
516.864	15878
516.935	13738
517.006	14669
517.077	17985
517.148	38322
517.219	89673
517.289	117328
517.360	82269
517.431	26871
517.502	9301
517.573	10052
517.643	9291
517.714	9646
517.785	10749
517.856	9790
517.926	12084
517.997	11647
518.068	10930
518.138	15533
518.209	18859
518.280	59469
518.350	186332
518.421	50570
518.492	12450
518.562	11101
518.633	11176
518.703	8703
518.774	15697
518.845	27312
518.915	23312
518.986	12869
519.056	13404
519.127	21050
519.197	33747
519.268	86296
519.338	45698
519.408	14030
519.479	13805
519.549	10123
519.620	10057
519.690	6794
519.760	7529
519.831	7336
519.901	7444
519.971	7226
520.042	7862
520.112	8900
520.182	10205
520.253	10972
520.323	7493
520.393	10357
520.463	15184
520.534	8449
520.604	19615
520.674	10695
520.744	10815
520.814	19791
520.885	18591
520.955	29690
521.025	98484
521.095	29312
521.165	9800
521.235	7344
521.305	5997
521.375	7308
521.445	7091
521.515	8164
521.585	10607
521.655	8579
521.725	8772
521.795	8983
521.865	4862
521.935	12997
522.005	9139
522.075	6441
522.145	8173
522.215	7700
522.285	10651
522.355	14923
522.424	28099
522.494	21384
522.564	10998
522.634	20122
522.704	48101
522.774	15019
522.843	6954
522.913	7323
522.983	7438
523.053	5056
523.122	6860
523.192	8487
523.262	26255
523.331	20281
523.401	7398
523.471	5352
523.540	5257
523.610	4514
523.680	5207
523.749	6940
523.819	7023
523.888	7309
523.958	5422
524.027	6472
524.097	5932
524.166	6784
524.236	5618
524.305	8310
524.375	5071
524.444	5421
524.514	6452
524.583	6521
524.653	7006
524.722	8144
524.791	4330
524.861	7158
524.930	4668
524.999	5794
525.069	9005
525.138	6507
525.207	9230
525.277	6264
525.346	6350
525.415	6279
525.484	5523
525.554	7182
525.623	6542
525.692	6553
525.761	5899
525.830	5789
525.900	6298
525.969	9048
526.038	12017
526.107	17617
526.176	43346
526.245	29805
526.314	17042
526.383	29257
526.452	28037
526.522	58247
526.591	51944
526.660	24274
526.729	12283
526.797	17128
526.867	34280
526.935	138090
527.004	146552
527.073	56695
527.142	9038
527.211	6287
527.280	7176
527.349	7808
527.418	4510
527.487	5806
527.555	4665
527.624	4946
527.693	3823
527.762	6587
527.831	3066
527.899	4818
527.968	5733
528.037	4870
528.106	6050
528.174	10378
528.243	8141
528.312	12115
528.380	12517
528.449	5252
528.518	6633
528.586	3712
528.655	5207
528.723	4214
528.792	3744
528.861	5075
528.929	3546
528.998	5505
529.066	4686
529.135	5807
529.203	4916
529.272	4627
529.340	6705
529.409	7898
529.477	5691
529.545	7829
529.614	10677
529.682	8620
529.751	8880
529.819	11304
529.887	8478
529.956	6938
530.024	8241
530.092	6170
530.161	7490
530.229	9940
530.297	5807
530.365	8609
530.434	7037
530.502	6754
530.570	6922
530.638	6076
530.707	6758
530.775	8132
530.843	5249
530.911	6769
530.979	6105
531.047	7937
531.115	7768
531.183	6070
531.252	6882
531.320	6810
531.388	4789
531.456	7309
531.524	5230
531.592	8557
531.660	8663
531.728	7000
531.796	6350
531.864	7454
531.932	7544
532.000	7298
532.067	7742
532.135	9070
532.203	9537
532.271	8533
532.339	12772
532.407	23910
532.475	13416
532.542	11047
532.610	11076
532.678	14188
532.746	47250
532.814	92845
532.881	21080
532.949	9556
533.017	7601
533.084	8209
533.152	6601
533.220	7817
533.287	7706
533.355	8222
533.423	7593
533.490	6797
533.558	6775
533.625	7165
533.693	6884
533.761	7424
533.828	7851
533.896	7632
533.963	12726
534.031	14390
534.098	16877
534.166	10293
534.233	6912
534.300	9690
534.368	8511
534.435	7025
534.503	7807
534.570	7918
534.637	7050
534.705	7489
534.772	8214
534.840	8800
534.907	25111
534.974	22024
535.041	7384
535.109	8561
535.176	5542
535.243	6496
535.310	6411
535.378	6245
535.445	5219
535.512	6432
535.579	5444
535.646	5108
535.714	5551
535.781	8172
535.848	6953
535.915	8742
535.982	8270
536.049	8136
536.116	9498
536.183	6969
536.250	6823
536.317	6627
536.384	7637
536.451	9083
536.518	8623
536.585	5643
536.652	9147
536.719	11157
536.786	7095
536.853	7650
536.920	10000
536.987	13984
537.053	14306
537.120	52154
537.187	36010
537.254	6669
537.321	5766
537.388	7466
537.454	4895
537.521	4416
537.588	5301
537.654	7052
537.721	6704
537.788	7406
537.855	5447
537.921	6747
537.988	5107
538.055	6693
538.121	4961
538.188	6267
538.254	7449
538.321	12992
538.388	7612
538.454	6512
538.521	6533
538.587	5731
538.654	5165
538.720	5052
538.787	5877
538.853	5287
538.920	6751
538.986	7341
539.053	5882
539.119	6820
539.185	4345
539.252	7484
539.318	7996
539.385	8816
539.451	5696
539.517	7647
539.583	9035
539.650	17813
539.716	37001
539.782	9888
539.849	5284
539.915	6046
539.981	5440
540.047	6160
540.114	5670
540.180	7570
540.246	4611
540.312	7827
540.378	12948
540.444	12853
540.510	17572
540.576	40226
540.643	11205
540.709	5919
540.775	5173
540.841	5712
540.907	8939
540.973	11296
541.039	8036
541.105	9196
541.171	4871
541.237	5406
541.303	6790
541.369	8116
541.435	8113
541.500	11361
541.566	6521
541.632	5329
541.698	4606
541.764	5920
541.830	4391
541.896	4557
541.961	6168
542.027	6013
542.093	5853
542.159	5522
542.224	5462
542.290	9356
542.356	10683
542.421	12920
542.487	7257
542.553	5602
542.618	7774
542.684	6103
542.750	5705
542.815	8680
542.881	11764
542.947	38290
543.012	23020
543.078	6097
543.143	4454
543.209	5796
543.274	5361
543.340	8128
543.405	15973
543.471	20593
543.536	6799
543.602	6639
543.667	4078
543.732	7486
543.798	4784
543.863	6231
543.928	5550
543.994	4576
544.059	5091
544.124	5419
544.190	5540
544.255	6069
544.320	5660
544.386	5416
544.451	8123
544.516	8840
544.581	8351
544.646	25787
544.712	31609
544.777	9233
544.842	7096
544.907	7993
544.972	7064
545.037	7785
545.102	7914
545.168	8016
545.233	8220
545.298	9112
545.363	8557
545.428	9631
545.493	16351
545.558	28978
545.623	12127
545.688	7485
545.753	7564
545.818	7415
545.883	7441
545.947	6533
546.012	8252
546.077	7837
546.142	8596
546.207	7785
546.272	8458
546.337	7791
546.401	8564
546.466	8562
546.531	6594
546.596	8323
546.661	7070
546.725	9153
546.790	7676
546.855	8550
546.919	6932
546.984	8532
547.049	8711
547.113	9965
547.178	9265
547.243	10761
547.307	11333
547.372	12358
547.436	12026
547.501	11001
547.565	10762
547.630	12656
547.695	12066
547.759	13474
547.823	10860
547.888	11197
547.952	9844
548.017	10758
548.081	12647
548.146	15266
548.210	13680
548.274	11713
548.339	9756
548.403	10647
548.468	10008
548.532	9116
548.596	9792
548.660	10583
548.725	11533
548.789	13366
548.853	13566
548.917	11567
548.982	14685
549.046	14917
549.110	8410
549.174	10369
549.238	9771
549.303	10578
549.367	12493
549.431	10675
549.495	10159
549.559	10843
549.623	11779
549.687	14293
549.751	16787
549.815	14204
549.879	14710
549.943	11757
550.007	14252
550.071	14438
550.135	15172
550.199	14105
550.263	13082
550.327	14551
550.391	15900
550.455	12802
550.519	13738
550.582	15601
550.646	17515
550.710	18569
550.774	14435
550.838	15183
550.901	15174
550.965	17013
551.029	16367
551.093	20039
551.156	22527
551.220	35290
551.284	33068
551.347	22307
551.411	39037
551.475	35675
551.538	17072
551.602	15600
551.666	15401
551.729	14068
551.793	14058
551.856	15293
551.920	13716
551.983	14482
552.047	13512
552.110	14754
552.174	13177
552.237	14365
552.301	14034
552.364	13895
552.428	12725
552.491	13212
552.554	14017
552.618	13968
552.681	13792
552.745	13799
552.808	15772
552.871	15966
552.934	13944
552.998	13806
553.061	13771
553.124	15011
553.187	13469
553.251	14237
553.314	14565
553.377	15049
553.440	20544
553.503	41253
553.567	52900
553.630	17598
553.693	15325
553.756	14985
553.819	13443
553.882	14553
553.945	14529
554.008	13814
554.071	13835
554.134	15347
554.197	13183
554.260	14039
554.323	15460
554.386	15127
554.449	13690
554.512	14924
554.575	12542
554.638	14873
554.701	12827
554.764	14095
554.827	13380
554.889	13181
554.952	11834
555.015	12129
555.078	12455
555.141	12898
555.203	12540
555.266	13237
555.329	13607
555.391	11800
555.454	12531
555.517	12319
555.580	11146
555.642	10791
555.705	11358
555.768	11335
555.830	10240
555.893	10167
555.955	11040
556.018	10548
556.080	10358
556.143	10662
556.206	10472
556.268	10651
556.330	10806
556.393	11730
556.455	11357
556.518	13477
556.580	12294
556.643	9951
556.705	9826
556.767	8295
556.830	9859
556.892	10273
556.955	12629
557.017	10129
557.079	8578
557.142	9234
557.204	9832
557.266	15242
557.328	11512
557.391	8489
557.453	7826
557.515	8509
557.577	9757
557.639	8802
557.701	7569
557.764	7327
557.826	7329
557.888	9774
557.950	6961
558.012	8773
558.074	10866
558.136	18792
558.198	28679
558.260	13548
558.322	8969
558.384	9185
558.446	9320
558.508	10804
558.570	12610
558.632	18467
558.694	23647
558.756	26012
558.818	66003
558.880	126464
558.942	34417
559.003	30995
559.065	14755
559.127	10559
559.189	9828
559.251	12522
559.312	15529
559.374	33935
559.436	85369
559.498	34174
559.559	9505
559.621	10385
559.683	12418
559.744	19783
559.806	48699
559.868	53806
559.929	13404
559.991	12906
560.052	16244
560.114	32167
560.176	18717
560.237	22250
560.299	25994
560.360	10499
560.422	8602
560.483	8519
560.545	8292
560.606	8002
560.667	7485
560.729	8084
560.790	6712
560.852	9410
560.913	6913
560.974	7985
561.036	7221
561.097	8055
561.158	8153
561.220	9031
561.281	7920
561.342	8320
561.403	9017
561.465	10140
561.526	19538
561.587	20451
561.648	8080
561.709	7655
561.771	8635
561.832	8632
561.893	6864
561.954	8091
562.015	7395
562.076	8331
562.137	8015
562.198	7452
562.259	7976
562.320	8948
562.381	8046
562.442	10501
562.503	8049
562.564	7685
562.625	7322
562.686	8012
562.747	7115
562.808	7685
562.869	8475
562.930	10543
562.991	9189
563.051	8656
563.112	8197
563.173	7589
563.234	6942
563.294	8675
563.355	7940
563.416	8658
563.477	7437
563.537	8466
563.598	8514
563.659	8778
563.720	7229
563.780	8744
563.841	7978
563.901	8558
563.962	8004
564.023	8516
564.083	7871
564.144	9356
564.204	7798
564.265	9849
564.325	10011
564.386	16602
564.446	13169
564.507	7713
564.567	7941
564.628	8369
564.688	7276
564.749	8715
564.809	9355
564.869	11039
564.930	7681
564.990	8740
565.050	7274
565.111	8615
565.171	7569
565.231	8112
565.292	7177
565.352	6259
565.412	7116
565.472	8233
565.532	7759
565.593	7827
565.653	7900
565.713	7765
565.773	7993
565.833	9079
565.893	9984
565.953	7881
566.013	7674
566.074	8811
566.134	11241
566.194	15504
566.254	14197
566.314	9794
566.374	7232
566.434	8541
566.494	8074
566.554	7887
566.614	7939
566.673	8275
566.733	7557
566.793	8297
566.853	8185
566.913	7232
566.973	7188
567.033	9059
567.092	7723
567.152	8508
567.212	9008
567.272	8617
567.331	9256
567.391	7542
567.451	9441
567.511	11543
567.570	11237
567.630	8080
567.690	7367
567.749	8493
567.809	6943
567.868	8708
567.928	7451
567.988	9124
568.047	7467
568.107	7737
568.166	7933
568.226	8116
568.285	7992
568.345	8175
568.404	8184
568.464	7905
568.523	6908
568.582	6969
568.642	7449
568.701	8159
568.761	8473
568.820	9526
568.879	9674
568.939	11434
568.998	8633
569.057	7633
569.116	7320
569.176	7598
569.235	7225
569.294	7818
569.353	6976
569.413	7695
569.472	8024
569.531	6736
569.590	6410
569.649	7687
569.708	6385
569.767	8118
569.827	6866
569.886	6712
569.945	5955
570.004	6934
570.063	6333
570.122	6878
570.181	8746
570.240	9328
570.299	8848
570.358	7614
570.417	6433
570.475	7238
570.534	7733
570.593	7159
570.652	6747
570.711	6993
570.770	6837
570.829	7881
570.887	7154
570.946	7958
571.005	6170
571.064	7221
571.122	7432
571.181	8260
571.240	6952
571.299	6973
571.357	7936
571.416	7960
571.475	8293
571.533	8098
571.592	7647
571.650	8161
571.709	6460
571.768	6623
571.826	7744
571.885	6641
571.943	7348
572.002	7253
572.060	7371
572.119	7575
572.177	6504
572.236	6606
572.294	6476
572.352	6606
572.411	5717
572.469	6367
572.528	6250
572.586	6708
572.644	6599
572.703	7411
572.761	6701
572.819	6845
572.877	5922
572.936	6591
572.994	6929
573.052	6271
573.110	5652
573.169	6650
573.227	5206
573.285	6652
573.343	5601
573.401	6416
573.459	5506
573.517	6104
573.576	7028
573.634	6701
573.692	5982
573.750	6326
573.808	5441
573.866	7088
573.924	8557
573.982	7652
574.040	5574
574.098	6605
574.155	5442
574.213	5377
574.271	5611
574.329	6166
574.387	5074
574.445	5482
574.503	5688
574.560	5487
574.618	5830
574.676	5713
574.734	5153
574.792	6122
574.849	5483
574.907	5346
574.965	5073
575.022	5811
575.080	4797
575.138	5873
575.195	4608
575.253	5790
575.311	6045
575.368	5869
575.426	4695
575.483	6278
575.541	5217
575.598	5109
575.656	4658
575.713	6204
575.771	5701
575.828	5430
575.886	5733
575.943	6714
576.001	5333
576.058	6627
576.115	5989
576.173	7190
576.230	7346
576.287	8745
576.345	7164
576.402	6173
576.459	5406
576.517	6980
576.574	7033
576.631	7154
576.688	7384
576.746	6950
576.803	6777
576.860	5679
576.917	5557
576.974	6224
577.031	5727
577.089	5991
577.146	6128
577.203	5774
577.260	6454
577.317	6969
577.374	7220
577.431	6752
577.488	5996
577.545	6449
577.602	6217
577.659	6598
577.716	6876
577.773	7487
577.830	6095
577.886	6619
577.943	5659
578.000	6100
578.057	7354
578.114	7178
578.171	7580
578.227	10402
578.284	9303
578.341	8633
578.398	6661
578.454	6918
578.511	8128
578.568	6848
578.625	6519
578.681	6093
578.738	5862
578.794	6404
578.851	6636
578.908	6915
578.964	6692
579.021	7355
579.077	6764
579.134	6324
579.190	6693
579.247	6068
579.303	5988
579.360	6166
579.416	6095
579.473	6607
579.529	5500
579.586	5888
579.642	5766
579.698	7072
579.755	6832
579.811	6720
579.867	6902
579.924	5590
579.980	5795
580.036	9260
580.093	9838
580.149	14248
580.205	14493
580.261	12044
580.317	9798
580.374	8773
580.430	8461
580.486	8433
580.542	7049
580.598	5982
580.619	6196
580.654	6576
580.692	6385
580.710	6307
580.765	5642
580.767	5626
580.823	7265
580.838	7027
580.879	6420
580.911	6382
580.935	6374
580.984	5710
580.991	5628
581.047	7185
581.057	7028
581.103	6379
581.130	7209
581.159	8090
581.203	7940
581.215	7902
581.270	8323
581.276	8273
581.326	7965
581.349	7562
581.382	6903
581.422	6911
581.438	6950
581.494	8000
581.494	7983
581.550	6898
581.567	7031
581.606	7301
581.640	6846
581.661	6591
581.713	7750
581.717	7847
581.773	6072
581.786	6366
581.829	7289
581.859	7082
581.885	6979
581.932	6567
581.940	6498
581.996	7198
582.004	7266
582.052	7499
582.077	7242
582.107	7046
582.150	6807
582.163	6725
582.219	7047
582.223	7029
582.274	6824
582.296	6520
582.330	6057
582.368	6661
582.386	6989
582.441	7288
582.441	7290
582.497	6766
582.514	6683
582.552	6627
582.587	7379
582.608	7819
582.659	6936
582.663	6866
582.719	7641
582.732	7385
582.774	6748
582.805	7186
582.830	7457
582.877	7483
582.885	7502
582.941	7661
582.950	7587
582.996	7146
583.023	7711
583.052	8475
583.095	8493
583.107	8475
583.162	10772
583.168	10838
583.218	11336
583.240	10714
583.273	9680
583.313	8479
583.328	8152
583.384	8507
583.385	8475
583.439	7121
583.458	7052
583.494	6959
583.531	6858
583.549	6916
583.603	6854
583.605	6844
583.660	6735
583.676	6576
583.715	6293
583.748	6714
583.770	6919
583.820	7259
583.825	7302
583.881	7243
583.893	7027
583.936	6288
583.965	6343
583.991	6336
584.038	6639
584.046	6713
584.101	6312
584.110	6405
584.156	6811
584.183	6490
584.211	6104
584.255	6257
584.266	6307
584.321	5827
584.328	5867
584.376	6328
584.400	6628
584.431	6999
584.472	6879
584.486	6766
584.541	6161
584.545	6151
584.596	5954
584.617	5852
584.651	6066
584.689	7088
584.706	7276
584.761	6641
584.762	6641
584.816	7007
584.834	7034
584.871	6843
584.906	6592
584.926	6485
584.978	6817
584.980	6823
585.035	7149
585.051	7175
585.090	7565
585.123	7928
585.145	8018
585.195	7929
585.200	7945
585.254	7769
585.267	8145
585.309	9072
585.340	9225
585.364	9465
585.412	9282
585.419	9200
585.473	9397
585.484	9446
585.528	10023
585.556	11362
585.583	13023
585.628	16016
585.637	17055
585.692	28878
585.700	30964
585.747	39471
585.772	32599
585.801	21693
585.845	11722
585.856	10124
585.910	8859
585.917	8642
585.965	7763
585.989	7889
586.019	7953
586.061	7750
586.074	7805
586.128	8363
586.133	8370
586.183	8034
586.205	8215
586.237	8653
586.277	8218
586.292	7965
586.346	8590
586.349	8561
586.401	8398
586.421	8808
586.455	9272
586.493	9482
586.509	10046
586.564	13099
586.565	13229
586.618	19338
586.637	19147
586.672	15433
586.709	11316
586.727	9791
586.781	8761
586.781	8756
586.835	8022
586.853	7972
586.889	7709
586.925	7593
586.944	7563
586.996	7972
586.998	7978
587.052	7670
587.068	7601
587.106	7801
587.140	7883
587.161	7872
587.212	8182
587.215	8174
587.269	8224
587.284	8149
587.323	8006
587.356	7906
587.377	7948
587.427	8541
587.431	8600
587.485	8683
587.499	8930
587.539	9182
587.571	9073
587.593	9135
587.643	9580
587.648	9585
587.702	9162
587.715	9244
587.755	9833
587.786	9744
587.810	9457
587.858	9140
587.864	9144
587.917	9613
587.930	9746
587.971	10213
588.001	10515
588.025	10551
588.073	10348
588.079	10423
588.133	11205
588.145	11468
588.187	11404
588.217	11342
588.241	11877
588.288	12915
588.295	12984
588.348	13533
588.360	13780
588.402	15010
588.431	15846
588.456	16285
588.503	17550
588.510	17837
588.564	20075
588.575	20710
588.617	23196
588.646	25252
588.671	27219
588.718	32599
588.725	33830
588.778	46704
588.789	50322
588.832	76866
588.861	99101
588.886	133887
588.932	213802
588.939	221398
588.993	261200
589.004	257864
589.047	156795
589.075	96052
589.100	69468
589.147	37845
589.154	36140
589.207	28942
589.218	27750
589.261	27321
589.290	27999
589.314	29188
589.361	33469
589.368	34873
589.421	49136
589.433	53218
589.475	89703
589.504	121526
589.528	156062
589.576	224838
589.582	220091
589.635	126476
589.647	107889
589.689	56155
589.718	29333
589.742	24659
589.790	18230
589.795	18075
589.849	17692
589.861	17871
589.902	18659
589.932	18449
589.955	16382
590.004	12072
590.009	11921
590.062	11190
590.075	11028
590.115	10658
590.146	10384
590.168	10030
590.218	9309
590.222	9343
590.275	9903
590.289	10090
590.328	10106
590.360	10121
590.381	10167
590.431	10176
590.435	10158
590.488	9981
590.503	9973
590.541	10106
590.574	10338
590.594	10331
590.645	10112
590.647	10111
590.700	10154
590.716	10235
590.753	9921
590.787	9698
590.806	9644
590.859	9495
590.859	9491
590.912	9540
590.930	9679
590.965	9714
591.001	9687
591.018	9646
591.071	9679
591.072	9686
591.124	9580
591.143	9604
591.177	9550
591.214	9464
591.230	9612
591.283	10378
591.285	10407
591.336	10284
591.356	10310
591.389	10602
591.427	10871
591.442	10511
591.495	9266
591.498	9182
591.547	9270
591.569	9366
591.600	9401
591.640	9339
591.653	9419
591.706	9905
591.711	9968
591.759	10369
591.782	10553
591.811	11161
591.853	12133
591.864	11927
591.917	10760
591.924	10589
591.969	10184
591.995	10072
592.022	10107
592.066	10059
592.075	10245
592.127	11532
592.137	11780
592.180	12496
592.208	12943
592.233	11933
592.279	9985
592.285	10073
592.338	10975
592.350	11184
592.390	9920
592.421	9010
592.443	9223
592.491	9719
592.495	9740
592.548	10218
592.562	10359
592.600	9677
592.633	9121
592.653	9349
592.704	9930
592.705	9991
592.775	10242
592.846	9689
592.916	9939
592.987	10495
593.058	9841
593.128	9788
593.199	9932
593.270	9523
593.341	10045
593.411	9394
593.482	9281
593.553	9553
593.623	9183
593.694	9716
593.764	10713
593.835	8706
593.906	9046
593.976	9655
594.047	9019
594.117	11769
594.188	11390
594.258	9773
594.329	9601
594.399	9187
594.470	9814
594.540	9421
594.611	9177
594.681	9549
594.751	9004
594.822	10802
594.892	10362
594.963	10604
595.033	10835
595.103	10222
595.174	10694
595.244	14679
595.314	16755
595.384	10007
595.455	10045
595.525	10432
595.595	9560
595.665	10747
595.736	10790
595.806	10742
595.876	10457
595.946	9987
596.016	10648
596.087	10776
596.157	10863
596.227	10205
596.297	10474
596.367	11223
596.437	13010
596.507	15582
596.577	17010
596.647	12500
596.717	11061
596.787	11160
596.857	11682
596.927	11965
596.997	11013
597.067	11721
597.137	12432
597.207	12582
597.277	12083
597.347	11934
597.417	11557
597.487	11701
597.557	12179
597.626	12701
597.696	13483
597.766	14599
597.836	16929
597.906	12788
597.975	11888
598.045	11528
598.115	11866
598.185	11948
598.254	12478
598.324	13606
598.394	12923
598.464	12780
598.533	12298
598.603	11775
598.672	11890
598.742	12741
598.812	12853
598.881	12086
598.951	12496
599.020	12252
599.090	12742
599.159	12726
599.229	12637
599.299	11686
599.368	12947
599.437	12523
599.507	12018
599.576	12907
599.646	13175
599.715	14186
599.785	12265
599.854	12820
599.924	13456
599.993	13072
600.062	12453
600.132	13232
600.201	13593
600.270	14187
600.340	14461
600.409	13688
600.478	13396
600.547	14419
600.617	13833
600.686	13720
600.755	12966
600.824	12518
600.894	12526
600.963	12916
601.032	12395
601.101	13570
601.170	13073
601.239	12154
601.308	13363
601.378	13469
601.447	13581
601.516	13015
601.585	13476
601.654	14404
601.723	14196
601.792	13598
601.861	14030
601.930	16975
601.999	15780
602.068	14728
602.137	14906
602.206	15350
602.275	14612
602.343	15963
602.412	16319
602.481	15138
602.550	15326
602.619	16200
602.688	15556
602.756	16113
602.825	15976
602.894	15680
602.963	14888
603.032	15884
603.100	15264
603.169	15497
603.238	15330
603.307	16006
603.375	15925
603.444	16525
603.513	14553
603.581	15784
603.650	16034
603.719	13998
603.787	12665
603.856	14393
603.924	13690
603.993	15172
604.061	13896
604.130	15351
604.198	15729
604.267	14581
604.335	15087
604.404	15858
604.472	15232
604.541	15814
604.609	16665
604.678	15801
604.746	16559
604.815	16454
604.883	16053
604.951	16819
605.020	16076
605.088	15155
605.156	15200
605.225	15383
605.293	15618
605.361	14881
605.429	14597
605.498	15411
605.566	15316
605.634	15757
605.702	15716
605.771	16741
605.839	16083
605.907	15271
605.975	15502
606.043	15237
606.111	15254
606.180	16233
606.248	16254
606.316	16479
606.384	15277
606.452	15942
606.520	14225
606.588	12334
606.656	11660
606.724	12163
606.792	11568
606.860	10877
606.928	9811
606.996	10307
607.064	9336
607.132	9914
607.200	9936
607.267	10513
607.335	10083
607.403	10689
607.471	10310
607.539	10060
607.607	10530
607.674	8931
607.742	9516
607.810	10047
607.878	9985
607.946	9014
608.013	8641
608.081	9677
608.149	9295
608.216	8890
608.284	10543
608.352	9339
608.419	9835
608.487	13943
608.555	10860
608.622	11315
608.690	9932
608.757	10423
608.825	11128
608.893	10801
608.960	10854
609.028	12059
609.095	13880
609.163	10445
609.230	10229
609.298	9207
609.365	8581
609.432	8632
609.500	10709
609.567	11060
609.635	12216
609.702	11899
609.769	12973
609.837	10946
609.904	9724
609.971	8686
610.039	10902
610.106	14228
610.173	22174
610.241	50603
610.308	38738
610.375	21699
610.442	10288
610.509	9823
610.577	9908
610.644	9123
610.711	9433
610.778	10579
610.845	10823
610.912	10357
610.980	12335
611.047	13671
611.114	12513
611.181	10822
611.248	9322
611.315	12664
611.382	10798
611.449	11747
611.516	11901
611.583	11510
611.650	10885
611.717	11645
611.784	11951
611.851	12797
611.918	13048
611.984	14293
612.051	21860
612.118	43167
612.185	99593
612.252	64537
612.319	17085
612.386	14188
612.452	13021
612.519	14094
612.586	16913
612.653	15273
612.719	14176
612.786	12851
612.853	11673
612.919	10753
612.986	12438
613.053	10688
613.120	10489
613.186	9716
613.253	11860
613.319	10584
613.386	10808
613.453	11376
613.519	10990
613.586	11321
613.652	14393
613.719	12443
613.785	12115
613.852	10417
613.918	9829
613.985	12139
614.051	12612
614.118	19026
614.184	17495
614.250	11292
614.317	11837
614.383	10061
614.449	10392
614.516	10637
614.582	11517
614.648	10586
614.715	9907
614.781	9603
614.847	11375
614.914	10336
614.980	9637
615.046	11565
615.112	11090
615.179	9413
615.245	10459
615.311	10274
615.377	10745
615.443	11040
615.509	10610
615.575	11479
615.642	10413
615.708	12352
615.774	12632
615.840	13894
615.906	14865
615.972	17346
616.038	25759
616.104	53718
616.170	126281
616.236	108754
616.302	28326
616.368	18455
616.434	14557
616.500	14578
616.565	15375
616.631	16480
616.697	14559
616.763	15854
616.829	19889
616.895	31231
616.961	29093
617.026	16086
617.092	12488
617.158	12748
617.224	12314
617.289	11559
617.355	11816
617.421	11572
617.487	12752
617.552	11329
617.618	10294
617.684	9463
617.749	13149
617.815	11802
617.880	10184
617.946	10810
618.012	11315
618.077	10189
618.143	10470
618.208	11389
618.274	11030
618.339	12342
618.405	10274
618.470	10725
618.536	10180
618.601	13193
618.667	11079
618.732	10907
618.798	10937
618.863	10898
618.928	10186
618.994	11519
619.059	12399
619.124	13541
619.190	11939
619.255	11018
619.320	10266
619.386	10965
619.451	10102
619.516	10737
619.581	10843
619.647	10020
619.712	11006
619.777	11110
619.842	11162
619.907	10191
619.972	10883
620.038	10445
620.103	9745
620.168	9503
620.233	10721
620.298	10899
620.363	10454
620.428	10718
620.493	10486
620.558	10149
620.623	10569
620.688	10897
620.753	9630
620.818	10578
620.883	11283
620.948	10399
621.013	9973
621.078	11934
621.143	10158
621.207	12889
621.272	10977
621.337	12203
621.402	13162
621.467	14849
621.532	14837
621.596	13552
621.661	12385
621.726	11650
621.791	11808
621.855	12705
621.920	11774
621.985	12205
622.049	14246
622.114	13613
622.179	13242
622.243	13975
622.308	12713
622.373	13949
622.437	13524
622.502	12741
622.566	12968
622.631	12854
622.695	14098
622.760	12343
622.824	13426
622.889	13626
622.953	13271
623.018	16690
623.082	15177
623.147	13421
623.211	12633
623.276	13184
623.340	11287
623.404	11931
623.469	11476
623.533	12445
623.597	11668
623.662	11733
623.726	11709
623.790	11241
623.854	10140
623.919	11842
623.983	10844
624.047	11618
624.111	11570
624.176	11425
624.240	11019
624.304	12986
624.368	11023
624.432	11250
624.496	11302
624.560	12332
624.625	11456
624.689	11749
624.753	11433
624.817	12042
624.881	10665
624.945	10080
625.009	10050
625.073	11013
625.137	9199
625.201	11987
625.265	12508
625.329	10407
625.393	10612
625.456	11458
625.520	10945
625.584	11503
625.648	13914
625.712	18936
625.776	37005
625.839	41563
625.903	17313
625.967	11539
626.031	18869
626.095	25165
626.158	12582
626.222	8008
626.286	10263
626.349	8281
626.413	8029
626.477	9420
626.540	7596
626.604	8105
626.668	9600
626.731	8728
626.795	9062
626.858	8654
626.922	7787
626.986	9031
627.049	6733
627.113	8587
627.176	8527
627.240	8847
627.303	8142
627.366	7754
627.430	7213
627.493	7358
627.557	6532
627.620	9063
627.684	7933
627.747	7893
627.810	5898
627.874	7711
627.937	6112
628.000	8754
628.064	7871
628.127	5044
628.190	7676
628.253	7520
628.317	6162
628.380	6817
628.443	6996
628.506	6612
628.569	6881
628.632	5972
628.696	6064
628.759	5605
628.822	4427
628.885	5968
628.948	5511
629.011	6032
629.074	5762
629.137	5095
629.200	5196
629.263	7114
629.326	4516
629.389	5374
629.452	5859
629.515	6038
629.578	5627
629.641	6071
629.704	5289
629.767	5411
629.830	6305
629.892	5440
629.955	4371
630.018	7026
630.081	4911
630.144	6234
630.207	4332
630.269	6432
630.332	5865
630.395	5289
630.458	5171
630.520	4534
630.583	5669
630.646	5370
630.708	4224
630.771	4476
630.834	4936
630.896	4402
630.959	3940
631.021	4168
631.084	5614
631.146	5684
631.209	6253
631.272	4419
631.334	4515
631.397	4887
631.459	3518
631.522	4507
631.584	3509
631.646	4865
631.709	5920
631.771	4987
631.834	5112
631.896	5355
631.958	3481
632.021	4643
632.083	3861
632.145	4741
632.208	3925
632.270	4996
632.332	3475
632.395	3598
632.457	4685
632.519	4220
632.581	4956
632.643	3117
632.706	4166
632.768	2600
632.830	4138
632.892	4070
632.954	2955
633.016	3975
633.078	4394
633.141	3210
633.203	3924
633.265	4105
633.327	3723
633.389	3267
633.451	4097
633.513	4432
633.575	4305
633.637	4047
633.698	3459
633.760	3999
633.822	3930
633.884	3375
633.946	3871
634.008	3184
634.070	3569
634.132	3732
634.193	3318
634.255	3798
634.317	3932
634.379	4925
634.441	3679
634.502	4043
634.564	4056
634.626	4335
634.687	4702
634.749	3761
634.811	3015
634.873	2201
634.934	3295
634.996	4256
635.057	2990
635.119	1902
635.181	3968
635.242	4088
635.304	1595
635.365	5204
635.427	2637
635.488	2851
635.550	2299
635.611	3429
635.673	1353
635.734	4239
635.796	2688
635.857	4329
635.918	1840
635.980	4802
636.041	3728
636.102	4813
636.164	3015
636.225	4201
636.286	2041
636.348	3679
636.409	3840
636.470	2879
636.531	2961
636.593	3136
636.654	3870
636.715	4046
636.776	2490
636.838	2278
636.899	3260
636.960	2894
637.021	2045
637.082	2260
637.143	3638
637.204	1740
637.265	2380
637.326	3174
637.387	2538
637.448	1039
637.509	2764
637.570	2569
637.631	3173
637.692	1596
637.753	1778
637.814	2774
637.875	2171
637.936	3708
637.997	1450
638.058	1981
638.119	3511
638.179	2554
638.240	2195
638.301	2348
638.362	1312
638.423	1984
638.483	3129
638.544	1495
638.605	3153
638.666	1508
638.726	2003
638.787	3965
638.848	1367
638.908	2753
638.969	3093
639.030	2060
639.090	1026
639.151	2377
639.211	2418
639.272	3778
639.332	4777
639.393	3350
639.453	2210
639.514	1702
639.574	2981
639.635	2455
639.695	2645
639.756	1443
639.816	1950
639.877	2151
639.937	3766
639.997	4219
640.058	1295
640.118	1676
640.178	2550
640.239	2080
640.299	1995
640.359	1459
640.420	2006
640.480	2718
640.540	1245
640.600	2298
640.661	2431
640.721	1130
640.781	3511
640.841	1355
640.901	2880
640.961	1907
641.021	2038
641.082	1334
641.142	1938
641.202	3232
641.262	256
641.322	2801
641.382	275
641.442	3070
641.502	1666
641.562	2475
641.622	1072
641.682	2541
641.742	1999
641.802	2281
641.861	2505
641.921	1192
641.981	2682
642.041	2781
642.101	2706
642.161	1156
642.221	803
642.280	2016
642.340	1378
642.400	770
642.460	1762
642.519	2490
642.579	1735
642.639	2719
642.698	-826
642.758	3176
642.818	1222
642.877	1390
642.937	1589
642.997	2445
643.056	2625
643.116	313
643.175	3055
643.235	1327
643.294	1126
643.354	1688
643.414	1857
643.473	2444
643.532	1725
643.592	2208
643.651	3939
643.711	7371
643.770	15779
643.830	34960
643.889	75038
643.948	17395
644.008	3605
644.067	2107
644.126	858
644.186	1134
644.245	1586
644.304	203
644.363	3546
644.423	804
644.482	1203
644.541	2014
644.600	-756
644.659	1755
644.719	1451
644.778	2650
644.837	3656
644.896	7609
644.955	15638
645.014	5300
645.073	2066
645.132	1455
645.191	2514
645.250	536
645.309	2882
645.368	1075
645.427	1822
645.486	1677
645.545	3826
645.604	1241
645.663	2071
645.722	944
645.781	1167
645.840	1180
645.898	679
645.957	3708
646.016	2258
646.075	6370
646.134	12728
646.192	33236
646.251	50465
646.310	7044
646.369	2110
646.427	2035
646.486	75
646.545	1428
646.603	1904
646.662	1583
646.721	1069
646.779	391
646.838	-430
646.896	1707
646.955	1027
647.014	2706
647.072	3195
647.131	10181
647.189	4330
647.248	167
647.306	1487
647.365	2173
647.423	-639
647.481	2578
647.540	-518
647.598	1544
647.657	623
647.715	1948
647.773	170
647.832	1860
647.890	-144
647.948	264
648.007	2210
648.065	305
648.123	136
648.181	2344
648.240	1863
648.298	1182
648.356	795
648.414	1502
648.472	1255
648.531	1186
648.589	1271
648.647	1277
648.705	761
648.763	1351
648.821	1204
648.879	1135
648.937	1132
648.995	928
649.053	491
649.111	2351
649.169	2939
649.227	5762
649.285	10559
649.343	27791
649.401	14159
649.459	4598
649.516	3121
649.574	858
649.632	5120
649.690	6885
649.748	2906
649.806	1867
649.863	5578
649.921	7792
649.979	4006
650.037	1790
650.094	-354
650.152	1234
650.210	236
650.268	820
650.325	887
650.383	737
650.440	-310
650.498	937
650.556	249
650.613	208
650.671	580
650.728	959
650.786	705
650.843	617
650.901	-1047
650.958	1296
651.016	-791
651.073	671
651.131	182
651.188	-496
651.246	702
651.303	166
651.360	493
651.418	406
651.475	777
651.532	206
651.590	868
651.647	655
651.704	465
651.762	446
651.819	807
651.876	210
651.933	16
651.990	1190
652.048	-654
652.105	175
652.162	331
652.219	265
652.276	23
652.333	500
652.390	-403
652.448	717
652.505	340
652.562	-48
652.619	618
652.676	1762
652.733	1270
652.790	-557
652.847	-571
652.904	446
652.961	-400
653.017	-236
653.074	569
653.131	-115
653.188	-661
653.245	591
653.302	17
653.359	111
653.415	636
653.472	-233
653.529	723
653.586	-383
653.642	-161
653.699	844
653.756	-649
653.813	-121
653.869	906
653.926	-288
653.983	-797
654.039	295
654.096	-286
654.152	1408
654.209	-654
654.266	61
654.322	-1086
654.379	121
654.435	868
654.492	94
654.548	945
654.605	1324
654.661	1662
654.717	334
654.774	239
654.830	186
654.887	139
654.943	29
655.000	35
655.056	500
655.112	79
655.168	-49
655.225	-805
655.281	933
655.337	741
655.394	2213
655.450	1638
655.506	1477
655.562	2067
655.618	2515
655.675	-974
655.731	1078
655.787	-127
655.843	474
655.899	-1035
655.955	65
656.011	688
656.067	-695
656.123	634
656.179	-456
656.235	1085
656.291	-989
656.347	973
656.403	22
656.459	-302
656.515	96
656.571	-59
656.627	250
656.683	-470
656.739	168
656.795	-549
656.850	149
656.906	1340
656.962	915
657.018	-1551
657.074	-388
657.129	-92
657.185	266
657.241	1155
657.297	-98
657.352	238
657.408	-194
657.464	1017
657.519	-215
657.575	-232
657.630	-901
657.686	-290
657.742	-793
657.797	30
657.853	-214
657.908	627
657.964	-961
658.019	82
658.075	317
658.130	443
658.186	-1128
658.241	503
658.297	-1026
658.352	-648
658.407	857
658.463	-394
658.518	218
658.573	-361
658.629	-869
658.684	-752
658.739	1631
658.795	-965
658.850	-120
658.905	-210
658.960	275
659.016	-448
659.071	-272
659.126	-361
659.181	233
659.236	1957
659.291	1348
659.346	13
659.401	408
659.457	749
659.512	297
659.567	581
659.622	-42
659.677	-295
659.732	-1246
659.787	763
659.842	623
659.897	975
659.952	-124
660.007	-615
660.061	74
660.116	-816
660.171	-876
660.226	883
660.281	1214
660.336	-301
660.391	613
660.445	-710
660.500	-227
660.555	357
660.610	-531
660.664	556
660.719	-360
660.774	-82
660.828	435
660.883	-91
660.938	925
660.992	-1862
661.047	-478
661.101	-1050
661.156	-379
661.211	-639
661.265	-423
661.320	37
661.374	-75
661.429	-1076
661.483	1112
661.538	-1024
661.592	272
661.647	-1005
661.701	232
661.755	-101
661.810	519
661.864	-608
661.919	-1001
661.973	428
662.027	91
662.081	-804
662.136	-689
662.190	-678
662.244	-67
662.299	-1012
662.353	-263
662.407	-928
662.461	217
662.515	253
662.569	-468
662.624	686
662.678	419
662.732	-234
662.786	22
662.840	-190
662.894	728
662.948	-242
663.002	248
663.056	139
663.110	-1064
663.164	-522
663.218	-185
663.272	-36
663.326	205
663.380	-258
663.434	223
663.488	-616
663.542	675
663.595	-288
663.649	-229
663.703	403
663.757	-404
663.811	-732
663.864	-652
663.918	117
663.972	-596
664.026	-824
664.079	-672
664.133	-147
664.187	-8
664.240	-308
664.294	-376
664.348	405
664.401	-604
664.455	-167
664.508	-129
664.562	-468
664.615	291
664.669	-1570
664.722	-319
664.776	-226
664.829	-201
664.883	-391
664.936	-352
664.990	-152
665.043	191
665.097	-408
665.150	952
665.203	69
665.257	-21
665.310	-80
665.363	1068
665.417	341
665.470	-417
665.523	-394
665.576	-138
665.630	-340
665.683	508
665.736	199
665.789	356
665.842	-662
665.895	-339
665.949	-324
666.002	373
666.055	189
666.108	790
666.161	-214
666.214	1038
666.267	467
666.320	922
666.373	-77
666.426	-469
666.479	-351
666.532	389
666.585	891
666.638	313
666.691	425
666.744	283
666.796	-420
666.849	548
666.902	-394
666.955	398
667.008	-901
667.060	698
667.113	-159
667.166	-605
667.219	-309
667.271	-348
667.324	-662
667.377	-555
667.430	450
667.482	594
667.535	314
667.587	-356
667.640	198
667.693	-164
667.745	133
667.798	602
667.850	565
667.903	-150
667.955	-8
668.008	307
668.060	690
668.113	284
668.165	800
668.218	116
668.270	300
668.322	-312
668.375	-66
668.427	1047
668.479	-784
668.532	168
668.584	881
668.636	66
668.689	188
668.741	-288
668.793	5
668.845	-388
668.898	-322
668.950	620
669.002	314
669.054	449
669.106	253
669.158	464
669.211	-161
669.263	154
669.315	990
669.367	672
669.419	109
669.471	672
669.523	-267
669.575	349
669.627	29
669.679	8
669.731	-1135
669.783	624
669.835	357
669.886	-795
669.938	-52
669.990	-28
670.042	-549
670.094	87
670.146	-343
670.197	629
670.249	712
670.301	972
670.353	1545
670.404	2477
670.456	2547
670.508	6309
670.560	10648
670.611	19460
670.663	34250
670.715	82806
670.766	128948
670.818	41141
670.869	6607
670.921	3009
670.972	2848
671.024	1178
671.075	969
671.127	1049
671.178	-269
671.230	727
671.281	484
671.333	-78
671.384	-92
671.436	213
671.487	889
671.538	635
671.590	794
671.641	1994
671.692	1768
671.744	4275
671.795	2224
671.846	1162
671.897	1103
671.949	607
672.000	-112
672.051	1027
672.102	890
672.153	-593
672.204	369
672.256	101
672.307	158
672.358	348
672.409	-552
672.460	-399
672.511	-646
672.562	829
672.613	-1120
672.664	591
672.715	-40
672.766	209
672.817	-704
672.868	329
672.919	481
672.970	412
673.021	-383
673.071	-975
673.122	483
673.173	612
673.224	152
673.275	617
673.326	-249
673.376	509
673.427	-434
673.478	-107
673.528	182
673.579	339
673.630	173
673.680	909
673.731	-652
673.782	-197
673.832	-628
673.883	-101
673.934	-226
673.984	177
674.035	-427
674.085	-974
674.136	-383
674.186	-130
674.237	456
674.287	893
674.338	-100
674.388	390
674.438	-224
674.489	-457
674.539	1044
674.589	-130
674.640	182
674.690	-147
674.740	-157
674.791	177
674.841	-146
674.891	338
674.942	216
674.992	-555
675.042	-988
675.092	-25
675.142	-263
675.193	-204
675.243	-825
675.293	-59
675.343	417
675.393	-156
675.443	-95
675.493	122
675.543	-646
675.593	-173
675.643	-149
675.693	524
675.743	-164
675.793	-221
675.843	-456
675.893	-127
675.943	-390
675.993	251
676.043	290
676.093	-311
676.142	-393
676.192	-813
676.242	-597
676.292	-782
676.341	-1195
676.391	-354
676.441	-412
676.491	-911
676.540	-799
676.590	-137
676.640	-265
676.689	-260
676.739	-1018
676.789	-218
676.838	-796
676.888	-250
676.937	-397
676.987	-111
677.037	-812
677.086	-625
677.136	-520
677.185	1
677.235	-485
677.284	-377
677.333	-651
677.383	29
677.432	-567
677.482	-339
677.531	-447
677.580	-444
677.630	-1492
677.679	-223
677.728	-1137
677.778	-125
677.827	-216
677.876	267
677.925	-375
677.975	-596
678.024	-492
678.073	43
678.122	-527
678.171	-1064
678.220	-306
678.269	-483
678.319	649
678.368	-227
678.417	-345
678.466	-400
678.515	207
678.564	54
678.613	-137
678.662	-1177
678.711	-344
678.760	-260
678.809	-454
678.857	-843
678.906	-266
678.955	-254
679.004	273
679.053	-872
679.102	-650
679.151	-154
679.199	-764
679.248	-448
679.297	-720
679.346	-636
679.394	-356
679.443	-561
679.492	-655
679.540	159
679.589	-583
679.638	-449
679.686	-632
679.735	94
679.784	-723
679.832	-247
679.881	-832
679.929	-1227
679.978	-1107
680.026	6
680.075	-803
680.123	-998
680.172	-633
680.220	-625
680.268	-569
680.317	-846
680.365	-1265
680.414	-1426
680.462	-1051
680.510	-57
680.559	-220
680.607	-557
680.655	-391
680.703	-46
680.752	-250
680.800	-945
680.848	-619
680.896	-1491
680.945	-861
680.993	-360
681.041	-1141
681.089	-374
681.137	-949
681.185	-841
681.233	-1316
681.258	-1094
681.281	-927
681.329	-698
681.377	-661
681.380	-597
681.425	-241
681.473	287
681.502	45
681.521	-204
681.569	736
681.617	-356
681.624	-284
681.665	-140
681.713	106
681.745	393
681.761	467
681.809	-452
681.857	386
681.867	444
681.904	477
681.952	1225
681.989	516
682.000	253
682.048	1004
682.096	524
682.111	874
682.143	1469
682.191	953
682.233	1533
682.239	1583
682.286	660
682.334	1182
682.354	946
682.382	510
682.430	1885
682.476	2006
682.477	1972
682.525	1363
682.572	721
682.598	1096
682.620	1378
682.667	1468
682.715	1851
682.720	1852
682.763	1426
682.810	1864
682.841	1942
682.857	1952
682.905	1769
682.952	2277
682.963	2371
683.000	2536
683.047	2954
683.085	3165
683.095	3173
683.142	2141
683.190	2409
683.206	2411
683.237	2386
683.284	1870
683.328	2310
683.332	2303
683.379	3075
683.426	2925
683.449	2686
683.473	2430
683.521	2589
683.568	3742
683.571	3698
683.615	2693
683.662	3950
683.693	3377
683.709	3042
683.757	2721
683.804	4717
683.814	4490
683.851	3541
683.898	3866
683.936	4201
683.945	4255
683.992	3963
684.039	3719
684.057	3711
684.086	3668
684.133	4464
684.179	4172
684.180	4136
684.227	4223
684.274	4402
684.300	4403
684.321	4380
684.368	4188
684.415	4695
684.422	4679
684.462	4387
684.509	4653
684.543	4762
684.556	4793
684.603	4597
684.649	4440
684.665	4523
684.696	4729
684.743	5706
684.786	6012
684.790	6010
684.837	5550
684.883	5499
684.908	5814
684.930	6138
684.977	6638
685.023	6118
685.029	6135
685.070	5739
685.117	6285
685.150	6064
685.164	6088
685.210	6676
685.257	7824
685.272	7636
685.303	6847
685.350	6786
685.393	6453
685.396	6428
685.443	6628
685.490	7499
685.514	7396
685.536	7275
685.583	7227
685.629	7082
685.636	7143
685.675	7348
685.722	7625
685.757	7322
685.768	7248
685.815	7572
685.861	8237
685.878	8073
685.908	7768
685.954	7736
686.000	8755
686.000	8763
686.047	8413
686.093	9488
686.121	9584
686.139	9403
686.185	8663
686.232	8381
686.242	8343
686.278	8295
686.324	9242
686.363	8791
686.370	8701
686.416	8333
686.463	8676
686.484	8662
686.509	8725
686.555	8036
686.601	8106
686.606	8162
686.647	8478
686.693	7706
686.727	8307
686.739	8601
686.785	8771
686.831	8744
686.848	8974
686.877	9136
686.923	8646
686.969	9346
686.969	9350
687.015	8681
687.061	8842
687.090	9067
687.107	9120
687.153	9213
687.199	9315
687.211	9108
687.245	8699
687.291	9251
687.332	9760
687.336	9793
687.382	9257
687.428	9794
687.453	9729
687.474	9644
687.520	9366
687.565	9453
687.574	9409
687.611	9331
687.657	9609
687.695	9672
687.702	9745
687.748	10164
687.794	10516
687.816	10572
687.839	10293
687.885	10380
687.931	9738
687.937	9670
687.976	9534
688.022	9579
688.058	9517
688.067	9520
688.113	9718
688.158	9690
688.179	9859
688.204	10168
688.249	10038
688.295	10077
688.300	10123
688.340	10610
688.386	11348
688.421	11074
688.431	10914
688.477	11338
688.522	11051
688.542	11050
688.567	11166
688.613	10933
688.658	11173
688.663	11152
688.703	11291
688.749	11713
688.784	11734
688.794	11612
688.839	11520
688.884	11002
688.905	10741
688.930	10634
688.975	10915
689.020	10929
689.026	10943
689.065	11244
689.110	11066
689.146	11098
689.155	11078
689.201	11056
689.246	10781
689.267	10761
689.291	10996
689.336	11281
689.381	11800
689.388	11776
689.426	11404
689.471	11561
689.509	11608
689.516	11623
689.561	11755
689.606	10788
689.630	10839
689.651	11038
689.696	11058
689.741	11715
689.750	11653
689.785	11376
689.830	11400
689.871	11168
689.875	11160
689.920	11127
689.965	11556
689.992	11221
690.010	11245
690.054	11584
690.099	12405
690.112	12501
690.144	12301
690.189	12292
690.233	11534
690.233	11551
690.278	12193
690.323	12035
690.354	11954
690.367	12043
690.412	12956
690.457	12965
690.474	13259
690.501	13655
690.546	13604
690.590	14018
690.595	13976
690.635	14178
690.680	15103
690.716	15507
690.724	15781
690.769	17575
690.813	18809
690.836	19624
690.857	21929
690.902	26312
690.946	31432
690.957	32532
690.991	43262
691.035	57329
691.077	71452
691.080	71544
691.124	68835
691.168	66931
691.198	65257
691.213	60619
691.257	47029
691.301	33330
691.318	28071
691.346	25785
691.390	21634
691.434	17572
691.439	17083
691.478	16948
691.522	16745
691.559	16352
691.567	16261
691.611	16190
691.655	15387
691.680	14947
691.699	14854
691.743	15114
691.787	14877
691.800	14783
691.831	14838
691.875	15149
691.919	15186
691.921	15168
691.964	15387
692.008	15237
692.041	15093
692.052	15115
692.096	15222
692.139	15360
692.162	15462
692.183	15502
692.227	15255
692.271	14885
692.282	14912
692.315	15207
692.359	14855
692.402	15060
692.403	15094
692.447	14753
692.490	15309
692.523	15305
692.534	15379
692.578	15368
692.622	15323
692.643	15626
692.666	15878
692.709	15513
692.753	15256
692.763	15217
692.797	15347
692.840	15425
692.884	15580
692.884	15617
692.928	15856
692.971	16045
693.004	16164
693.015	16291
693.059	16261
693.102	16982
693.124	17025
693.146	17185
693.189	17772
693.233	17923
693.245	18025
693.276	18772
693.320	19683
693.363	20546
693.365	20532
693.407	21795
693.450	23281
693.485	24087
693.493	24877
693.537	29095
693.580	33043
693.605	35379
693.624	40130
693.667	51066
693.710	62268
693.725	66117
693.753	87272
693.797	120074
693.840	153195
693.845	156868
693.883	151612
693.926	144461
693.966	138369
693.970	135579
694.013	103761
694.056	71664
694.086	49475
694.099	47314
694.142	39961
694.185	32375
694.206	28833
694.229	27595
694.272	25176
694.315	22744
694.326	22022
694.358	21324
694.401	20512
694.444	19384
694.446	19284
694.487	18819
694.530	18314
694.566	18180
694.573	18202
694.616	17540
694.659	17135
694.686	16756
694.702	16570
694.745	16153
694.787	15581
694.806	15287
694.830	15502
694.873	15733
694.916	16074
694.926	16135
694.959	16142
695.002	16044
695.044	15777
695.046	15732
695.087	15849
695.130	15857
695.166	15944
695.172	16034
695.215	16045
695.258	16226
695.286	16325
695.301	16469
695.343	16866
695.386	17359
695.406	17324
695.428	16829
695.471	16037
695.514	15379
695.526	15117
695.556	15529
695.599	16166
695.641	16503
695.646	16531
695.684	16396
695.726	15929
695.766	15641
695.769	15685
695.811	15648
695.854	15716
695.886	15571
695.896	15568
695.938	15507
695.981	15382
696.005	15259
696.023	15322
696.065	15410
696.108	15492
696.125	15512
696.150	15906
696.192	16434
696.235	16981
696.245	17081
696.277	16956
696.319	16584
696.361	16239
696.365	16178
696.404	16616
696.446	17024
696.485	17232
696.488	17282
696.530	17363
696.572	17436
696.604	17462
696.614	17434
696.656	17077
696.698	16745
696.724	16451
696.740	16278
696.783	15818
696.825	15337
696.844	15047
696.867	15254
696.909	15658
696.951	15850
696.964	15910
696.992	15778
697.034	15497
697.076	15175
697.083	15095
697.118	15186
697.160	15229
697.202	15119
697.203	15076
697.244	15144
697.286	15117
697.323	14988
697.327	15023
697.369	15067
697.411	15014
697.442	14923
697.453	15039
697.494	15354
697.536	15683
697.562	15871
697.578	15802
697.620	15381
697.661	14993
697.682	14821
697.703	15054
697.744	15347
697.786	15628
697.801	15683
697.828	15798
697.869	15934
697.911	16039
697.921	16013
697.952	16003
697.994	15968
698.035	15963
698.040	15906
698.077	15784
698.118	15668
698.160	15514
698.160	15467
698.201	15408
698.243	15299
698.279	15173
698.284	15268
698.325	15704
698.367	16188
698.399	16495
698.408	16418
698.449	15849
698.491	15264
698.518	14852
698.532	14969
698.573	15161
698.614	15365
698.638	15436
698.656	15522
698.697	15613
698.738	15715
698.757	15714
698.779	15897
698.820	16151
698.862	16424
698.877	16474
698.903	16776
698.944	17181
698.985	17600
698.996	17666
699.026	17515
699.067	17240
699.116	16867
699.235	16623
699.354	15886
699.474	16485
699.593	18224
699.713	17003
699.832	15995
699.951	16460
700.070	15598
700.190	15627
700.309	15140
700.428	15763
700.547	14981
700.667	15387
700.786	15587
700.905	14906
701.024	16193
701.143	14906
701.262	13337
701.381	14050
701.500	15071
701.619	14177
701.738	13407
701.857	14028
701.976	13074
702.095	13856
702.214	14403
702.333	13241
702.452	12938
702.571	12448
702.690	14169
702.809	13598
702.928	12338
703.047	13341
703.165	13574
703.284	13101
703.403	12592
703.522	13255
703.640	13794
703.759	14859
703.878	19763
703.997	13273
704.115	12885
704.234	12612
704.353	11843
704.471	12323
704.590	11493
704.708	11737
704.827	11887
704.946	12831
705.064	13582
705.183	13001
705.301	16252
705.420	25474
705.538	22830
705.656	19196
705.775	18886
705.893	29521
706.012	38341
706.130	19101
706.249	19919
706.367	19437
706.485	19810
706.604	19187
706.722	19170
706.840	20905
706.958	22352
707.077	18684
707.195	17129
707.313	17798
707.431	16750
707.549	16648
707.668	16771
707.786	17112
707.904	16481
708.022	16562
708.140	15203
708.258	15268
708.376	15564
708.494	16243
708.612	19113
708.730	28163
708.848	26042
708.966	22156
709.084	20387
709.202	21072
709.320	22175
709.438	22667
709.556	21849
709.674	22964
709.791	23988
709.909	21482
710.027	20884
710.145	21347
710.263	22759
710.380	21322
710.498	20203
710.616	20365
710.733	19931
710.851	20405
710.969	20972
711.086	20254
711.204	19517
711.322	19857
711.439	19217
711.557	19531
711.674	18418
711.792	17928
711.909	18555
712.027	20666
712.144	17391
712.262	18037
712.379	20883
712.497	31665
712.614	31942
712.732	26025
712.849	23857
712.966	23610
713.084	26422
713.201	25828
713.318	25705
713.436	24174
713.553	25581
713.670	24129
713.787	26144
713.905	25755
714.022	23459
714.139	22726
714.256	24653
714.373	25217
714.490	27238
714.608	40820
714.725	113127
714.842	123848
714.959	27129
715.076	21994
715.193	21607
715.310	20642
715.427	20408
715.544	18734
715.661	21101
715.778	20767
715.895	22577
716.011	21664
716.128	20775
716.245	20194
716.362	20544
716.479	20352
716.596	19404
716.713	20652
716.829	20542
716.946	19890
717.063	18998
717.180	18557
717.296	17442
717.413	18448
717.530	17465
717.646	17919
717.763	17213
717.880	17229
717.996	16988
718.113	15751
718.229	16097
718.346	15529
718.462	15329
718.579	17151
718.695	18012
718.812	19205
718.928	20030
719.045	17655
719.161	15548
719.277	15024
719.394	15618
719.510	17484
719.626	16592
719.743	19481
719.859	18678
719.975	20690
720.092	39130
720.208	76491
720.324	22981
720.440	16724
720.557	16989
720.673	17938
720.789	25516
720.905	50709
721.021	22380
721.137	16076
721.253	15531
721.369	15444
721.486	17239
721.602	20895
721.718	14919
721.834	12842
721.950	13889
722.066	13554
722.181	13570
722.297	13359
722.413	13172
722.529	13856
722.645	12841
722.761	12459
722.877	11589
722.993	12758
723.108	13662
723.224	12801
723.340	12402
723.456	13278
723.571	12490
723.687	12354
723.803	11828
723.918	10940
724.034	11143
724.150	12344
724.265	13391
724.381	21259
724.497	26554
724.612	11887
724.728	11048
724.843	10538
724.959	12140
725.074	20080
725.190	23414
725.305	11335
725.421	11091
725.536	10569
725.651	9285
725.767	11290
725.882	9842
725.997	10432
726.113	9549
726.228	9548
726.343	9872
726.459	9526
726.574	10073
726.689	9890
726.804	9075
726.920	9956
727.035	10636
727.150	9970
727.265	9225
727.380	9502
727.495	9891
727.610	8726
727.725	10234
727.841	10333
727.956	16505
728.071	15119
728.186	8612
728.301	7745
728.416	9419
728.531	8195
728.645	7981
728.760	8240
728.875	8530
728.990	7721
729.105	8121
729.220	7932
729.335	8619
729.449	7615
729.564	7798
729.679	6945
729.794	8433
729.908	8712
730.023	8827
730.138	7201
730.253	7514
730.367	7730
730.482	7203
730.596	7405
730.711	8449
730.826	8058
730.940	7808
731.055	7339
731.169	7336
731.284	7411
731.398	7089
731.513	8478
731.627	7923
731.742	8788
731.856	9642
731.970	7572
732.085	7164
732.199	8990
732.313	9366
732.428	15732
732.542	33802
732.656	22300
732.771	8598
732.885	7565
732.999	7560
733.113	7243
733.227	7799
733.342	6247
733.456	6687
733.570	6480
733.684	6682
733.798	6869
733.912	6812
734.026	5730
734.140	7122
734.254	6493
734.368	11038
734.482	14285
734.596	6582
734.710	6768
734.824	6402
734.938	5346
735.052	5912
735.166	7424
735.280	7066
735.393	6087
735.507	5580
735.621	7869
735.735	13600
735.849	7365
735.962	6446
736.076	5919
736.190	5893
736.303	7980
736.417	10886
736.531	6458
736.644	5965
736.758	5453
736.872	5744
736.985	5879
737.099	5841
737.212	4978
737.326	5937
737.439	5826
737.553	5464
737.666	5484
737.780	5684
737.893	4803
738.007	5164
738.120	5211
738.233	5837
738.347	5323
738.460	5363
738.573	5333
738.687	5050
738.800	5202
738.913	4625
739.026	5793
739.140	6009
739.253	5785
739.366	4846
739.479	5372
739.592	5004
739.705	5352
739.818	4854
739.932	4843
740.045	4816
740.158	4853
740.271	5828
740.384	4465
740.497	4766
740.610	5879
740.723	5252
740.836	4787
740.949	4896
741.062	5966
741.174	5937
741.287	6105
741.400	4960
741.513	5391
741.626	4477
741.739	5000
741.851	4945
741.964	4023
742.077	4529
742.189	5670
742.302	4692
742.415	4389
742.527	4396
742.640	4867
742.753	4987
742.865	4895
742.978	4333
743.090	4519
743.203	5873
743.316	4479
743.428	4733
743.541	5178
743.653	4786
743.766	4053
743.878	5138
743.990	6084
744.103	6052
744.215	3802
744.327	3322
744.440	4870
744.552	4053
744.664	3887
744.777	4421
744.889	4184
745.001	4340
745.113	3993
745.226	4452
745.338	4669
745.450	4378
745.562	4166
745.674	4530
745.786	3550
745.898	4268
746.010	4611
746.122	3625
746.234	4418
746.347	4794
746.459	4300
746.570	4121
746.682	4608
746.794	4436
746.906	4138
747.018	4637
747.130	4019
747.242	4577
747.354	4465
747.466	4753
747.577	4164
747.689	4554
747.801	4187
747.913	3831
748.024	4364
748.136	5207
748.248	4664
748.359	4692
748.471	4053
748.583	4677
748.694	4814
748.806	5867
748.918	5417
749.029	4659
749.141	5164
749.252	4374
749.364	4827
749.475	5285
749.587	5037
749.698	4523
749.809	4096
749.921	4158
750.032	4587
750.144	4357
750.255	4078
750.366	4985
750.478	4666
750.589	3992
750.700	3603
750.811	4844
750.923	5018
751.034	4845
751.145	5950
751.256	4170
751.367	4844
751.479	4381
751.590	4315
751.701	4463
751.812	4420
751.923	4259
752.034	4825
752.145	4824
752.256	4663
752.367	4703
752.478	4854
752.589	5433
752.700	3902
752.811	4062
752.922	4851
753.032	4886
753.143	5030
753.254	4528
753.365	4826
753.476	4642
753.586	5114
753.697	5278
753.808	4749
753.919	4429
754.029	4743
754.140	5203
754.251	4863
754.361	3944
754.472	4766
754.582	4360
754.693	5422
754.804	5634
754.914	3916
755.025	4684
755.135	5429
755.246	5014
755.356	4536
755.466	5336
755.577	5238
755.687	5211
755.798	4748
755.908	5762
756.018	5556
756.129	5424
756.239	5967
756.349	6263
756.460	5625
756.570	5234
756.680	5424
756.790	5823
756.900	5427
757.011	5685
757.121	6252
757.231	6394
757.341	6392
757.451	5592
757.561	6033
757.671	5684
757.781	5284
757.891	8361
758.001	6870
758.111	6599
758.221	6836
758.331	6900
758.441	6033
758.551	6956
758.661	8061
758.771	7493
758.880	7637
758.990	9029
759.100	7371
759.210	7302
759.320	7671
759.429	7949
759.539	8325
759.649	9071
759.758	9073
759.868	9226
759.978	9023
760.087	10000
760.197	9704
760.307	9594
760.416	10136
760.526	10475
760.635	10951
760.745	10902
760.854	10882
760.964	11234
761.073	11923
761.182	12050
761.292	12597
761.401	13242
761.511	12274
761.620	13351
761.729	13660
761.839	14508
761.948	14785
762.057	14658
762.166	15498
762.276	14863
762.385	17202
762.494	17385
762.603	17128
762.712	18579
762.822	19624
762.931	20843
763.040	20563
763.149	21562
763.258	22875
763.367	24091
763.476	24551
763.585	26642
763.694	27755
763.803	30421
763.912	32326
764.021	34226
764.130	35290
764.238	39054
764.347	40412
764.456	44012
764.565	47536
764.674	51674
764.783	57184
764.891	62867
765.000	71403
765.109	78843
765.217	88203
765.326	101571
765.435	118216
765.543	139340
765.652	164210
765.761	197640
765.869	240929
765.978	288275
766.086	343336
766.195	384484
766.303	363168
766.412	243151
766.520	235829
766.629	368908
766.737	389204
766.846	346778
766.954	287730
767.062	232120
767.171	191574
767.279	155605
767.387	129741
767.496	109271
767.604	93556
767.712	82806
767.820	74695
767.928	68651
768.037	62265
768.145	60704
768.253	57845
768.361	55503
768.469	56632
768.577	57043
768.685	59459
768.793	63153
768.901	68599
769.009	79506
769.117	92223
769.225	113673
769.333	148118
769.441	194480
769.549	263654
769.657	337669
769.765	337367
769.873	232221
769.981	322813
770.088	347635
770.196	278344
770.304	215105
770.412	167935
770.519	133827
770.627	108912
770.735	92328
770.842	77884
770.950	67798
771.058	58692
771.165	53873
771.273	48348
771.380	43595
771.488	40790
771.595	36184
771.703	33518
771.810	32523
771.918	29065
772.025	27963
772.133	27079
772.240	24745
772.348	23132
772.455	22370
772.562	20425
772.670	20338
772.777	20366
772.884	18175
772.991	17647
773.099	17817
773.206	15803
773.313	15802
773.420	15378
773.528	14637
773.635	13022
773.742	13555
773.849	14137
773.956	12688
774.063	13081
774.170	12159
774.277	12837
774.384	12473
774.491	11186
774.598	11950
774.705	10443
774.812	11081
774.919	11082
775.026	11002
775.133	10056
775.239	9840
775.346	8707
775.453	8345
775.560	8700
775.667	9385
775.773	8819
775.880	9530
775.987	9000
776.093	8879
776.200	7852
776.307	8048
776.413	8794
776.520	8634
776.627	7559
776.733	8046
776.840	6249
776.946	8337
777.053	6940
777.159	7735
777.266	6014
777.372	7811
777.478	6419
777.585	6742
777.691	5991
777.798	6563
777.904	7250
778.010	7930
778.117	6968
778.223	5952
778.329	6193
778.435	5972
778.542	6330
778.648	6048
778.754	5257
778.860	5658
778.966	5195
779.072	6194
779.178	5515
779.284	5166
779.391	4916
779.497	4634
779.603	9039
779.708	10135
779.815	20582
779.920	61336
780.026	124690
780.132	30038
780.238	8864
780.344	7143
780.450	6299
780.556	5448
780.661	4429
780.767	4856
780.873	4130
780.979	4849
781.085	4417
781.190	3814
781.296	4815
781.402	2795
781.507	3247
781.613	3983
781.719	3456
781.824	3695
781.930	5131
782.035	4443
782.141	3700
782.246	4015
782.352	3525
782.457	3712
782.563	3764
782.668	3695
782.773	4047
782.879	3902
782.984	4188
783.090	3823
783.195	3908
783.300	4684
783.405	3901
783.511	3472
783.616	3326
783.721	3918
783.826	3181
783.932	3696
784.037	3765
784.142	2338
784.247	3158
784.352	3855
784.457	2877
784.562	2946
784.667	3414
784.772	2886
784.877	3299
784.982	3694
785.087	2521
785.192	3768
785.297	2931
785.402	3626
785.507	2612
785.611	2706
785.716	2724
785.821	2574
785.926	2906
786.031	1977
786.135	3129
786.240	2496
786.345	1457
786.450	3211
786.554	2610
786.659	2274
786.763	1579
786.868	2798
786.973	3085
787.077	2401
787.182	2663
787.286	2116
787.391	1493
787.495	1247
787.600	2169
787.704	1507
787.809	2600
787.913	1323
788.017	2340
788.122	2212
788.226	2056
788.330	1617
788.435	1731
788.539	2592
788.643	2098
788.747	2060
788.852	2112
788.956	1733
789.060	2206
789.164	2142
789.268	773
789.372	2570
789.476	2105
789.580	1521
789.684	1510
789.788	2128
789.892	2331
789.996	2862
790.100	1965
790.204	1622
790.308	2369
790.412	1312
790.516	2491
790.620	1627
790.724	2117
790.828	2318
790.931	1781
791.035	3621
791.139	1740
791.242	815
791.346	2242
791.450	1098
791.554	1796
791.657	1036
791.761	2567
791.864	2286
791.968	1810
792.072	2135
792.175	1490
792.279	1038
792.382	2181
792.486	1333
792.589	1575
792.693	1497
792.796	539
792.899	2742
793.003	981
793.106	549
793.209	840
793.313	2946
793.416	780
793.519	2484
793.623	2399
793.726	1926
793.829	1239
793.932	1670
794.035	1463
794.138	2752
794.242	2430
794.345	2424
794.448	4894
794.551	9880
794.654	35618
794.757	82059
794.860	19509
794.963	4030
795.066	1588
795.169	2947
795.272	1932
795.375	1992
795.477	1278
795.580	1035
795.683	139
795.786	466
795.889	743
795.991	2500
796.094	1481
796.197	637
796.300	1883
796.402	829
796.505	690
796.608	1161
796.710	2034
796.813	768
796.915	758
797.018	747
797.120	1367
797.223	298
797.326	1885
797.428	596
797.530	1410
797.633	1258
797.735	2055
797.838	2233
797.940	3201
798.042	1120
798.145	1030
798.247	1447
798.349	-349
798.452	1012
798.554	835
798.656	-86
798.758	1645
798.860	1192
798.962	13
799.065	132
799.167	-39
799.269	1723
799.371	1393
799.473	668
799.575	714
799.677	1141
799.779	2458
799.881	-299
799.983	1243
800.085	109
800.187	1299
800.289	799
800.390	431
800.492	676
800.594	1241
800.696	1138
800.798	1316
800.899	419
801.001	513
801.103	537
801.205	217
801.306	767
801.408	-335
801.509	570
801.611	503
801.713	609
801.814	47
801.916	274
802.017	256
802.119	199
802.220	492
802.322	-1117
802.423	3240
802.525	144
802.626	128
802.727	87
802.829	864
802.930	-1723
803.031	2240
803.133	168
803.234	-215
803.335	-67
803.436	-826
803.538	464
803.639	-480
803.740	1135
803.841	-508
803.942	444
804.043	1445
804.144	139
804.245	-379
804.346	-152
804.447	-236
804.548	85
804.649	1379
804.750	328
804.851	-47
804.952	-443
805.053	-54
805.154	-603
805.255	965
805.355	-150
805.456	-290
805.557	-525
805.658	-260
805.758	971
805.859	107
805.960	111
806.061	-936
806.161	-520
806.262	282
806.362	519
806.463	25
806.564	1071
806.664	-101
806.765	820
806.865	1111
806.966	1030
807.066	-468
807.166	390
807.267	348
807.367	-516
807.468	842
807.568	-1918
807.668	401
807.769	-2
807.869	-848
807.969	-89
808.069	202
808.170	415
808.270	-983
808.370	321
808.470	-53
808.570	-185
808.670	-335
808.770	549
808.870	-734
808.970	137
809.070	-84
809.170	61
809.271	780
809.370	35
809.470	72
809.570	434
809.670	-600
809.770	-38
809.870	-233
809.970	-30
810.070	258
810.169	508
810.269	-1584
810.369	451
810.469	-910
810.568	-269
810.668	-266
810.768	-70
810.867	-336
810.967	-452
811.066	-783
811.166	-102
811.265	-71
811.365	-483
811.464	-971
811.564	-577
811.663	-103
811.763	-692
811.862	139
811.962	114
812.061	-369
812.160	-1354
812.260	-1284
812.359	-209
812.458	340
812.557	1293
812.657	1766
812.756	897
812.855	-351
812.954	-416
813.053	107
813.153	-524
813.252	-209
813.351	74
813.450	179
813.549	-590
813.648	-519
813.747	-674
813.846	328
813.945	-899
814.044	-1064
814.143	-199
814.242	-867
814.341	-575
814.439	-342
814.538	-290
814.637	-306
814.736	-503
814.835	-59
814.933	-1009
815.032	-510
815.131	-1024
815.229	-210
815.328	209
815.427	261
815.525	293
815.624	457
815.722	-1145
815.821	51
815.919	-827
816.018	-442
816.116	224
816.215	-696
816.313	-393
816.412	-654
816.510	309
816.609	785
816.707	-723
816.805	-65
816.904	-1105
817.002	585
817.100	703
817.198	-579
817.296	301
817.395	-37
817.493	373
817.591	-377
817.689	343
817.787	-1010
817.885	374
817.983	1110
818.081	3036
818.179	5497
818.277	17909
818.375	17547
818.473	4611
818.571	2076
818.669	369
818.767	674
818.865	245
818.963	906
819.061	1158
819.158	2008
819.256	6354
819.354	13422
819.452	36050
819.549	25852
819.647	5726
819.745	1928
819.842	966
819.940	189
820.038	-603
820.135	571
820.233	1874
820.330	-243
820.428	-11
820.525	1165
820.623	68
820.720	-521
820.818	-80
820.915	221
821.012	-451
821.110	-999
821.207	1022
821.304	-205
821.402	-320
821.499	4
821.596	350
821.693	-522
821.791	602
821.888	-664
821.985	396
822.082	-595
822.179	307
822.276	-907
822.373	-81
822.470	-664
822.567	-56
822.664	-449
822.761	223
822.858	-1410
822.955	331
823.052	-765
823.149	-866
823.246	-355
823.343	-957
823.440	810
823.536	-475
823.633	-692
823.730	-795
823.827	-274
823.923	-520
824.020	478
824.117	-902
824.213	-1077
824.310	213
824.407	-511
824.503	340
824.600	-351
824.696	-849
824.793	-448
824.889	-1619
824.986	-736
825.082	-762
825.179	-130
825.275	-116
825.371	-1366
825.468	-178
825.564	-862
825.660	236
825.757	35
825.853	661
825.949	-981
826.045	-776
826.142	-731
826.238	-196
826.334	105
826.430	-1295
826.526	539
826.622	-1805
826.718	-784
826.814	-1314
826.910	124
827.006	82
827.102	-799
827.198	390
827.294	-557
827.390	-688
827.486	-64
827.582	-988
827.678	-818
827.774	896
827.869	-1075
827.965	1409
828.061	-869
828.157	-909
828.252	-846
828.348	-1069
828.444	-211
828.539	-618
828.635	-833
828.731	238
828.826	-2063
828.922	-129
829.017	-1141
829.113	-400
829.208	-667
829.304	-1036
829.399	783
829.495	-491
829.590	100
829.685	-1025
829.781	-224
829.876	-1424
829.971	137
830.066	-341
830.162	-1203
830.257	-1156
830.352	-971
830.447	344
830.543	134
830.638	-1412
830.733	-230
830.828	-445
830.923	71
831.018	-486
831.113	-693
831.208	-305
831.303	-818
831.398	-613
831.493	-965
831.588	-640
831.683	-986
831.778	-180
831.873	-721
831.967	706
832.062	-746
832.157	-1445
832.252	205
832.346	-1019
832.441	-772
832.536	-553
832.631	548
832.725	291
832.820	-638
832.914	-1209
833.009	-1425
833.104	-652
833.198	-482
833.293	-1320
833.387	-810
833.482	-930
833.576	-1274
833.670	526
833.765	-565
833.859	-1483
833.954	-301
834.048	-516
834.142	-710
834.237	-498
834.331	-613
834.425	-853
834.519	-1781
834.613	140
834.708	-1233
834.802	-1087
834.896	-1137
834.990	-399
835.084	152
835.178	-1208
835.272	-1547
835.366	-1485
835.460	-34
835.554	96
835.648	-818
835.742	-1068
835.836	-483
835.930	-105
836.024	-831
836.117	355
836.211	-365
836.305	-3
836.399	1057
836.493	-1217
836.586	-151
836.680	-875
836.774	-1046
836.867	1344
836.961	-1047
837.055	-1228
837.148	-1431
837.242	-211
837.335	-348
837.429	-65
837.522	-550
837.616	-267
837.709	2389
837.803	1082
837.896	-95
837.989	-537
838.083	283
838.176	1916
838.269	1340
838.363	862
838.456	-368
838.549	-166
838.642	-392
838.735	1580
838.829	815
838.922	-739
839.015	-600
839.108	-784
839.201	-161
839.294	-698
839.387	292
839.480	-118
839.573	141
839.666	707
839.759	-522
839.852	-1250
839.945	-670
840.038	-1078
840.131	-197
840.223	-811
840.316	-171
840.409	-1803
840.502	-1460
840.594	-314
840.687	-1040
840.780	-620
840.873	-1021
840.965	-947
841.058	446
841.150	1257
841.243	1036
841.336	-224
841.428	-260
841.521	-615
841.613	-1151
841.706	-483
841.798	-1174
841.890	-73
841.983	-1477
842.075	-322
842.167	-227
842.260	-953
842.352	295
842.444	814
842.537	2249
842.629	4901
842.721	1117
842.813	-542
842.905	-2085
842.997	-559
843.090	128
843.182	804
843.274	1509
843.366	5820
843.458	12957
843.550	8813
843.642	251
843.734	35
843.826	185
843.918	698
844.009	-208
844.101	-996
844.193	-1138
844.285	-668
844.377	205
844.469	-955
844.560	-1122
844.652	-998
844.744	-449
844.835	-1197
844.927	-340
845.019	-1044
845.110	94
845.202	-743
845.293	-572
845.385	-1460
845.476	-647
845.568	236
845.659	-1041
845.751	10
845.842	-1122
845.934	-1059
846.025	-1587
846.116	-291
846.208	-344
846.299	-874
846.390	-587
846.482	-809
846.573	-226
846.664	-427
846.755	-428
846.846	483
846.937	-988
847.029	-653
847.120	-927
847.211	-1065
847.302	174
847.393	-614
847.484	396
847.575	-468
847.666	-313
847.757	-1067
847.847	-1056
847.938	-256
848.029	-87
848.120	-257
848.211	-667
848.302	-1129
848.392	98
848.483	9
848.574	-860
848.664	-1052
848.755	-265
848.846	-515
848.936	-591
849.027	-917
849.118	-662
849.208	-1165
849.299	11
849.389	-71
849.480	-797
849.570	286
849.661	1669
849.751	2747
849.841	466
849.932	-181
850.022	-524
850.112	-203
850.203	-1031
850.293	-400
850.383	-483
850.474	-842
850.564	-1081
850.654	-230
850.744	-542
850.834	-727
850.924	67
851.014	-242
851.104	43
851.194	-1228
851.284	-862
851.374	-335
851.464	-1236
851.554	-207
851.644	-6
851.734	628
851.824	564
851.914	-300
852.004	2809
852.094	2501
852.183	418
852.273	294
852.363	-396
852.452	-1357
852.542	-751
852.632	-947
852.721	-1008
852.811	-1120
852.901	-161
852.990	-916
853.080	-706
853.169	-1067
853.259	-880
853.348	-922
853.438	-468
853.527	-97
853.617	-139
853.706	-170
853.795	331
853.885	3644
853.974	6377
854.063	10897
854.152	21580
854.242	7473
854.331	551
854.420	-351
854.509	221
854.598	125
854.687	-243
854.777	471
854.866	-346
854.955	-76
855.044	-888
855.133	-1200
855.222	-212
855.311	-1746
855.400	-721
855.488	-911
855.577	-1225
855.666	-892
855.755	86
855.844	-69
855.933	-631
856.021	342
856.110	-314
856.199	-804
856.288	-1298
856.376	-1155
856.465	-646
856.554	-274
856.642	-88
856.731	-644
856.819	-609
856.908	-951
856.996	-449
857.085	-846
857.173	-606
857.262	-774
857.350	119
857.438	-321
857.527	-639
857.615	-1471
857.703	-535
857.792	-1096
857.880	-371
857.968	-546
858.056	-615
858.145	-795
858.233	-1372
858.321	-1313
858.409	382
858.497	-966
858.585	-1413
858.673	-422
858.761	-93
858.849	-547
858.937	-1101
859.025	147
859.113	47
859.201	-1927
859.289	-9
859.377	-197
859.465	29
859.552	-1214
859.640	-198
859.728	45
859.816	-1006
859.903	-199
859.991	-741
860.079	-818
860.166	-756
860.254	-206
860.342	-325
860.429	514
860.517	-934
860.604	-164
860.692	-723
860.779	-722
860.867	-717
860.954	-1316
861.042	-698
861.129	-848
861.216	-322
861.304	-1494
861.391	-434
861.478	-587
861.565	-617
861.653	-840
861.740	-896
861.827	-1103
861.914	-1096
862.001	-856
862.089	-265
862.176	-831
862.263	-699
862.350	-1618
862.437	-1306
862.524	103
862.611	-699
862.698	-702
862.785	-695
862.871	-725
862.958	-756
863.045	-1083
863.132	-1400
863.219	-126
863.306	-1100
863.392	-15
863.479	-1289
863.566	-732
863.652	351
863.739	-1072
863.826	-904
863.912	-836
863.999	-950
864.086	-421
864.172	-355
864.259	-347
864.345	-1489
864.432	-914
864.518	-1429
864.604	-658
864.691	-1110
864.777	-568
864.863	-1000
864.950	-772
865.036	-1139
865.122	-560
865.209	-447
865.295	-227
865.381	-867
865.467	-766
865.553	266
865.639	-665
865.726	-256
865.812	1417
865.898	2062
865.984	4011
866.070	9015
866.156	11301
866.242	2632
866.328	-133
866.414	-356
866.499	167
866.585	-130
866.671	-911
866.757	-150
866.843	76
866.928	-441
867.014	50
867.100	307
867.186	-948
867.271	-495
867.357	-227
867.442	289
867.528	-204
867.614	-694
867.699	-1013
867.785	139
867.870	-975
867.956	-464
868.041	463
868.127	-429
868.212	-132
868.297	-583
868.383	-69
868.468	137
868.553	489
868.639	427
868.724	1198
868.809	1494
868.894	356
868.979	-795
869.065	-799
869.150	-355
869.235	-520
869.320	-335
869.405	-565
869.490	-1235
869.575	-774
869.660	-401
869.745	-383
869.830	-783
869.915	-1464
870.000	-678
870.085	-354
870.169	-1200
870.254	-278
870.339	115
870.424	-606
870.509	-464
870.593	-233
870.678	-965
870.763	-997
870.847	-359
870.932	-1147
871.016	-499
871.101	-1203
871.186	168
871.270	-776
871.355	-907
871.439	-241
871.523	-346
871.608	-580
871.692	-873
871.777	-319
871.861	-557
871.945	-1381
872.030	-1528
872.114	266
872.198	-993
872.282	-446
872.367	-568
872.451	-1170
872.535	-683
872.619	-781
872.703	-1250
872.787	-1278
872.871	-356
872.955	-678
873.039	-781
873.123	-1085
873.207	-1470
873.291	-363
873.375	-1286
873.459	-355
873.543	-998
873.627	-1123
873.711	-917
873.794	-136
873.878	-777
873.962	-1669
874.045	-894
874.129	-1148
874.137	-1154
874.213	-1213
874.245	-1079
874.296	-859
874.352	-722
874.380	-660
874.460	-975
874.464	-987
874.547	-227
874.568	-228
874.631	-272
874.676	-517
874.714	-708
874.784	-380
874.798	-314
874.881	414
874.892	227
874.965	-1086
874.999	-774
875.048	-341
875.107	-487
875.131	-552
875.215	-187
875.215	-187
875.298	-288
875.323	-328
875.381	-339
875.430	-104
875.465	20
875.538	-484
875.548	-551
875.631	-1002
875.646	-953
875.714	-749
875.753	-879
875.798	-992
875.861	-384
875.881	-201
875.964	-299
875.968	-345
876.047	-1114
876.076	-853
876.130	-424
876.183	-540
876.213	-575
876.291	-251
876.296	-233
876.379	-968
876.398	-703
876.462	191
876.506	-390
876.545	-969
876.613	-484
876.628	-356
876.711	-891
876.721	-743
876.794	457
876.828	124
876.877	-430
876.935	-698
876.960	-754
877.043	-721
877.043	-719
877.125	-608
877.150	-525
877.208	-63
877.258	-68
877.291	-180
877.365	-283
877.374	-287
877.456	-809
877.472	-676
877.539	-2
877.579	63
877.622	-17
877.687	-655
877.704	-775
877.787	226
877.794	188
877.869	-260
877.901	-386
877.952	-637
878.008	-559
878.034	-500
878.115	-281
878.117	-276
878.199	-289
878.222	-499
878.282	-994
878.329	-443
878.364	-125
878.437	105
878.447	172
878.529	-812
878.544	-593
878.611	228
878.651	-268
878.694	-736
878.758	-279
878.776	-139
878.858	102
878.865	86
878.941	-347
878.972	-541
879.023	-729
879.078	-546
879.105	-396
879.185	-233
879.187	-230
879.269	47
879.292	5
879.351	-255
879.399	-619
879.433	-883
879.506	-609
879.516	-551
879.598	-534
879.613	-609
879.680	-811
879.720	-271
879.762	197
879.827	-295
879.844	-400
879.926	-706
879.933	-619
880.007	132
880.040	26
880.089	-56
880.147	-275
880.171	-418
880.253	-131
880.254	-135
880.335	-421
880.360	-297
880.417	-22
880.467	280
880.499	560
880.574	1158
880.580	1163
880.662	-70
880.680	-141
880.744	-77
880.787	-224
880.825	-439
880.893	17
880.907	132
880.989	-695
881.000	-589
881.070	345
881.106	277
881.152	-70
881.213	-431
881.233	-520
881.315	-326
881.319	-340
881.396	-386
881.426	-288
881.478	-243
881.532	-283
881.559	-194
881.639	247
881.641	252
881.722	120
881.745	76
881.803	243
881.852	134
881.885	-117
881.958	-151
881.966	-140
882.047	-240
882.064	-251
882.129	-181
882.171	-381
882.210	-351
882.277	553
882.291	584
882.372	-286
882.383	-364
882.454	-322
882.489	-183
882.535	-186
882.596	-511
882.616	-496
882.697	-48
882.702	-1
882.778	422
882.808	211
882.859	-282
882.914	-465
882.940	-255
883.020	332
883.021	333
883.102	-212
883.127	-248
883.183	-43
883.233	-45
883.264	-98
883.339	-52
883.345	-28
883.426	-108
883.445	6
883.507	72
883.551	-181
883.587	-141
883.657	178
883.668	164
883.749	-154
883.763	-184
883.830	161
883.869	295
883.910	-116
883.975	-705
883.991	-599
884.072	113
884.081	166
884.152	232
884.187	282
884.233	477
884.292	573
884.314	439
884.394	17
884.398	4
884.475	414
884.504	419
884.555	221
884.610	92
884.636	38
884.716	-6
884.716	0
884.797	202
884.821	281
884.877	407
884.927	422
884.958	381
885.033	212
885.038	196
885.118	-92
885.139	-126
885.199	5
885.244	-41
885.279	39
885.350	367
885.359	388
885.439	362
885.456	353
885.520	288
885.561	410
885.600	358
885.667	-10
885.680	15
885.760	18
885.773	65
885.840	195
885.878	285
885.920	373
885.984	207
886.000	247
886.080	611
886.089	657
886.160	285
886.195	48
886.240	63
886.300	18
886.320	74
886.400	424
886.406	439
886.480	467
886.511	475
886.560	596
886.616	677
886.640	714
886.720	837
886.722	836
886.800	324
886.827	69
886.879	251
886.932	425
886.959	486
887.038	908
887.039	907
887.119	260
887.143	77
887.198	383
887.248	604
887.278	627
887.354	695
887.358	679
887.437	204
887.459	106
887.517	535
887.564	886
887.596	908
887.669	711
887.676	720
887.755	1048
887.774	1083
887.835	1125
887.880	1135
887.914	982
887.985	705
887.994	672
888.073	337
888.090	251
888.153	283
888.195	294
888.232	266
888.300	259
888.311	299
888.391	471
888.405	518
888.470	210
888.510	-26
888.549	337
888.615	1011
888.628	1041
888.708	1089
888.720	1100
888.787	748
888.825	531
888.866	343
888.930	46
888.945	135
889.024	570
889.035	633
889.103	846
889.140	920
889.182	923
889.245	977
889.261	979
889.340	940
889.349	932
889.419	648
889.454	512
889.498	728
889.559	1034
889.577	1015
889.656	908
889.664	897
889.735	1003
889.768	1047
889.814	1212
889.873	1425
889.978	805
890.083	985
890.187	595
890.292	422
890.397	557
890.501	1060
890.606	-156
890.710	1403
890.815	1099
890.919	1627
891.024	1417
891.128	1140
891.233	679
891.337	2349
891.442	-148
891.546	939
891.650	1177
891.755	151
891.859	1656
891.963	832
892.068	1121
892.172	518
892.276	502
892.380	643
892.484	507
892.589	282
892.693	1237
892.797	-98
892.901	-137
893.005	975
893.109	282
893.213	1100
893.317	453
893.421	1194
893.525	-31
893.629	507
893.733	981
893.837	653
893.941	769
894.045	1704
894.148	1246
894.252	2136
894.356	1163
894.460	925
894.564	347
894.667	615
894.771	404
894.875	745
894.978	1441
895.082	756
895.186	742
895.289	921
895.393	1005
895.496	94
895.600	1149
895.703	933
895.807	-346
895.910	1135
896.014	8
896.117	743
896.221	159
896.324	548
896.427	886
896.531	632
896.634	-18
896.737	632
896.840	1006
896.944	277
897.047	602
897.150	879
897.253	123
897.356	943
897.460	404
897.563	371
897.666	462
897.769	129
897.872	-81
897.975	559
898.078	133
898.181	781
898.284	474
898.387	950
898.490	55
898.593	713
898.695	1116
898.798	250
898.901	1025
899.004	299
899.107	411
899.209	1728
899.312	571
899.415	46
899.518	149
899.620	856
899.723	332
899.826	749
899.928	574
900.031	-86
900.133	321
900.236	434
900.338	301
900.441	823
900.543	510
900.646	170
900.748	-11
900.851	1226
900.953	167
901.055	750
901.158	-599
901.260	-170
901.362	550
901.465	46
901.567	103
901.669	664
901.771	-114
901.873	718
901.976	903
902.078	1195
902.180	25
902.282	-721
902.384	121
902.486	821
902.588	398
902.690	705
902.792	-27
902.894	1022
902.996	579
903.098	343
903.200	248
903.302	1102
903.404	274
903.505	628
903.607	41
903.709	-154
903.811	-188
903.913	-37
904.014	-779
904.116	-332
904.218	398
904.319	486
904.421	550
904.523	19
904.624	-45
904.726	985
904.827	516
904.929	653
905.030	7
905.132	263
905.233	259
905.335	87
905.436	703
905.537	446
905.639	476
905.740	1213
905.841	416
905.943	647
906.044	49
906.145	703
906.247	984
906.348	-49
906.449	1048
906.550	134
906.651	-85
906.752	1054
906.854	716
906.955	430
907.056	626
907.157	689
907.258	-791
907.359	754
907.460	91
907.561	57
907.662	-63
907.762	318
907.863	546
907.964	173
908.065	1063
908.166	38
908.267	645
908.367	570
908.468	578
908.569	751
908.670	240
908.770	739
908.871	491
908.971	667
909.072	375
909.173	306
909.273	-229
909.374	366
909.474	18
909.575	753
909.675	695
909.776	255
909.876	366
909.977	-76
910.077	1196
910.177	219
910.278	774
910.378	339
910.478	647
910.579	388
910.679	-433
910.779	115
910.879	-131
910.980	28
911.080	255
911.180	160
911.280	-233
911.380	740
911.480	1225
911.580	520
911.680	685
911.780	519
911.880	320
911.980	-154
912.080	594
912.180	-92
912.280	454
912.380	578
912.480	-97
912.580	-164
912.679	-137
912.779	1187
912.879	349
912.979	193
913.078	156
913.178	522
913.278	97
913.377	756
913.477	438
913.577	430
913.676	778
913.776	628
913.875	584
913.975	931
914.074	-849
914.174	710
914.273	-476
914.373	385
914.472	39
914.572	-339
914.671	128
914.770	35
914.870	-422
914.969	-203
915.068	-8
915.167	505
915.267	82
915.366	-648
915.465	-233
915.564	175
915.663	575
915.763	478
915.862	1019
915.961	479
916.060	217
916.159	258
916.258	332
916.357	-189
916.456	164
916.555	151
916.654	-364
916.752	210
916.851	196
916.950	761
917.049	152
917.148	350
917.247	256
917.345	486
917.444	116
917.543	443
917.642	735
917.740	292
917.839	538
917.937	362
918.036	723
918.135	137
918.233	-282
918.332	680
918.430	16
918.529	353
918.627	-471
918.726	880
918.824	-108
918.923	331
919.021	-50
919.119	46
919.218	101
919.316	-779
919.414	608
919.512	1071
919.611	369
919.709	534
919.807	-42
919.905	243
920.003	562
920.102	-20
920.200	188
920.298	52
920.396	311
920.494	138
920.592	58
920.690	1126
920.788	30
920.886	447
920.984	856
921.082	111
921.180	685
921.277	219
921.375	57
921.473	322
921.571	-363
921.669	-115
921.766	525
921.864	811
921.962	744
922.060	-41
922.157	443
922.255	695
922.352	112
922.450	635
922.548	-466
922.645	499
922.743	133
922.840	918
922.938	1359
923.035	398
923.133	-181
923.230	412
923.327	739
923.425	556
923.522	417
923.619	342
923.717	243
923.814	-115
923.911	278
924.008	1111
924.106	694
924.203	401
924.300	-15
924.397	252
924.494	788
924.591	989
924.688	570
924.786	1156
924.883	861
924.979	-247
925.077	951
925.173	542
925.270	-204
925.367	862
925.464	366
925.561	1084
925.658	-176
925.755	852
925.852	326
925.948	813
926.045	633
926.142	843
926.239	568
926.335	6
926.432	-1
926.529	327
926.625	1240
926.722	-355
926.818	483
926.915	543
927.011	89
927.108	608
927.204	1002
927.301	838
927.397	-26
927.494	-114
927.590	-5
927.687	475
927.783	-171
927.879	581
927.976	543
928.072	866
928.168	622
928.264	862
928.361	78
928.457	354
928.553	-163
928.649	960
928.745	219
928.841	1039
928.937	299
929.033	796
929.129	203
929.225	704
929.321	-288
929.417	572
929.513	-761
929.609	409
929.705	14
929.801	-274
929.897	-102
929.993	533
930.089	563
930.184	758
930.280	-238
930.376	538
930.471	-181
930.567	799
930.663	402
930.758	701
930.854	312
930.950	1145
931.045	514
931.141	874
931.236	611
931.332	94
931.427	-145
931.523	780
931.618	1112
931.714	384
931.809	-257
931.905	498
932.000	-308
932.095	1038
932.191	296
932.286	369
932.381	118
932.476	-438
932.572	282
932.667	78
932.762	257
932.857	-59
932.952	-374
933.047	-82
933.142	-590
933.237	341
933.332	-121
933.427	-157
933.522	-130
933.617	-300
933.712	1071
933.807	216
933.902	-406
933.997	593
934.092	321
934.187	-180
934.282	-277
934.376	0
934.471	-49
934.566	281
934.661	684
934.755	-653
934.850	368
934.945	302
935.039	865
935.134	-388
935.228	296
935.323	370
935.417	572
935.512	2
935.606	186
935.701	88
935.795	541
935.890	-225
935.984	871
936.079	-63
936.173	768
936.267	-177
936.362	-675
936.456	808
936.550	-306
936.644	341
936.738	507
936.833	59
936.927	102
937.021	325
937.115	-205
937.209	-207
937.303	319
937.397	-1048
937.491	141
937.585	197
937.679	-159
937.773	599
937.867	-414
937.961	112
938.055	220
938.149	1053
938.243	160
938.337	-155
938.430	-451
938.524	595
938.618	86
938.712	479
938.805	-192
938.899	620
938.993	268
939.086	423
939.180	89
939.274	956
939.367	-917
939.461	746
939.554	-361
939.648	271
939.741	-162
939.835	43
939.928	-6
940.022	554
940.115	-144
940.208	-252
940.302	-589
940.395	304
940.488	-799
940.582	672
940.675	-844
940.768	-87
940.861	-176
940.954	413
941.048	76
941.141	-266
941.234	-748
941.327	221
941.420	583
941.513	386
941.606	70
941.699	-31
941.792	65
941.885	-139
941.978	76
942.071	-543
942.164	-1234
942.257	615
942.349	250
942.442	879
942.535	220
942.628	244
942.721	369
942.813	-131
942.906	433
942.999	58
943.091	-684
943.184	243
943.277	-350
943.369	410
943.462	-12
943.554	-567
943.647	-368
943.739	857
943.832	-150
943.924	-130
944.017	-256
944.109	-529
944.201	16
944.294	242
944.386	-180
944.478	-432
944.571	-26
944.663	207
944.755	-413
944.847	460
944.940	-170
945.032	134
945.124	470
945.216	469
945.308	-743
945.400	53
945.492	106
945.584	580
945.676	91
945.768	84
945.860	448
945.952	285
946.044	14
946.136	-84
946.228	-315
946.320	145
946.412	364
946.503	-739
946.595	-3
946.687	190
946.779	-208
946.870	-435
946.962	-310
947.054	-218
947.145	569
947.237	116
947.329	78
947.420	-602
947.512	6
947.603	-102
947.695	-211
947.786	339
947.878	-645
947.969	215
948.061	-583
948.152	-677
948.243	213
948.335	196
948.426	-377
948.517	-725
948.609	731
948.700	-371
948.791	-390
948.882	99
948.973	-33
949.065	-659
949.156	157
949.247	-1351
949.338	-365
949.429	-924
949.520	-389
949.611	-1095
949.702	258
949.793	80
949.884	326
949.975	-717
950.066	-629
950.157	-617
950.247	-433
950.338	-1218
950.429	-773
950.520	-431
950.611	-38
950.701	-1123
950.792	-1052
950.883	-95
950.973	-309
951.064	-1142
951.155	-741
951.245	-405
951.336	61
951.427	-744
951.517	563
951.608	329
951.698	-481
951.788	402
951.879	-218
951.969	-340
952.060	-986
952.150	-336
952.240	163
952.331	-1254
952.421	-163
952.511	-725
952.602	-499
952.692	-761
952.782	-980
952.872	268
952.962	171
953.052	-267
953.143	-475
953.233	-437
953.323	-766
953.413	-1272
953.503	-535
953.593	-55
953.683	256
953.773	96
953.863	-414
953.953	-674
954.042	-267
954.132	-337
954.222	16
954.312	-343
954.402	-650
954.492	-495
954.581	402
954.671	-57
954.761	-226
954.850	368
954.940	-1007
955.030	-480
955.119	-426
955.209	-579
955.298	-474
955.388	-676
955.477	451
955.567	-828
955.656	205
955.746	-532
955.835	-960
955.925	-675
956.014	-1028
956.103	-422
956.193	-1023
956.282	-351
956.371	74
956.461	-406
956.550	-860
956.639	282
956.728	-1096
956.817	-293
956.906	-1137
956.995	-501
957.085	193
957.174	-701
957.263	-591
957.352	-291
957.441	179
957.530	-607
957.619	-294
957.708	-710
957.796	-671
957.885	-161
957.974	-295
958.063	13
958.152	-1579
958.241	344
958.329	-623
958.418	206
958.507	-930
958.596	269
958.684	-1321
958.773	40
958.861	-112
958.950	-626
959.039	-117
959.127	-67
959.216	233
959.304	-1007
959.393	-939
959.481	77
959.570	196
959.658	-136
959.746	695
959.835	-64
959.923	180
960.011	-377
960.100	1017
960.188	-584
960.276	-489
960.365	-448
960.453	-339
960.541	-359
960.629	-1144
960.717	-617
960.805	-340
960.893	-796
960.981	-1650
961.069	680
961.158	-640
961.245	-369
961.333	-531
961.421	-485
961.509	-1118
961.597	-16
961.685	-817
961.773	271
961.861	-1065
961.949	-353
962.036	-1294
962.124	-49
962.212	-359
962.299	-634
962.387	-576
962.475	-767
962.562	-1635
962.650	361
962.738	-480
962.825	-1435
962.913	-796
963.000	-569
963.088	-1135
963.175	-790
963.263	-774
963.350	-350
963.438	-378
963.525	-756
963.612	561
963.700	658
963.787	3262
963.874	1427
963.962	-318
964.049	-561
964.136	-553
964.223	-759
964.310	-1122
964.398	-145
964.485	-1040
964.572	-542
964.659	-136
964.746	-281
964.833	-268
964.920	-960
965.007	-1515
965.094	333
965.181	-984
965.268	-258
965.355	-1141
965.441	-263
965.528	-1112
965.615	-1161
965.702	-975
965.789	-1077
965.875	-581
965.962	-1092
966.049	-1729
966.136	-976
966.222	-1462
966.309	-135
966.395	-1178
966.482	-1485
966.569	-562
966.655	-950
966.742	-1751
966.828	-885
966.915	-1379
967.001	-602
967.087	-1463
967.174	-628
967.260	-473
967.347	-502
967.433	-243
967.519	2177
967.605	-535
967.692	-990
967.778	-1209
967.864	-806
967.950	-479
968.036	-1018
968.123	-495
968.209	-1147
968.295	-1621
968.381	154
968.467	-668
968.553	-1457
968.639	-527
968.725	-1886
968.811	-824
968.897	-364
968.983	-1717
969.069	-1072
969.154	-200
969.240	-724
969.326	-1272
969.412	-833
969.497	-1070
969.583	-1006
969.669	27
969.755	-738
969.840	-1528
969.926	-778
970.012	-1298
970.097	-643
970.183	-1630
970.268	-1488
970.354	-976
970.439	-1167
970.525	1208
970.610	-285
970.696	-294
970.781	-36
970.866	-1756
970.952	-853
971.037	-1423
971.122	-844
971.208	-1309
971.293	-1594
971.378	-1969
971.463	-1181
971.549	-815
971.634	-1053
971.719	-771
971.804	-786
971.889	-227
971.974	-1156
972.059	-1151
972.144	-1017
972.229	-946
972.314	-1160
972.399	-515
972.484	-1148
972.569	-1520
972.654	-1281
972.739	-22
972.824	210
972.908	-1144
972.993	-1789
973.078	-1319
973.163	-1230
973.247	-588
973.332	-2741
973.417	-568
973.501	-1475
973.586	-943
973.671	-1412
973.755	-1819
973.840	-748
973.924	-548
974.009	-1019
974.093	-1581
974.178	-542
974.262	-237
974.346	-187
974.431	-1023
974.515	-1241
974.600	-843
974.684	-1045
974.768	-1494
974.852	-570
974.937	-1548
975.021	-1375
975.105	-1684
975.189	-1025
975.273	-1111
975.358	-1748
975.442	-1513
975.526	-521
975.610	-1675
975.694	-1888
975.778	-453
975.862	-1539
975.946	-2478
976.030	567
976.114	-1673
976.198	-1591
976.281	-1816
976.365	-1153
976.449	-1255
976.533	-715
976.617	-2340
976.700	-1932
976.784	-1454
976.868	-1940
976.951	-1199
977.035	-1104
977.119	-863
977.202	-635
977.286	-1341
977.369	-1573
977.453	-894
977.536	-1394
977.620	-2209
977.703	-949
977.787	-1567
977.870	-965
977.953	-891
978.037	-2128
978.120	-530
978.203	-1007
978.287	-637
978.370	-1180
978.453	-888
978.536	-1774
978.620	-166
978.703	-1111
978.786	-890
978.869	-2483
978.952	-2428
979.035	-411
979.118	-1764
979.201	-1759
979.284	-1670
979.367	-1826
979.450	-1127
979.533	-2068
979.616	-1298
979.699	-1275
979.782	-947
979.865	-862
979.948	-2118
980.030	-2537
980.113	-1370
980.196	-2495
980.279	-1594
980.361	-1210
980.444	-1563
980.526	-900
980.609	-1379
980.692	-746
980.774	-1534
980.857	-1558
980.939	-870
981.022	-1450
981.104	-932
981.187	-2013
981.269	-1665
981.352	-645
981.434	-2599
981.516	-1795
981.599	-678
981.681	-1887
981.763	-1430
981.846	-1515
981.928	-1657
982.010	-1766
982.092	-2020
982.174	-615
982.256	-2077
982.339	-1459
982.421	-1294
982.503	-1230
982.585	-2055
982.667	-2168
982.749	-2009
982.831	-1569
982.913	-2081
982.995	-1276
983.077	-1876
983.158	-982
983.240	-2025
983.322	-2027
983.404	-1594
983.486	-2171
983.568	-984
983.649	-1704
983.731	-1431
983.813	-1753
983.894	-1944
983.976	-1411
984.058	-1928
984.139	-1048
984.221	-1920
984.302	-1320
984.384	-2433
984.465	-2123
984.547	-2198
984.628	-3031
984.710	-830
984.791	-2098
984.872	-1826
984.954	-1454
985.035	-1830
985.116	-2090
985.198	-2485
985.279	-1461
985.360	-2520
985.441	-1153
985.522	-2007
985.604	-2226
985.685	-3783
985.766	-1043
985.847	-1342
985.928	-2253
986.009	-1498
986.090	-1865
986.171	-1018
986.252	-2322
986.333	-2689
986.414	-2353
986.495	-1370
986.576	-2117
986.656	-1942
986.737	-1535
986.818	-2489
986.899	-2071
986.980	-2086
987.060	-1144
987.141	-2327
987.222	-1669
987.302	-757
987.383	-1569
987.464	-2057
987.544	-2145
987.625	-1899
987.705	-1471
987.786	-1660
987.866	-1396
987.947	-1696
988.027	-1735
988.108	-2829
988.188	-1836
988.268	-2089
988.349	-1899
988.429	-1970
988.509	-2148
988.589	-1915
988.670	-3018
988.750	-1040
988.830	-2252
988.910	-1275
988.990	-1496
989.070	-1734
989.151	-1271
989.231	-2511
989.311	-2057
989.391	-1965
989.471	-1945
989.551	-1876
989.631	-2494
989.711	-1094
989.791	-2476
989.870	-2896
989.950	-993
990.030	-2853
990.110	-1787
990.190	-2385
990.269	-1874
990.349	-2371
990.429	-1827
990.509	-1079
990.588	-2152
990.668	-990
990.747	-1533
990.827	-1707
990.907	-1759
990.986	-2498
991.066	-2140
991.145	-2501
991.225	-1929
991.304	-1874
991.383	-2214
991.463	-2408
991.542	-1699
991.622	-2777
991.701	-1650
991.780	-2034
991.859	-1276
991.939	-2243
992.018	-2122
992.097	-1389
992.176	-2235
992.256	-2116
992.335	-2502
992.414	-1608
992.493	-2191
992.572	-2938
992.651	-1460
992.730	-2890
992.809	-2224
992.888	-2623
992.967	-2162
993.046	-2105
993.125	-2718
993.203	-2008
993.282	-1562
993.361	-2092
993.440	-2131
993.519	-2950
993.597	-1924
993.676	-3638
993.755	-1371
993.834	-1764
993.912	-2341
993.991	-1373
994.069	-2664
994.148	-3026
994.226	-2308
994.305	-1663
994.384	-2251
994.462	-1480
994.540	-2963
994.619	-2772
994.697	-2195
994.776	-2900
994.854	-1222
994.932	-3179
995.011	-1994
995.089	-2535
995.167	-2218
995.245	-2457
995.324	-2285
995.402	-1804
995.480	-1852
995.558	-2399
995.636	-3376
995.714	-2763
995.792	-633
995.870	-2270
995.948	-2022
996.026	-1748
996.104	-2850
996.182	-1401
996.260	-2287
996.338	-2416
996.416	-2910
996.494	-2708
996.572	-737
996.649	-2593
996.727	-3351
996.805	-2792
996.883	-2352
996.960	-2296
997.038	-2313
997.116	-1869
997.193	-2780
997.271	-1699
997.348	-2577
997.426	-2544
997.504	-2511
997.581	-2099
997.658	-1054
997.736	-2514
997.813	-3015
997.891	-956
997.968	-1926
998.046	-1771
998.123	-2694
998.200	-2718
998.277	-2886
998.355	-1694
998.432	-2284
998.509	-2622
998.586	-2076
998.663	-2432
998.741	-2040
998.818	-2188
998.895	-3019
998.972	-2567
999.049	-1505
999.126	-2673
999.203	-2469
999.280	-1933
999.357	-2615
999.434	-2750
999.511	-1653
999.587	-2521
999.664	-3713
999.741	-2425
999.818	-2525
999.895	-2421
999.971	-3238
1000.048	-2847
1000.125	-1765
1000.202	-2585
1000.278	-2065
1000.355	-1865
1000.431	-2295
1000.508	-2603
1000.584	-1896
1000.661	-1646
1000.738	-2516
1000.814	-1997
1000.890	-1225
1000.967	-2619
1001.043	-1227
1001.120	-2512
1001.196	-2371
1001.272	-2683
1001.349	-2140
1001.425	-2081
1001.501	-1961
1001.577	-2935
1001.654	-1654
1001.730	-2725
1001.806	-1785
1001.882	-3326
1001.958	-2091
1002.034	-1937
1002.110	-1981
1002.186	-2193
1002.262	-2280
1002.338	-2818
1002.414	-2148
1002.490	-1544
1002.566	-3134
1002.642	-3350
1002.718	-1929
1002.794	-2110
1002.870	-2457
1002.945	-2113
1003.021	-1879
1003.097	-2887
1003.173	-1597
1003.248	-2290
1003.324	-1356
1003.400	-1827
1003.475	-2713
1003.551	-1753
1003.626	-1413
1003.702	-2397
1003.777	-3026
1003.853	-2355
1003.928	-2622
1004.004	-2882
1004.079	-2486
1004.155	-2321
1004.230	-2901
1004.305	-1847
1004.381	-2766
1004.456	-1637
1004.531	-1600
1004.607	-2183
1004.682	-1780
1004.757	-2445
1004.832	-1771
1004.907	-3264
1004.982	-2324
1005.057	-1771
1005.133	-2550
1005.208	-2214
1005.283	-2373
1005.358	-1715
1005.433	-3036
1005.508	-1957
1005.583	-2768
1005.657	-2965
1005.732	-1660
1005.807	-2610
1005.882	-1478
1005.957	-1868
1006.032	-2306
1006.106	-2693
1006.181	-3300
1006.256	-1918
1006.331	-2812
1006.405	-3142
1006.480	-1849
1006.554	-2379
1006.629	-2598
1006.704	-2997
1006.778	-2235
1006.853	-2355
1006.927	-1913
1007.002	-2480
1007.076	-1561
1007.150	-2931
1007.225	-1854
1007.299	-1676
1007.373	-2666
1007.448	-2071
1007.522	-2440
1007.596	-2651
1007.671	-2105
1007.745	-1690
1007.819	-2359
1007.893	-2239
1007.967	-1722
1008.041	-3757
1008.115	-1382
1008.190	-2646
1008.264	-2691
1008.338	-2821
1008.412	-2635
1008.486	-2272
1008.560	-1951
1008.633	-3272
1008.707	-1905
1008.781	-1903
1008.855	-1715
1008.929	-2182
1009.003	-2402
1009.076	-2560
1009.150	-2611
1009.224	-2000
1009.298	-1977
1009.371	-2557
1009.445	-1943
1009.519	-1575
1009.592	-2647
1009.666	-2737
1009.739	-3158
1009.813	-2715
1009.886	-1057
1009.960	-3152
1010.033	-1178
1010.107	-1908
1010.180	-2279
1010.253	-1814
1010.327	-2338
1010.400	-2579
1010.473	-2350
1010.547	-840
1010.620	-2318
1010.693	-2246
1010.766	-2594
1010.840	-2033
1010.913	-1400
1010.986	-2793
1011.059	-1800
1011.132	-2591
1011.205	-1673
1011.278	-2157
1011.351	-1844
1011.424	-2921
1011.497	-2539
1011.570	-1661
1011.643	-2952
1011.716	-2804
1011.789	-1460
1011.862	-2817
1011.934	-2047
1012.007	-3299
1012.080	-2509
1012.153	-2267
1012.225	-966
1012.298	-2653
1012.371	-2225
1012.443	-2138
1012.516	-3187
1012.588	-1874
1012.661	-1654
1012.733	-2074
1012.806	-1911
1012.879	-2730
1012.951	-2062
1013.023	-2375
1013.096	-1729
1013.168	-3128
1013.241	-1214
1013.313	-2644
1013.385	-2510
1013.458	-1652
1013.530	-2112
1013.602	-3126
1013.674	-1817
1013.746	-2635
1013.819	-3130
1013.891	-2375
1013.963	-2649
1014.035	-2251
1014.107	-1587
1014.179	-2898
1014.251	-2669
1014.323	-1748
1014.395	-2070
1014.467	-2261
1014.539	-2177
1014.611	-2433
1014.683	-2030
1014.754	-1025
1014.826	-2030
1014.898	-2216
1014.970	-2629
1015.042	-1499
1015.113	-2621
1015.185	-2771
1015.257	-2540
1015.328	-2422
1015.400	-2653
1015.471	-2247
1015.543	-3435
1015.615	-1592
1015.686	-2135
1015.757	-2464
1015.829	-2411
1015.901	-2786
1015.972	-2431
1016.043	-2155
1016.115	-2162
1016.186	-2670
1016.257	-2268
1016.328	-2063
1016.400	-1820
1016.471	-3623
1016.542	-1117
1016.613	-2444
1016.685	-1600
1016.756	-1835
1016.827	-1544
1016.898	-2284
1016.969	-1803
1017.040	-2340
1017.111	-1930
1017.182	-2286
1017.253	-2315
1017.324	-1248
1017.395	-2880
1017.466	-2420
1017.537	-2146
1017.608	-1293
1017.678	-2459
1017.749	-2400
1017.820	-2428
1017.891	-2856
1017.961	-2499
1018.032	-2934
1018.103	-2163
1018.173	-2649
1018.244	-2512
1018.315	-2921
1018.385	-1403
1018.456	-2611
1018.526	-2537
1018.597	-1829
1018.667	-2795
1018.738	-2526
1018.808	-2106
1018.878	-2769
1018.949	-2177
1019.019	-1264
1019.089	-2825
1019.160	-2436
1019.230	-2144
1019.300	-1721
1019.371	-2958
1019.441	-1638
1019.511	-1212
1019.581	-2457
1019.651	-2102
1019.721	-2055
1019.791	-2343
1019.861	-2355
1019.931	-2043
1020.001	-2142
1020.071	-2063
1020.141	-2175
1020.211	-1829
1020.281	-2556
1020.351	-2444
1020.421	-2325
1020.491	-2000
1020.560	-2077
1020.630	-1961
1020.700	-2358
1020.770	-1893
1020.839	-2167
1020.909	-1957
1020.979	-3235
1021.048	-2652
1021.118	-1744
1021.187	-1769
1021.257	-2708
1021.326	-2235
1021.396	-1774
1021.465	-2349
1021.535	-2238
1021.604	-2421
1021.674	-1961
1021.743	-2118
1021.812	-2424
1021.882	-1478
1021.951	-2209
1022.020	-2755
1022.089	-1706
1022.159	-2231
1022.228	-1885
1022.297	-2273
1022.366	-2887
1022.435	-2268
1022.504	-2293
1022.573	-3342
1022.642	-1802
1022.711	-2599
1022.781	-2385
1022.849	-1606
1022.918	-2292
1022.987	-2354
1023.056	-2574
1023.125	-2458
1023.194	-1791
1023.263	-2579
1023.331	-2336
1023.400	-2578
1023.469	-2512
1023.538	-2148
1023.606	-2981
1023.675	-2395
1023.744	-2421
1023.812	-2788
1023.881	-2485
1023.949	-2238
1024.018	-1873
1024.086	-2504
1024.155	-2095
1024.223	-2761
1024.292	-2418
1024.360	-2281
1024.429	-3030
1024.497	-3408
1024.565	-2621
1024.634	-2703
1024.702	-2044
1024.770	-2690
1024.838	-2203
1024.907	-1094
1024.975	-2526
1025.043	-2509
1025.111	-3282
1025.179	-2054
1025.247	-2452
1025.315	-1940
1025.383	-2275
1025.451	-2002
1025.519	-2302
1025.587	-1610
1025.655	-3160
1025.723	-2251
1025.791	-2501
1025.859	-2453
1025.927	-2164
1025.995	-2273
1026.062	-1441
1026.130	-2540
1026.198	-2115
1026.266	-3192
1026.333	-2045
1026.401	-2245
1026.469	-3007
1026.536	-2069
1026.604	-3755
1026.671	-2537
1026.739	-2416
1026.806	-3271
1026.874	-2496
1026.941	-1705
1027.009	-2409
1027.076	-3102
1027.144	-2111
1027.211	-3104
1027.278	-2738
1027.345	-2062
1027.413	-2092
1027.480	-2749
1027.547	-2733
1027.614	-2813
1027.682	-1769
1027.749	-2014
1027.816	-3004
1027.883	-2079
1027.950	-2050
1028.017	-3055
1028.084	-2277
1028.151	-3639
1028.218	-2522
1028.285	-2143
1028.352	-2972
1028.419	-2506
1028.486	-2639
1028.553	-2115
1028.619	-3259
1028.686	-2880
1028.753	-2867
1028.820	-2968
1028.886	-3039
1028.953	-2880
1029.020	-2848
1029.086	-3588
1029.153	-3545
1029.220	-3190
1029.286	-2704
1029.353	-2207
1029.419	-3111
1029.486	-2998
1029.552	-3441
1029.619	-2792
1029.685	-3538
1029.751	-3117
1029.818	-1868
1029.884	-2403
1029.951	-1917
1030.017	-2376
1030.083	-3326
1030.149	-2812
1030.216	-2431
1030.282	-2612
1030.348	-3158
1030.414	-2642
1030.480	-2475
1030.546	-3010
1030.612	-2208
1030.678	-3171
1030.744	-2671
1030.810	-2409
1030.876	-3050
1030.942	-2465
1031.008	-2671
1031.074	-3170
1031.140	-2865
1031.206	-2219
1031.272	-3471
1031.337	-2640
1031.403	-2625
1031.469	-2269
1031.534	-2612
1031.600	-2332
1031.666	-3066
1031.731	-2839
1031.797	-2481
1031.863	-3028
1031.928	-2788
1031.994	-2587
1032.059	-2129
1032.125	-2479
1032.190	-3570
1032.256	-1876
1032.321	-3414
1032.386	-2635
1032.452	-1899
1032.517	-3777
1032.582	-3035
1032.647	-2367
1032.713	-2246
1032.778	-2372
1032.843	-3035
1032.908	-3133
1032.974	-2443
1033.039	-3304
1033.104	-1934
1033.169	-2834
1033.234	-3032
1033.299	-1893
1033.364	-1782
1033.429	-3003
1033.494	-2376
1033.559	-2826
1033.624	-2848
1033.688	-2448
1033.753	-3828
1033.818	-2076
1033.883	-2148
1033.948	-2816
1034.013	-2087
1034.077	-2821
1034.142	-2840
1034.207	-3182
1034.271	-3573
1034.336	-2188
1034.400	-2616
1034.465	-1796
1034.530	-2692
1034.594	-2650
1034.658	-2975
1034.723	-2028
1034.787	-2513
1034.852	-2686
1034.916	-3432
1034.981	-1981
1035.045	-1838
1035.109	-2351
1035.173	-2725
1035.238	-2815
1035.302	-2059
1035.366	-3323
1035.430	-2864
1035.495	-2142
1035.559	-2367
1035.623	-2852
1035.687	-2297
1035.751	-3359
1035.815	-3067
1035.879	-2938
1035.943	-2963
1036.007	-3127
1036.071	-2528
1036.135	-3015
1036.198	-3136
1036.262	-2996
1036.326	-2493
1036.390	-2333
1036.454	-2845
1036.517	-2750
1036.581	-2505
1036.645	-2416
1036.709	-2655
1036.772	-2895
1036.836	-2556
1036.900	-2944
1036.963	-3145
1037.026	-2991
1037.090	-2968
1037.154	-2737
1037.217	-1978
1037.280	-2654
1037.344	-2785
1037.407	-2439
1037.471	-2855
1037.534	-2665
1037.597	-2676
1037.661	-2655
1037.724	-3093
1037.787	-2772
1037.850	-2496
1037.913	-2598
1037.977	-2177
1038.040	-2610
1038.103	-2248
1038.166	-2797
1038.229	-2439
1038.292	-2332
1038.355	-2249
1038.418	-3346
1038.481	-1933
1038.544	-2257
1038.607	-2552
1038.670	-2869
1038.732	-2815
1038.795	-2848
1038.858	-2592
1038.921	-2789
1038.984	-2860
1039.046	-2383
1039.109	-3107
1039.172	-2319
1039.234	-3584
1039.297	-2144
1039.360	-2676
1039.422	-3353
1039.485	-3191
1039.547	-1993
1039.610	-3010
1039.672	-3225
1039.734	-2565
1039.797	-2910
1039.859	-2690
1039.922	-2291
1039.984	-3257
1040.046	-2563
1040.109	-2559
1040.171	-2931
1040.233	-2274
1040.295	-2963
1040.358	-3293
1040.420	-2512
1040.482	-2835
1040.544	-2214
1040.606	-2808
1040.668	-3230
1040.730	-2594
1040.792	-2904
1040.854	-2444
1040.916	-2178
1040.978	-2804
1041.040	-1805
1041.102	-2075
1041.164	-2553
1041.225	-2932
1041.287	-3063
1041.349	-3150
1041.411	-2860
1041.472	-2475
1041.534	-2971
1041.596	-3438
1041.657	-2279
1041.719	-2757
1041.781	-2403
1041.842	-2545
1041.904	-1328
1041.965	-2711
1042.027	-2264
1042.088	-2241
1042.150	-2519
1042.211	-3553
1042.272	-2057
1042.334	-2683
1042.395	-2750
1042.456	-2634
1042.518	-2722
1042.579	-2116
1042.640	-2671
1042.701	-2494
1042.763	-2779
1042.824	-2851
1042.885	-2656
1042.946	-2705
1043.007	-2303
1043.068	-3555
1043.129	-2112
1043.190	-3339
1043.251	-2096
1043.312	-2481
1043.373	-2726
1043.434	-1986
1043.495	-1491
1043.556	-2248
1043.616	-2631
1043.677	-2893
1043.738	-2358
1043.799	-2746
1043.859	-1812
1043.920	-2485
1043.981	-2084
1044.041	-2991
1044.102	-2384
1044.162	-2319
1044.223	-2999
1044.284	-1929
1044.344	-1519
1044.405	-2762
1044.465	-2602
1044.525	-2241
1044.586	-2390
1044.646	-2454
1044.707	-1924
1044.767	-2949
1044.827	-2333
1044.887	-2657
1044.948	-3086
1045.008	-2219
1045.068	-2365
1045.128	-1838
1045.188	-2722
1045.249	-2088
1045.309	-2287
1045.369	-2116
1045.429	-2812
1045.489	-2206
1045.549	-3257
1045.609	-2738
1045.669	-3157
1045.729	-1642
1045.789	-1998
1045.848	-2409
1045.908	-1863
1045.968	-2465
1046.028	-1864
1046.088	-1688
1046.147	-1646
1046.207	-2764
1046.267	-1854
1046.326	-1761
1046.386	-1669
1046.446	-1555
1046.505	-1930
1046.565	-1558
1046.624	-1962
1046.684	-1645
1046.743	-1587
1046.803	-1408
1046.862	-1166
1046.922	0
