'Start Wavelength	183.907
'End Wavelength	1046.922
'Gate Delay	5.000
'Gate Width (ms)	1.050
'Laser Output Level	0.000
'X Position	0.000
'Y Position	0.000
'Z Position	0.000
'Grid Point Number	1.000
'Shot Number	100.000
183.907	130.000
183.977	-214.000
184.047	-408
184.116	388
184.186	-569
184.256	473
184.325	538
184.395	-1017
184.465	480
184.534	634
184.604	-417
184.674	340
184.743	281
184.813	-96
184.883	-238
184.952	1139
185.022	149
185.092	112
185.161	145
185.231	323
185.301	-65
185.370	726
185.440	-270
185.509	-82
185.579	-176
185.649	335
185.718	402
185.788	-60
185.857	-391
185.927	643
185.996	-196
186.066	623
186.136	-293
186.205	367
186.275	-66
186.344	-234
186.414	-479
186.483	-5
186.553	668
186.622	1025
186.692	23
186.761	-181
186.831	234
186.900	-874
186.970	212
187.039	76
187.109	609
187.178	752
187.248	925
187.317	-93
187.387	49
187.456	320
187.526	553
187.595	385
187.664	-229
187.734	-386
187.803	596
187.873	-430
187.942	483
188.012	724
188.081	-203
188.150	-339
188.220	661
188.289	40
188.358	-224
188.428	876
188.497	-544
188.567	1323
188.636	-764
188.705	353
188.775	246
188.844	-217
188.913	486
188.983	824
189.052	1029
189.121	723
189.191	108
189.260	238
189.329	872
189.399	88
189.468	248
189.537	-407
189.606	644
189.676	443
189.745	268
189.814	534
189.883	368
189.953	176
190.022	183
190.091	426
190.161	-193
190.230	418
190.299	-836
190.368	-72
190.437	256
190.507	-525
190.576	447
190.645	-66
190.714	-15
190.783	698
190.853	1168
190.922	343
190.991	-529
191.060	528
191.129	-321
191.198	-222
191.268	38
191.337	-161
191.406	238
191.475	-163
191.544	128
191.613	59
191.682	-716
191.752	506
191.821	289
191.890	118
191.959	329
192.028	288
192.097	108
192.166	-471
192.235	151
192.304	1034
192.373	-665
192.442	-85
192.511	-158
192.580	771
192.650	331
192.719	342
192.788	231
192.857	367
192.926	195
192.995	608
193.064	218
193.133	-300
193.202	570
193.271	113
193.340	-1
193.409	651
193.478	200
193.547	716
193.615	703
193.684	-25
193.753	-24
193.822	569
193.891	691
193.960	41
194.029	211
194.098	201
194.167	-817
194.236	413
194.305	397
194.374	479
194.443	-182
194.512	572
194.580	384
194.649	-134
194.718	35
194.787	-84
194.856	-264
194.925	300
194.994	318
195.062	-136
195.131	-479
195.200	942
195.269	705
195.338	823
195.407	31
195.475	-438
195.544	431
195.613	-407
195.682	745
195.751	417
195.819	501
195.888	623
195.957	184
196.026	582
196.094	928
196.163	-443
196.232	356
196.301	421
196.369	839
196.438	580
196.507	181
196.576	299
196.644	416
196.713	293
196.782	144
196.850	-171
196.919	346
196.988	188
197.056	-95
197.125	-55
197.194	226
197.262	-77
197.331	-251
197.400	365
197.468	-110
197.537	-308
197.606	-188
197.674	762
197.743	293
197.812	950
197.880	-657
197.949	311
198.017	41
198.086	207
198.155	-17
198.223	-603
198.292	198
198.360	6
198.429	-364
198.497	-501
198.566	-399
198.635	464
198.703	1155
198.772	195
198.840	523
198.909	182
198.977	-380
199.046	276
199.114	-106
199.183	-109
199.251	74
199.320	-87
199.388	216
199.457	-425
199.525	370
199.594	157
199.662	497
199.731	-321
199.799	-46
199.867	172
199.936	-874
200.004	394
200.073	286
200.141	207
200.210	-139
200.278	211
200.346	-168
200.415	136
200.483	-286
200.552	10
200.620	65
200.688	64
200.757	57
200.825	486
200.893	-888
200.962	-208
201.030	-68
201.098	-52
201.167	147
201.235	242
201.303	90
201.372	-728
201.440	56
201.508	53
201.577	201
201.645	-124
201.713	68
201.781	8
201.850	-380
201.918	-460
201.986	334
202.055	-493
202.123	-62
202.191	-5
202.259	1304
202.327	-508
202.396	145
202.464	90
202.532	417
202.600	-263
202.669	-710
202.737	-493
202.805	-313
202.873	196
202.941	901
203.009	-30
203.078	-322
203.146	297
203.214	536
203.282	-160
203.350	933
203.418	-463
203.487	725
203.555	376
203.623	633
203.691	-322
203.759	-88
203.827	-665
203.895	543
203.963	-135
204.031	122
204.099	139
204.168	189
204.236	877
204.304	123
204.372	-949
204.440	687
204.508	-10
204.576	-249
204.644	-727
204.712	-689
204.780	-695
204.848	-197
204.916	-522
204.984	-124
205.052	244
205.120	-21
205.188	498
205.256	-85
205.324	83
205.392	446
205.460	766
205.528	574
205.596	473
205.664	-145
205.732	-300
205.799	625
205.867	445
205.935	-237
206.003	274
206.071	-223
206.139	93
206.207	526
206.275	-125
206.343	-535
206.411	-658
206.478	-210
206.546	594
206.614	26
206.682	569
206.750	-370
206.818	345
206.885	701
206.953	-616
207.021	98
207.089	494
207.157	436
207.225	473
207.292	377
207.360	9
207.428	-18
207.496	-120
207.563	-131
207.631	-3
207.699	-353
207.767	-507
207.834	-453
207.902	-189
207.970	-894
208.038	-16
208.105	379
208.173	990
208.241	199
208.309	28
208.376	1007
208.444	1019
208.512	-398
208.579	-878
208.647	891
208.715	812
208.782	164
208.850	544
208.918	884
208.985	356
209.053	609
209.120	340
209.188	-106
209.256	-565
209.323	-487
209.391	-307
209.459	76
209.526	136
209.594	-145
209.661	759
209.729	-246
209.796	46
209.864	332
209.932	137
209.999	1337
210.067	-190
210.134	-15
210.202	-407
210.269	517
210.337	720
210.404	-211
210.472	125
210.539	672
210.607	-517
210.674	-771
210.742	-137
210.809	-136
210.877	-190
210.944	142
211.012	-1354
211.079	2089
211.146	976
211.214	485
211.281	864
211.349	-112
211.416	632
211.484	-268
211.551	69
211.618	205
211.686	917
211.753	-326
211.821	134
211.888	361
211.955	-533
212.023	-325
212.090	89
212.157	161
212.225	626
212.292	424
212.359	572
212.427	1632
212.494	1053
212.561	164
212.629	629
212.696	284
212.763	216
212.831	221
212.898	228
212.965	551
213.032	678
213.100	342
213.167	94
213.234	528
213.301	-316
213.369	-109
213.436	286
213.503	566
213.570	301
213.638	83
213.705	-572
213.772	-438
213.839	222
213.906	945
213.973	250
214.041	-25
214.108	-20
214.175	32
214.242	203
214.309	93
214.376	377
214.444	30
214.511	74
214.578	-347
214.645	724
214.712	183
214.779	371
214.846	-164
214.913	929
214.980	133
215.048	757
215.115	1056
215.182	911
215.249	690
215.316	-568
215.383	-102
215.450	-417
215.517	112
215.584	212
215.651	-197
215.718	-373
215.785	-188
215.852	-122
215.919	524
215.986	806
216.053	233
216.120	-735
216.187	378
216.254	583
216.321	315
216.388	-77
216.455	-189
216.522	482
216.589	-152
216.656	433
216.722	198
216.789	-227
216.856	-272
216.923	-330
216.990	443
217.057	207
217.124	-77
217.191	-258
217.258	931
217.324	356
217.391	1556
217.458	483
217.525	188
217.592	1246
217.659	-403
217.725	701
217.792	-365
217.859	962
217.926	-97
217.993	186
218.059	134
218.126	-53
218.193	41
218.260	378
218.327	-632
218.393	141
218.460	79
218.527	-408
218.594	174
218.660	266
218.727	527
218.794	-860
218.860	109
218.927	-675
218.994	-89
219.061	325
219.127	-153
219.194	40
219.261	176
219.327	-688
219.394	661
219.461	-1274
219.527	-65
219.594	-213
219.661	-584
219.727	-1053
219.794	-632
219.860	-947
219.927	-694
219.994	175
220.060	678
220.127	690
220.193	756
220.260	193
220.326	1330
220.393	723
220.460	1166
220.526	957
220.593	143
220.659	1498
220.726	192
220.792	1076
220.859	310
220.925	1881
220.992	2822
221.058	1825
221.125	1923
221.191	769
221.258	-428
221.324	1046
221.391	94
221.457	-954
221.524	86
221.590	-143
221.657	656
221.723	238
221.789	537
221.856	926
221.922	30
221.989	106
222.055	-35
222.121	-959
222.188	826
222.254	340
222.321	-429
222.387	-232
222.453	331
222.520	-14
222.586	-1283
222.652	312
222.719	-462
222.785	6
222.851	74
222.918	167
222.984	-531
223.050	148
223.116	-1345
223.183	521
223.249	-369
223.315	-367
223.382	-363
223.448	-1014
223.514	-794
223.580	-328
223.647	-1043
223.713	-176
223.779	43
223.845	217
223.911	-108
223.978	-674
224.044	-194
224.110	-308
224.176	149
224.242	-258
224.309	-989
224.375	-344
224.441	-122
224.507	-453
224.573	-895
224.639	467
224.705	-350
224.772	-187
224.838	-335
224.904	-424
224.970	-316
225.036	-220
225.102	-882
225.168	451
225.234	298
225.300	-185
225.366	147
225.432	-346
225.499	-336
225.565	-229
225.631	-400
225.697	-747
225.763	74
225.829	-90
225.895	473
225.961	-41
226.027	48
226.093	434
226.159	1852
226.225	1103
226.291	2301
226.357	4103
226.423	2518
226.489	890
226.554	655
226.620	1070
226.686	495
226.752	794
226.818	1957
226.884	4249
226.950	3948
227.016	1137
227.082	1159
227.148	1056
227.214	554
227.279	465
227.345	629
227.411	404
227.477	283
227.543	978
227.609	1010
227.674	1060
227.740	-32
227.806	642
227.872	-266
227.938	326
228.003	599
228.069	-231
228.135	-688
228.201	-56
228.267	-568
228.332	-403
228.398	-1537
228.464	571
228.530	369
228.595	119
228.661	-794
228.727	-481
228.792	898
228.858	-749
228.924	-1461
228.990	1308
229.055	-755
229.121	332
229.187	-251
229.252	-1211
229.318	-267
229.384	679
229.449	176
229.515	-1776
229.581	-1097
229.646	1892
229.712	392
229.777	-288
229.843	-382
229.909	150
229.974	629
230.040	215
230.105	764
230.171	-449
230.236	734
230.302	476
230.368	-521
230.433	-149
230.499	-59
230.564	722
230.630	-1090
230.695	385
230.761	1072
230.826	-1305
230.892	1312
230.957	-990
231.023	-1045
231.088	263
231.154	415
231.219	820
231.284	-453
231.350	813
231.415	-1622
231.481	232
231.546	-469
231.612	93
231.677	-642
231.742	-825
231.808	-73
231.873	-728
231.939	-1210
232.004	1188
232.069	864
232.135	-461
232.200	-493
232.265	162
232.331	-700
232.396	-493
232.461	-939
232.527	-1140
232.592	-378
232.657	42
232.723	-133
232.788	-355
232.853	729
232.918	402
232.984	-681
233.049	-618
233.114	-619
233.179	-359
233.245	721
233.310	-109
233.375	-1376
233.440	312
233.506	-279
233.571	256
233.636	-174
233.701	-107
233.766	-460
233.832	223
233.897	-710
233.962	-1051
234.027	624
234.092	-368
234.157	-796
234.222	-208
234.288	-212
234.353	850
234.418	1013
234.483	344
234.548	674
234.613	-737
234.678	314
234.743	-223
234.808	1944
234.873	-576
234.938	495
235.004	-185
235.069	-643
235.134	-1195
235.199	-85
235.264	114
235.329	-1662
235.394	-24
235.459	752
235.524	-675
235.589	-628
235.654	-257
235.719	-969
235.784	-723
235.849	-896
235.913	-199
235.978	-501
236.043	-309
236.108	-261
236.173	-886
236.238	260
236.303	93
236.368	-603
236.433	1172
236.498	-276
236.563	361
236.627	1447
236.692	5346
236.757	4560
236.822	1632
236.887	587
236.952	1208
237.017	-495
237.081	1504
237.146	663
237.211	3368
237.276	5904
237.341	7351
237.405	2825
237.470	1816
237.535	149
237.600	726
237.664	1088
237.729	-601
237.794	482
237.859	2611
237.923	274
237.988	377
238.053	958
238.118	-395
238.182	860
238.247	1876
238.312	-180
238.376	613
238.441	-844
238.506	1138
238.570	-506
238.635	986
238.700	453
238.764	-431
238.829	-324
238.893	-1165
238.958	117
239.023	70
239.087	-387
239.152	495
239.216	-1311
239.281	584
239.346	-184
239.410	-94
239.475	196
239.539	818
239.604	-472
239.668	1153
239.733	360
239.797	660
239.862	2519
239.926	1685
239.991	906
240.055	693
240.120	44
240.184	238
240.249	-779
240.313	467
240.378	-271
240.442	-901
240.507	921
240.571	3
240.635	28
240.700	306
240.764	-224
240.829	318
240.893	-1565
240.957	323
241.022	945
241.086	1368
241.151	-461
241.215	-1497
241.279	781
241.344	-284
241.408	225
241.472	-557
241.537	644
241.601	273
241.665	-961
241.730	-684
241.794	456
241.858	-209
241.922	947
241.987	-151
242.051	-906
242.115	-384
242.179	192
242.244	-375
242.308	806
242.372	-126
242.436	-118
242.501	186
242.565	-1089
242.629	-599
242.693	34
242.757	-132
242.822	105
242.886	-119
242.950	583
243.014	-621
243.078	-461
243.142	191
243.206	-814
243.271	881
243.335	428
243.399	594
243.463	1680
243.527	5690
243.591	902
243.655	340
243.719	-739
243.783	945
243.847	814
243.911	1085
243.975	890
244.040	-368
244.104	1851
244.168	132
244.232	-219
244.296	584
244.360	446
244.424	335
244.488	-599
244.552	663
244.615	-1072
244.679	301
244.743	348
244.807	-613
244.871	-110
244.935	827
244.999	-1717
245.063	-945
245.127	524
245.191	284
245.255	-181
245.319	503
245.383	-1792
245.446	1375
245.510	-731
245.574	5
245.638	592
245.702	-1238
245.766	1229
245.829	1855
245.893	-612
245.957	-228
246.021	624
246.085	-1101
246.149	-12
246.212	1484
246.276	1366
246.340	856
246.404	621
246.467	1068
246.531	-1164
246.595	1306
246.659	599
246.722	-1090
246.786	1455
246.850	519
246.913	439
246.977	-116
247.041	224
247.104	672
247.168	291
247.232	950
247.295	2667
247.359	1646
247.423	-282
247.486	912
247.550	181
247.614	495
247.677	548
247.741	-205
247.804	-660
247.868	-251
247.932	321
247.995	3506
248.059	584
248.122	-1009
248.186	802
248.249	1337
248.313	3424
248.376	4824
248.440	2552
248.503	-432
248.567	1492
248.630	701
248.694	1754
248.757	3550
248.821	4471
248.884	4002
248.948	2006
249.011	4170
249.075	4779
249.138	4581
249.202	1774
249.265	194
249.328	855
249.392	-199
249.455	1098
249.519	85
249.582	257
249.645	2078
249.709	1230
249.772	583
249.835	356
249.899	765
249.962	581
250.025	108
250.089	1715
250.152	3413
250.215	1577
250.279	85
250.342	1139
250.405	294
250.468	508
250.532	258
250.595	2249
250.658	4544
250.721	10683
250.785	3192
250.848	2711
250.911	557
250.974	1135
251.038	909
251.101	2538
251.164	927
251.227	1239
251.290	956
251.354	1817
251.417	7505
251.480	8523
251.543	4857
251.606	14034
251.669	10919
251.732	4655
251.795	3762
251.859	4002
251.922	9028
251.985	5444
252.048	3097
252.111	1336
252.174	974
252.237	3512
252.300	5369
252.363	5396
252.426	12349
252.489	4824
252.552	2591
252.615	1057
252.678	1797
252.741	4263
252.804	5473
252.867	12252
252.930	8203
252.993	3674
253.056	2279
253.119	983
253.182	261
253.245	1748
253.308	2312
253.371	713
253.434	1084
253.497	1577
253.559	3107
253.622	1748
253.685	1620
253.748	3237
253.811	722
253.874	1026
253.937	906
254.000	931
254.062	1254
254.125	2441
254.188	4197
254.251	2674
254.314	793
254.376	1662
254.439	2748
254.502	2021
254.565	1222
254.628	3460
254.690	1700
254.753	511
254.816	969
254.878	804
254.941	1115
255.004	1395
255.067	684
255.129	265
255.192	-259
255.255	-909
255.317	-40
255.380	328
255.443	-479
255.505	-410
255.568	1
255.631	-755
255.693	313
255.756	-946
255.819	77
255.881	-815
255.944	-351
256.006	-59
256.069	-134
256.132	-206
256.194	-114
256.257	285
256.319	239
256.382	-73
256.444	487
256.507	-251
256.569	283
256.632	-360
256.694	158
256.757	3126
256.819	11225
256.882	3623
256.944	1128
257.007	1617
257.069	636
257.132	-38
257.194	1175
257.257	-125
257.319	-302
257.381	-85
257.444	2442
257.506	11264
257.569	13900
257.631	5038
257.693	2368
257.756	720
257.818	-387
257.880	-73
257.943	679
258.005	-668
258.067	-32
258.130	-68
258.192	648
258.254	908
258.317	423
258.379	105
258.441	406
258.503	1695
258.566	1431
258.628	1616
258.690	189
258.753	757
258.815	1190
258.877	653
258.939	-284
259.001	563
259.064	-285
259.126	-3
259.188	-374
259.250	512
259.312	538
259.375	840
259.437	66
259.499	524
259.561	-171
259.623	249
259.685	-132
259.747	386
259.809	1349
259.872	2427
259.934	4553
259.996	6651
260.058	1621
260.120	-785
260.182	-251
260.244	-745
260.306	-994
260.368	-404
260.430	-375
260.492	1730
260.554	4012
260.616	164
260.678	2016
260.740	3309
260.802	-427
260.864	343
260.926	-688
260.988	794
261.050	477
261.112	2628
261.174	7125
261.236	2540
261.298	548
261.359	705
261.421	1661
261.483	-887
261.545	1007
261.607	-437
261.669	-434
261.731	328
261.793	1315
261.854	169
261.916	787
261.978	406
262.040	1517
262.102	708
262.164	-608
262.225	362
262.287	4
262.349	418
262.411	415
262.472	269
262.534	-980
262.596	598
262.658	293
262.719	-125
262.781	432
262.843	628
262.904	365
262.966	499
263.028	6
263.090	2762
263.151	9435
263.213	4202
263.275	2476
263.336	664
263.398	835
263.459	-882
263.521	221
263.583	902
263.644	-59
263.706	-123
263.767	-744
263.829	20
263.891	-987
263.952	-484
264.014	-621
264.075	362
264.137	5425
264.198	1204
264.260	-79
264.321	-536
264.383	145
264.444	6386
264.506	1559
264.567	511
264.629	2239
264.690	5176
264.752	1652
264.813	567
264.875	-652
264.936	306
264.998	-146
265.059	-117
265.120	279
265.182	72
265.243	5475
265.305	6585
265.366	1660
265.427	284
265.489	180
265.550	-344
265.611	-30
265.673	6
265.734	256
265.795	318
265.857	-536
265.918	-959
265.979	1604
266.040	9500
266.102	8730
266.163	2405
266.224	1403
266.286	359
266.347	-234
266.408	154
266.469	-412
266.530	351
266.592	-813
266.653	477
266.714	1561
266.775	70
266.836	-296
266.898	-773
266.959	719
267.020	539
267.081	221
267.142	-541
267.203	-825
267.264	-552
267.326	47
267.387	-195
267.448	-910
267.509	-356
267.570	-278
267.631	286
267.692	-298
267.753	-64
267.814	-1310
267.875	410
267.936	1414
267.997	358
268.058	1827
268.119	-670
268.180	-494
268.241	-629
268.302	-662
268.363	-516
268.424	-463
268.485	403
268.546	-825
268.607	-158
268.668	-1235
268.729	-1095
268.790	-761
268.851	-846
268.912	1224
268.972	1609
269.033	-311
269.094	-529
269.155	441
269.216	-65
269.277	227
269.338	-519
269.398	12
269.459	-809
269.520	1335
269.581	-327
269.642	-5
269.702	149
269.763	67
269.824	-1318
269.885	70
269.945	602
270.006	-481
270.067	-163
270.128	-784
270.188	-1292
270.249	-812
270.310	-1613
270.370	438
270.431	-618
270.492	-1031
270.553	-1285
270.613	803
270.674	1631
270.734	-4
270.795	-507
270.856	137
270.916	-450
270.977	-645
271.038	-261
271.098	-33
271.159	-216
271.219	466
271.280	-38
271.340	280
271.401	-436
271.462	161
271.522	262
271.583	-120
271.643	100
271.704	-599
271.764	195
271.825	1119
271.885	4988
271.946	6422
272.006	2157
272.066	2268
272.127	5251
272.187	2619
272.248	631
272.308	5
272.369	2873
272.429	1216
272.489	940
272.550	1390
272.610	1184
272.671	547
272.731	1027
272.791	1106
272.852	83
272.912	1139
272.972	-500
273.033	-238
273.093	-704
273.153	1418
273.214	1148
273.274	-210
273.334	3155
273.394	6055
273.455	1596
273.515	1303
273.575	4940
273.635	1839
273.696	1461
273.756	3890
273.816	1400
273.876	1094
273.936	1165
273.997	3630
274.057	-238
274.117	-449
274.177	1451
274.237	6049
274.297	5699
274.358	3460
274.418	3054
274.478	3283
274.538	225
274.598	83
274.658	1322
274.718	2596
274.778	621
274.838	421
274.898	754
274.958	3816
275.018	3943
275.078	2341
275.138	546
275.198	144
275.258	-152
275.318	-609
275.378	923
275.438	2485
275.498	748
275.558	1002
275.618	4169
275.678	2394
275.738	1940
275.798	2471
275.858	824
275.918	-466
275.978	-218
276.038	206
276.098	-801
276.157	290
276.217	3997
276.277	1796
276.337	143
276.397	-518
276.457	-279
276.517	384
276.576	-300
276.636	-898
276.696	-26
276.756	1704
276.815	1320
276.875	-284
276.935	-117
276.995	-181
277.055	-545
277.114	417
277.174	-401
277.234	2811
277.293	0
277.353	127
277.413	-136
277.472	167
277.532	-874
277.592	-396
277.651	1244
277.711	2400
277.771	264
277.830	3694
277.890	3369
277.950	1160
278.009	6599
278.069	1781
278.128	1891
278.188	2285
278.248	1050
278.307	2812
278.367	1378
278.426	-97
278.486	937
278.545	-565
278.605	-768
278.664	-33
278.724	-1044
278.783	654
278.843	5550
278.902	423
278.962	-1194
279.021	329
279.081	283
279.140	-423
279.199	344
279.259	-527
279.318	650
279.378	501
279.437	476
279.496	4445
279.556	14128
279.615	12700
279.675	2578
279.734	1680
279.793	2574
279.853	4240
279.912	1480
279.971	315
280.031	114
280.090	1987
280.149	3626
280.208	1672
280.268	12139
280.327	13278
280.386	2197
280.445	1482
280.505	1170
280.564	675
280.623	86
280.682	612
280.742	2450
280.801	436
280.860	26
280.919	69
280.978	-84
281.037	-809
281.097	-735
281.156	-665
281.215	-49
281.274	94
281.333	3239
281.392	1862
281.451	-20
281.510	137
281.569	-363
281.628	153
281.688	-218
281.747	-70
281.806	-725
281.865	93
281.924	-367
281.983	-585
282.042	88
282.101	-905
282.160	63
282.219	-98
282.278	-425
282.337	1198
282.396	1083
282.454	-86
282.513	-121
282.572	2906
282.631	1469
282.690	-332
282.749	-841
282.808	29
282.867	72
282.926	-272
282.985	152
283.043	-650
283.102	-669
283.161	-78
283.220	412
283.279	4265
283.338	794
283.396	107
283.455	-545
283.514	353
283.573	757
283.631	306
283.690	58
283.749	30
283.808	930
283.866	1424
283.925	-378
283.984	-20
284.043	-312
284.101	-45
284.160	-619
284.219	880
284.277	844
284.336	109
284.395	5248
284.453	4493
284.512	1247
284.570	1381
284.629	1201
284.688	1072
284.746	-577
284.805	512
284.863	1201
284.922	1518
284.981	1410
285.039	2954
285.098	4553
285.156	12339
285.215	24381
285.273	23269
285.332	15563
285.390	7722
285.449	3934
285.507	2777
285.566	1832
285.624	1327
285.683	951
285.741	674
285.799	-3
285.858	982
285.916	345
285.975	126
286.033	-109
286.091	-380
286.150	-516
286.208	172
286.267	-7
286.325	258
286.383	1182
286.442	1246
286.500	-820
286.558	7
286.616	83
286.675	-188
286.733	94
286.791	53
286.850	477
286.908	222
286.966	2071
287.024	31
287.083	15
287.141	-520
287.199	-238
287.257	422
287.315	824
287.374	550
287.432	2157
287.490	1092
287.548	322
287.606	147
287.664	521
287.723	1088
287.781	779
287.839	586
287.897	-286
287.955	143
288.013	1326
288.071	2039
288.129	10126
288.187	36915
288.245	17919
288.303	4611
288.361	2208
288.419	1278
288.477	1230
288.535	368
288.593	223
288.651	235
288.709	-550
288.767	-335
288.825	-133
288.883	-3
288.941	-386
288.999	-881
289.057	-711
289.115	-390
289.173	-317
289.231	-1121
289.289	-557
289.346	-128
289.404	420
289.462	806
289.520	949
289.578	900
289.636	-546
289.694	-392
289.751	76
289.809	-171
289.867	-580
289.925	594
289.983	-503
290.040	237
290.098	105
290.156	-272
290.214	918
290.271	-701
290.329	-823
290.387	-415
290.444	-221
290.502	-1117
290.560	-524
290.617	762
290.675	-802
290.733	92
290.790	632
290.848	-93
290.906	343
290.963	432
291.021	-469
291.078	366
291.136	313
291.194	1981
291.251	7235
291.309	1476
291.366	168
291.424	22
291.481	990
291.539	-809
291.596	-334
291.654	-1558
291.711	-381
291.769	-447
291.826	1064
291.884	514
291.941	-224
291.999	-259
292.056	265
292.114	-32
292.171	-806
292.228	59
292.286	795
292.343	182
292.401	1036
292.458	717
292.515	110
292.573	-132
292.630	-114
292.687	-224
292.745	-83
292.802	348
292.859	4127
292.917	5253
292.974	2481
293.031	-48
293.089	471
293.146	40
293.203	-46
293.260	-288
293.318	-682
293.375	2541
293.432	934
293.489	213
293.546	-182
293.604	413
293.661	1766
293.718	6973
293.775	5111
293.832	1065
293.889	238
293.947	297
294.004	-338
294.061	275
294.118	1116
294.175	5523
294.232	10238
294.289	3828
294.346	1511
294.403	1040
294.460	-9
294.517	322
294.574	645
294.631	602
294.688	691
294.745	2652
294.802	8702
294.859	15320
294.916	5566
294.973	1570
295.030	1783
295.087	1446
295.144	520
295.201	999
295.258	-528
295.315	940
295.372	2936
295.429	5402
295.486	3062
295.542	1703
295.599	5637
295.656	13391
295.713	7000
295.770	6538
295.827	3198
295.883	1056
295.940	608
295.997	2526
296.054	2349
296.111	1114
296.167	37
296.224	77
296.281	346
296.338	97
296.394	501
296.451	901
296.508	2225
296.564	6221
296.621	5190
296.678	6231
296.734	10919
296.791	5102
296.848	1668
296.904	1936
296.961	5254
297.018	6928
297.074	6556
297.131	2327
297.187	1945
297.244	1617
297.301	5890
297.357	11451
297.414	3950
297.470	1665
297.527	713
297.583	729
297.640	703
297.696	610
297.753	719
297.809	137
297.866	272
297.922	455
297.979	63
298.035	-75
298.092	922
298.148	3106
298.204	3735
298.261	1835
298.317	3155
298.374	8808
298.430	5416
298.486	1752
298.543	1156
298.599	1535
298.656	1042
298.712	2624
298.768	5801
298.824	4004
298.881	1583
298.937	1302
298.993	233
299.050	991
299.106	633
299.162	367
299.218	897
299.275	550
299.331	810
299.387	1940
299.443	6751
299.500	10532
299.556	4980
299.612	1610
299.668	1500
299.724	3568
299.780	5325
299.837	1582
299.893	2543
299.949	7431
300.005	9893
300.061	7731
300.117	12832
300.173	6860
300.229	2278
300.285	2563
300.341	4614
300.397	1895
300.453	893
300.510	868
300.566	1300
300.622	1622
300.678	6064
300.734	12591
300.790	8329
300.845	8050
300.901	6571
300.957	9239
301.013	7202
301.069	2305
301.125	910
301.181	1533
301.237	1300
301.293	739
301.349	692
301.405	202
301.461	678
301.516	1788
301.572	1227
301.628	2466
301.684	1917
301.740	3387
301.796	4150
301.851	3686
301.907	4953
301.963	5198
302.019	6918
302.074	16299
302.130	19369
302.186	10191
302.242	4145
302.297	2263
302.353	2852
302.409	4496
302.464	3688
302.520	2618
302.576	7202
302.631	9509
302.687	6202
302.743	2965
302.798	1630
302.854	709
302.910	1300
302.965	1593
303.021	3509
303.076	3272
303.132	3381
303.187	4279
303.243	2291
303.299	1305
303.354	1234
303.410	914
303.465	795
303.521	669
303.576	1074
303.632	1236
303.687	1630
303.743	6473
303.798	6653
303.853	2138
303.909	1545
303.964	676
304.020	1380
304.075	3570
304.130	2696
304.186	5422
304.241	6325
304.297	4639
304.352	2675
304.358	2475
304.407	853
304.449	1225
304.463	1353
304.518	663
304.539	627
304.573	558
304.629	1765
304.630	1763
304.684	1777
304.720	3273
304.739	4006
304.794	7450
304.811	6481
304.850	4145
304.902	2127
304.905	1998
304.960	1002
304.992	1279
305.015	1471
305.071	1646
305.083	1528
305.126	1096
305.173	878
305.181	855
305.236	448
305.264	679
305.292	846
305.347	1261
305.354	1211
305.402	996
305.445	1439
305.457	1566
305.512	1719
305.535	1864
305.567	2038
305.622	1819
305.626	1882
305.678	3316
305.716	6312
305.733	7377
305.788	8310
305.807	7258
305.843	5500
305.897	6190
305.898	6193
305.953	7060
305.988	4879
306.008	3624
306.063	2157
306.078	1956
306.118	1653
306.168	489
306.173	370
306.228	1117
306.259	1087
306.283	1190
306.338	1069
306.349	1079
306.393	890
306.440	1564
306.448	1716
306.503	991
306.530	1256
306.558	1891
306.613	5185
306.620	5427
306.668	6794
306.711	8077
306.723	8079
306.778	6037
306.801	4757
306.833	3491
306.888	2138
306.892	2079
306.943	1579
306.982	1267
306.997	1165
307.052	1020
307.072	1024
307.107	1214
307.162	1921
307.163	1936
307.217	3673
307.253	4101
307.272	4075
307.327	4252
307.343	3935
307.381	3356
307.434	2251
307.436	2278
307.491	4307
307.524	7165
307.546	8147
307.600	7939
307.614	7172
307.655	4588
307.704	2342
307.710	2268
307.765	2794
307.795	3427
307.819	4022
307.874	7008
307.885	7055
307.929	6286
307.975	5457
307.984	5564
308.038	6938
308.065	8163
308.093	12569
308.148	24605
308.156	27190
308.202	39733
308.246	48056
308.257	47213
308.312	29634
308.336	22309
308.366	17173
308.421	10931
308.426	10378
308.475	7208
308.517	5210
308.530	4697
308.585	3856
308.607	3378
308.639	3314
308.694	3620
308.697	3686
308.748	6139
308.787	8553
308.803	8752
308.857	7579
308.877	6897
308.912	6208
308.967	5667
308.967	5665
309.021	7411
309.058	8692
309.076	10556
309.130	17839
309.148	20665
309.185	32627
309.238	53087
309.239	53247
309.293	57278
309.328	54169
309.348	48356
309.402	27760
309.418	22433
309.457	16165
309.508	9600
309.511	9397
309.566	7516
309.598	6854
309.620	6876
309.674	7122
309.688	7304
309.729	7362
309.778	6581
309.783	6458
309.837	5182
309.868	4472
309.892	5631
309.946	9177
309.959	10199
310.001	13342
310.049	16408
310.055	15927
310.109	9751
310.139	6160
310.163	4875
310.218	2836
310.229	2556
310.272	3010
310.319	3253
310.326	3118
310.381	2138
310.409	1726
310.435	1885
310.489	2229
310.499	2320
310.543	2595
310.589	2620
310.598	2616
310.652	2877
310.679	2818
310.706	2526
310.760	2070
310.769	1954
310.814	1802
310.859	1887
310.868	1971
310.923	2436
310.948	2559
310.977	2652
311.031	2974
311.038	3010
311.085	2463
311.128	1781
311.139	1795
311.193	2039
311.218	2048
311.247	2013
311.301	2159
311.308	2146
311.356	2305
311.398	2573
311.410	2495
311.464	1936
311.488	1737
311.518	1882
311.572	2010
311.578	2031
311.626	2512
311.668	2909
311.680	3073
311.734	3734
311.758	4036
311.788	3568
311.842	2683
311.847	2587
311.896	4035
311.937	5305
311.950	5147
312.004	4411
312.027	4070
312.058	3657
312.112	2922
312.117	2845
312.165	3237
312.207	3561
312.297	3916
312.386	3274
312.476	3141
312.566	4348
312.656	2686
312.745	2431
312.835	3273
312.925	3434
313.015	3396
313.104	2452
313.194	3250
313.284	2219
313.374	4164
313.463	2336
313.553	2486
313.643	2197
313.732	2053
313.822	2116
313.912	3352
314.001	3025
314.091	3876
314.180	4926
314.270	4132
314.360	3632
314.449	3752
314.539	2283
314.628	3076
314.718	2945
314.808	3687
314.897	3017
314.987	3643
315.076	3520
315.166	4034
315.255	3430
315.345	3786
315.434	3105
315.524	3869
315.613	3746
315.703	4651
315.792	4847
315.881	9783
315.971	4321
316.060	5764
316.150	6703
316.239	6693
316.328	2953
316.418	3146
316.507	2496
316.597	3746
316.686	3324
316.775	4404
316.865	6852
316.954	2058
317.043	2472
317.133	3109
317.222	2278
317.311	2440
317.400	1234
317.490	3821
317.579	2889
317.668	3042
317.757	2725
317.847	6017
317.936	15341
318.025	7835
318.114	4979
318.203	4186
318.293	4664
318.382	8251
318.471	6950
318.560	10115
318.649	20779
318.738	5360
318.828	3803
318.917	3736
319.006	4321
319.095	8719
319.184	24677
319.273	13582
319.362	6416
319.451	3295
319.540	2884
319.629	5538
319.718	7663
319.807	4884
319.896	8124
319.985	30072
320.074	9791
320.163	4525
320.252	4744
320.341	5908
320.430	5149
320.519	5353
320.608	3631
320.697	4392
320.786	2897
320.875	4251
320.964	4556
321.053	6384
321.142	7978
321.230	8623
321.319	7328
321.408	17206
321.497	7295
321.586	6986
321.675	7395
321.764	7668
321.852	6189
321.941	9835
322.030	6266
322.119	7713
322.207	14915
322.296	12417
322.385	7909
322.474	8535
322.562	17766
322.651	10825
322.740	7463
322.829	9168
322.917	8869
323.006	5815
323.095	5324
323.183	4907
323.272	5847
323.361	9260
323.449	21355
323.538	8256
323.626	15722
323.715	9467
323.804	5152
323.892	14822
323.981	8073
324.069	3708
324.158	8787
324.246	8107
324.335	4163
324.424	6080
324.512	3046
324.601	3998
324.689	6041
324.778	10250
324.866	5821
324.954	2686
325.043	2503
325.131	3450
325.220	6751
325.308	7262
325.397	5563
325.485	4607
325.574	2045
325.662	3040
325.750	2511
325.839	2610
325.927	2439
326.015	2606
326.104	3414
326.192	3976
326.280	2014
326.369	3115
326.457	2646
326.545	5243
326.634	3352
326.722	2454
326.810	2378
326.898	3003
326.987	2992
327.075	4587
327.163	4302
327.251	3265
327.340	5242
327.428	7192
327.516	3006
327.604	2723
327.692	2171
327.781	2547
327.869	3090
327.957	2623
328.045	2939
328.133	2807
328.221	1965
328.309	3415
328.397	2447
328.485	2741
328.574	4176
328.662	10236
328.750	5070
328.838	3269
328.926	2783
329.014	2641
329.102	3102
329.190	7959
329.278	5082
329.366	2554
329.454	1610
329.542	1771
329.630	2194
329.718	2651
329.806	2432
329.893	2674
329.981	2431
330.069	3195
330.157	5717
330.245	15282
330.333	8297
330.421	3234
330.509	2974
330.597	10607
330.684	7482
330.772	3909
330.860	4970
330.948	8241
331.036	3096
331.123	2342
331.211	2342
331.299	2454
331.387	6750
331.475	10589
331.562	3275
331.650	2239
331.738	1728
331.825	2856
331.913	2175
332.001	1883
332.089	2106
332.176	5327
332.264	8931
332.352	7407
332.439	3389
332.527	3546
332.614	2125
332.702	2997
332.790	2768
332.877	4613
332.965	7514
333.052	2898
333.140	2476
333.228	4228
333.315	1883
333.403	3083
333.490	5112
333.578	4013
333.665	4052
333.753	3505
333.840	2819
333.928	3083
334.015	6499
334.103	9424
334.190	30167
334.278	9853
334.365	5249
334.452	5925
334.540	3185
334.627	3926
334.715	5269
334.802	8186
334.889	29382
334.977	29242
335.064	8664
335.151	4958
335.239	4584
335.326	5535
335.413	16407
335.501	21712
335.588	4758
335.675	4145
335.762	5533
335.850	8889
335.937	7489
336.024	13709
336.111	38709
336.199	21806
336.286	7504
336.373	3958
336.460	2749
336.547	3499
336.635	2983
336.722	3715
336.809	2987
336.896	3799
336.983	10109
337.070	25364
337.157	31163
337.245	18809
337.332	12346
337.419	3296
337.506	2810
337.593	3540
337.680	9224
337.767	27257
337.854	7657
337.941	9196
338.028	6875
338.115	3203
338.202	5138
338.289	7211
338.376	17514
338.463	7717
338.550	15808
338.637	16526
338.724	4975
338.811	7224
338.898	2361
338.984	2841
339.071	3273
339.158	3526
339.245	6541
339.332	5021
339.419	4678
339.506	5058
339.593	1501
339.679	2389
339.766	2210
339.853	3188
339.940	4357
340.027	2554
340.113	2369
340.200	3704
340.287	2592
340.374	3003
340.460	4386
340.547	1424
340.634	4169
340.720	10854
340.807	5568
340.894	1810
340.980	2704
341.067	2261
341.154	3525
341.240	3462
341.327	5905
341.414	3145
341.500	2089
341.587	3287
341.674	2653
341.760	4375
341.847	4947
341.933	2302
342.020	1808
342.106	2731
342.193	2231
342.279	3840
342.366	2459
342.452	4632
342.539	2363
342.625	5586
342.712	10017
342.798	5093
342.885	2531
342.971	1617
343.058	2092
343.144	2408
343.230	1821
343.317	2620
343.403	698
343.490	2172
343.576	1767
343.662	1738
343.749	1653
343.835	3517
343.921	2982
344.008	15432
344.094	32708
344.180	7856
344.267	3105
344.353	10845
344.439	11406
344.525	6391
344.612	7604
344.698	9012
344.784	5478
344.870	2868
344.957	2132
345.043	3519
345.129	1159
345.215	4520
345.301	3165
345.387	2285
345.474	1476
345.560	2530
345.646	2234
345.732	2328
345.818	3073
345.904	3121
345.990	2584
346.076	2166
346.162	3394
346.249	3367
346.335	1149
346.421	2810
346.507	4286
346.593	14620
346.679	3998
346.765	3460
346.851	2459
346.937	2017
347.023	2800
347.108	2398
347.194	1829
347.280	2562
347.366	2439
347.452	6529
347.538	17278
347.624	14456
347.710	11810
347.796	3335
347.882	2351
347.967	3477
348.053	3598
348.139	1875
348.225	1464
348.311	1670
348.397	2030
348.482	3591
348.568	3557
348.654	2200
348.740	4316
348.825	4389
348.911	4265
348.997	8401
349.083	15659
349.168	2960
349.254	2208
349.340	3490
349.425	1597
349.511	2895
349.597	2806
349.682	4999
349.768	11976
349.854	6135
349.939	2768
350.025	1720
350.110	2466
350.196	2310
350.282	1180
350.367	2829
350.453	2158
350.538	3112
350.624	2662
350.709	3098
350.795	976
350.880	2017
350.966	3107
351.051	3487
351.137	1976
351.222	2333
351.308	4578
351.393	11067
351.479	3203
351.564	2810
351.649	1486
351.735	2731
351.820	1368
351.906	2732
351.991	2402
352.076	8078
352.162	10695
352.247	3523
352.332	2431
352.418	4080
352.503	4736
352.588	16044
352.673	12617
352.759	3201
352.844	2544
352.929	2321
353.014	2578
353.100	2746
353.185	2960
353.270	4035
353.355	4205
353.441	2346
353.526	2372
353.611	4280
353.696	4131
353.781	4142
353.866	1380
353.952	3036
354.037	3530
354.122	7685
354.207	7426
354.292	3677
354.377	2154
354.462	2677
354.547	2340
354.632	3295
354.717	3995
354.802	3482
354.887	1304
354.972	2840
355.057	1994
355.142	2507
355.227	1762
355.312	2682
355.397	4836
355.482	12337
355.567	6154
355.652	5062
355.737	4837
355.822	13155
355.907	9983
355.991	3913
356.076	2005
356.161	2967
356.246	1936
356.331	2947
356.416	3226
356.501	18897
356.585	17857
356.670	3948
356.755	4192
356.840	4399
356.924	12155
357.009	41399
357.094	17041
357.179	4612
357.263	3552
357.348	4119
357.433	4531
357.517	4372
357.602	3107
357.687	2887
357.771	3328
357.856	9594
357.941	6021
358.025	10926
358.110	39340
358.195	21204
358.279	4040
358.364	4321
358.448	9791
358.533	24312
358.617	18288
358.702	17632
358.787	7282
358.871	5449
358.956	4899
359.040	2565
359.125	2320
359.209	2042
359.294	4934
359.378	8854
359.462	4273
359.547	3414
359.631	2147
359.716	905
359.800	2019
359.885	5180
359.969	1399
360.053	3489
360.138	3287
360.222	3251
360.306	4550
360.391	4130
360.475	6276
360.559	12559
360.644	10363
360.728	7551
360.812	11132
360.896	27429
360.981	14872
361.065	9019
361.149	3372
361.233	3302
361.318	1310
361.402	2678
361.486	3522
361.570	2786
361.654	3038
361.739	5015
361.823	17067
361.907	26858
361.991	6422
362.075	4108
362.159	8074
362.243	9025
362.327	12336
362.411	18815
362.495	8198
362.580	4509
362.664	4520
362.748	3654
362.832	5512
362.916	9805
363.000	29640
363.084	51114
363.168	38392
363.252	12322
363.336	6601
363.420	7202
363.503	22291
363.587	27219
363.671	5482
363.755	4712
363.839	6070
363.923	4035
364.007	6009
364.091	7281
364.175	10021
364.258	44379
364.342	42432
364.426	62167
364.510	32790
364.594	13718
364.677	9972
364.761	23239
364.845	17477
364.929	7910
365.013	6370
365.096	6136
365.180	5066
365.264	9770
365.347	35074
365.431	17566
365.515	5275
365.598	2855
365.682	3406
365.766	5963
365.849	7214
365.933	2875
366.017	5779
366.100	4232
366.184	1592
366.267	3210
366.351	1932
366.435	2412
366.518	1352
366.602	3119
366.685	2330
366.769	3316
366.852	4874
366.936	8065
367.019	3799
367.103	4172
367.186	8781
367.270	3224
367.353	1036
367.436	3211
367.520	1649
367.603	3034
367.687	2636
367.770	5123
367.853	4015
367.937	9966
368.020	12226
368.104	3711
368.187	4341
368.270	6148
368.353	5781
368.437	5777
368.520	11581
368.603	8808
368.687	8900
368.770	18365
368.853	4706
368.936	7084
369.020	7185
369.103	2643
369.186	1835
369.269	1664
369.352	4188
369.436	5376
369.519	3292
369.602	606
369.685	3116
369.768	2176
369.851	2824
369.934	1776
370.018	1832
370.101	3418
370.184	5339
370.267	3234
370.350	4436
370.433	6513
370.516	12860
370.599	16766
370.682	4431
370.765	12846
370.848	13191
370.931	20549
371.014	10678
371.097	2549
371.180	3484
371.263	2201
371.346	313
371.429	2528
371.511	1737
371.594	3864
371.677	6599
371.760	8614
371.843	3849
371.926	18112
372.009	35558
372.091	15476
372.174	8251
372.257	18584
372.340	7161
372.423	9114
372.505	11885
372.588	4490
372.671	7618
372.754	19478
372.836	11131
372.919	12218
373.002	23950
373.085	6163
373.167	4553
373.250	10302
373.332	18429
373.415	24557
373.498	44820
373.580	20193
373.663	23756
373.746	31581
373.828	7971
373.911	5743
373.993	5878
374.076	22238
374.159	19544
374.241	7887
374.324	18284
374.406	12691
374.489	14705
374.571	39485
374.654	16136
374.736	9236
374.819	24215
374.901	36230
374.983	34146
375.066	8874
375.148	4205
375.231	17008
375.313	34203
375.395	14064
375.478	4514
375.560	3495
375.643	3077
375.725	8151
375.807	28392
375.890	26179
375.972	9766
376.054	7227
376.136	10175
376.219	5017
376.301	9225
376.383	24939
376.465	10484
376.548	6939
376.630	8343
376.712	22566
376.794	10157
376.877	2619
376.959	1570
377.041	2594
377.123	6246
377.205	8243
377.287	1545
377.369	2468
377.452	1488
377.534	2817
377.616	1684
377.698	1786
377.780	594
377.862	2085
377.944	2723
378.026	941
378.108	2447
378.190	2238
378.272	1628
378.354	2294
378.436	2227
378.518	3262
378.600	10381
378.682	8842
378.764	13299
378.846	10757
378.928	4238
379.010	5705
379.091	4170
379.173	2176
379.255	1380
379.337	2300
379.419	6507
379.501	18806
379.583	7516
379.664	3213
379.746	4312
379.828	14817
379.910	17717
379.991	15539
380.073	2760
380.155	2653
380.237	2436
380.318	2140
380.400	1284
380.482	3615
380.564	4106
380.645	4226
380.727	3427
380.809	3706
380.890	2080
380.972	944
381.053	1706
381.135	3064
381.217	4858
381.298	15052
381.380	7019
381.461	6478
381.543	21901
381.624	26433
381.706	5879
381.787	4277
381.869	5148
381.951	9892
382.032	34182
382.113	24752
382.195	5064
382.276	4553
382.358	5857
382.439	19286
382.521	21915
382.602	33378
382.684	15261
382.765	28479
382.846	23743
382.928	22416
383.009	11617
383.090	10016
383.172	29530
383.253	46658
383.334	20742
383.416	28508
383.497	14656
383.578	5824
383.659	9252
383.741	26137
383.822	69842
383.903	35404
383.984	17853
384.066	38509
384.147	23440
384.228	6018
384.309	3855
384.390	3525
384.471	3176
384.553	3130
384.634	4690
384.715	5251
384.796	1745
384.877	3173
384.958	11709
385.039	14451
385.120	6075
385.201	3906
385.282	4065
385.363	5880
385.444	3017
385.525	5431
385.606	16623
385.687	15196
385.768	5719
385.849	6563
385.930	19877
386.011	31569
386.092	9463
386.173	4541
386.254	3497
386.335	4787
386.416	3976
386.496	8655
386.577	15128
386.658	7529
386.739	3765
386.820	5438
386.901	4207
386.981	4579
387.062	3063
387.143	4265
387.224	13262
387.304	14438
387.385	7702
387.466	4975
387.547	6353
387.627	4802
387.708	6778
387.789	22790
387.869	26163
387.950	10250
388.031	3193
388.111	2302
388.192	9110
388.273	12052
388.353	6610
388.434	3971
388.514	5495
388.595	20100
388.676	25311
388.756	14760
388.837	14296
388.917	9242
388.998	2290
389.078	4569
389.159	2862
389.239	1511
389.320	3910
389.400	2568
389.480	7208
389.561	14399
389.641	7756
389.722	3876
389.802	5182
389.883	7881
389.963	16033
390.043	11679
390.124	3849
390.204	6573
390.284	15128
390.365	11036
390.445	14759
390.525	24195
390.605	18655
390.686	8713
390.766	4383
390.846	3785
390.927	1511
391.007	1741
391.087	3370
391.167	3304
391.247	1442
391.328	5207
391.408	7233
391.488	5644
391.568	886
391.648	3583
391.728	4414
391.808	4649
391.888	2851
391.969	8868
392.049	13620
392.129	8635
392.209	7543
392.289	16675
392.369	10256
392.449	12916
392.529	7067
392.609	6052
392.689	6445
392.769	16772
392.849	14696
392.929	15401
393.009	27606
393.089	21395
393.169	22816
393.248	60372
393.328	179848
393.408	191902
393.488	67145
393.568	24083
393.648	12567
393.728	8944
393.807	5420
393.887	5936
393.967	5928
394.047	6559
394.127	5956
394.206	10523
394.286	28337
394.366	99646
394.446	108306
394.525	34355
394.605	11639
394.685	8666
394.764	17641
394.844	28721
394.924	21504
395.003	7166
395.083	4172
395.163	4528
395.242	3486
395.322	4275
395.402	1322
395.481	6445
395.561	10108
395.640	31547
395.720	28149
395.799	33239
395.879	26433
395.958	15921
396.038	44231
396.117	125552
396.197	137046
396.276	60494
396.356	24026
396.435	18570
396.515	12609
396.594	13142
396.673	20353
396.753	62861
396.832	166332
396.912	131580
396.991	37543
397.070	13319
397.150	6657
397.229	7309
397.308	11108
397.388	22329
397.467	10953
397.546	5105
397.625	1391
397.705	5338
397.784	4201
397.863	2661
397.942	2206
398.022	2907
398.101	7947
398.180	26942
398.259	14812
398.338	5072
398.417	2306
398.497	2350
398.576	2737
398.655	1853
398.734	2133
398.813	2603
398.892	8204
398.971	27434
399.050	13040
399.129	1804
399.208	1645
399.287	2053
399.366	1219
399.445	1757
399.524	2159
399.603	738
399.682	3003
399.761	7494
399.840	27857
399.919	23084
399.998	3292
400.077	1163
400.156	771
400.235	4106
400.313	1680
400.392	1173
400.471	8120
400.550	13190
400.629	2604
400.708	2869
400.786	2288
400.865	8000
400.944	7918
401.023	5021
401.102	710
401.180	1662
401.259	1285
401.338	1999
401.416	2395
401.495	2087
401.574	2134
401.652	1401
401.731	3205
401.810	1542
401.888	1392
401.967	1058
402.046	1720
402.124	2858
402.203	1653
402.281	2486
402.360	2402
402.438	9727
402.517	6201
402.596	3086
402.674	2776
402.753	1763
402.831	2045
402.910	2780
402.988	3127
403.066	12605
403.145	8336
403.223	5992
403.302	9716
403.380	8514
403.459	6779
403.537	3144
403.615	1830
403.694	131
403.772	1867
403.850	1638
403.929	1592
404.007	1228
404.085	3729
404.164	2354
404.242	3010
404.320	12126
404.398	30818
404.477	29974
404.555	35158
404.633	31760
404.711	24845
404.789	18096
404.868	4569
404.946	2033
405.024	1618
405.102	1152
405.180	478
405.258	216
405.336	2291
405.415	1636
405.493	2296
405.571	3154
405.649	184
405.727	1009
405.805	3386
405.883	2088
405.961	2423
406.039	2765
406.117	739
406.195	2688
406.273	5897
406.351	25728
406.429	16606
406.507	4190
406.585	1658
406.663	1664
406.740	1755
406.818	919
406.896	1248
406.974	1572
407.052	988
407.130	15096
407.208	22025
407.285	5607
407.363	179
407.441	1581
407.519	979
407.596	2162
407.674	4453
407.752	16403
407.830	17170
407.907	5727
407.985	1697
408.063	2087
408.141	809
408.218	3559
408.296	1349
408.373	1542
408.451	1478
408.529	2351
408.606	929
408.684	1287
408.762	1128
408.839	1024
408.917	168
408.994	1433
409.072	572
409.149	1542
409.227	2985
409.304	3681
409.382	3373
409.459	4312
409.537	6077
409.614	5296
409.692	3289
409.769	3619
409.846	4991
409.924	7656
410.001	4243
410.079	4395
410.156	3408
410.233	2832
410.311	1318
410.388	1767
410.465	2296
410.543	961
410.620	1764
410.697	2019
410.775	2059
410.852	844
410.929	2081
411.006	3093
411.083	1434
411.161	3217
411.238	4431
411.315	3659
411.392	1918
411.469	2872
411.547	1936
411.624	-117
411.701	989
411.778	1042
411.855	2317
411.932	1727
412.009	978
412.086	1621
412.163	925
412.240	1997
412.317	2502
412.394	2109
412.471	1961
412.548	1490
412.625	1131
412.702	1288
412.779	2343
412.856	2282
412.933	593
413.010	1387
413.087	1194
413.164	7011
413.241	10140
413.318	2649
413.395	2180
413.471	2868
413.548	211
413.625	2292
413.702	837
413.779	2012
413.855	79
413.932	857
414.009	-404
414.086	896
414.162	861
414.239	1800
414.316	6447
414.393	15761
414.469	3880
414.546	1335
414.623	960
414.699	1188
414.776	595
414.853	140
414.929	484
415.006	1197
415.082	1588
415.159	1220
415.236	847
415.312	1470
415.389	1182
415.465	2249
415.542	82
415.618	588
415.695	1333
415.771	785
415.848	1273
415.924	966
416.000	132
416.077	2164
416.153	-443
416.230	-88
416.306	-490
416.383	942
416.459	629
416.535	-232
416.612	433
416.688	886
416.764	515
416.841	468
416.917	461
416.993	1054
417.069	1201
417.146	1534
417.222	2109
417.298	1256
417.374	55
417.451	1565
417.527	746
417.603	1265
417.679	376
417.755	1569
417.831	-544
417.908	1416
417.984	1229
418.060	-353
418.136	1706
418.212	1946
418.288	634
418.364	1765
418.440	356
418.516	1811
418.592	2328
418.668	4403
418.744	3938
418.820	4601
418.896	262
418.972	187
419.048	214
419.124	3226
419.200	775
419.276	1420
419.352	54
419.428	955
419.504	182
419.579	1664
419.655	873
419.731	1497
419.807	2981
419.883	5419
419.959	3748
420.034	1409
420.110	2513
420.186	9975
420.262	8136
420.337	2591
420.413	1174
420.489	1167
420.565	1988
420.640	1333
420.716	2144
420.792	676
420.867	1511
420.943	1866
421.019	2465
421.094	2234
421.170	2025
421.245	1748
421.321	2237
421.397	2659
421.472	4994
421.548	10474
421.623	8332
421.699	4334
421.774	5037
421.850	3981
421.925	6180
422.001	7250
422.076	6970
422.152	10161
422.227	13158
422.302	19355
422.378	26026
422.453	44774
422.529	77095
422.604	119084
422.679	122248
422.755	122349
422.830	87334
422.905	49731
422.981	29756
423.056	20836
423.131	15477
423.207	10915
423.282	9214
423.357	9800
423.432	7326
423.508	6347
423.583	8373
423.658	7367
423.733	4218
423.808	5501
423.883	4201
423.959	5159
424.034	4212
424.109	4388
424.184	2953
424.259	2714
424.334	1989
424.409	1632
424.484	1715
424.559	2079
424.634	1594
424.709	2006
424.784	2285
424.859	1699
424.934	1093
425.009	7101
425.084	11406
425.159	4557
425.234	1674
425.309	1409
425.384	4002
425.459	4188
425.534	2259
425.609	723
425.683	1380
425.758	1167
425.833	1747
425.908	1886
425.983	3730
426.058	11589
426.132	4882
426.207	1762
426.282	3581
426.357	2277
426.431	811
426.506	1705
426.581	474
426.655	1786
426.730	820
426.805	790
426.879	1568
426.954	461
427.029	2210
427.103	9984
427.178	24133
427.253	10829
427.327	2179
427.402	2774
427.476	7177
427.551	3820
427.625	1532
427.700	1948
427.774	-349
427.849	1912
427.923	575
427.998	791
428.072	982
428.147	4308
428.221	14356
428.296	42007
428.370	22222
428.444	4330
428.519	3463
428.593	7917
428.667	7137
428.742	7640
428.816	8013
428.890	28547
428.965	45010
429.039	14055
429.113	9369
429.188	3491
429.262	949
429.336	2493
429.410	5986
429.485	5300
429.559	7028
429.633	6152
429.707	2049
429.781	5851
429.855	30674
429.930	45799
430.004	22083
430.078	32362
430.152	30077
430.226	52061
430.300	51372
430.374	11163
430.448	3551
430.522	9690
430.596	26871
430.670	18520
430.744	37731
430.818	49335
430.892	9427
430.966	2380
431.040	1754
431.114	963
431.188	532
431.262	846
431.336	562
431.410	3905
431.484	7869
431.557	5358
431.631	799
431.705	1378
431.779	8433
431.853	36918
431.927	26607
432.000	4134
432.074	1053
432.148	2546
432.222	963
432.295	637
432.369	300
432.443	1404
432.516	9286
432.590	24689
432.664	9224
432.737	1134
432.811	-799
432.885	272
432.958	452
433.032	-327
433.106	980
433.179	886
433.253	-253
433.326	785
433.400	270
433.473	1001
433.547	-170
433.620	-59
433.694	826
433.767	1629
433.841	-232
433.914	390
433.988	553
434.061	497
434.134	-28
434.208	181
434.281	-755
434.355	120
434.428	-3
434.501	104
434.575	187
434.648	-2
434.721	-111
434.795	290
434.868	-387
434.941	243
435.014	-151
435.088	-180
435.161	484
435.234	1129
435.307	1208
435.381	1065
435.454	828
435.527	3718
435.600	3071
435.673	2637
435.746	1889
435.819	1266
435.892	1447
435.966	554
436.039	315
436.112	1945
436.185	132
436.258	695
436.331	-450
436.404	681
436.477	166
436.550	188
436.623	420
436.696	467
436.769	544
436.842	938
436.915	367
436.987	835
437.060	692
437.133	538
437.206	145
437.279	949
437.352	-22
437.425	817
437.498	-325
437.570	2337
437.643	1928
437.716	1382
437.789	-263
437.861	1142
437.934	2190
438.007	1279
438.080	-156
438.152	1086
438.225	1162
438.298	11401
438.370	30945
438.443	13320
438.516	2267
438.588	1137
438.661	-151
438.734	1163
438.806	-215
438.879	1783
438.951	383
439.024	1214
439.096	199
439.169	387
439.241	94
439.314	571
439.386	895
439.459	2172
439.531	1617
439.604	430
439.676	603
439.749	382
439.821	-582
439.893	361
439.966	188
440.038	958
440.110	719
440.183	-104
440.255	44
440.327	1994
440.400	6039
440.472	21856
440.544	13415
440.617	2507
440.689	1901
440.761	2378
440.833	2595
440.905	1736
440.978	-117
441.050	340
441.122	311
441.194	261
441.266	-392
441.338	671
441.411	767
441.483	7634
441.555	10421
441.627	2618
441.699	3009
441.771	3130
441.843	385
441.915	1055
441.987	324
442.059	1206
442.131	1092
442.203	2726
442.275	2452
442.347	3691
442.419	5721
442.491	26083
442.563	59476
442.635	27023
442.706	11562
442.778	7772
442.850	1063
442.922	1326
442.994	1493
443.066	2514
443.137	2199
443.209	2703
443.281	3094
443.353	8847
443.425	30776
443.496	92716
443.568	96055
443.640	40567
443.711	9318
443.783	3620
443.855	1425
443.926	1183
443.998	834
444.070	2499
444.141	1586
444.213	1822
444.285	2208
444.356	1570
444.428	2435
444.499	1346
444.571	708
444.642	1203
444.714	730
444.785	1806
444.857	3267
444.928	6636
445.000	4074
445.071	5226
445.143	5701
445.214	4557
445.285	8017
445.357	23101
445.428	61387
445.500	121205
445.571	91951
445.642	57950
445.714	22896
445.785	15158
445.856	4474
445.928	3070
445.999	2654
446.070	1676
446.141	1887
446.213	2718
446.284	1203
446.355	1730
446.426	893
446.497	532
446.569	1623
446.640	2773
446.711	1022
446.782	1427
446.853	800
446.924	1690
446.995	373
447.066	1242
447.138	1865
447.209	1915
447.280	436
447.351	251
447.422	-319
447.493	1138
447.564	-31
447.635	1432
447.706	1572
447.777	-294
447.847	318
447.918	-171
447.989	480
448.060	2193
448.131	4434
448.202	3904
448.273	1521
448.344	1076
448.414	548
448.485	408
448.556	425
448.627	448
448.698	1016
448.768	250
448.839	-265
448.910	1430
448.981	1689
449.051	486
449.122	-135
449.193	933
449.263	-585
449.334	733
449.405	523
449.475	2247
449.546	1759
449.616	2609
449.687	1776
449.758	1088
449.828	45
449.899	-78
449.969	-1031
450.040	-523
450.110	480
450.181	936
450.251	201
450.322	253
450.392	380
450.463	668
450.533	-138
450.604	715
450.674	900
450.744	980
450.815	896
450.885	948
450.955	-33
451.026	698
451.096	637
451.166	1722
451.237	2548
451.307	8803
451.377	4107
451.447	1240
451.518	42
451.588	-394
451.658	415
451.728	1713
451.799	8081
451.869	9693
451.939	1371
452.009	1105
452.079	-74
452.149	823
452.219	1937
452.289	9282
452.360	6844
452.430	1610
452.500	924
452.570	1920
452.640	3658
452.710	11173
452.780	15577
452.850	8674
452.920	5098
452.990	2652
453.060	1376
453.129	2343
453.199	1932
453.269	8555
453.339	18869
453.409	29230
453.479	28583
453.549	45348
453.619	49472
453.688	18816
453.758	3145
453.828	790
453.898	1130
453.968	1799
454.037	617
454.087	970
454.107	1104
454.168	-147
454.177	-345
454.247	1237
454.249	1213
454.316	267
454.330	497
454.386	1249
454.411	2725
454.456	4853
454.492	5770
454.525	6579
454.574	3963
454.595	2865
454.655	1433
454.665	1231
454.734	1398
454.736	1496
454.804	3469
454.817	4762
454.873	8948
454.898	9423
454.943	10156
454.979	6469
455.013	3348
455.060	2266
455.082	1983
455.141	2610
455.152	2594
455.221	7652
455.222	7800
455.291	12105
455.303	11504
455.360	9076
455.384	10841
455.430	14140
455.465	11839
455.499	9267
455.546	9096
455.569	8608
455.627	5791
455.638	5404
455.707	1027
455.708	1043
455.777	1297
455.789	1335
455.846	1403
455.869	1648
455.916	2161
455.950	1774
455.985	1352
456.031	1547
456.054	1595
456.112	1244
456.124	1206
456.193	692
456.193	673
456.262	1956
456.274	2124
456.332	2819
456.355	2619
456.401	1919
456.436	2137
456.470	2374
456.516	1074
456.540	449
456.597	1178
456.609	1335
456.678	1186
456.678	1175
456.747	1293
456.759	1144
456.817	555
456.840	915
456.886	1515
456.920	1066
456.955	554
457.001	1141
457.024	1590
457.082	1686
457.093	1667
457.162	2338
457.163	2360
457.232	2210
457.243	2250
457.301	2354
457.324	1940
457.370	1379
457.405	1945
457.439	2474
457.485	1856
457.508	1579
457.566	2276
457.577	2397
457.646	2227
457.647	2251
457.715	4957
457.727	5467
457.784	8371
457.808	10879
457.853	14003
457.889	16410
457.922	16833
457.969	11866
457.991	11750
458.050	12992
458.060	13231
458.129	22395
458.130	22683
458.198	24382
458.211	22203
458.267	14269
458.292	10314
458.336	6367
458.372	6082
458.405	7572
458.453	10878
458.474	13049
458.533	21947
458.543	22713
458.611	37652
458.614	37886
458.680	27052
458.694	21918
458.749	10493
458.775	7764
458.818	4570
458.855	3823
458.887	3205
458.936	2908
458.955	3005
459.016	3197
459.024	3160
459.093	3475
459.097	3450
459.162	2772
459.177	2959
459.230	3627
459.257	3494
459.299	3291
459.338	3484
459.368	3542
459.418	3275
459.437	3126
459.499	2737
459.505	2771
459.574	2931
459.579	2964
459.643	2314
459.659	2187
459.711	2543
459.740	2859
459.780	3123
459.820	3328
459.849	3402
459.900	3384
459.917	3337
459.981	3690
459.986	3708
460.054	3209
460.061	3190
460.123	3073
460.141	3130
460.191	3692
460.222	3979
460.260	4159
460.302	4413
460.328	4388
460.382	4009
460.397	3876
460.462	3425
460.465	3496
460.534	5754
460.543	6021
460.602	14012
460.623	17210
460.671	25432
460.703	34564
460.739	32929
460.783	26178
460.808	23461
460.864	8867
460.876	7159
460.944	3834
460.945	3801
461.013	4015
461.024	3883
461.081	2915
461.104	2991
461.150	3020
461.184	2698
461.218	2831
461.264	3468
461.286	3703
461.345	3081
461.355	3015
461.423	3972
461.425	3984
461.491	3728
461.505	3792
461.559	7729
461.585	9420
461.628	14496
461.665	19524
461.696	20437
461.745	22899
461.764	19837
461.825	6323
461.832	6125
461.901	4423
461.905	4393
461.969	3176
461.985	3058
462.037	4318
462.065	4770
462.105	5245
462.145	5775
462.173	7631
462.225	11213
462.241	12401
462.305	18030
462.310	17483
462.378	8343
462.385	7120
462.446	4672
462.465	4139
462.514	3958
462.545	3983
462.582	3956
462.625	4347
462.650	4368
462.705	3633
462.718	3775
462.785	5382
462.786	5431
462.854	7554
462.865	8019
462.922	9509
462.945	10057
462.990	7686
463.025	5259
463.058	4549
463.104	3937
463.126	3945
463.184	4392
463.194	4544
463.262	4998
463.264	5019
463.330	5463
463.344	5557
463.398	6172
463.424	6497
463.466	5546
463.504	4796
463.533	4969
463.583	4796
463.601	4873
463.663	5352
463.669	5504
463.737	7365
463.743	7516
463.805	12405
463.823	13936
463.873	22009
463.903	26863
463.940	26913
463.982	27509
464.008	21946
464.062	8573
464.076	7945
464.142	4712
464.144	4693
464.211	4621
464.221	4617
464.279	4616
464.301	4584
464.347	5447
464.381	6344
464.414	7181
464.461	8015
464.482	8046
464.540	8313
464.550	7942
464.617	5053
464.620	4950
464.685	6131
464.699	6330
464.753	6376
464.779	6629
464.820	7888
464.859	8751
464.888	8745
464.938	8882
464.956	9233
465.018	10274
465.023	10031
465.091	6800
465.098	6449
465.158	6311
465.177	6304
465.226	6611
465.257	6685
465.293	6816
465.336	7024
465.361	7293
465.416	7924
465.428	8872
465.495	13920
465.496	14013
465.563	25170
465.575	27129
465.631	31692
465.654	33726
465.698	20363
465.734	8611
465.765	7529
465.813	5944
465.833	6091
465.893	6869
465.900	6842
465.968	6623
465.972	6596
466.035	6155
466.052	6016
466.102	6230
466.131	6347
466.170	6299
466.210	6190
466.237	6318
466.290	6681
466.304	6643
466.369	6177
466.372	6207
466.439	6927
466.449	7008
466.506	7657
466.528	7934
466.573	12304
466.607	15460
466.641	23334
466.687	34357
466.708	37446
466.766	45880
466.775	41948
466.842	11663
466.845	10202
466.909	7775
466.925	7261
466.977	7140
467.004	7050
467.044	7577
467.083	8132
467.111	8692
467.163	9680
467.178	9944
467.242	10992
467.245	11007
467.312	10970
467.321	10950
467.379	10797
467.400	10710
467.446	12001
467.480	12901
467.559	10153
467.638	7715
467.717	9216
467.796	9438
467.875	9456
467.955	11104
468.034	18306
468.113	42044
468.192	59330
468.271	14295
468.350	11543
468.429	12862
468.508	12841
468.588	12203
468.667	12637
468.746	15532
468.825	13874
468.904	9497
468.983	12365
469.062	17096
469.141	20072
469.220	7685
469.299	9481
469.378	9315
469.456	11254
469.535	9556
469.614	8850
469.693	9757
469.772	13793
469.851	19967
469.930	12161
470.009	8152
470.088	8498
470.166	8443
470.245	8235
470.324	7781
470.403	7382
470.482	7644
470.560	8130
470.639	7777
470.718	9856
470.797	8857
470.875	11084
470.954	16963
471.033	19272
471.111	7114
471.190	6994
471.269	7728
471.347	7962
471.426	7724
471.505	9128
471.583	9184
471.662	8825
471.740	7468
471.819	7596
471.898	8449
471.976	7494
472.055	7352
472.133	9660
472.212	13276
472.290	14086
472.369	8906
472.447	7179
472.526	6840
472.604	7992
472.683	7374
472.761	7502
472.839	7651
472.918	7124
472.996	8353
473.075	9989
473.153	8551
473.231	8463
473.310	8711
473.388	8568
473.466	9233
473.545	8505
473.623	9127
473.701	8295
473.780	8949
473.858	8140
473.936	12417
474.014	8265
474.093	8095
474.171	14126
474.249	19541
474.327	11927
474.405	6706
474.484	7073
474.562	5922
474.640	6859
474.718	8474
474.796	7911
474.874	7102
474.952	6665
475.030	6763
475.108	6368
475.187	7047
475.265	6895
475.343	8044
475.421	7805
475.499	6613
475.577	7132
475.655	11195
475.733	22339
475.811	39642
475.889	34788
475.966	20113
476.044	7625
476.122	8863
476.200	9979
476.278	8710
476.356	7042
476.434	7790
476.512	9800
476.590	10252
476.667	9884
476.745	7609
476.823	7951
476.901	8265
476.979	8305
477.056	8917
477.134	10017
477.212	10441
477.290	8639
477.367	7879
477.445	7179
477.523	7661
477.601	6906
477.678	7695
477.756	10184
477.834	10674
477.911	7439
477.989	8550
478.066	7946
478.144	9262
478.222	7935
478.299	7289
478.377	8429
478.454	7730
478.532	7378
478.609	6996
478.687	8127
478.764	6869
478.842	7873
478.919	7347
478.997	7783
479.074	8193
479.152	9001
479.229	11759
479.307	8214
479.384	6289
479.461	6296
479.539	7029
479.616	8989
479.694	7475
479.771	9315
479.848	8954
479.926	12526
480.003	13300
480.080	6502
480.157	6382
480.235	6628
480.312	7212
480.389	9272
480.467	15244
480.544	18240
480.621	10425
480.698	8809
480.775	9789
480.853	10389
480.930	8477
481.007	8696
481.084	10023
481.161	11420
481.238	10514
481.315	8531
481.392	8634
481.470	10173
481.547	10922
481.624	8384
481.701	8232
481.778	8305
481.855	9891
481.932	14893
482.009	24431
482.086	13987
482.163	8617
482.240	8583
482.317	9232
482.393	9086
482.470	9098
482.547	8941
482.624	8241
482.701	8746
482.778	8475
482.855	7584
482.932	7563
483.009	6877
483.085	7563
483.162	8514
483.239	9164
483.316	7411
483.393	8414
483.469	7014
483.546	8970
483.623	9826
483.699	7565
483.776	7651
483.853	8415
483.930	13757
484.006	34022
484.083	56116
484.160	20574
484.236	24708
484.313	19382
484.389	16061
484.466	16193
484.543	15000
484.619	15942
484.696	17235
484.772	17918
484.849	18890
484.925	13494
485.002	14713
485.078	15855
485.155	15321
485.231	14668
485.308	12725
485.384	14194
485.461	18058
485.537	31304
485.614	35841
485.690	13906
485.766	13020
485.843	12764
485.919	14113
485.995	14959
486.072	12226
486.148	11494
486.224	11315
486.301	13460
486.377	14699
486.453	12925
486.530	14067
486.606	18170
486.682	18804
486.758	25530
486.835	29918
486.911	21980
486.987	38121
487.063	27072
487.139	23801
487.215	20326
487.292	15758
487.368	14479
487.444	15099
487.520	17150
487.596	18564
487.672	32760
487.748	79643
487.824	111206
487.900	36999
487.976	17691
488.052	15658
488.128	15797
488.204	13180
488.280	14112
488.356	17896
488.432	37742
488.508	53331
488.584	14777
488.660	10706
488.736	10765
488.812	10700
488.888	12630
488.964	14355
489.039	21551
489.115	29886
489.191	20321
489.267	12312
489.343	12132
489.418	10420
489.494	10555
489.570	8854
489.646	11611
489.722	10427
489.797	10977
489.873	20320
489.949	43355
490.024	30974
490.100	9473
490.176	10304
490.251	11100
490.327	12443
490.403	9339
490.478	9672
490.554	8733
490.629	9797
490.705	8884
490.781	9475
490.856	10099
490.932	10872
491.007	9623
491.083	9584
491.158	9892
491.234	14785
491.309	34096
491.385	30205
491.460	10332
491.536	10626
491.611	9375
491.686	9036
491.762	9824
491.837	15816
491.913	25623
491.988	33953
492.063	34712
492.139	20975
492.214	14049
492.289	8477
492.365	8355
492.440	10119
492.515	9773
492.590	10501
492.666	8239
492.741	12678
492.816	18169
492.891	9119
492.967	7451
493.042	7096
493.117	7080
493.192	7883
493.267	10201
493.342	23311
493.418	28465
493.493	9064
493.568	7116
493.643	7162
493.718	9699
493.793	14091
493.868	11395
493.943	7702
494.018	7455
494.093	8019
494.168	7607
494.243	6259
494.318	7073
494.393	7164
494.468	6257
494.543	6489
494.618	6458
494.693	6588
494.768	6166
494.842	7027
494.917	5794
494.992	5272
495.067	6295
495.142	6204
495.217	5418
495.292	6976
495.366	8092
495.441	9532
495.516	11492
495.591	13656
495.665	29107
495.740	56123
495.815	24148
495.890	10553
495.964	8599
496.039	12804
496.114	9435
496.188	11563
496.263	10237
496.338	9584
496.412	10244
496.487	12672
496.561	10565
496.636	11369
496.710	9627
496.785	11137
496.860	13003
496.934	8736
497.009	9171
497.083	9303
497.158	10131
497.232	12375
497.307	14130
497.381	11064
497.455	14095
497.530	18005
497.604	12361
497.679	13241
497.753	19695
497.827	22115
497.902	15268
497.976	20818
498.050	56208
498.125	201636
498.199	170220
498.273	20094
498.348	13162
498.422	12227
498.496	11415
498.570	11428
498.645	11347
498.719	11759
498.793	15778
498.867	25609
498.941	33054
499.016	91324
499.090	219567
499.164	60942
499.238	10928
499.312	10833
499.386	10939
499.460	12127
499.534	10982
499.609	14726
499.683	22406
499.757	20589
499.831	45295
499.905	160777
499.979	128319
500.053	27414
500.127	23350
500.201	13091
500.275	11791
500.349	10865
500.422	12549
500.496	15611
500.570	28378
500.644	89485
500.718	162129
500.792	32255
500.866	13399
500.940	17813
501.013	14528
501.087	13110
501.161	18088
501.235	25708
501.309	69214
501.382	170222
501.456	120200
501.530	33448
501.603	61969
501.677	20122
501.751	10764
501.825	13955
501.898	28224
501.972	75150
502.046	38051
502.119	13477
502.193	33232
502.266	78651
502.340	32811
502.413	37946
502.487	69805
502.561	36537
502.634	11652
502.708	8770
502.781	7608
502.855	8933
502.928	6683
503.002	8437
503.075	7549
503.149	9439
503.222	8854
503.295	10087
503.369	12479
503.442	17163
503.516	57879
503.589	133009
503.662	74577
503.736	27012
503.809	65387
503.882	48303
503.956	76577
504.029	62839
504.102	48329
504.175	61945
504.249	22483
504.322	15830
504.395	12676
504.468	8908
504.542	9546
504.615	6740
504.688	7671
504.761	5745
504.834	9352
504.907	7633
504.980	9985
505.053	8646
505.127	7217
505.200	12753
505.273	12645
505.346	7606
505.419	6117
505.492	7035
505.565	5028
505.638	6563
505.711	6335
505.784	4991
505.857	5247
505.930	8154
506.003	5812
506.076	8242
506.149	10187
506.221	9819
506.294	11442
506.367	30400
506.440	96853
506.513	39669
506.586	12071
506.659	6381
506.731	6753
506.804	7041
506.877	7274
506.950	7734
507.022	6767
507.095	8479
507.168	10227
507.241	6525
507.313	4947
507.386	4934
507.459	6169
507.531	4558
507.604	4458
507.677	5760
507.749	3042
507.822	7748
507.894	8393
507.967	11244
508.040	6565
508.112	7088
508.185	6968
508.257	5133
508.330	9137
508.402	7033
508.475	7968
508.547	7464
508.620	9053
508.692	14180
508.765	7850
508.837	5969
508.909	6199
508.982	5848
509.054	6587
509.127	5420
509.199	4857
509.271	5082
509.344	5225
509.416	6191
509.488	5772
509.560	5609
509.633	5842
509.705	6186
509.777	6483
509.849	7531
509.922	5186
509.994	5480
510.066	6972
510.138	6204
510.210	12157
510.283	9491
510.355	8969
510.427	7629
510.499	7114
510.571	7115
510.643	6621
510.715	9550
510.787	6134
510.859	8408
510.931	8840
511.003	8789
511.076	9397
511.148	5523
511.219	7292
511.291	14845
511.363	16215
511.435	7570
511.507	5879
511.579	6410
511.651	6746
511.723	6483
511.795	5352
511.867	5386
511.939	8194
512.010	18285
512.082	12246
512.154	5255
512.226	6409
512.298	8957
512.369	11036
512.441	8400
512.513	8383
512.585	5650
512.656	7562
512.728	7792
512.800	5716
512.871	7213
512.943	6173
513.015	4105
513.086	6403
513.158	7408
513.230	5683
513.301	7981
513.373	8147
513.444	5687
513.516	5608
513.588	6316
513.659	6053
513.731	6046
513.802	4197
513.874	10610
513.945	12636
514.016	5526
514.088	6259
514.159	4763
514.231	7293
514.302	9362
514.374	8655
514.445	8126
514.516	21562
514.588	11968
514.659	9475
514.730	19380
514.802	10513
514.873	4613
514.944	7298
515.016	7929
515.087	6812
515.158	12856
515.229	18295
515.301	5445
515.372	6478
515.443	5514
515.514	6121
515.585	5382
515.656	6188
515.728	5582
515.799	4428
515.870	6010
515.941	5689
516.012	5600
516.083	7937
516.154	6588
516.225	9170
516.296	8855
516.367	6408
516.438	6125
516.509	6879
516.580	9009
516.651	22002
516.722	53625
516.793	29029
516.864	12684
516.935	13557
517.006	12620
517.077	14799
517.148	24703
517.219	46985
517.289	74034
517.360	91277
517.431	29791
517.502	9042
517.573	10235
517.643	9428
517.714	11026
517.785	9243
517.856	8941
517.926	10573
517.997	11306
518.068	9725
518.138	12518
518.209	13324
518.280	32685
518.350	93785
518.421	35299
518.492	12521
518.562	13422
518.633	15522
518.703	15015
518.774	32482
518.845	75994
518.915	65487
518.986	21985
519.056	15927
519.127	19603
519.197	31848
519.268	94723
519.338	53577
519.408	14906
519.479	12060
519.549	9730
519.620	9401
519.690	7466
519.760	7017
519.831	7257
519.901	8116
519.971	8536
520.042	8487
520.112	10012
520.182	9352
520.253	9099
520.323	7445
520.393	8947
520.463	12267
520.534	8082
520.604	16486
520.674	11199
520.744	10812
520.814	14829
520.885	16337
520.955	35157
521.025	112670
521.095	34788
521.165	9602
521.235	8417
521.305	6946
521.375	8021
521.445	7833
521.515	6816
521.585	8737
521.655	7183
521.725	7581
521.795	9743
521.865	5874
521.935	13868
522.005	9583
522.075	7164
522.145	8454
522.215	7687
522.285	13075
522.355	17854
522.424	33511
522.494	23086
522.564	9316
522.634	14016
522.704	29938
522.774	12686
522.843	6499
522.913	6586
522.983	7435
523.053	5991
523.122	6729
523.192	7523
523.262	15500
523.331	13385
523.401	7700
523.471	5256
523.540	6535
523.610	5231
523.680	5843
523.749	6693
523.819	8862
523.888	7597
523.958	5285
524.027	6522
524.097	7007
524.166	5978
524.236	5503
524.305	8591
524.375	5522
524.444	4935
524.514	8296
524.583	7217
524.653	8540
524.722	10487
524.791	6686
524.861	8191
524.930	5200
524.999	6107
525.069	9507
525.138	8734
525.207	10058
525.277	6843
525.346	5654
525.415	8121
525.484	7451
525.554	8617
525.623	10063
525.692	8830
525.761	8820
525.830	9641
525.900	11015
525.969	16895
526.038	26602
526.107	51254
526.176	140290
526.245	99466
526.314	34856
526.383	75640
526.452	91402
526.522	151636
526.591	130057
526.660	28107
526.729	16540
526.797	20159
526.867	35599
526.935	127208
527.004	264303
527.073	131906
527.142	17469
527.211	10776
527.280	10066
527.349	8521
527.418	5224
527.487	8650
527.555	5524
527.624	5228
527.693	5182
527.762	7149
527.831	3997
527.899	6215
527.968	5519
528.037	4737
528.106	5820
528.174	9656
528.243	9833
528.312	12507
528.380	11575
528.449	5909
528.518	7095
528.586	3264
528.655	5950
528.723	5978
528.792	5075
528.861	5625
528.929	4049
528.998	7109
529.066	5920
529.135	7093
529.203	7149
529.272	7618
529.340	10526
529.409	10330
529.477	8379
529.545	10349
529.614	12888
529.682	12396
529.751	13909
529.819	15226
529.887	12102
529.956	11371
530.024	11461
530.092	8860
530.161	10444
530.229	12028
530.297	10440
530.365	12310
530.434	10776
530.502	10743
530.570	11202
530.638	8271
530.707	10201
530.775	10509
530.843	9096
530.911	10292
530.979	10072
531.047	10632
531.115	11583
531.183	9300
531.252	9521
531.320	9987
531.388	8635
531.456	10761
531.524	8718
531.592	11593
531.660	13526
531.728	11066
531.796	10735
531.864	10251
531.932	11115
532.000	10238
532.067	11829
532.135	11860
532.203	13919
532.271	12732
532.339	16686
532.407	20258
532.475	16386
532.542	12761
532.610	14032
532.678	15221
532.746	34508
532.814	62315
532.881	22730
532.949	13053
533.017	11806
533.084	11197
533.152	11326
533.220	10321
533.287	10183
533.355	11644
533.423	12414
533.490	12026
533.558	11559
533.625	11260
533.693	11180
533.761	11404
533.828	11729
533.896	10094
533.963	15599
534.031	15334
534.098	17897
534.166	13274
534.233	11562
534.300	13544
534.368	13012
534.435	11454
534.503	11670
534.570	12752
534.637	11832
534.705	12728
534.772	14299
534.840	20215
534.907	69216
534.974	72610
535.041	14364
535.109	13015
535.176	9151
535.243	9980
535.310	9900
535.378	9353
535.445	9488
535.512	8714
535.579	10762
535.646	9268
535.714	9103
535.781	10538
535.848	10523
535.915	11893
535.982	10999
536.049	10343
536.116	11045
536.183	8691
536.250	8510
536.317	8630
536.384	9959
536.451	10580
536.518	10766
536.585	9170
536.652	11392
536.719	12051
536.786	8846
536.853	8625
536.920	12609
536.987	13909
537.053	12572
537.120	34553
537.187	27788
537.254	8877
537.321	8326
537.388	9483
537.454	7698
537.521	8623
537.588	7843
537.654	9749
537.721	10066
537.788	9150
537.855	8519
537.921	8177
537.988	8371
538.055	8966
538.121	7095
538.188	8272
538.254	10039
538.321	11372
538.388	9417
538.454	8098
538.521	9322
538.587	8095
538.654	8406
538.720	8316
538.787	8322
538.853	8822
538.920	9408
538.986	9470
539.053	8205
539.119	8750
539.185	7804
539.252	9146
539.318	9717
539.385	9968
539.451	8268
539.517	10064
539.583	10117
539.650	15528
539.716	27440
539.782	11558
539.849	7042
539.915	8932
539.981	7031
540.047	8035
540.114	8785
540.180	9743
540.246	7424
540.312	9251
540.378	11653
540.444	13861
540.510	14602
540.576	28761
540.643	12153
540.709	7120
540.775	8854
540.841	7591
540.907	10763
540.973	14172
541.039	10186
541.105	10339
541.171	8167
541.237	7638
541.303	8607
541.369	9691
541.435	9414
541.500	10356
541.566	7782
541.632	7615
541.698	7242
541.764	8707
541.830	7533
541.896	6692
541.961	8614
542.027	6761
542.093	8223
542.159	8247
542.224	7620
542.290	9869
542.356	10864
542.421	12089
542.487	9540
542.553	8291
542.618	9872
542.684	7865
542.750	7767
542.815	9883
542.881	13245
542.947	26834
543.012	19336
543.078	8316
543.143	6997
543.209	8964
543.274	7397
543.340	9949
543.405	13728
543.471	16575
543.536	9114
543.602	8984
543.667	7570
543.732	9579
543.798	7780
543.863	9194
543.928	7510
543.994	7352
544.059	8172
544.124	8326
544.190	7653
544.255	7846
544.320	8833
544.386	7300
544.451	9580
544.516	10236
544.581	9838
544.646	19433
544.712	26072
544.777	11127
544.842	11053
544.907	11991
544.972	10950
545.037	10519
545.102	11586
545.168	10668
545.233	12715
545.298	12769
545.363	13248
545.428	12801
545.493	16581
545.558	23091
545.623	14866
545.688	11439
545.753	11318
545.818	11438
545.883	13117
545.947	11558
546.012	13185
546.077	12760
546.142	13997
546.207	12230
546.272	13521
546.337	13836
546.401	13490
546.466	14079
546.531	13156
546.596	15509
546.661	15349
546.725	15782
546.790	14461
546.855	16803
546.919	17259
546.984	19478
547.049	19192
547.113	22873
547.178	22558
547.243	26327
547.307	30031
547.372	32371
547.436	32616
547.501	31274
547.565	34612
547.630	31986
547.695	32284
547.759	35286
547.823	31907
547.888	31335
547.952	32265
548.017	33596
548.081	36179
548.146	39467
548.210	37477
548.274	36073
548.339	35124
548.403	33702
548.468	30794
548.532	31733
548.596	31897
548.660	32222
548.725	35733
548.789	38932
548.853	38014
548.917	36774
548.982	38332
549.046	36053
549.110	30009
549.174	29333
549.238	33218
549.303	36244
549.367	37478
549.431	34476
549.495	33289
549.559	33153
549.623	38370
549.687	41877
549.751	44574
549.815	48250
549.879	49402
549.943	47168
550.007	49398
550.071	49235
550.135	45721
550.199	43620
550.263	41883
550.327	42620
550.391	45563
550.455	45666
550.519	47238
550.582	50570
550.646	56058
550.710	57454
550.774	55202
550.838	55233
550.901	56762
550.965	59504
551.029	62383
551.093	67549
551.156	73504
551.220	93473
551.284	94866
551.347	72701
551.411	87759
551.475	82138
551.538	61772
551.602	57493
551.666	54685
551.729	50862
551.793	50876
551.856	51136
551.920	49705
551.983	49054
552.047	48733
552.110	49279
552.174	49971
552.237	51488
552.301	48055
552.364	46283
552.428	45407
552.491	45468
552.554	48209
552.618	47009
552.681	48328
552.745	45964
552.808	47903
552.871	50599
552.934	49486
552.998	47543
553.061	47360
553.124	44771
553.187	46322
553.251	47610
553.314	48652
553.377	49365
553.440	54210
553.503	69281
553.567	82362
553.630	54872
553.693	51041
553.756	52329
553.819	50132
553.882	49614
553.945	49277
554.008	50109
554.071	50377
554.134	50614
554.197	47855
554.260	47984
554.323	50057
554.386	50061
554.449	51008
554.512	51350
554.575	48190
554.638	48809
554.701	48538
554.764	49234
554.827	46151
554.889	45362
554.952	43184
555.015	42041
555.078	42717
555.141	43592
555.203	42101
555.266	42466
555.329	43419
555.391	40178
555.454	40546
555.517	39638
555.580	37833
555.642	36948
555.705	35586
555.768	35815
555.830	35359
555.893	33698
555.955	33034
556.018	33820
556.080	33359
556.143	33591
556.206	33099
556.268	33213
556.330	31813
556.393	31573
556.455	31518
556.518	35003
556.580	31817
556.643	28382
556.705	27886
556.767	26452
556.830	27379
556.892	25882
556.955	27320
557.017	25837
557.079	26191
557.142	25179
557.204	24496
557.266	27639
557.328	25530
557.391	22496
557.453	22114
557.515	22582
557.577	22632
557.639	21805
557.701	20917
557.764	20173
557.826	21526
557.888	22971
557.950	22409
558.012	24367
558.074	28792
558.136	52090
558.198	101526
558.260	42057
558.322	22027
558.384	23159
558.446	23824
558.508	25512
558.570	29000
558.632	33723
558.694	43132
558.756	60789
558.818	158416
558.880	308837
558.942	112233
559.003	106260
559.065	51136
559.127	27584
559.189	26418
559.251	30661
559.312	39289
559.374	86622
559.436	229312
559.498	104364
559.559	29064
559.621	26224
559.683	31466
559.744	50674
559.806	127998
559.868	165346
559.929	40052
559.991	29640
560.052	43317
560.114	100898
560.176	62632
560.237	63094
560.299	86885
560.360	24889
560.422	17250
560.483	15968
560.545	15659
560.606	15200
560.667	14294
560.729	13889
560.790	14050
560.852	14508
560.913	14213
560.974	13405
561.036	12681
561.097	14071
561.158	13727
561.220	13637
561.281	12409
561.342	13559
561.403	14204
561.465	14133
561.526	19829
561.587	20986
561.648	13468
561.709	13270
561.771	13191
561.832	12772
561.893	12469
561.954	13233
562.015	12635
562.076	12529
562.137	13187
562.198	12333
562.259	13067
562.320	13230
562.381	12538
562.442	13409
562.503	13129
562.564	12791
562.625	12471
562.686	12357
562.747	11852
562.808	12199
562.869	13745
562.930	15297
562.991	14824
563.051	13662
563.112	13332
563.173	12561
563.234	12300
563.294	12625
563.355	11568
563.416	11809
563.477	12333
563.537	12467
563.598	12489
563.659	11578
563.720	11978
563.780	12895
563.841	11972
563.901	12596
563.962	12431
564.023	12521
564.083	12050
564.144	12927
564.204	11839
564.265	12112
564.325	14434
564.386	21934
564.446	17766
564.507	11644
564.567	11169
564.628	11462
564.688	12200
564.749	11780
564.809	13655
564.869	15088
564.930	11371
564.990	12666
565.050	10636
565.111	10965
565.171	11957
565.231	10935
565.292	11995
565.352	10620
565.412	11877
565.472	11189
565.532	11363
565.593	10987
565.653	10600
565.713	10642
565.773	11945
565.833	11087
565.893	12602
565.953	11739
566.013	11859
566.074	12086
566.134	14622
566.194	19811
566.254	18742
566.314	13846
566.374	11149
566.434	11723
566.494	10504
566.554	11742
566.614	11335
566.673	12136
566.733	11993
566.793	12507
566.853	12194
566.913	12209
566.973	12858
567.033	12770
567.092	11857
567.152	11544
567.212	12497
567.272	11931
567.331	12169
567.391	12211
567.451	12888
567.511	17253
567.570	15825
567.630	11859
567.690	11635
567.749	11196
567.809	11359
567.868	11730
567.928	11789
567.988	12719
568.047	11726
568.107	12253
568.166	13057
568.226	13639
568.285	15490
568.345	13931
568.404	14321
568.464	12573
568.523	12870
568.582	12607
568.642	11782
568.701	13595
568.761	14814
568.820	18377
568.879	18991
568.939	18806
568.998	14595
569.057	12602
569.116	12081
569.176	11756
569.235	10868
569.294	11177
569.353	11611
569.413	11569
569.472	10359
569.531	10478
569.590	10728
569.649	11351
569.708	10209
569.767	11328
569.827	11564
569.886	10933
569.945	10230
570.004	11738
570.063	10734
570.122	10972
570.181	11551
570.240	12977
570.299	12565
570.358	10820
570.417	11336
570.475	10514
570.534	11557
570.593	11337
570.652	10910
570.711	11028
570.770	10661
570.829	12108
570.887	10612
570.946	11523
571.005	10024
571.064	10973
571.122	11412
571.181	11393
571.240	11189
571.299	10497
571.357	12514
571.416	11697
571.475	12192
571.533	13242
571.592	11886
571.650	11992
571.709	11160
571.768	11992
571.826	11808
571.885	12300
571.943	10817
572.002	10832
572.060	10887
572.119	10187
572.177	10521
572.236	9747
572.294	10429
572.352	10776
572.411	10152
572.469	10694
572.528	10371
572.586	11054
572.644	11456
572.703	11683
572.761	10660
572.819	10179
572.877	10126
572.936	10473
572.994	10071
573.052	9909
573.110	10045
573.169	10281
573.227	10090
573.285	10463
573.343	9782
573.401	10323
573.459	10826
573.517	10317
573.576	9011
573.634	9796
573.692	10046
573.750	9888
573.808	9188
573.866	11185
573.924	13165
573.982	12093
574.040	10011
574.098	10570
574.155	9328
574.213	9482
574.271	9789
574.329	9452
574.387	9841
574.445	8997
574.503	9430
574.560	9141
574.618	8752
574.676	8322
574.734	8684
574.792	8776
574.849	8157
574.907	7665
574.965	9446
575.022	8426
575.080	7507
575.138	8624
575.195	8612
575.253	7932
575.311	8567
575.368	8738
575.426	7396
575.483	8500
575.541	9150
575.598	8883
575.656	9028
575.713	8561
575.771	8177
575.828	9419
575.886	8272
575.943	9141
576.001	8796
576.058	8977
576.115	9720
576.173	10276
576.230	10653
576.287	10690
576.345	9955
576.402	8845
576.459	9355
576.517	8814
576.574	10522
576.631	9929
576.688	9359
576.746	10118
576.803	9069
576.860	9714
576.917	9777
576.974	9366
577.031	9823
577.089	9770
577.146	9174
577.203	8915
577.260	9690
577.317	9242
577.374	10034
577.431	9721
577.488	8807
577.545	8733
577.602	8872
577.659	8813
577.716	9410
577.773	9978
577.830	8894
577.886	9179
577.943	8386
578.000	8541
578.057	9619
578.114	10986
578.171	10934
578.227	12994
578.284	11596
578.341	11022
578.398	9955
578.454	10355
578.511	10451
578.568	10741
578.625	8228
578.681	8084
578.738	8720
578.794	8566
578.851	10796
578.908	10105
578.964	9712
579.021	10063
579.077	9750
579.134	9276
579.190	8941
579.247	8800
579.303	8583
579.360	8287
579.416	9040
579.473	9036
579.529	8349
579.586	9325
579.642	9602
579.698	8950
579.755	10476
579.811	9577
579.867	9942
579.924	8674
579.980	8780
580.036	11963
580.093	12385
580.149	16864
580.205	17807
580.261	14094
580.317	12280
580.374	12747
580.430	12553
580.486	11809
580.542	9736
580.598	10209
580.619	10236
580.654	10288
580.692	10021
580.710	9897
580.765	10164
580.767	10176
580.823	10250
580.838	10446
580.879	10983
580.911	10549
580.935	10255
580.984	10026
580.991	9994
581.047	11158
581.057	11054
581.103	10622
581.130	11189
581.159	11805
581.203	12817
581.215	13064
581.270	12686
581.276	12583
581.326	11686
581.349	11430
581.382	11016
581.422	10931
581.438	10899
581.494	11551
581.494	11544
581.550	10980
581.567	11207
581.606	11719
581.640	11431
581.661	11270
581.713	12370
581.717	12451
581.773	11734
581.786	11688
581.829	11590
581.859	12090
581.885	12532
581.932	12540
581.940	12548
581.996	13498
582.004	13447
582.052	12985
582.077	12657
582.107	12327
582.150	12452
582.163	12484
582.219	12835
582.223	12783
582.274	12248
582.296	12276
582.330	12244
582.368	12897
582.386	13249
582.441	13014
582.441	13012
582.497	12626
582.514	12574
582.552	12749
582.587	13311
582.608	13497
582.659	13433
582.663	13429
582.719	14315
582.732	14088
582.774	13576
582.805	14240
582.830	14745
582.877	15126
582.885	15223
582.941	15571
582.950	15803
582.996	17053
583.023	17663
583.052	18349
583.095	19403
583.107	19662
583.162	20929
583.168	21020
583.218	21179
583.240	20043
583.273	18260
583.313	17575
583.328	17429
583.384	16341
583.385	16337
583.439	16116
583.458	15861
583.494	15303
583.531	14842
583.549	14760
583.603	14858
583.605	14858
583.660	14642
583.676	14752
583.715	15191
583.748	15267
583.770	15312
583.820	15235
583.825	15209
583.881	15354
583.893	15356
583.936	15409
583.965	15021
583.991	14882
584.038	15488
584.046	15515
584.101	15729
584.110	15564
584.156	15143
584.183	15718
584.211	16277
584.255	16302
584.266	16309
584.321	16257
584.328	16277
584.376	16792
584.400	17135
584.431	17396
584.472	16872
584.486	16741
584.541	17756
584.545	17744
584.596	17347
584.617	17466
584.651	18167
584.689	18943
584.706	19196
584.761	18686
584.762	18678
584.816	19050
584.834	19335
584.871	20109
584.906	19991
584.926	19840
584.978	20326
584.980	20371
585.035	20510
585.051	20858
585.090	21854
585.123	22102
585.145	22260
585.195	22509
585.200	22569
585.254	23638
585.267	24000
585.309	25547
585.340	26446
585.364	26956
585.412	28506
585.419	28827
585.473	31821
585.484	32480
585.528	36843
585.556	42455
585.583	52863
585.628	75067
585.637	83120
585.692	150460
585.700	161621
585.747	202542
585.772	180082
585.801	121754
585.845	57153
585.856	49247
585.910	33503
585.917	31901
585.965	28659
585.989	27342
586.019	26868
586.061	26748
586.074	26786
586.128	26650
586.133	26601
586.183	25833
586.205	25636
586.237	25839
586.277	25349
586.292	25285
586.346	26221
586.349	26184
586.401	25356
586.421	25317
586.455	25780
586.493	26471
586.509	27310
586.564	29930
586.565	30057
586.618	39482
586.637	39825
586.672	35506
586.709	30676
586.727	29253
586.781	28526
586.781	28563
586.835	26010
586.853	25859
586.889	25999
586.925	24961
586.944	24750
586.996	25552
586.998	25614
587.052	25935
587.068	26053
587.106	26527
587.140	26163
587.161	25804
587.212	25773
587.215	25891
587.269	27262
587.284	27469
587.323	27470
587.356	27723
587.377	27880
587.427	28320
587.431	28449
587.485	29500
587.499	29467
587.539	29187
587.571	29256
587.593	29772
587.643	31194
587.648	31383
587.702	32094
587.715	32333
587.755	32909
587.786	33181
587.810	33491
587.858	33470
587.864	33635
587.917	35962
587.930	36179
587.971	37112
588.001	37827
588.025	38448
588.073	39391
588.079	39671
588.133	41271
588.145	41720
588.187	43544
588.217	44594
588.241	46372
588.288	49694
588.295	50396
588.348	55745
588.360	56738
588.402	60454
588.431	63040
588.456	66452
588.503	73106
588.510	74482
588.564	84776
588.575	87006
588.617	99536
588.646	108609
588.671	121147
588.718	146774
588.725	154507
588.778	216963
588.789	230785
588.832	335448
588.861	411578
588.886	496924
588.932	664593
588.939	672292
588.993	681338
589.004	675389
589.047	552999
589.075	462580
589.100	376953
589.147	231268
589.154	223274
589.207	166644
589.218	155483
589.261	145900
589.290	140089
589.314	146266
589.361	160817
589.368	168673
589.421	235100
589.433	250036
589.475	375800
589.504	470205
589.528	536523
589.576	650882
589.582	640079
589.635	485868
589.647	449776
589.689	290214
589.718	186675
589.742	158485
589.790	106232
589.795	104368
589.849	86597
589.861	82641
589.902	77606
589.932	72437
589.955	67687
590.004	57625
590.009	57343
590.062	53347
590.075	52298
590.115	50316
590.146	48622
590.168	48312
590.218	46865
590.222	46918
590.275	46382
590.289	46063
590.328	46145
590.360	45866
590.381	45351
590.431	43852
590.435	43931
590.488	43213
590.503	42925
590.541	43744
590.574	44199
590.594	44117
590.645	43320
590.647	43428
590.700	43027
590.716	42804
590.753	43449
590.787	43869
590.806	43992
590.859	43799
590.859	43915
590.912	43076
590.930	42730
590.965	43697
591.001	44310
591.018	44491
591.071	44707
591.072	44576
591.124	44330
591.143	44047
591.177	44378
591.214	44544
591.230	45064
591.283	46391
591.285	46297
591.336	46131
591.356	45937
591.389	45677
591.427	44998
591.442	45036
591.495	44685
591.498	44528
591.547	44184
591.569	43848
591.600	44269
591.640	44439
591.653	44821
591.706	45989
591.711	45971
591.759	47057
591.782	47453
591.811	48364
591.853	49272
591.864	49237
591.917	48248
591.924	47961
591.969	48428
591.995	48463
592.022	48889
592.066	49287
592.075	49596
592.127	50550
592.137	50581
592.180	52667
592.208	53725
592.233	52703
592.279	50284
592.285	50470
592.338	50822
592.350	50731
592.390	49831
592.421	48937
592.443	49539
592.491	50346
592.495	50561
592.548	51387
592.562	51458
592.600	51561
592.633	51358
592.653	51270
592.704	50355
592.705	50663
592.775	51545
592.846	51726
592.916	52821
592.987	53670
593.058	54101
593.128	52425
593.199	54259
593.270	53563
593.341	53597
593.411	54635
593.482	55267
593.553	57693
593.623	55175
593.694	57966
593.764	59140
593.835	57566
593.906	57185
593.976	57700
594.047	60260
594.117	62653
594.188	63886
594.258	59599
594.329	61511
594.399	61523
594.470	62282
594.540	62900
594.611	64710
594.681	64087
594.751	65012
594.822	67105
594.892	68117
594.963	69001
595.033	71055
595.103	70869
595.174	72285
595.244	78526
595.314	83072
595.384	75500
595.455	75746
595.525	78999
595.595	79999
595.665	80899
595.736	79129
595.806	80774
595.876	80781
595.946	80604
596.016	83308
596.087	85346
596.157	87100
596.227	86284
596.297	89783
596.367	93892
596.437	100833
596.507	103360
596.577	106649
596.647	103113
596.717	104347
596.787	103308
596.857	104224
596.927	105658
596.997	106739
597.067	107816
597.137	111322
597.207	111808
597.277	111137
597.347	108020
597.417	106835
597.487	108542
597.557	109401
597.626	111196
597.696	113037
597.766	114815
597.836	114086
597.906	105923
597.975	103270
598.045	105784
598.115	108480
598.185	112963
598.254	124210
598.324	131738
598.394	132848
598.464	130836
598.533	129772
598.603	123873
598.672	121463
598.742	124940
598.812	124254
598.881	128265
598.951	126276
599.020	128498
599.090	132076
599.159	135676
599.229	131596
599.299	132247
599.368	135959
599.437	133815
599.507	129534
599.576	127179
599.646	129072
599.715	128716
599.785	127425
599.854	126899
599.924	129784
599.993	128447
600.062	131565
600.132	134384
600.201	139598
600.270	153515
600.340	159120
600.409	157963
600.478	157557
600.547	163567
600.617	157424
600.686	139727
600.755	134199
600.824	133208
600.894	133844
600.963	135316
601.032	138756
601.101	137869
601.170	136782
601.239	138145
601.308	141765
601.378	142506
601.447	145959
601.516	148285
601.585	152351
601.654	154527
601.723	156732
601.792	160405
601.861	165643
601.930	175354
601.999	178931
602.068	177442
602.137	178370
602.206	179161
602.275	182715
602.343	185123
602.412	187450
602.481	185418
602.550	186341
602.619	191198
602.688	190137
602.756	194636
602.825	192179
602.894	198373
602.963	196613
603.032	201077
603.100	199368
603.169	194847
603.238	203910
603.307	194709
603.375	196845
603.444	205489
603.513	191383
603.581	196700
603.650	206201
603.719	176743
603.787	168826
603.856	173134
603.924	177644
603.993	182682
604.061	185863
604.130	189943
604.198	195566
604.267	199416
604.335	204254
604.404	202765
604.472	208508
604.541	208169
604.609	214666
604.678	220005
604.746	223428
604.815	232214
604.883	226541
604.951	218600
605.020	225087
605.088	213634
605.156	203891
605.225	205351
605.293	203761
605.361	206294
605.429	203886
605.498	208853
605.566	208300
605.634	215768
605.702	217141
605.771	220720
605.839	226408
605.907	213426
605.975	220111
606.043	211426
606.111	205196
606.180	223156
606.248	205554
606.316	203217
606.384	215631
606.452	183209
606.520	160514
606.588	162578
606.656	160868
606.724	160183
606.792	151684
606.860	140214
606.928	129778
606.996	123825
607.064	122263
607.132	126775
607.200	131967
607.267	135291
607.335	138665
607.403	142172
607.471	137036
607.539	134293
607.607	133551
607.674	118560
607.742	119781
607.810	117708
607.878	117406
607.946	121184
608.013	124980
608.081	126712
608.149	128474
608.216	129460
608.284	135707
608.352	133649
608.419	131582
608.487	134800
608.555	127248
608.622	131508
608.690	136767
608.757	145301
608.825	149683
608.893	145114
608.960	139430
609.028	134767
609.095	137688
609.163	132317
609.230	121213
609.298	111572
609.365	117243
609.432	126384
609.500	135105
609.567	153163
609.635	172389
609.702	180065
609.769	172958
609.837	138942
609.904	118677
609.971	122328
610.039	129752
610.106	152395
610.173	229176
610.241	427576
610.308	309352
610.375	167848
610.442	132984
610.509	125185
610.577	124617
610.644	125284
610.711	130929
610.778	134049
610.845	137637
610.912	145874
610.980	152856
611.047	155121
611.114	151590
611.181	143635
611.248	143430
611.315	150064
611.382	153485
611.449	157593
611.516	159623
611.583	158955
611.650	159583
611.717	160245
611.784	162670
611.851	167689
611.918	172229
611.984	189110
612.051	232336
612.118	362129
612.185	680295
612.252	500327
612.319	230316
612.386	201224
612.452	187462
612.519	179879
612.586	181263
612.653	182096
612.719	186986
612.786	179395
612.853	168543
612.919	165526
612.986	167634
613.053	158547
613.120	150515
613.186	145139
613.253	148508
613.319	146783
613.386	146961
613.453	150647
613.519	152458
613.586	149497
613.652	156164
613.719	151870
613.785	153754
613.852	153832
613.918	151618
613.985	153994
614.051	160830
614.118	168911
614.184	163148
614.250	152175
614.317	154498
614.383	151813
614.449	155260
614.516	155263
614.582	156800
614.648	153520
614.715	151478
614.781	149975
614.847	149923
614.914	148700
614.980	146216
615.046	147861
615.112	150108
615.179	149373
615.245	152068
615.311	150817
615.377	153231
615.443	156257
615.509	155355
615.575	157886
615.642	157693
615.708	162248
615.774	166186
615.840	173160
615.906	176956
615.972	198516
616.038	253292
616.104	416377
616.170	760160
616.236	677344
616.302	289850
616.368	232139
616.434	189808
616.500	180819
616.565	186221
616.631	211830
616.697	194990
616.763	192628
616.829	241455
616.895	353472
616.961	346915
617.026	206300
617.092	167507
617.158	164312
617.224	159977
617.289	150644
617.355	147295
617.421	146641
617.487	147543
617.552	140002
617.618	140081
617.684	140345
617.749	140584
617.815	135312
617.880	131029
617.946	132480
618.012	137327
618.077	138697
618.143	134430
618.208	136386
618.274	143880
618.339	144241
618.405	125460
618.470	125030
618.536	126098
618.601	125774
618.667	119018
618.732	114524
618.798	113706
618.863	112635
618.928	111038
618.994	113484
619.059	113013
619.124	116181
619.190	114809
619.255	111844
619.320	113137
619.386	112755
619.451	110376
619.516	110373
619.581	112243
619.647	113482
619.712	114224
619.777	111644
619.842	111701
619.907	112305
619.972	114312
620.038	114741
620.103	111639
620.168	111599
620.233	113327
620.298	113348
620.363	115749
620.428	117675
620.493	119351
620.558	119896
620.623	121640
620.688	121074
620.753	120657
620.818	122289
620.883	122477
620.948	123013
621.013	120677
621.078	121029
621.143	121982
621.207	123664
621.272	122304
621.337	121456
621.402	121469
621.467	123153
621.532	123963
621.596	123426
621.661	118047
621.726	116514
621.791	119177
621.855	120401
621.920	119020
621.985	119894
622.049	123808
622.114	122556
622.179	123502
622.243	126530
622.308	127556
622.373	132323
622.437	127881
622.502	125649
622.566	124832
622.631	123766
622.695	126398
622.760	125725
622.824	124886
622.889	124496
622.953	125690
623.018	134148
623.082	134495
623.147	130254
623.211	127666
623.276	126621
623.340	123367
623.404	121096
623.469	121604
623.533	123639
623.597	120513
623.662	118951
623.726	114263
623.790	109294
623.854	107954
623.919	110162
623.983	108578
624.047	108290
624.111	109732
624.176	111798
624.240	112931
624.304	115427
624.368	110978
624.432	111241
624.496	113826
624.560	117819
624.625	117109
624.689	116839
624.753	119704
624.817	115387
624.881	111742
624.945	106373
625.009	104142
625.073	104280
625.137	107547
625.201	111498
625.265	112620
625.329	107868
625.393	107751
625.456	106259
625.520	108301
625.584	111431
625.648	116436
625.712	122972
625.776	147523
625.839	148023
625.903	105546
625.967	94280
626.031	105807
626.095	125978
626.158	102678
626.222	86235
626.286	82754
626.349	77498
626.413	75004
626.477	75957
626.540	75963
626.604	73781
626.668	75111
626.731	73444
626.795	74206
626.858	72106
626.922	71622
626.986	70725
627.049	69688
627.113	72856
627.176	70965
627.240	69512
627.303	68373
627.366	67784
627.430	67797
627.493	67595
627.557	66043
627.620	68695
627.684	70235
627.747	68165
627.810	63880
627.874	60748
627.937	59226
628.000	61590
628.064	60595
628.127	54430
628.190	54720
628.253	54484
628.317	51531
628.380	50864
628.443	50997
628.506	47777
628.569	47669
628.632	45179
628.696	45976
628.759	45246
628.822	43144
628.885	43571
628.948	43718
629.011	43579
629.074	42913
629.137	40729
629.200	41104
629.263	41234
629.326	39676
629.389	39875
629.452	39312
629.515	39197
629.578	38925
629.641	40140
629.704	39304
629.767	39309
629.830	38750
629.892	37851
629.955	35584
630.018	38945
630.081	37620
630.144	39232
630.207	36040
630.269	38920
630.332	37519
630.395	36634
630.458	34917
630.520	34214
630.583	36082
630.646	34980
630.708	34960
630.771	34544
630.834	36871
630.896	34728
630.959	35135
631.021	34345
631.084	36382
631.146	35319
631.209	36389
631.272	34112
631.334	34632
631.397	34380
631.459	33546
631.522	34657
631.584	35028
631.646	35431
631.709	36316
631.771	37761
631.834	35464
631.896	34322
631.958	32895
632.021	34638
632.083	32407
632.145	32671
632.208	32990
632.270	33401
632.332	32248
632.395	32417
632.457	33697
632.519	33017
632.581	33773
632.643	31349
632.706	32650
632.768	30832
632.830	33117
632.892	32568
632.954	31807
633.016	33248
633.078	31116
633.141	32234
633.203	30644
633.265	32625
633.327	30645
633.389	30715
633.451	32778
633.513	32073
633.575	34119
633.637	32025
633.698	32770
633.760	31776
633.822	33069
633.884	32368
633.946	33743
634.008	32419
634.070	33302
634.132	34318
634.193	33963
634.255	34707
634.317	35030
634.379	35444
634.441	33167
634.502	32206
634.564	31435
634.626	30450
634.687	29812
634.749	29674
634.811	30680
634.873	28279
634.934	28741
634.996	31086
635.057	29668
635.119	29310
635.181	29963
635.242	30397
635.304	28380
635.365	31601
635.427	29725
635.488	29614
635.550	28917
635.611	30368
635.673	28345
635.734	30968
635.796	29985
635.857	32333
635.918	31358
635.980	33992
636.041	32841
636.102	34592
636.164	35097
636.225	35012
636.286	31806
636.348	32175
636.409	29236
636.470	29186
636.531	28662
636.593	29212
636.654	29075
636.715	27791
636.776	27345
636.838	27775
636.899	28725
636.960	27180
637.021	27980
637.082	27322
637.143	27318
637.204	26221
637.265	25657
637.326	26192
637.387	28499
637.448	25949
637.509	26330
637.570	27168
637.631	27573
637.692	24939
637.753	25659
637.814	25907
637.875	25016
637.936	26171
637.997	25262
638.058	25996
638.119	26404
638.179	23975
638.240	23803
638.301	25378
638.362	24010
638.423	24080
638.483	25799
638.544	23274
638.605	24526
638.666	23805
638.726	25309
638.787	24989
638.848	24509
638.908	25130
638.969	23995
639.030	23070
639.090	23292
639.151	24379
639.211	24748
639.272	24931
639.332	27472
639.393	25403
639.453	24060
639.514	23940
639.574	23858
639.635	22649
639.695	23252
639.756	21638
639.816	22740
639.877	21733
639.937	25505
639.997	26097
640.058	21346
640.118	21598
640.178	22815
640.239	21826
640.299	21747
640.359	21622
640.420	22011
640.480	23831
640.540	23145
640.600	23952
640.661	24142
640.721	22868
640.781	25794
640.841	22935
640.901	23036
640.961	23394
641.021	23195
641.082	21455
641.142	23456
641.202	23642
641.262	20134
641.322	21806
641.382	20702
641.442	21676
641.502	21037
641.562	21247
641.622	21478
641.682	21322
641.742	21474
641.802	22171
641.861	21636
641.921	21336
641.981	21368
642.041	20630
642.101	21761
642.161	18796
642.221	20265
642.280	19631
642.340	19529
642.400	18988
642.460	21003
642.519	20430
642.579	20778
642.639	20333
642.698	19101
642.758	22225
642.818	21546
642.877	19648
642.937	21271
642.997	21186
643.056	22166
643.116	19116
643.175	22317
643.235	20371
643.294	21394
643.354	21889
643.414	21102
643.473	23687
643.532	24048
643.592	28585
643.651	37070
643.711	56170
643.770	97489
643.830	208272
643.889	384529
643.948	116677
644.008	34968
644.067	26396
644.126	22946
644.186	20854
644.245	21351
644.304	18333
644.363	21161
644.423	17844
644.482	19792
644.541	20448
644.600	18055
644.659	22579
644.719	23450
644.778	29810
644.837	41694
644.896	73882
644.955	147934
645.014	58657
645.073	25031
645.132	21079
645.191	20908
645.250	19949
645.309	20623
645.368	20848
645.427	24318
645.486	30859
645.545	44500
645.604	23074
645.663	19560
645.722	18870
645.781	19780
645.840	21068
645.898	22686
645.957	26666
646.016	34105
646.075	51254
646.134	91498
646.192	215887
646.251	294061
646.310	61670
646.369	27662
646.427	24652
646.486	21228
646.545	20015
646.603	18851
646.662	17449
646.721	17836
646.779	16565
646.838	17161
646.896	19151
646.955	22180
647.014	29341
647.072	45475
647.131	103665
647.189	53601
647.248	17601
647.306	17182
647.365	16015
647.423	13487
647.481	16807
647.540	14418
647.598	15935
647.657	14874
647.715	15382
647.773	14009
647.832	14818
647.890	13590
647.948	13376
648.007	15046
648.065	13461
648.123	13057
648.181	15012
648.240	16396
648.298	13351
648.356	14015
648.414	13818
648.472	13457
648.531	13459
648.589	13336
648.647	13033
648.705	13709
648.763	12474
648.821	13290
648.879	14095
648.937	13274
648.995	14377
649.053	15755
649.111	18581
649.169	27573
649.227	42858
649.285	80801
649.343	205234
649.401	101390
649.459	27803
649.516	20746
649.574	16507
649.632	21704
649.690	24079
649.748	19697
649.806	23991
649.863	39299
649.921	75495
649.979	52255
650.037	15435
650.094	11574
650.152	12751
650.210	10855
650.268	12822
650.325	12503
650.383	13572
650.440	11235
650.498	11220
650.556	11479
650.613	10792
650.671	10857
650.728	11673
650.786	11003
650.843	12578
650.901	10122
650.958	11380
651.016	10573
651.073	10534
651.131	9943
651.188	8787
651.246	10651
651.303	9661
651.360	10380
651.418	10057
651.475	9829
651.532	9411
651.590	10731
651.647	9308
651.704	9574
651.762	9236
651.819	9276
651.876	8442
651.933	9620
651.990	9279
652.048	7764
652.105	8872
652.162	10070
652.219	8500
652.276	9798
652.333	10261
652.390	7858
652.448	9515
652.505	9528
652.562	8331
652.619	9434
652.676	11933
652.733	13099
652.790	9188
652.847	7953
652.904	9238
652.961	7494
653.017	8172
653.074	8629
653.131	9153
653.188	8101
653.245	8674
653.302	8775
653.359	8971
653.415	9354
653.472	7159
653.529	8673
653.586	7882
653.642	7603
653.699	8474
653.756	7340
653.813	7834
653.869	7904
653.926	6608
653.983	7461
654.039	9101
654.096	7609
654.152	8870
654.209	7067
654.266	7986
654.322	7478
654.379	8654
654.435	8482
654.492	8634
654.548	8655
654.605	10407
654.661	8393
654.717	7783
654.774	8703
654.830	8378
654.887	8103
654.943	8060
655.000	9053
655.056	7964
655.112	7929
655.168	7449
655.225	7768
655.281	9134
655.337	9146
655.394	10644
655.450	9687
655.506	9056
655.562	10357
655.618	10234
655.675	7539
655.731	7767
655.787	7222
655.843	8348
655.899	6476
655.955	8421
656.011	8351
656.067	6985
656.123	7199
656.179	8148
656.235	8785
656.291	6178
656.347	8006
656.403	7095
656.459	7233
656.515	8012
656.571	7848
656.627	7481
656.683	7632
656.739	8017
656.795	6778
656.850	7686
656.906	7624
656.962	8263
657.018	7659
657.074	8908
657.129	9230
657.185	11280
657.241	19536
657.297	13050
657.352	8481
657.408	7310
657.464	9135
657.519	7954
657.575	6427
657.630	7737
657.686	7340
657.742	6819
657.797	7584
657.853	7599
657.908	8477
657.964	6108
658.019	7728
658.075	6929
658.130	8108
658.186	6296
658.241	7604
658.297	6189
658.352	6764
658.407	7548
658.463	6467
658.518	8073
658.573	7116
658.629	5829
658.684	7136
658.739	7272
658.795	5720
658.850	6863
658.905	6197
658.960	6623
659.016	6974
659.071	5968
659.126	7689
659.181	6577
659.236	9494
659.291	9255
659.346	6513
659.401	7991
659.457	8290
659.512	9024
659.567	8461
659.622	7011
659.677	6673
659.732	6346
659.787	6227
659.842	7549
659.897	8314
659.952	7019
660.007	8218
660.061	7512
660.116	6254
660.171	6120
660.226	6792
660.281	7216
660.336	7097
660.391	7304
660.445	6109
660.500	7075
660.555	7309
660.610	6702
660.664	7434
660.719	6570
660.774	7647
660.828	6866
660.883	6682
660.938	6378
660.992	6571
661.047	6493
661.101	6429
661.156	6091
661.211	6654
661.265	6549
661.320	6018
661.374	6439
661.429	6265
661.483	6951
661.538	5818
661.592	7005
661.647	7178
661.701	7053
661.755	6712
661.810	6960
661.864	5634
661.919	7518
661.973	6892
662.027	6449
662.081	6257
662.136	7398
662.190	6894
662.244	7512
662.299	6874
662.353	7189
662.407	6314
662.461	6409
662.515	7624
662.569	6206
662.624	6979
662.678	6470
662.732	5936
662.786	6101
662.840	6334
662.894	7046
662.948	6604
663.002	6133
663.056	6538
663.110	5467
663.164	5055
663.218	6304
663.272	6048
663.326	6109
663.380	6784
663.434	6316
663.488	6041
663.542	6670
663.595	6313
663.649	6392
663.703	7044
663.757	6499
663.811	5311
663.864	5813
663.918	6791
663.972	6309
664.026	6273
664.079	5231
664.133	6494
664.187	5770
664.240	5943
664.294	6290
664.348	6897
664.401	6349
664.455	6298
664.508	6483
664.562	6043
664.615	6257
664.669	5135
664.722	6561
664.776	5392
664.829	6124
664.883	6295
664.936	6041
664.990	6628
665.043	7622
665.097	6653
665.150	7799
665.203	6631
665.257	6497
665.310	6662
665.363	7528
665.417	6289
665.470	6769
665.523	6794
665.576	7457
665.630	6565
665.683	6941
665.736	5385
665.789	6496
665.842	5879
665.895	6213
665.949	6890
666.002	5858
666.055	6085
666.108	6716
666.161	5669
666.214	6536
666.267	7157
666.320	7234
666.373	6524
666.426	6599
666.479	5934
666.532	6956
666.585	7367
666.638	7068
666.691	6467
666.744	6947
666.796	6797
666.849	6106
666.902	6379
666.955	6986
667.008	6385
667.060	5729
667.113	5769
667.166	6002
667.219	6723
667.271	5751
667.324	6098
667.377	5982
667.430	6334
667.482	7172
667.535	6843
667.587	7221
667.640	6649
667.693	6351
667.745	7849
667.798	8357
667.850	6122
667.903	6931
667.955	6594
668.008	6474
668.060	6753
668.113	6882
668.165	7102
668.218	7345
668.270	6960
668.322	6602
668.375	6555
668.427	6261
668.479	5879
668.532	5948
668.584	6034
668.636	6499
668.689	6388
668.741	6696
668.793	6046
668.845	6305
668.898	7141
668.950	6097
669.002	5234
669.054	5897
669.106	6134
669.158	5951
669.211	6685
669.263	7601
669.315	8049
669.367	6863
669.419	6527
669.471	7317
669.523	6721
669.575	6932
669.627	7270
669.679	6218
669.731	6258
669.783	5805
669.835	7085
669.886	6685
669.938	6464
669.990	7030
670.042	6022
670.094	6526
670.146	7094
670.197	6597
670.249	7856
670.301	8274
670.353	10475
670.404	11692
670.456	15663
670.508	22463
670.560	35375
670.611	56855
670.663	98449
670.715	213892
670.766	297798
670.818	100106
670.869	26043
670.921	15400
670.972	11822
671.024	9270
671.075	8880
671.127	7988
671.178	7484
671.230	6791
671.281	7507
671.333	7154
671.384	7485
671.436	7673
671.487	9259
671.538	10689
671.590	13642
671.641	18961
671.692	29598
671.744	48393
671.795	35693
671.846	15722
671.897	9550
671.949	9662
672.000	6630
672.051	6391
672.102	6459
672.153	6202
672.204	6119
672.256	5887
672.307	6161
672.358	6542
672.409	5574
672.460	5461
672.511	5643
672.562	5159
672.613	4620
672.664	5701
672.715	5712
672.766	5333
672.817	5722
672.868	5002
672.919	5781
672.970	4389
673.021	5066
673.071	4730
673.122	6291
673.173	4508
673.224	5540
673.275	5275
673.326	5411
673.376	4511
673.427	5104
673.478	5850
673.528	5762
673.579	5603
673.630	5572
673.680	5418
673.731	5082
673.782	5267
673.832	5614
673.883	5218
673.934	5326
673.984	4497
674.035	5227
674.085	5132
674.136	5251
674.186	5640
674.237	6099
674.287	6889
674.338	4855
674.388	4983
674.438	4466
674.489	5044
674.539	5382
674.589	4894
674.640	4744
674.690	5000
674.740	5611
674.791	5905
674.841	5534
674.891	5012
674.942	4457
674.992	4665
675.042	3814
675.092	4244
675.142	4616
675.193	4087
675.243	3979
675.293	4950
675.343	4944
675.393	4001
675.443	5476
675.493	4899
675.543	3974
675.593	4746
675.643	4990
675.693	4921
675.743	4401
675.793	4563
675.843	3892
675.893	4606
675.943	5121
675.993	4254
676.043	5169
676.093	4616
676.142	4479
676.192	4754
676.242	4338
676.292	3490
676.341	4656
676.391	4419
676.441	4138
676.491	4039
676.540	3885
676.590	3914
676.640	4086
676.689	3237
676.739	3318
676.789	3844
676.838	4054
676.888	4284
676.937	3100
676.987	3108
677.037	3673
677.086	3927
677.136	3484
677.185	3888
677.235	3450
677.284	3124
677.333	2845
677.383	3200
677.432	3211
677.482	4000
677.531	3499
677.580	3900
677.630	4025
677.679	3341
677.728	3904
677.778	4313
677.827	3371
677.876	3383
677.925	3962
677.975	4471
678.024	3545
678.073	3855
678.122	4618
678.171	4196
678.220	4079
678.269	4796
678.319	4678
678.368	4497
678.417	3206
678.466	4423
678.515	4572
678.564	4212
678.613	4410
678.662	3224
678.711	3482
678.760	4055
678.809	3653
678.857	3481
678.906	4463
678.955	3386
679.004	4678
679.053	3431
679.102	4013
679.151	3778
679.199	4068
679.248	3496
679.297	3729
679.346	3817
679.394	3743
679.443	3753
679.492	3985
679.540	3744
679.589	4042
679.638	4305
679.686	3664
679.735	3923
679.784	3777
679.832	3120
679.881	3832
679.929	3236
679.978	2965
680.026	3210
680.075	3910
680.123	2609
680.172	3028
680.220	3123
680.268	3370
680.317	2872
680.365	2976
680.414	3186
680.462	3226
680.510	4045
680.559	3057
680.607	2680
680.655	3042
680.703	3499
680.752	3989
680.800	3350
680.848	3943
680.896	3183
680.945	3644
680.993	3458
681.041	2920
681.089	3087
681.137	3793
681.185	2851
681.233	3437
681.258	3315
681.281	3135
681.329	2526
681.377	3669
681.380	3740
681.425	3763
681.473	4671
681.502	4534
681.521	4325
681.569	3822
681.617	3362
681.624	3503
681.665	3894
681.713	4805
681.745	4557
681.761	4341
681.809	4680
681.857	4450
681.867	4754
681.904	5521
681.952	5420
681.989	5065
682.000	4884
682.048	4791
682.096	5670
682.111	5416
682.143	4662
682.191	6074
682.233	5982
682.239	5904
682.286	5306
682.334	5685
682.354	5986
682.382	6213
682.430	7312
682.476	6486
682.477	6411
682.525	6209
682.572	6839
682.598	6793
682.620	6639
682.667	6699
682.715	7337
682.720	7374
682.763	7190
682.810	7223
682.841	7767
682.857	7934
682.905	7112
682.952	7442
682.963	7481
683.000	7481
683.047	7924
683.085	8649
683.095	8760
683.142	8681
683.190	8580
683.206	8436
683.237	8052
683.284	9054
683.328	8774
683.332	8695
683.379	8824
683.426	8905
683.449	9164
683.473	9389
683.521	9444
683.568	9342
683.571	9395
683.615	9377
683.662	10423
683.693	9748
683.709	9291
683.757	9686
683.804	10374
683.814	10204
683.851	9441
683.898	10276
683.936	10655
683.945	10719
683.992	10562
684.039	10854
684.057	10848
684.086	10692
684.133	10910
684.179	10739
684.180	10695
684.227	11243
684.274	11634
684.300	11655
684.321	11540
684.368	11265
684.415	11775
684.422	11771
684.462	11649
684.509	11642
684.543	12349
684.556	12530
684.603	12453
684.649	12224
684.665	12221
684.696	12218
684.743	12334
684.786	13494
684.790	13556
684.837	13218
684.883	13672
684.908	13739
684.930	13800
684.977	14739
685.023	14677
685.029	14680
685.070	14083
685.117	14257
685.150	14042
685.164	14024
685.210	15089
685.257	15998
685.272	15765
685.303	15085
685.350	15400
685.393	14905
685.396	14831
685.443	14765
685.490	15703
685.514	15554
685.536	15429
685.583	15770
685.629	15156
685.636	15230
685.675	15531
685.722	15448
685.757	16078
685.768	16276
685.815	16224
685.861	16818
685.878	16833
685.908	16796
685.954	16299
686.000	16656
686.000	16648
686.047	17350
686.093	17601
686.121	17838
686.139	17836
686.185	17693
686.232	17897
686.242	17922
686.278	17879
686.324	17559
686.363	17019
686.370	16948
686.416	17591
686.463	17967
686.484	18107
686.509	18270
686.555	17520
686.601	17459
686.606	17583
686.647	18519
686.693	18308
686.727	18094
686.739	17962
686.785	17893
686.831	17341
686.848	17562
686.877	18157
686.923	18197
686.969	17910
686.969	17905
687.015	18253
687.061	18955
687.090	18776
687.107	18647
687.153	19229
687.199	19544
687.211	19519
687.245	19289
687.291	19026
687.332	19041
687.336	19086
687.382	19716
687.428	19609
687.453	19904
687.474	19887
687.520	19740
687.565	19996
687.574	19953
687.611	20257
687.657	20574
687.695	20650
687.702	20704
687.748	21952
687.794	22725
687.816	22813
687.839	22310
687.885	21426
687.931	20986
687.937	20855
687.976	20723
688.022	20336
688.058	20976
688.067	21167
688.113	21274
688.158	20788
688.179	21149
688.204	21494
688.249	21149
688.295	21488
688.300	21457
688.340	21746
688.386	22563
688.421	22549
688.431	22459
688.477	22251
688.522	22285
688.542	22288
688.567	22408
688.613	23014
688.658	23224
688.663	23156
688.703	22699
688.749	22717
688.784	22908
688.794	22977
688.839	22512
688.884	23426
688.905	23216
688.930	22934
688.975	23135
689.020	22846
689.026	22801
689.065	23040
689.110	23178
689.146	23486
689.155	23528
689.201	23494
689.246	23452
689.267	23491
689.291	23569
689.336	23540
689.381	23595
689.388	23597
689.426	23940
689.471	23851
689.509	24191
689.516	24235
689.561	23515
689.606	23673
689.630	23555
689.651	23591
689.696	23637
689.741	24213
689.750	24289
689.785	24850
689.830	24354
689.871	24576
689.875	24586
689.920	24814
689.965	24450
689.992	24198
690.010	24289
690.054	24769
690.099	25217
690.112	25250
690.144	25196
690.189	25014
690.233	24686
690.233	24718
690.278	25196
690.323	25806
690.354	25707
690.367	25713
690.412	25780
690.457	25942
690.474	25863
690.501	26076
690.546	26572
690.590	27583
690.595	27558
690.635	27797
690.680	28473
690.716	28976
690.724	29446
690.769	32000
690.813	34767
690.836	35918
690.857	38910
690.902	45384
690.946	52405
690.957	54068
690.991	70089
691.035	92996
691.077	113217
691.080	113156
691.124	104217
691.168	96156
691.198	91581
691.213	85842
691.257	67940
691.301	50786
691.318	43997
691.346	41514
691.390	37226
691.434	32972
691.439	32468
691.478	31942
691.522	31610
691.559	31093
691.567	31053
691.611	30663
691.655	29271
691.680	28874
691.699	29048
691.743	29518
691.787	29864
691.800	29845
691.831	29788
691.875	29864
691.919	29795
691.921	29746
691.964	30254
692.008	30356
692.041	30424
692.052	30332
692.096	30209
692.139	29931
692.162	29454
692.183	29250
692.227	29396
692.271	29243
692.282	29192
692.315	29393
692.359	29336
692.402	29711
692.403	29768
692.447	29274
692.490	29899
692.523	29676
692.534	29668
692.578	30003
692.622	29675
692.643	29733
692.666	29986
692.709	30287
692.753	29985
692.763	29995
692.797	30119
692.840	30502
692.884	30103
692.884	30162
692.928	30420
692.971	30709
693.004	30771
693.015	30854
693.059	31191
693.102	31256
693.124	31174
693.146	31461
693.189	32060
693.233	32805
693.245	32915
693.276	33636
693.320	34591
693.363	35427
693.365	35398
693.407	38157
693.450	40455
693.485	42442
693.493	43480
693.537	48604
693.580	53565
693.605	56555
693.624	63542
693.667	79751
693.710	96320
693.725	102202
693.753	131638
693.797	177924
693.840	224494
693.845	229272
693.883	214122
693.926	195825
693.966	180195
693.970	176731
694.013	137043
694.056	97739
694.086	70866
694.099	68444
694.142	59647
694.185	51035
694.206	47021
694.229	45602
694.272	42168
694.315	39130
694.326	38283
694.358	37725
694.401	36423
694.444	35359
694.446	35226
694.487	34976
694.530	34733
694.566	34480
694.573	34479
694.616	33648
694.659	33228
694.686	32900
694.702	33076
694.745	32967
694.787	33347
694.806	33239
694.830	33078
694.873	32810
694.916	32528
694.926	32426
694.959	32546
695.002	32507
695.044	32476
695.046	32399
695.087	32889
695.130	33336
695.166	33669
695.172	33728
695.215	33514
695.258	33438
695.286	33227
695.301	33422
695.343	33638
695.386	34226
695.406	34281
695.428	34345
695.471	34440
695.514	34481
695.526	34422
695.556	35389
695.599	36668
695.641	37814
695.646	37866
695.684	37173
695.726	36285
695.766	35370
695.769	35458
695.811	35451
695.854	35451
695.886	35494
695.896	35540
695.938	35153
695.981	34888
696.005	34607
696.023	35046
696.065	35980
696.108	36904
696.125	37206
696.150	37450
696.192	37558
696.235	37886
696.245	37823
696.277	38296
696.319	39020
696.361	39630
696.365	39591
696.404	39557
696.446	39255
696.485	38942
696.488	39033
696.530	38975
696.572	39046
696.604	38841
696.614	38807
696.656	38230
696.698	37833
696.724	37440
696.740	37564
696.783	37645
696.825	37737
696.844	37717
696.867	37895
696.909	38039
696.951	37905
696.964	37866
696.992	37985
697.034	37927
697.076	37792
697.083	37693
697.118	38338
697.160	39039
697.202	39539
697.203	39455
697.244	39473
697.286	39384
697.323	39199
697.327	39237
697.369	38637
697.411	38079
697.442	37553
697.453	37864
697.494	38767
697.536	39620
697.562	40094
697.578	40183
697.620	40072
697.661	39938
697.682	39818
697.703	40106
697.744	40448
697.786	40725
697.801	40754
697.828	40958
697.869	41017
697.911	41096
697.921	41019
697.952	40897
697.994	40555
698.035	40222
698.040	40079
698.077	39745
698.118	39213
698.160	38704
698.160	38600
698.201	39468
698.243	40238
698.279	40798
698.284	40986
698.325	41802
698.367	42575
698.399	43012
698.408	43052
698.449	42818
698.491	42511
698.518	42226
698.532	42391
698.573	42511
698.614	42669
698.638	42630
698.656	42950
698.697	43420
698.738	43933
698.757	44045
698.779	44089
698.820	43961
698.862	43830
698.877	43665
698.903	43836
698.944	43932
698.985	44014
698.996	43924
699.026	43740
699.067	43318
699.116	42703
699.235	43439
699.354	41507
699.474	41451
699.593	41992
699.713	42302
699.832	41387
699.951	42680
700.070	41719
700.190	41317
700.309	39557
700.428	39840
700.547	39609
700.667	39089
700.786	39662
700.905	38222
701.024	39671
701.143	38957
701.262	38621
701.381	38660
701.500	39649
701.619	38949
701.738	38178
701.857	37748
701.976	36495
702.095	37938
702.214	38995
702.333	38713
702.452	37602
702.571	37398
702.690	36953
702.809	37270
702.928	35533
703.047	36723
703.165	35276
703.284	35486
703.403	34908
703.522	34451
703.640	34904
703.759	36613
703.878	36527
703.997	34645
704.115	34582
704.234	34784
704.353	33534
704.471	33343
704.590	32648
704.708	33126
704.827	32103
704.946	32098
705.064	32390
705.183	33163
705.301	36622
705.420	44586
705.538	41451
705.656	37598
705.775	36438
705.893	44225
706.012	48181
706.130	38517
706.249	38638
706.367	37839
706.485	37114
706.604	37057
706.722	36209
706.840	40227
706.958	41921
707.077	39999
707.195	34902
707.313	35584
707.431	34452
707.549	34696
707.668	33028
707.786	34994
707.904	32586
708.022	35172
708.140	33202
708.258	32528
708.376	34130
708.494	33428
708.612	35885
708.730	44317
708.848	41121
708.966	39746
709.084	37063
709.202	36669
709.320	37334
709.438	38749
709.556	37720
709.674	36388
709.791	37443
709.909	35451
710.027	35139
710.145	35542
710.263	35156
710.380	36354
710.498	35194
710.616	34466
710.733	34316
710.851	34256
710.969	34564
711.086	33712
711.204	32689
711.322	34567
711.439	33609
711.557	33103
711.674	33090
711.792	33152
711.909	33234
712.027	34756
712.144	31745
712.262	32028
712.379	33882
712.497	42715
712.614	42451
712.732	39139
712.849	36279
712.966	36047
713.084	39040
713.201	38776
713.318	38246
713.436	38380
713.553	36722
713.670	36908
713.787	38465
713.905	38471
714.022	36143
714.139	36690
714.256	38557
714.373	42175
714.490	51183
714.608	87538
714.725	267171
714.842	272914
714.959	51026
715.076	38082
715.193	36121
715.310	34713
715.427	32040
715.544	32940
715.661	33473
715.778	32881
715.895	35067
716.011	33298
716.128	32376
716.245	32672
716.362	31933
716.479	31689
716.596	30441
716.713	31137
716.829	30098
716.946	31108
717.063	28881
717.180	30081
717.296	29982
717.413	29629
717.530	29780
717.646	28071
717.763	29129
717.880	28569
717.996	26566
718.113	27909
718.229	28462
718.346	26743
718.462	26857
718.579	28515
718.695	29039
718.812	30077
718.928	28961
719.045	27475
719.161	26737
719.277	26396
719.394	25657
719.510	28211
719.626	26704
719.743	31689
719.859	31384
719.975	42378
720.092	102471
720.208	208475
720.324	46706
720.440	29393
720.557	28253
720.673	28834
720.789	33225
720.905	47729
721.021	30116
721.137	25473
721.253	24952
721.369	24638
721.486	25560
721.602	29380
721.718	24598
721.834	23979
721.950	24540
722.066	23990
722.181	23608
722.297	24728
722.413	22933
722.529	22884
722.645	22592
722.761	23255
722.877	23092
722.993	22538
723.108	23100
723.224	23698
723.340	22922
723.456	22308
723.571	21880
723.687	21580
723.803	22637
723.918	22090
724.034	21493
724.150	21364
724.265	21056
724.381	28047
724.497	28616
724.612	21594
724.728	20305
724.843	20956
724.959	20815
725.074	26908
725.190	27862
725.305	21562
725.421	21062
725.536	20246
725.651	20519
725.767	20426
725.882	19662
725.997	20752
726.113	19838
726.228	19884
726.343	19961
726.459	19050
726.574	19089
726.689	19881
726.804	17724
726.920	20074
727.035	20380
727.150	19066
727.265	18244
727.380	19772
727.495	18437
727.610	18569
727.725	18358
727.841	20395
727.956	24160
728.071	21420
728.186	18827
728.301	17910
728.416	18812
728.531	18569
728.645	16274
728.760	17744
728.875	17567
728.990	17566
729.105	17873
729.220	17576
729.335	17354
729.449	17515
729.564	17141
729.679	18164
729.794	16974
729.908	18060
730.023	17113
730.138	16955
730.253	17416
730.367	17102
730.482	16965
730.596	17208
730.711	17498
730.826	19284
730.940	20482
731.055	18144
731.169	17328
731.284	18082
731.398	17872
731.513	19320
731.627	18329
731.742	20305
731.856	22126
731.970	20344
732.085	21663
732.199	25348
732.313	33569
732.428	65173
732.542	158693
732.656	100557
732.771	30954
732.885	24697
732.999	23928
733.113	24484
733.227	23698
733.342	22469
733.456	21986
733.570	22490
733.684	21418
733.798	22190
733.912	21448
734.026	21248
734.140	21251
734.254	21567
734.368	23722
734.482	25459
734.596	20086
734.710	21960
734.824	19843
734.938	20538
735.052	19879
735.166	20744
735.280	19635
735.393	19438
735.507	19393
735.621	21170
735.735	23095
735.849	20089
735.962	19108
736.076	20668
736.190	19607
736.303	20864
736.417	21622
736.531	20046
736.644	18963
736.758	19349
736.872	18484
736.985	19214
737.099	19299
737.212	18724
737.326	18742
737.439	18574
737.553	17269
737.666	18985
737.780	17187
737.893	18979
738.007	18253
738.120	18597
738.233	17273
738.347	18520
738.460	16716
738.573	17705
738.687	17136
738.800	17218
738.913	18228
739.026	18079
739.140	16713
739.253	17679
739.366	17706
739.479	17753
739.592	16400
739.705	16746
739.818	17696
739.932	17637
740.045	16773
740.158	17421
740.271	18303
740.384	18656
740.497	17130
740.610	17978
740.723	16408
740.836	17049
740.949	16903
741.062	18612
741.174	17018
741.287	17414
741.400	16353
741.513	16383
741.626	16691
741.739	16441
741.851	16355
741.964	16864
742.077	16403
742.189	16440
742.302	15451
742.415	16393
742.527	16201
742.640	16837
742.753	15562
742.865	15615
742.978	15071
743.090	15879
743.203	15274
743.316	16353
743.428	16119
743.541	16652
743.653	15553
743.766	15727
743.878	15035
743.990	16815
744.103	16061
744.215	15762
744.327	15256
744.440	17809
744.552	16974
744.664	15375
744.777	15577
744.889	15228
745.001	14971
745.113	15354
745.226	15011
745.338	14864
745.450	15190
745.562	16013
745.674	15329
745.786	16288
745.898	15250
746.010	15568
746.122	14366
746.234	15592
746.347	15445
746.459	15616
746.570	14178
746.682	16065
746.794	15917
746.906	15110
747.018	15064
747.130	15283
747.242	14854
747.354	15174
747.466	16152
747.577	14783
747.689	14247
747.801	15589
747.913	13594
748.024	14640
748.136	13527
748.248	13754
748.359	13533
748.471	15273
748.583	13488
748.694	14846
748.806	15537
748.918	14894
749.029	14576
749.141	14502
749.252	14835
749.364	14708
749.475	14811
749.587	14894
749.698	13800
749.809	14582
749.921	13829
750.032	13933
750.144	14175
750.255	14205
750.366	14539
750.478	14651
750.589	14000
750.700	14180
750.811	14389
750.923	14426
751.034	14638
751.145	15867
751.256	13220
751.367	13128
751.479	13738
751.590	13175
751.701	14323
751.812	13716
751.923	14381
752.034	14205
752.145	14174
752.256	14231
752.367	13939
752.478	13843
752.589	14167
752.700	15066
752.811	14696
752.922	13942
753.032	13871
753.143	15301
753.254	14168
753.365	14904
753.476	14552
753.586	13850
753.697	13436
753.808	14906
753.919	14063
754.029	15463
754.140	14705
754.251	14460
754.361	15704
754.472	15224
754.582	14428
754.693	14990
754.804	15214
754.914	15583
755.025	13232
755.135	14975
755.246	15057
755.356	14107
755.466	14265
755.577	17043
755.687	15174
755.798	15769
755.908	14633
756.018	16320
756.129	15306
756.239	16300
756.349	15877
756.460	16529
756.570	16375
756.680	16161
756.790	16171
756.900	16689
757.011	16906
757.121	15832
757.231	17008
757.341	16827
757.451	16314
757.561	17591
757.671	16932
757.781	17591
757.891	17548
758.001	17838
758.111	18243
758.221	19264
758.331	18540
758.441	18886
758.551	18221
758.661	20191
758.771	19609
758.880	20185
758.990	19897
759.100	20764
759.210	19832
759.320	21084
759.429	20157
759.539	21897
759.649	21787
759.758	22335
759.868	22164
759.978	22747
760.087	23053
760.197	23943
760.307	24463
760.416	23388
760.526	23784
760.635	24688
760.745	24784
760.854	24915
760.964	27039
761.073	28187
761.182	27697
761.292	28558
761.401	27996
761.511	27531
761.620	28415
761.729	30205
761.839	29847
761.948	31339
762.057	30723
762.166	33068
762.276	31683
762.385	35182
762.494	34750
762.603	36837
762.712	37384
762.822	39485
762.931	41009
763.040	42487
763.149	42394
763.258	44773
763.367	48093
763.476	49809
763.585	52266
763.694	54455
763.803	56023
763.912	60146
764.021	63345
764.130	66977
764.238	70384
764.347	75126
764.456	80316
764.565	86059
764.674	91540
764.783	101149
764.891	110918
765.000	121664
765.109	134516
765.217	151447
765.326	170146
765.435	196835
765.543	228571
765.652	265798
765.761	316514
765.869	381451
765.978	463739
766.086	564426
766.195	662560
766.303	680298
766.412	485400
766.520	511890
766.629	669746
766.737	638037
766.846	538835
766.954	444269
767.062	366880
767.171	304475
767.279	252961
767.387	213830
767.496	183735
767.604	160933
767.712	143818
767.820	129917
767.928	119308
768.037	111824
768.145	106611
768.253	103072
768.361	97315
768.469	100280
768.577	100365
768.685	105805
768.793	111398
768.901	123216
769.009	137684
769.117	161161
769.225	195345
769.333	246635
769.441	325069
769.549	440748
769.657	584488
769.765	625874
769.873	474814
769.981	593848
770.088	556206
770.196	437426
770.304	340053
770.412	271576
770.519	220226
770.627	184868
770.735	157761
770.842	137459
770.950	119283
771.058	105748
771.165	96958
771.273	88631
771.380	81719
771.488	77025
771.595	72983
771.703	66047
771.810	62758
771.918	58731
772.025	56813
772.133	54255
772.240	50426
772.348	50702
772.455	48332
772.562	45420
772.670	43409
772.777	41780
772.884	40662
772.991	39645
773.099	38013
773.206	37201
773.313	35839
773.420	35321
773.528	33271
773.635	32416
773.742	33321
773.849	31271
773.956	31132
774.063	30062
774.170	30321
774.277	30970
774.384	28072
774.491	29095
774.598	27523
774.705	26339
774.812	26099
774.919	26248
775.026	25721
775.133	25478
775.239	25130
775.346	23876
775.453	22513
775.560	23049
775.667	22378
775.773	23406
775.880	23216
775.987	21977
776.093	21796
776.200	22522
776.307	19548
776.413	21121
776.520	21762
776.627	21418
776.733	19976
776.840	18668
776.946	20637
777.053	19293
777.159	18946
777.266	17485
777.372	18044
777.478	18793
777.585	17360
777.691	18207
777.798	18373
777.904	17707
778.010	17152
778.117	17243
778.223	16317
778.329	16817
778.435	16128
778.542	16564
778.648	15395
778.754	16115
778.860	16160
778.966	15642
779.072	15483
779.178	15692
779.284	15135
779.391	15825
779.497	16444
779.603	21740
779.708	24111
779.815	44999
779.920	126685
780.026	205923
780.132	50144
780.238	21817
780.344	17065
780.450	17394
780.556	14658
780.661	14017
780.767	14721
780.873	13415
780.979	14136
781.085	13497
781.190	12098
781.296	12551
781.402	13444
781.507	12130
781.613	12771
781.719	12634
781.824	12268
781.930	12911
782.035	11724
782.141	12631
782.246	10847
782.352	11898
782.457	11011
782.563	12228
782.668	12070
782.773	12154
782.879	10859
782.984	11818
783.090	11621
783.195	11921
783.300	11501
783.405	11506
783.511	10387
783.616	11721
783.721	10829
783.826	10882
783.932	9874
784.037	11926
784.142	10852
784.247	10058
784.352	10288
784.457	10399
784.562	10440
784.667	10716
784.772	10358
784.877	8891
784.982	10368
785.087	9631
785.192	10541
785.297	9638
785.402	9237
785.507	9832
785.611	10249
785.716	9003
785.821	9754
785.926	10320
786.031	8883
786.135	9645
786.240	9873
786.345	7675
786.450	8168
786.554	9788
786.659	8100
786.763	8569
786.868	9404
786.973	9840
787.077	8075
787.182	8877
787.286	9210
787.391	9393
787.495	8032
787.600	8258
787.704	8018
787.809	9045
787.913	7993
788.017	9692
788.122	9746
788.226	9101
788.330	6840
788.435	8303
788.539	8883
788.643	8194
788.747	7499
788.852	8041
788.956	7817
789.060	9157
789.164	7558
789.268	6948
789.372	8206
789.476	7685
789.580	7406
789.684	7550
789.788	8333
789.892	8088
789.996	7583
790.100	7081
790.204	6881
790.308	8170
790.412	6923
790.516	7466
790.620	6902
790.724	8055
790.828	7404
790.931	7728
791.035	9002
791.139	8424
791.242	7317
791.346	8914
791.450	7553
791.554	7373
791.657	7013
791.761	7705
791.864	8696
791.968	8298
792.072	7232
792.175	7572
792.279	6127
792.382	7402
792.486	6285
792.589	7299
792.693	6682
792.796	6301
792.899	7070
793.003	7566
793.106	6076
793.209	7214
793.313	7557
793.416	4782
793.519	7517
793.623	8302
793.726	7705
793.829	6944
793.932	6965
794.035	6052
794.138	7959
794.242	9315
794.345	9063
794.448	12866
794.551	23539
794.654	73096
794.757	130755
794.860	31688
794.963	9946
795.066	8220
795.169	7947
795.272	6982
795.375	8181
795.477	6852
795.580	7339
795.683	5904
795.786	7055
795.889	6033
795.991	6885
796.094	6859
796.197	5497
796.300	8521
796.402	5939
796.505	5842
796.608	5117
796.710	6673
796.813	6254
796.915	5811
797.018	5997
797.120	6893
797.223	5086
797.326	7457
797.428	5145
797.530	5376
797.633	4891
797.735	6987
797.838	6189
797.940	7959
798.042	5175
798.145	6548
798.247	6337
798.349	4796
798.452	5734
798.554	5760
798.656	4504
798.758	6453
798.860	5014
798.962	4872
799.065	5448
799.167	5856
799.269	6230
799.371	6407
799.473	6853
799.575	5314
799.677	5934
799.779	6124
799.881	4346
799.983	6146
800.085	5235
800.187	6198
800.289	3966
800.390	4929
800.492	5600
800.594	5557
800.696	5026
800.798	5573
800.899	4486
801.001	5277
801.103	4898
801.205	4792
801.306	5463
801.408	5104
801.509	5242
801.611	5397
801.713	5129
801.814	4272
801.916	3987
802.017	5503
802.119	4000
802.220	4894
802.322	3707
802.423	6774
802.525	3864
802.626	5752
802.727	4292
802.829	5285
802.930	2735
803.031	5399
803.133	4359
803.234	5061
803.335	4865
803.436	4816
803.538	4138
803.639	4154
803.740	4472
803.841	3784
803.942	5195
804.043	5268
804.144	4426
804.245	4602
804.346	2944
804.447	4043
804.548	4428
804.649	5654
804.750	4272
804.851	4543
804.952	3794
805.053	4553
805.154	2841
805.255	5677
805.355	5274
805.456	4698
805.557	2864
805.658	3869
805.758	4623
805.859	4075
805.960	3682
806.061	3378
806.161	4653
806.262	4230
806.362	3674
806.463	4021
806.564	4194
806.664	4865
806.765	4714
806.865	4874
806.966	3759
807.066	3949
807.166	4770
807.267	5009
807.367	3834
807.468	4129
807.568	3099
807.668	4835
807.769	4313
807.869	4147
807.969	3899
808.069	4235
808.170	4235
808.270	4241
808.370	3896
808.470	3822
808.570	2988
808.670	4802
808.770	3890
808.870	2849
808.970	4179
809.070	3508
809.170	3748
809.271	3971
809.370	3350
809.470	4494
809.570	2533
809.670	3007
809.770	3990
809.870	4471
809.970	3382
810.070	4024
810.169	4054
810.269	2398
810.369	3516
810.469	4084
810.568	2919
810.668	3283
810.768	3089
810.867	3078
810.967	3082
811.066	3713
811.166	3545
811.265	4262
811.365	2815
811.464	3446
811.564	3572
811.663	3842
811.763	2360
811.862	3867
811.962	3564
812.061	3338
812.160	2777
812.260	3438
812.359	3565
812.458	3724
812.557	5162
812.657	7218
812.756	4849
812.855	3197
812.954	3221
813.053	4147
813.153	3143
813.252	2996
813.351	3619
813.450	3510
813.549	3032
813.648	3339
813.747	2978
813.846	4045
813.945	3810
814.044	3791
814.143	3306
814.242	4096
814.341	2212
814.439	4448
814.538	3723
814.637	3703
814.736	3482
814.835	4989
814.933	3171
815.032	4887
815.131	4207
815.229	6520
815.328	7960
815.427	6787
815.525	7276
815.624	6593
815.722	6610
815.821	6814
815.919	6376
816.018	5769
816.116	6687
816.215	6781
816.313	7289
816.412	7446
816.510	6989
816.609	9892
816.707	8111
816.805	7929
816.904	6654
817.002	7414
817.100	7584
817.198	8171
817.296	6940
817.395	7221
817.493	7699
817.591	7008
817.689	7460
817.787	7471
817.885	9175
817.983	9862
818.081	13435
818.179	25435
818.277	59957
818.375	52355
818.473	16582
818.571	10055
818.669	8084
818.767	9317
818.865	8399
818.963	9384
819.061	10288
819.158	12341
819.256	23093
819.354	45689
819.452	101730
819.549	67615
819.647	20734
819.745	10934
819.842	9225
819.940	9010
820.038	7421
820.135	5802
820.233	8060
820.330	6420
820.428	5863
820.525	8340
820.623	6059
820.720	5914
820.818	6317
820.915	7267
821.012	5924
821.110	5074
821.207	7071
821.304	6000
821.402	5939
821.499	6287
821.596	4893
821.693	5688
821.791	6431
821.888	6332
821.985	6558
822.082	4974
822.179	6091
822.276	6651
822.373	6500
822.470	5669
822.567	5739
822.664	5302
822.761	5595
822.858	5501
822.955	5165
823.052	5634
823.149	5658
823.246	5953
823.343	4626
823.440	5266
823.536	5055
823.633	5068
823.730	4569
823.827	5601
823.923	5376
824.020	5259
824.117	4718
824.213	5081
824.310	4939
824.407	5039
824.503	5086
824.600	5354
824.696	4434
824.793	6488
824.889	4942
824.986	4378
825.082	4603
825.179	4765
825.275	4885
825.371	5424
825.468	4690
825.564	2860
825.660	4454
825.757	6044
825.853	4777
825.949	3962
826.045	4746
826.142	4798
826.238	4659
826.334	5417
826.430	4230
826.526	4243
826.622	2611
826.718	4891
826.814	4331
826.910	5452
827.006	3226
827.102	3550
827.198	4075
827.294	5121
827.390	5153
827.486	5407
827.582	2093
827.678	2841
827.774	6002
827.869	4138
827.965	4301
828.061	2972
828.157	4096
828.252	4889
828.348	3831
828.444	4587
828.539	2712
828.635	4660
828.731	4650
828.826	4009
828.922	4360
829.017	4647
829.113	4769
829.208	3243
829.304	3227
829.399	5625
829.495	3531
829.590	4416
829.685	3072
829.781	4508
829.876	3777
829.971	3689
830.066	2500
830.162	3726
830.257	4590
830.352	3916
830.447	3865
830.543	4201
830.638	3419
830.733	4715
830.828	3235
830.923	4693
831.018	3524
831.113	4075
831.208	3048
831.303	2585
831.398	2146
831.493	3968
831.588	3996
831.683	2845
831.778	3301
831.873	3725
831.967	4605
832.062	4095
832.157	2578
832.252	3673
832.346	3757
832.441	4252
832.536	3439
832.631	5747
832.725	3757
832.820	3632
832.914	3232
833.009	3180
833.104	2301
833.198	3886
833.293	2991
833.387	3805
833.482	3221
833.576	3744
833.670	3879
833.765	3369
833.859	3043
833.954	4339
834.048	3098
834.142	3858
834.237	2125
834.331	3610
834.425	3870
834.519	2748
834.613	3054
834.708	3390
834.802	2467
834.896	2257
834.990	3791
835.084	3647
835.178	2761
835.272	3880
835.366	3177
835.460	4046
835.554	3669
835.648	3483
835.742	1870
835.836	3952
835.930	2077
836.024	3494
836.117	2879
836.211	3205
836.305	3240
836.399	4148
836.493	1644
836.586	3751
836.680	1878
836.774	1728
836.867	3031
836.961	2579
837.055	2271
837.148	2916
837.242	2594
837.335	2711
837.429	2586
837.522	2965
837.616	2723
837.709	4636
837.803	2792
837.896	4317
837.989	2948
838.083	4910
838.176	4073
838.269	3916
838.363	2796
838.456	2837
838.549	3259
838.642	3673
838.735	4362
838.829	3848
838.922	2084
839.015	2607
839.108	1539
839.201	3279
839.294	2561
839.387	3640
839.480	1894
839.573	3551
839.666	2790
839.759	2664
839.852	2665
839.945	2860
840.038	1770
840.131	2146
840.223	2108
840.316	3584
840.409	2902
840.502	2746
840.594	3279
840.687	2051
840.780	2231
840.873	2303
840.965	2003
841.058	3689
841.150	4297
841.243	3095
841.336	2906
841.428	1941
841.521	2149
841.613	2342
841.706	2282
841.798	2698
841.890	1880
841.983	1724
842.075	2378
842.167	2677
842.260	2522
842.352	4024
842.444	2910
842.537	4692
842.629	5531
842.721	2961
842.813	1253
842.905	2454
842.997	2842
843.090	3156
843.182	3288
843.274	2948
843.366	5631
843.458	12116
843.550	8654
843.642	2664
843.734	1673
843.826	2955
843.918	2244
844.009	3112
844.101	1416
844.193	2395
844.285	2242
844.377	2368
844.469	3057
844.560	1804
844.652	1769
844.744	2155
844.835	2315
844.927	2369
845.019	3295
845.110	2283
845.202	2904
845.293	2562
845.385	1579
845.476	2904
845.568	1990
845.659	2833
845.751	3309
845.842	2909
845.934	1530
846.025	1343
846.116	2423
846.208	3445
846.299	1736
846.390	1922
846.482	1970
846.573	3244
846.664	2971
846.755	3080
846.846	3263
846.937	1576
847.029	1956
847.120	2128
847.211	1355
847.302	2927
847.393	1412
847.484	2794
847.575	972
847.666	2228
847.757	1373
847.847	3149
847.938	3029
848.029	2916
848.120	2256
848.211	2229
848.302	1519
848.392	2215
848.483	3225
848.574	1704
848.664	2187
848.755	2108
848.846	1633
848.936	1705
849.027	1408
849.118	2855
849.208	1067
849.299	2571
849.389	2604
849.480	3913
849.570	5083
849.661	8722
849.751	14485
849.841	6983
849.932	1937
850.022	2931
850.112	2069
850.203	1892
850.293	2085
850.383	1297
850.474	1094
850.564	1509
850.654	2246
850.744	1635
850.834	1549
850.924	1928
851.014	2462
851.104	2330
851.194	2018
851.284	1787
851.374	1595
851.464	2386
851.554	1560
851.644	1922
851.734	3860
851.824	3860
851.914	3917
852.004	7840
852.094	6234
852.183	2653
852.273	1988
852.363	2646
852.452	1516
852.542	1652
852.632	1029
852.721	2587
852.811	1510
852.901	2544
852.990	2103
853.080	2629
853.169	1902
853.259	2607
853.348	1221
853.438	2706
853.527	2187
853.617	2861
853.706	4140
853.795	5484
853.885	11719
853.974	20014
854.063	32970
854.152	51374
854.242	22820
854.331	6214
854.420	3325
854.509	2998
854.598	3529
854.687	1859
854.777	2418
854.866	2081
854.955	1630
855.044	2499
855.133	1924
855.222	2428
855.311	1756
855.400	1536
855.488	1598
855.577	1690
855.666	1478
855.755	2369
855.844	1612
855.933	2290
856.021	2126
856.110	2365
856.199	1450
856.288	1960
856.376	1127
856.465	1546
856.554	1603
856.642	1906
856.731	1636
856.819	1912
856.908	2263
856.996	2145
857.085	1003
857.173	1834
857.262	2233
857.350	1914
857.438	692
857.527	1094
857.615	1468
857.703	2907
857.792	1580
857.880	2466
857.968	1403
858.056	1685
858.145	1954
858.233	2172
858.321	1440
858.409	2494
858.497	1153
858.585	1653
858.673	2100
858.761	1363
858.849	1367
858.937	705
859.025	1693
859.113	2707
859.201	612
859.289	3113
859.377	1132
859.465	1927
859.552	682
859.640	1833
859.728	1582
859.816	2136
859.903	528
859.991	1383
860.079	1944
860.166	2097
860.254	989
860.342	1394
860.429	1085
860.517	1793
860.604	2402
860.692	1546
860.779	886
860.867	2143
860.954	1030
861.042	2834
861.129	1877
861.216	1970
861.304	1441
861.391	2575
861.478	1095
861.565	1695
861.653	1301
861.740	1602
861.827	565
861.914	1411
862.001	902
862.089	1935
862.176	1688
862.263	1776
862.350	1354
862.437	1994
862.524	1142
862.611	1717
862.698	1671
862.785	2543
862.871	1802
862.958	1480
863.045	1652
863.132	2132
863.219	1703
863.306	2240
863.392	1601
863.479	1500
863.566	1524
863.652	2487
863.739	620
863.826	2294
863.912	1388
863.999	2180
864.086	1553
864.172	2512
864.259	2189
864.345	2070
864.432	2042
864.518	3143
864.604	1329
864.691	2399
864.777	1573
864.863	2897
864.950	3151
865.036	3432
865.122	6509
865.209	7040
865.295	5259
865.381	5715
865.467	4812
865.553	5304
865.639	6116
865.726	6398
865.812	8389
865.898	13960
865.984	17847
866.070	30746
866.156	33147
866.242	13363
866.328	6358
866.414	5494
866.499	4715
866.585	5115
866.671	4134
866.757	5294
866.843	4904
866.928	4887
867.014	4822
867.100	4435
867.186	4841
867.271	5406
867.357	4996
867.442	5379
867.528	4241
867.614	4760
867.699	4357
867.785	5196
867.870	4755
867.956	4921
868.041	5195
868.127	4858
868.212	4168
868.297	4373
868.383	4034
868.468	5103
868.553	5172
868.639	5787
868.724	6541
868.809	6239
868.894	3502
868.979	4221
869.065	3966
869.150	3488
869.235	4059
869.320	3908
869.405	3253
869.490	3906
869.575	4188
869.660	3353
869.745	4021
869.830	4128
869.915	3423
870.000	3817
870.085	3585
870.169	5038
870.254	3882
870.339	3427
870.424	3151
870.509	4227
870.593	3876
870.678	3883
870.763	2747
870.847	3820
870.932	3065
871.016	4524
871.101	2480
871.186	3014
871.270	4195
871.355	2505
871.439	3062
871.523	4160
871.608	3055
871.692	3334
871.777	4140
871.861	4578
871.945	3467
872.030	4989
872.114	2821
872.198	3216
872.282	2747
872.367	2631
872.451	2899
872.535	2850
872.619	3202
872.703	3230
872.787	3078
872.871	4217
872.955	2630
873.039	2623
873.123	2149
873.207	4715
873.291	2512
873.375	2783
873.459	3160
873.543	3422
873.627	2446
873.711	3273
873.794	2689
873.878	3251
873.962	1607
874.045	3157
874.129	2728
874.137	2765
874.213	3143
874.245	2805
874.296	2255
874.352	2632
874.380	2817
874.460	2164
874.464	2139
874.547	3332
874.568	3029
874.631	2116
874.676	2679
874.714	3159
874.784	2627
874.798	2525
874.881	3444
874.892	3217
874.965	1649
874.999	2167
875.048	2896
875.107	2561
875.131	2404
875.215	2767
875.215	2766
875.298	2273
875.323	2182
875.381	1955
875.430	2568
875.465	3023
875.538	2986
875.548	2971
875.631	1687
875.646	1836
875.714	2529
875.753	1974
875.798	1365
875.861	2771
875.881	3215
875.964	2067
875.968	2083
876.047	2270
876.076	2026
876.130	1713
876.183	2527
876.213	2928
876.291	2447
876.296	2416
876.379	2093
876.398	2003
876.462	1663
876.506	1598
876.545	1544
876.613	1908
876.628	1990
876.711	1891
876.721	1960
876.794	2614
876.828	2566
876.877	2356
876.935	2049
876.960	1964
877.043	1371
877.043	1374
877.125	2063
877.150	2285
877.208	2828
877.258	1839
877.291	1179
877.365	1706
877.374	1760
877.456	1804
877.472	1807
877.539	1754
877.579	2049
877.622	2406
877.687	2428
877.704	2457
877.787	1853
877.794	1924
877.869	2624
877.901	2471
877.952	2105
878.008	2311
878.034	2467
878.115	1369
878.117	1345
878.199	1190
878.222	1328
878.282	1815
878.329	2196
878.364	2361
878.437	1951
878.447	1913
878.529	1878
878.544	1873
878.611	1635
878.651	1750
878.694	2095
878.758	1724
878.776	1554
878.858	1963
878.865	1930
878.941	1378
878.972	1385
879.023	1430
879.078	1083
879.105	1085
879.185	2236
879.187	2250
879.269	1328
879.292	1542
879.351	2011
879.399	1546
879.433	1231
879.506	1566
879.516	1653
879.598	1752
879.613	1673
879.680	837
879.720	886
879.762	1228
879.827	1760
879.844	1777
879.926	1192
879.933	1247
880.007	2269
880.040	2032
880.089	1416
880.147	1508
880.171	1593
880.253	1523
880.254	1522
880.335	1119
880.360	1272
880.417	1969
880.467	2361
880.499	2359
880.574	2253
880.580	2258
880.662	1972
880.680	1723
880.744	815
880.787	1272
880.825	1675
880.893	839
880.907	678
880.989	1349
881.000	1388
881.070	1805
881.106	1705
881.152	1234
881.213	739
881.233	812
881.315	1776
881.319	1788
881.396	1344
881.426	1312
881.478	1287
881.532	1449
881.559	1638
881.639	1415
881.641	1402
881.722	1473
881.745	1342
881.803	1131
881.852	1092
881.885	1033
881.958	1438
881.966	1477
882.047	1047
882.064	1038
882.129	1270
882.171	1299
882.210	1149
882.277	1484
882.291	1564
882.372	1909
882.383	1850
882.454	1518
882.489	1443
882.535	1301
882.596	1347
882.616	1303
882.697	757
882.702	728
882.778	833
882.808	884
882.859	791
882.914	1026
882.940	1061
883.020	915
883.021	917
883.102	1472
883.127	1449
883.183	1270
883.233	1411
883.264	1454
883.339	1055
883.345	1007
883.426	501
883.445	478
883.507	673
883.551	920
883.587	1147
883.657	1257
883.668	1249
883.749	1368
883.763	1308
883.830	885
883.869	734
883.910	792
883.975	1109
883.991	1092
884.072	930
884.081	885
884.152	1002
884.187	1239
884.233	1435
884.292	1211
884.314	1047
884.394	799
884.398	772
884.475	587
884.504	742
884.555	1074
884.610	1093
884.636	978
884.716	1291
884.716	1294
884.797	1527
884.821	1627
884.877	1462
884.927	891
884.958	580
885.033	596
885.038	638
885.118	714
885.139	982
885.199	1133
885.244	852
885.279	848
885.350	1084
885.359	1098
885.439	1174
885.456	1136
885.520	1132
885.561	1049
885.600	791
885.667	733
885.680	775
885.760	861
885.773	900
885.840	978
885.878	855
885.920	732
885.984	924
886.000	930
886.080	510
886.089	500
886.160	884
886.195	967
886.240	885
886.300	920
886.320	1001
886.400	1106
886.406	1121
886.480	687
886.511	499
886.560	553
886.616	687
886.640	722
886.720	764
886.722	764
886.800	1072
886.827	1183
886.879	774
886.932	520
886.959	841
887.038	1626
887.039	1625
887.119	1516
887.143	1445
887.198	1606
887.248	1935
887.278	1551
887.354	385
887.358	414
887.437	1067
887.459	1216
887.517	1149
887.564	1286
887.596	1197
887.669	748
887.676	742
887.755	881
887.774	845
887.835	714
887.880	771
887.914	635
887.985	203
887.994	278
888.073	1147
888.090	1298
888.153	1113
888.195	979
888.232	1040
888.300	1267
888.311	1226
888.391	915
888.405	832
888.470	834
888.510	904
888.549	824
888.615	749
888.628	788
888.708	1001
888.720	1018
888.787	668
888.825	507
888.866	540
888.930	589
888.945	562
889.024	522
889.035	506
889.103	1424
889.140	1943
889.182	1483
889.245	789
889.261	771
889.340	733
889.349	725
889.419	605
889.454	574
889.498	928
889.559	1421
889.577	1265
889.656	589
889.664	528
889.735	766
889.768	885
889.814	860
889.873	826
889.978	315
890.083	1079
890.187	1055
890.292	871
890.397	671
890.501	366
890.606	564
890.710	541
890.815	1404
890.919	848
891.024	529
891.128	992
891.233	904
891.337	387
891.442	537
891.546	655
891.650	307
891.755	444
891.859	2013
891.963	420
892.068	1299
892.172	1189
892.276	1071
892.380	489
892.484	730
892.589	803
892.693	785
892.797	12
892.901	960
893.005	673
893.109	1317
893.213	1487
893.317	581
893.421	927
893.525	1249
893.629	317
893.733	328
893.837	554
893.941	843
894.045	1064
894.148	127
894.252	2194
894.356	864
894.460	187
894.564	232
894.667	267
894.771	276
894.875	653
894.978	1221
895.082	169
895.186	1236
895.289	593
895.393	462
895.496	538
895.600	469
895.703	-47
895.807	927
895.910	435
896.014	548
896.117	614
896.221	865
896.324	147
896.427	580
896.531	150
896.634	873
896.737	617
896.840	561
896.944	28
897.047	674
897.150	698
897.253	517
897.356	-524
897.460	428
897.563	-33
897.666	178
897.769	623
897.872	319
897.975	508
898.078	548
898.181	207
898.284	610
898.387	356
898.490	1371
898.593	428
898.695	-165
898.798	-324
898.901	2031
899.004	240
899.107	292
899.209	-470
899.312	652
899.415	386
899.518	-398
899.620	293
899.723	-281
899.826	605
899.928	1735
900.031	-118
900.133	741
900.236	821
900.338	796
900.441	471
900.543	753
900.646	311
900.748	413
900.851	749
900.953	1000
901.055	344
901.158	86
901.260	448
901.362	-109
901.465	-886
901.567	639
901.669	775
901.771	123
901.873	-122
901.976	172
902.078	266
902.180	575
902.282	-164
902.384	77
902.486	215
902.588	15
902.690	-81
902.792	-35
902.894	242
902.996	635
903.098	485
903.200	544
903.302	680
903.404	470
903.505	-123
903.607	1014
903.709	127
903.811	1212
903.913	743
904.014	40
904.116	-194
904.218	-260
904.319	730
904.421	1146
904.523	237
904.624	156
904.726	-249
904.827	68
904.929	77
905.030	273
905.132	-50
905.233	267
905.335	-421
905.436	185
905.537	-242
905.639	-28
905.740	-600
905.841	845
905.943	232
906.044	1368
906.145	748
906.247	-134
906.348	479
906.449	-48
906.550	453
906.651	17
906.752	-16
906.854	21
906.955	496
907.056	-322
907.157	148
907.258	657
907.359	1057
907.460	425
907.561	-265
907.662	614
907.762	164
907.863	332
907.964	126
908.065	1324
908.166	269
908.267	207
908.367	52
908.468	289
908.569	288
908.670	867
908.770	444
908.871	433
908.971	75
909.072	373
909.173	-24
909.273	31
909.374	56
909.474	570
909.575	-156
909.675	-686
909.776	649
909.876	152
909.977	1266
910.077	-50
910.177	317
910.278	713
910.378	-576
910.478	-110
910.579	-393
910.679	1011
910.779	472
910.879	430
910.980	50
911.080	414
911.180	-913
911.280	604
911.380	-44
911.480	163
911.580	178
911.680	813
911.780	-224
911.880	363
911.980	26
912.080	617
912.180	515
912.280	342
912.380	-106
912.480	854
912.580	-133
912.679	42
912.779	597
912.879	218
912.979	-359
913.078	-186
913.178	-200
913.278	621
913.377	-128
913.477	415
913.577	-271
913.676	595
913.776	-97
913.875	492
913.975	136
914.074	254
914.174	-138
914.273	-290
914.373	469
914.472	291
914.572	-42
914.671	-146
914.770	-224
914.870	517
914.969	-530
915.068	172
915.167	268
915.267	342
915.366	-313
915.465	153
915.564	725
915.663	738
915.763	589
915.862	-122
915.961	409
916.060	-520
916.159	-394
916.258	-640
916.357	-175
916.456	481
916.555	128
916.654	26
916.752	-135
916.851	516
916.950	-392
917.049	-240
917.148	-759
917.247	501
917.345	166
917.444	-253
917.543	106
917.642	538
917.740	192
917.839	-4
917.937	1439
918.036	1088
918.135	130
918.233	236
918.332	189
918.430	306
918.529	120
918.627	-84
918.726	431
918.824	10
918.923	381
919.021	627
919.119	-581
919.218	-334
919.316	646
919.414	302
919.512	141
919.611	705
919.709	378
919.807	661
919.905	1000
920.003	433
920.102	262
920.200	421
920.298	-65
920.396	36
920.494	808
920.592	189
920.690	383
920.788	936
920.886	66
920.984	545
921.082	536
921.180	1177
921.277	406
921.375	1222
921.473	908
921.571	812
921.669	864
921.766	176
921.864	405
921.962	1441
922.060	1360
922.157	1096
922.255	148
922.352	838
922.450	951
922.548	291
922.645	1114
922.743	1221
922.840	1576
922.938	2229
923.035	1742
923.133	2245
923.230	2157
923.327	2698
923.425	2782
923.522	2147
923.619	2010
923.717	2599
923.814	1899
923.911	1895
924.008	2520
924.106	1412
924.203	1149
924.300	1482
924.397	1884
924.494	3093
924.591	1870
924.688	1738
924.786	1703
924.883	1929
924.979	1454
925.077	1472
925.173	2068
925.270	1490
925.367	1523
925.464	2651
925.561	2222
925.658	2387
925.755	1641
925.852	1982
925.948	2027
926.045	1752
926.142	2170
926.239	1842
926.335	909
926.432	1689
926.529	2177
926.625	2155
926.722	1519
926.818	1341
926.915	1791
927.011	1648
927.108	2081
927.204	1748
927.301	1898
927.397	1519
927.494	2198
927.590	1266
927.687	2253
927.783	1779
927.879	1699
927.976	1839
928.072	1615
928.168	1752
928.264	1131
928.361	1090
928.457	2334
928.553	1228
928.649	1088
928.745	3207
928.841	1545
928.937	1873
929.033	1713
929.129	1902
929.225	1861
929.321	1970
929.417	811
929.513	1513
929.609	1377
929.705	253
929.801	1195
929.897	1298
929.993	832
930.089	1485
930.184	1421
930.280	1648
930.376	2225
930.471	982
930.567	1293
930.663	1074
930.758	1033
930.854	1054
930.950	754
931.045	1608
931.141	885
931.236	1758
931.332	1321
931.427	1106
931.523	1426
931.618	1845
931.714	706
931.809	1597
931.905	1443
932.000	1374
932.095	498
932.191	681
932.286	764
932.381	1205
932.476	909
932.572	1182
932.667	1432
932.762	1118
932.857	1448
932.952	1346
933.047	1309
933.142	358
933.237	416
933.332	1309
933.427	1106
933.522	1472
933.617	557
933.712	1263
933.807	789
933.902	1188
933.997	1903
934.092	1317
934.187	744
934.282	449
934.376	687
934.471	1612
934.566	727
934.661	1581
934.755	934
934.850	1590
934.945	571
935.039	283
935.134	560
935.228	1011
935.323	1285
935.417	1265
935.512	-99
935.606	63
935.701	871
935.795	1170
935.890	1216
935.984	352
936.079	1079
936.173	933
936.267	729
936.362	255
936.456	879
936.550	1003
936.644	1219
936.738	823
936.833	329
936.927	936
937.021	579
937.115	498
937.209	293
937.303	1985
937.397	187
937.491	522
937.585	173
937.679	1391
937.773	305
937.867	882
937.961	286
938.055	924
938.149	1166
938.243	-96
938.337	946
938.430	45
938.524	985
938.618	893
938.712	677
938.805	901
938.899	125
938.993	1410
939.086	359
939.180	222
939.274	6
939.367	3
939.461	1022
939.554	308
939.648	-251
939.741	5
939.835	1242
939.928	1158
940.022	864
940.115	2
940.208	-237
940.302	1617
940.395	865
940.488	196
940.582	260
940.675	1190
940.768	287
940.861	933
940.954	1075
941.048	28
941.141	379
941.234	-262
941.327	-245
941.420	877
941.513	647
941.606	519
941.699	109
941.792	928
941.885	385
941.978	692
942.071	-186
942.164	449
942.257	120
942.349	906
942.442	760
942.535	168
942.628	500
942.721	546
942.813	-1100
942.906	640
942.999	550
943.091	-192
943.184	397
943.277	-508
943.369	20
943.462	139
943.554	-104
943.647	-9
943.739	837
943.832	1224
943.924	-637
944.017	238
944.109	-393
944.201	-69
944.294	-75
944.386	259
944.478	-576
944.571	541
944.663	-19
944.755	19
944.847	-7
944.940	61
945.032	-841
945.124	679
945.216	366
945.308	569
945.400	725
945.492	327
945.584	871
945.676	-156
945.768	375
945.860	303
945.952	-617
946.044	288
946.136	-312
946.228	-255
946.320	-722
946.412	117
946.503	-124
946.595	1463
946.687	-581
946.779	-382
946.870	-89
946.962	-695
947.054	1
947.145	575
947.237	148
947.329	-307
947.420	-287
947.512	758
947.603	-243
947.695	570
947.786	-481
947.878	-541
947.969	658
948.061	272
948.152	-530
948.243	-61
948.335	-157
948.426	-222
948.517	-618
948.609	888
948.700	-447
948.791	405
948.882	-313
948.973	165
949.065	-218
949.156	321
949.247	386
949.338	225
949.429	489
949.520	45
949.611	-89
949.702	604
949.793	-358
949.884	-717
949.975	-17
950.066	-346
950.157	-74
950.247	162
950.338	-422
950.429	-133
950.520	274
950.611	-124
950.701	-884
950.792	-116
950.883	328
950.973	-149
951.064	274
951.155	-51
951.245	-236
951.336	296
951.427	-455
951.517	874
951.608	235
951.698	152
951.788	-602
951.879	371
951.969	-610
952.060	-397
952.150	-278
952.240	514
952.331	-1665
952.421	754
952.511	-919
952.602	-467
952.692	-1134
952.782	-63
952.872	63
952.962	-550
953.052	-883
953.143	-712
953.233	276
953.323	-123
953.413	-897
953.503	-461
953.593	-124
953.683	86
953.773	-1473
953.863	-487
953.953	-727
954.042	-1088
954.132	-544
954.222	291
954.312	329
954.402	-681
954.492	206
954.581	1163
954.671	-457
954.761	-853
954.850	1015
954.940	-939
955.030	-273
955.119	-168
955.209	-651
955.298	-683
955.388	-120
955.477	510
955.567	-1156
955.656	4
955.746	-251
955.835	-536
955.925	-832
956.014	242
956.103	-8
956.193	-477
956.282	-4
956.371	-452
956.461	-804
956.550	-83
956.639	205
956.728	-686
956.817	-71
956.906	-1321
956.995	211
957.085	188
957.174	7
957.263	-289
957.352	-945
957.441	-114
957.530	-628
957.619	-63
957.708	-1550
957.796	-185
957.885	-303
957.974	-1392
958.063	-643
958.152	-1906
958.241	89
958.329	-153
958.418	-36
958.507	-1422
958.596	-42
958.684	-625
958.773	-61
958.861	-327
958.950	-116
959.039	-486
959.127	-449
959.216	941
959.304	-332
959.393	458
959.481	1172
959.570	-181
959.658	-841
959.746	-138
959.835	-235
959.923	1017
960.011	181
960.100	590
960.188	-282
960.276	-39
960.365	-951
960.453	-560
960.541	-876
960.629	-788
960.717	-988
960.805	-750
960.893	-976
960.981	-548
961.069	761
961.158	-216
961.245	-211
961.333	316
961.421	-510
961.509	-96
961.597	114
961.685	-219
961.773	-559
961.861	111
961.949	-356
962.036	-316
962.124	-570
962.212	-597
962.299	-508
962.387	-631
962.475	-958
962.562	-340
962.650	319
962.738	353
962.825	-497
962.913	-563
963.000	-1740
963.088	-331
963.175	-856
963.263	430
963.350	93
963.438	-792
963.525	-471
963.612	780
963.700	1582
963.787	5532
963.874	2604
963.962	274
964.049	-284
964.136	-24
964.223	-1167
964.310	-690
964.398	-1256
964.485	-599
964.572	337
964.659	1350
964.746	-696
964.833	-323
964.920	-1542
965.007	-179
965.094	-616
965.181	-291
965.268	-799
965.355	-1269
965.441	-38
965.528	-724
965.615	543
965.702	-422
965.789	-1027
965.875	-387
965.962	-1015
966.049	105
966.136	-498
966.222	-1257
966.309	463
966.395	-661
966.482	-246
966.569	-639
966.655	-498
966.742	-149
966.828	425
966.915	-300
967.001	40
967.087	-944
967.174	-707
967.260	592
967.347	652
967.433	484
967.519	3661
967.605	1139
967.692	-108
967.778	-225
967.864	-692
967.950	-729
968.036	-276
968.123	-325
968.209	-131
968.295	-714
968.381	410
968.467	-243
968.553	-1380
968.639	84
968.725	-993
968.811	-213
968.897	568
968.983	158
969.069	-786
969.154	331
969.240	-429
969.326	-818
969.412	-1260
969.497	-116
969.583	-889
969.669	509
969.755	-926
969.840	-832
969.926	350
970.012	-250
970.097	-123
970.183	73
970.268	-610
970.354	67
970.439	-815
970.525	2545
970.610	61
970.696	666
970.781	-1107
970.866	-534
970.952	-184
971.037	-280
971.122	-372
971.208	213
971.293	-100
971.378	-692
971.463	-736
971.549	238
971.634	-635
971.719	-102
971.804	-318
971.889	581
971.974	-806
972.059	-106
972.144	-749
972.229	-447
972.314	-777
972.399	-842
972.484	-929
972.569	-194
972.654	-1027
972.739	1562
972.824	475
972.908	72
972.993	-971
973.078	90
973.163	-111
973.247	159
973.332	-1672
973.417	985
973.501	-1072
973.586	-991
973.671	61
973.755	-367
973.840	215
973.924	803
974.009	-475
974.093	-44
974.178	-88
974.262	438
974.346	609
974.431	-504
974.515	-662
974.600	-606
974.684	750
974.768	-442
974.852	154
974.937	-698
975.021	150
975.105	-125
975.189	-433
975.273	743
975.358	-1056
975.442	-976
975.526	-207
975.610	-580
975.694	-1287
975.778	143
975.862	-811
975.946	-2086
976.030	1488
976.114	40
976.198	-700
976.281	-689
976.365	-79
976.449	176
976.533	-597
976.617	-205
976.700	-943
976.784	-7
976.868	-707
976.951	596
977.035	202
977.119	178
977.202	26
977.286	-876
977.369	-913
977.453	499
977.536	152
977.620	-199
977.703	-6
977.787	-932
977.870	266
977.953	852
978.037	-1829
978.120	-212
978.203	-660
978.287	1011
978.370	81
978.453	-663
978.536	-64
978.620	903
978.703	879
978.786	-216
978.869	-1388
978.952	-1456
979.035	675
979.118	41
979.201	-906
979.284	130
979.367	-329
979.450	49
979.533	-1024
979.616	-25
979.699	-808
979.782	-17
979.865	-524
979.948	-765
980.030	-1439
980.113	-983
980.196	-1546
980.279	536
980.361	-730
980.444	-151
980.526	-699
980.609	135
980.692	-206
980.774	454
980.857	-1542
980.939	568
981.022	-847
981.104	-256
981.187	-223
981.269	216
981.352	-137
981.434	-845
981.516	-676
981.599	752
981.681	-498
981.763	-842
981.846	-581
981.928	-508
982.010	-1036
982.092	-280
982.174	-118
982.256	-750
982.339	-718
982.421	56
982.503	48
982.585	164
982.667	-142
982.749	-195
982.831	-534
982.913	-811
982.995	458
983.077	-748
983.158	836
983.240	-593
983.322	-251
983.404	576
983.486	-1012
983.568	115
983.649	-80
983.731	177
983.813	-395
983.894	506
983.976	-671
984.058	211
984.139	483
984.221	-1197
984.302	69
984.384	-483
984.465	-617
984.547	268
984.628	-1067
984.710	782
984.791	224
984.872	345
984.954	-634
985.035	368
985.116	-572
985.198	-201
985.279	-708
985.360	-921
985.441	-685
985.522	-44
985.604	-749
985.685	-1955
985.766	447
985.847	43
985.928	-852
986.009	103
986.090	-589
986.171	59
986.252	-901
986.333	-132
986.414	-463
986.495	-472
986.576	29
986.656	225
986.737	-63
986.818	97
986.899	-562
986.980	28
987.060	-311
987.141	-256
987.222	-263
987.302	783
987.383	449
987.464	141
987.544	202
987.625	-253
987.705	266
987.786	-505
987.866	-469
987.947	-126
988.027	-587
988.108	-484
988.188	-361
988.268	58
988.349	-426
988.429	-963
988.509	-558
988.589	-209
988.670	-2314
988.750	900
988.830	-495
988.910	-321
988.990	-440
989.070	-575
989.151	-68
989.231	-827
989.311	-266
989.391	-705
989.471	-132
989.551	-266
989.631	-799
989.711	-45
989.791	-1073
989.870	-724
989.950	226
990.030	-138
990.110	277
990.190	-283
990.269	-1065
990.349	-358
990.429	-686
990.509	879
990.588	-813
990.668	-316
990.747	237
990.827	-373
990.907	-288
990.986	-990
991.066	-226
991.145	-430
991.225	14
991.304	-619
991.383	151
991.463	-360
991.542	-280
991.622	-612
991.701	-1372
991.780	-612
991.859	-38
991.939	-922
992.018	-896
992.097	38
992.176	-402
992.256	-233
992.335	-1194
992.414	-131
992.493	-363
992.572	-245
992.651	123
992.730	-1092
992.809	-220
992.888	-1105
992.967	-907
993.046	546
993.125	-1150
993.203	-337
993.282	-556
993.361	192
993.440	261
993.519	-1671
993.597	-271
993.676	-1543
993.755	-11
993.834	-527
993.912	-1569
993.991	272
994.069	-1087
994.148	-390
994.226	-949
994.305	-394
994.384	-817
994.462	852
994.540	-1568
994.619	-691
994.697	-898
994.776	-937
994.854	-112
994.932	-1119
995.011	-717
995.089	-41
995.167	-1523
995.245	-772
995.324	-734
995.402	49
995.480	-1163
995.558	-535
995.636	-1545
995.714	-968
995.792	-273
995.870	-1156
995.948	-906
996.026	-188
996.104	-1774
996.182	214
996.260	-1655
996.338	-391
996.416	-1345
996.494	-1450
996.572	308
996.649	-384
996.727	-1273
996.805	-806
996.883	-1695
996.960	-1384
997.038	-496
997.116	-315
997.193	-1818
997.271	-494
997.348	-1599
997.426	-1186
997.504	-1737
997.581	-598
997.658	-623
997.736	-2118
997.813	-1333
997.891	375
997.968	-1554
998.046	-1018
998.123	-938
998.200	-316
998.277	-1962
998.355	-456
998.432	-1758
998.509	-819
998.586	-358
998.663	-952
998.741	-1595
998.818	-919
998.895	-1185
998.972	-1051
999.049	-1185
999.126	-1097
999.203	-690
999.280	-894
999.357	-1498
999.434	-564
999.511	-408
999.587	-893
999.664	-1067
999.741	-614
999.818	-778
999.895	-401
999.971	-1573
1000.048	-1379
1000.125	-297
1000.202	-1456
1000.278	-1493
1000.355	-1283
1000.431	-1447
1000.508	-1566
1000.584	-1262
1000.661	-1191
1000.738	-1937
1000.814	-1917
1000.890	-408
1000.967	-1066
1001.043	-1010
1001.120	-2139
1001.196	-1765
1001.272	-1614
1001.349	-1124
1001.425	-1065
1001.501	-846
1001.577	-1233
1001.654	-1034
1001.730	-1032
1001.806	-459
1001.882	-2312
1001.958	-475
1002.034	15
1002.110	-924
1002.186	-1504
1002.262	-1720
1002.338	-1861
1002.414	-590
1002.490	356
1002.566	-2798
1002.642	-1300
1002.718	-940
1002.794	-872
1002.870	-1650
1002.945	-967
1003.021	-1452
1003.097	-1329
1003.173	-615
1003.248	-1060
1003.324	-950
1003.400	-875
1003.475	-1903
1003.551	-781
1003.626	-2244
1003.702	-1251
1003.777	-813
1003.853	-1630
1003.928	-1792
1004.004	-718
1004.079	-811
1004.155	-969
1004.230	-1554
1004.305	-455
1004.381	-1725
1004.456	-703
1004.531	-1331
1004.607	-1670
1004.682	-2127
1004.757	-800
1004.832	-2279
1004.907	-1551
1004.982	-1122
1005.057	-1079
1005.133	-1648
1005.208	-482
1005.283	-1206
1005.358	-1085
1005.433	-2373
1005.508	-1003
1005.583	-2298
1005.657	-1568
1005.732	-1284
1005.807	-912
1005.882	-1149
1005.957	-1679
1006.032	-365
1006.106	-576
1006.181	-1749
1006.256	-1494
1006.331	-1233
1006.405	-2046
1006.480	-1284
1006.554	-1243
1006.629	-1689
1006.704	-1407
1006.778	-1420
1006.853	-965
1006.927	-988
1007.002	-2048
1007.076	-1310
1007.150	-1318
1007.225	-1264
1007.299	-2416
1007.373	-1948
1007.448	-1613
1007.522	-518
1007.596	-648
1007.671	-1516
1007.745	-776
1007.819	-2911
1007.893	-1764
1007.967	-1296
1008.041	-2124
1008.115	-805
1008.190	-1821
1008.264	-1378
1008.338	-2288
1008.412	-1288
1008.486	-1675
1008.560	-1444
1008.633	-1569
1008.707	-1182
1008.781	-959
1008.855	-1635
1008.929	-1871
1009.003	-1923
1009.076	-2236
1009.150	-1331
1009.224	-1385
1009.298	-1554
1009.371	-1147
1009.445	-716
1009.519	-1429
1009.592	-2799
1009.666	-1366
1009.739	-1270
1009.813	-2664
1009.886	-1211
1009.960	-2110
1010.033	-1738
1010.107	-662
1010.180	-2197
1010.253	-1638
1010.327	-1944
1010.400	-1742
1010.473	-1077
1010.547	-500
1010.620	-1973
1010.693	-1584
1010.766	-2007
1010.840	-661
1010.913	-2221
1010.986	-2559
1011.059	-1830
1011.132	-2258
1011.205	-1463
1011.278	-1809
1011.351	-1542
1011.424	-1748
1011.497	-2272
1011.570	-1671
1011.643	-2221
1011.716	-1848
1011.789	-2496
1011.862	-1241
1011.934	-2789
1012.007	-1606
1012.080	-1296
1012.153	-1289
1012.225	-1040
1012.298	-2420
1012.371	-2430
1012.443	-935
1012.516	-2230
1012.588	-1897
1012.661	-1682
1012.733	-1252
1012.806	-773
1012.879	-1718
1012.951	-2089
1013.023	-1730
1013.096	-1098
1013.168	-1842
1013.241	-808
1013.313	-2165
1013.385	-2542
1013.458	-1483
1013.530	-1624
1013.602	-2849
1013.674	-1618
1013.746	-1349
1013.819	-2019
1013.891	-1019
1013.963	-2810
1014.035	-1378
1014.107	-1319
1014.179	-1734
1014.251	-1818
1014.323	-1185
1014.395	-1785
1014.467	-1061
1014.539	-1204
1014.611	-2010
1014.683	-1455
1014.754	-2098
1014.826	-1911
1014.898	-1968
1014.970	-2191
1015.042	-1152
1015.113	-1528
1015.185	-1636
1015.257	-2224
1015.328	-1044
1015.400	-1639
1015.471	-1646
1015.543	-3298
1015.615	-1124
1015.686	-2359
1015.757	-937
1015.829	-2509
1015.901	-1589
1015.972	-2296
1016.043	-2164
1016.115	-1262
1016.186	-2080
1016.257	-2713
1016.328	-913
1016.400	-1092
1016.471	-1694
1016.542	-1376
1016.613	-1146
1016.685	-1849
1016.756	-1216
1016.827	-2757
1016.898	-1829
1016.969	-1010
1017.040	-2039
1017.111	-1457
1017.182	-1250
1017.253	-1436
1017.324	-1450
1017.395	-1916
1017.466	-1471
1017.537	-1712
1017.608	-1630
1017.678	-1848
1017.749	-1379
1017.820	-1826
1017.891	-2066
1017.961	-2087
1018.032	-2114
1018.103	-1122
1018.173	-1001
1018.244	-1660
1018.315	-1901
1018.385	-732
1018.456	-1123
1018.526	-2117
1018.597	-1685
1018.667	-1853
1018.738	-1915
1018.808	-1270
1018.878	-1834
1018.949	-1271
1019.019	-1226
1019.089	-1475
1019.160	-1373
1019.230	-2780
1019.300	-1860
1019.371	-2119
1019.441	-693
1019.511	-1765
1019.581	-2077
1019.651	-1625
1019.721	-1049
1019.791	-2087
1019.861	-708
1019.931	-1704
1020.001	-960
1020.071	-947
1020.141	-1456
1020.211	-2191
1020.281	-1901
1020.351	-1754
1020.421	-1240
1020.491	-931
1020.560	-1497
1020.630	-1504
1020.700	-929
1020.770	-1013
1020.839	-1880
1020.909	-1641
1020.979	-1390
1021.048	-1794
1021.118	-1137
1021.187	-1811
1021.257	-1717
1021.326	-2003
1021.396	-1496
1021.465	-2136
1021.535	-1398
1021.604	-2456
1021.674	-1923
1021.743	-1698
1021.812	-1997
1021.882	-1429
1021.951	-1786
1022.020	-1729
1022.089	-1156
1022.159	-2761
1022.228	-1179
1022.297	-2347
1022.366	-1945
1022.435	-1841
1022.504	-1178
1022.573	-2361
1022.642	-1975
1022.711	-2166
1022.781	-1372
1022.849	-1823
1022.918	-1616
1022.987	-1324
1023.056	-1574
1023.125	-1657
1023.194	-1100
1023.263	-1841
1023.331	-1412
1023.400	-2561
1023.469	-1765
1023.538	-1259
1023.606	-2680
1023.675	-1500
1023.744	-1749
1023.812	-2006
1023.881	-863
1023.949	-1651
1024.018	-968
1024.086	-2075
1024.155	-1241
1024.223	-1841
1024.292	-1188
1024.360	-1787
1024.429	-1671
1024.497	-2173
1024.565	-1718
1024.634	-2090
1024.702	-1279
1024.770	-1900
1024.838	-2324
1024.907	-1462
1024.975	-1667
1025.043	-1564
1025.111	-1944
1025.179	-1462
1025.247	-1319
1025.315	-2139
1025.383	-1876
1025.451	-2129
1025.519	-1283
1025.587	-1985
1025.655	-1385
1025.723	-2042
1025.791	-964
1025.859	-1977
1025.927	-1401
1025.995	-1528
1026.062	-1778
1026.130	-2024
1026.198	-2029
1026.266	-2015
1026.333	-1351
1026.401	-792
1026.469	-2008
1026.536	-2125
1026.604	-1419
1026.671	-1634
1026.739	-1520
1026.806	-2094
1026.874	-2201
1026.941	-1755
1027.009	-1447
1027.076	-2322
1027.144	-755
1027.211	-2268
1027.278	-1438
1027.345	-2033
1027.413	-1824
1027.480	-853
1027.547	-1432
1027.614	-1892
1027.682	-1102
1027.749	-1608
1027.816	-896
1027.883	-1342
1027.950	-1768
1028.017	-2025
1028.084	0
1028.151	-1841
1028.218	-2324
1028.285	-1850
1028.352	-1674
1028.419	-2362
1028.486	-1398
1028.553	-1764
1028.619	-2475
1028.686	-1844
1028.753	-1793
1028.820	-2169
1028.886	-1039
1028.953	-2066
1029.020	-1940
1029.086	-2191
1029.153	-2314
1029.220	-2743
1029.286	-873
1029.353	-1995
1029.419	-2181
1029.486	-1600
1029.552	-1603
1029.619	-2372
1029.685	-1960
1029.751	-1347
1029.818	-1162
1029.884	-601
1029.951	-275
1030.017	-2205
1030.083	-1772
1030.149	-935
1030.216	-1156
1030.282	-1949
1030.348	-662
1030.414	-2118
1030.480	-1236
1030.546	-1363
1030.612	-1183
1030.678	-1912
1030.744	-1763
1030.810	-2026
1030.876	-1955
1030.942	-2442
1031.008	-1467
1031.074	-1802
1031.140	-2283
1031.206	-1531
1031.272	-1601
1031.337	-1082
1031.403	-1405
1031.469	-1620
1031.534	-1382
1031.600	-1843
1031.666	-1482
1031.731	-2118
1031.797	-518
1031.863	-1817
1031.928	-1290
1031.994	-2384
1032.059	-1280
1032.125	-2007
1032.190	-1331
1032.256	-1708
1032.321	-1788
1032.386	-2296
1032.452	-804
1032.517	-1850
1032.582	-1532
1032.647	-1463
1032.713	-880
1032.778	-1566
1032.843	-1733
1032.908	-1634
1032.974	-1165
1033.039	-1611
1033.104	-761
1033.169	-1823
1033.234	-1198
1033.299	-1872
1033.364	-1529
1033.429	-2121
1033.494	-1210
1033.559	-1852
1033.624	-1148
1033.688	-789
1033.753	-1610
1033.818	-1578
1033.883	-1745
1033.948	-1351
1034.013	-933
1034.077	-1480
1034.142	-835
1034.207	-2089
1034.271	-813
1034.336	-181
1034.400	-954
1034.465	-1633
1034.530	-1408
1034.594	-1189
1034.658	-1274
1034.723	-1476
1034.787	-1305
1034.852	-1746
1034.916	-863
1034.981	-1788
1035.045	-704
1035.109	-1944
1035.173	-903
1035.238	-1873
1035.302	-1285
1035.366	-1016
1035.430	-1190
1035.495	-2160
1035.559	-2037
1035.623	-2339
1035.687	-1394
1035.751	-1929
1035.815	-1558
1035.879	-1155
1035.943	-1440
1036.007	-2032
1036.071	-1936
1036.135	-1511
1036.198	-1075
1036.262	-1937
1036.326	-1270
1036.390	-2446
1036.454	-2341
1036.517	-1736
1036.581	-1130
1036.645	-2452
1036.709	-1040
1036.772	-1860
1036.836	-1058
1036.900	-2126
1036.963	-1896
1037.026	-1774
1037.090	-2199
1037.154	-1777
1037.217	-888
1037.280	-2058
1037.344	-2030
1037.407	-1141
1037.471	-1724
1037.534	-1852
1037.597	-1476
1037.661	-1038
1037.724	-1700
1037.787	-2548
1037.850	-1663
1037.913	-2371
1037.977	-793
1038.040	-1608
1038.103	-1823
1038.166	-2265
1038.229	-1565
1038.292	-2131
1038.355	-2459
1038.418	-1227
1038.481	-1654
1038.544	-2142
1038.607	-1437
1038.670	-2154
1038.732	-1824
1038.795	-1834
1038.858	-1485
1038.921	-1457
1038.984	-1278
1039.046	-1627
1039.109	-1279
1039.172	-2119
1039.234	-1494
1039.297	-1410
1039.360	-2006
1039.422	-1720
1039.485	-669
1039.547	-1965
1039.610	-1590
1039.672	-2023
1039.734	-1925
1039.797	-1029
1039.859	-1056
1039.922	-2242
1039.984	-1611
1040.046	-2359
1040.109	-1175
1040.171	-2044
1040.233	-1696
1040.295	-1886
1040.358	-1987
1040.420	-1401
1040.482	-1593
1040.544	-1812
1040.606	-1168
1040.668	-1706
1040.730	-1878
1040.792	-2177
1040.854	-1220
1040.916	-2158
1040.978	-1839
1041.040	-1259
1041.102	-851
1041.164	-1846
1041.225	-1658
1041.287	-2606
1041.349	-1905
1041.411	-1912
1041.472	-1088
1041.534	-2416
1041.596	-1532
1041.657	-1428
1041.719	-1512
1041.781	-2604
1041.842	-1582
1041.904	-2112
1041.965	-2450
1042.027	-2020
1042.088	-2123
1042.150	-1740
1042.211	-2539
1042.272	-1447
1042.334	-1865
1042.395	-2526
1042.456	-1640
1042.518	-2310
1042.579	-1390
1042.640	-2172
1042.701	-1266
1042.763	-2595
1042.824	-2011
1042.885	-2460
1042.946	-1241
1043.007	-1527
1043.068	-2227
1043.129	-1877
1043.190	-1933
1043.251	-1593
1043.312	-1705
1043.373	-1389
1043.434	-1706
1043.495	-1859
1043.556	-1292
1043.616	-1587
1043.677	-2282
1043.738	-2108
1043.799	-1538
1043.859	-1414
1043.920	-1157
1043.981	-1699
1044.041	-1141
1044.102	-1838
1044.162	-1680
1044.223	-1973
1044.284	-1397
1044.344	-1783
1044.405	-1550
1044.465	-1437
1044.525	-1369
1044.586	-1925
1044.646	-2063
1044.707	-1863
1044.767	-1742
1044.827	-2323
1044.887	-1514
1044.948	-1498
1045.008	-1726
1045.068	-2315
1045.128	-1036
1045.188	-2587
1045.249	-1296
1045.309	-1370
1045.369	-1088
1045.429	-2240
1045.489	-752
1045.549	-1367
1045.609	-1616
1045.669	-1870
1045.729	-1284
1045.789	-1541
1045.848	-949
1045.908	-1744
1045.968	-1085
1046.028	-1647
1046.088	-990
1046.147	-1735
1046.207	-1312
1046.267	-1263
1046.326	-1590
1046.386	-1428
1046.446	-445
1046.505	-1758
1046.565	-364
1046.624	-203
1046.684	-906
1046.743	-619
1046.803	-427
1046.862	-734
1046.922	0
