'Start Wavelength	183.907
'End Wavelength	1046.922
'Gate Delay	5.000
'Gate Width (ms)	1.050
'Laser Output Level	0.000
'X Position	0.000
'Y Position	0.000
'Z Position	0.000
'Grid Point Number	1.000
'Shot Number	100.000
183.907	1181.000
183.977	-336.000
184.047	70
184.116	1752
184.186	210
184.256	429
184.325	-619
184.395	-142
184.465	1010
184.534	-212
184.604	-148
184.674	227
184.743	-460
184.813	233
184.883	-878
184.952	534
185.022	248
185.092	-193
185.161	-47
185.231	-82
185.301	-521
185.370	489
185.440	-467
185.509	-102
185.579	247
185.649	545
185.718	192
185.788	1037
185.857	-977
185.927	-104
185.996	-105
186.066	55
186.136	-390
186.205	657
186.275	-332
186.344	737
186.414	-507
186.483	160
186.553	975
186.622	839
186.692	689
186.761	422
186.831	-198
186.900	-26
186.970	37
187.039	943
187.109	-254
187.178	198
187.248	92
187.317	662
187.387	-364
187.456	348
187.526	-282
187.595	-22
187.664	268
187.734	-24
187.803	35
187.873	745
187.942	-244
188.012	238
188.081	-450
188.150	116
188.220	-557
188.289	501
188.358	-497
188.428	209
188.497	-153
188.567	271
188.636	-418
188.705	113
188.775	115
188.844	-380
188.913	282
188.983	454
189.052	120
189.121	636
189.191	-102
189.260	916
189.329	-749
189.399	347
189.468	-38
189.537	177
189.606	697
189.676	-324
189.745	161
189.814	679
189.883	-839
189.953	186
190.022	196
190.091	284
190.161	-507
190.230	404
190.299	-66
190.368	-32
190.437	87
190.507	-163
190.576	-762
190.645	50
190.714	-14
190.783	458
190.853	923
190.922	1011
190.991	-100
191.060	-234
191.129	-328
191.198	-18
191.268	-420
191.337	278
191.406	3
191.475	739
191.544	-83
191.613	777
191.682	23
191.752	-114
191.821	-768
191.890	-317
191.959	567
192.028	689
192.097	50
192.166	723
192.235	-1085
192.304	494
192.373	85
192.442	723
192.511	-292
192.580	-67
192.650	-1195
192.719	108
192.788	-444
192.857	648
192.926	-455
192.995	463
193.064	-577
193.133	684
193.202	-926
193.271	-79
193.340	-51
193.409	-74
193.478	-55
193.547	389
193.615	-377
193.684	200
193.753	-856
193.822	642
193.891	-216
193.960	-162
194.029	-558
194.098	362
194.167	-178
194.236	794
194.305	-99
194.374	279
194.443	-185
194.512	-187
194.580	-457
194.649	49
194.718	3
194.787	750
194.856	-695
194.925	818
194.994	-180
195.062	-90
195.131	27
195.200	-243
195.269	159
195.338	121
195.407	270
195.475	-134
195.544	160
195.613	254
195.682	266
195.751	270
195.819	-393
195.888	525
195.957	-213
196.026	-134
196.094	-368
196.163	-52
196.232	-12
196.301	129
196.369	210
196.438	-331
196.507	224
196.576	119
196.644	-23
196.713	189
196.782	-121
196.850	680
196.919	-675
196.988	611
197.056	-1121
197.125	-864
197.194	-392
197.262	188
197.331	-223
197.400	-185
197.468	-183
197.537	-347
197.606	-625
197.674	199
197.743	-172
197.812	259
197.880	-284
197.949	521
198.017	15
198.086	-243
198.155	-108
198.223	507
198.292	-272
198.360	-585
198.429	-724
198.497	276
198.566	-985
198.635	501
198.703	749
198.772	-165
198.840	-191
198.909	-133
198.977	-475
199.046	832
199.114	464
199.183	290
199.251	-459
199.320	-106
199.388	205
199.457	-179
199.525	-342
199.594	-245
199.662	-47
199.731	-622
199.799	-1003
199.867	95
199.936	-531
200.004	408
200.073	926
200.141	725
200.210	-267
200.278	-620
200.346	-116
200.415	-416
200.483	-430
200.552	275
200.620	-339
200.688	-287
200.757	-857
200.825	524
200.893	-569
200.962	-430
201.030	240
201.098	-48
201.167	12
201.235	164
201.303	-146
201.372	438
201.440	-1229
201.508	77
201.577	-589
201.645	-112
201.713	-15
201.781	20
201.850	-283
201.918	59
201.986	-624
202.055	477
202.123	-893
202.191	-519
202.259	-158
202.327	-639
202.396	-148
202.464	197
202.532	-1198
202.600	321
202.669	-388
202.737	-414
202.805	-520
202.873	306
202.941	361
203.009	423
203.078	-279
203.146	255
203.214	-66
203.282	75
203.350	-223
203.418	-498
203.487	432
203.555	270
203.623	-1032
203.691	-51
203.759	-1233
203.827	-82
203.895	147
203.963	481
204.031	-843
204.099	319
204.168	-1293
204.236	88
204.304	-215
204.372	184
204.440	-203
204.508	179
204.576	-749
204.644	204
204.712	-325
204.780	436
204.848	-726
204.916	-308
204.984	-1053
205.052	351
205.120	-28
205.188	-443
205.256	-247
205.324	72
205.392	-590
205.460	114
205.528	-195
205.596	408
205.664	-656
205.732	-753
205.799	-624
205.867	-215
205.935	-971
206.003	804
206.071	-529
206.139	273
206.207	-102
206.275	-35
206.343	-218
206.411	139
206.478	-473
206.546	-333
206.614	-8
206.682	346
206.750	-268
206.818	598
206.885	357
206.953	-1085
207.021	-3
207.089	-150
207.157	-654
207.225	318
207.292	-406
207.360	-419
207.428	-1056
207.496	-256
207.563	-450
207.631	-198
207.699	-288
207.767	16
207.834	-725
207.902	-43
207.970	-258
208.038	153
208.105	-541
208.173	503
208.241	-245
208.309	-336
208.376	-151
208.444	-197
208.512	-711
208.579	-275
208.647	241
208.715	-19
208.782	204
208.850	439
208.918	-360
208.985	246
209.053	-249
209.120	360
209.188	-1450
209.256	90
209.323	-815
209.391	-21
209.459	342
209.526	282
209.594	-616
209.661	-269
209.729	-1134
209.796	701
209.864	-644
209.932	-838
209.999	513
210.067	-96
210.134	-756
210.202	-12
210.269	-123
210.337	250
210.404	-685
210.472	-564
210.539	-224
210.607	-64
210.674	88
210.742	47
210.809	-711
210.877	-479
210.944	824
211.012	-211
211.079	1137
211.146	437
211.214	-108
211.281	-115
211.349	29
211.416	130
211.484	102
211.551	-192
211.618	50
211.686	-325
211.753	-799
211.821	144
211.888	-477
211.955	11
212.023	-340
212.090	-925
212.157	-332
212.225	-231
212.292	-151
212.359	-171
212.427	333
212.494	-104
212.561	-586
212.629	269
212.696	-15
212.763	390
212.831	-460
212.898	408
212.965	-205
213.032	187
213.100	-532
213.167	-673
213.234	973
213.301	730
213.369	102
213.436	-290
213.503	-378
213.570	-72
213.638	-1341
213.705	-825
213.772	-94
213.839	-89
213.906	-74
213.973	311
214.041	-503
214.108	166
214.175	-113
214.242	-290
214.309	-11
214.376	-673
214.444	-1303
214.511	-127
214.578	-612
214.645	176
214.712	-210
214.779	-528
214.846	-807
214.913	65
214.980	-266
215.048	-270
215.115	617
215.182	-99
215.249	-1288
215.316	-638
215.383	601
215.450	-567
215.517	-162
215.584	448
215.651	-134
215.718	555
215.785	281
215.852	-632
215.919	-647
215.986	104
216.053	-371
216.120	-65
216.187	-359
216.254	46
216.321	-255
216.388	-13
216.455	-196
216.522	383
216.589	-64
216.656	-145
216.722	-132
216.789	-335
216.856	-158
216.923	-313
216.990	-720
217.057	-175
217.124	-521
217.191	-1067
217.258	173
217.324	-300
217.391	768
217.458	-407
217.525	-33
217.592	-758
217.659	-1519
217.725	627
217.792	-510
217.859	668
217.926	-194
217.993	-620
218.059	-389
218.126	583
218.193	-695
218.260	283
218.327	-935
218.393	177
218.460	-891
218.527	-275
218.594	-262
218.660	-717
218.727	-574
218.794	-899
218.860	75
218.927	372
218.994	79
219.061	-522
219.127	-828
219.194	166
219.261	-1170
219.327	-927
219.394	-501
219.461	-496
219.527	311
219.594	165
219.661	211
219.727	-1000
219.794	496
219.860	-564
219.927	-824
219.994	238
220.060	-23
220.127	648
220.193	-457
220.260	-269
220.326	420
220.393	806
220.460	-194
220.526	-597
220.593	-294
220.659	1697
220.726	-634
220.792	591
220.859	-171
220.925	132
220.992	16
221.058	254
221.125	49
221.191	239
221.258	-1015
221.324	-65
221.391	-608
221.457	-638
221.524	-51
221.590	20
221.657	159
221.723	364
221.789	-108
221.856	-43
221.922	-1015
221.989	271
222.055	-96
222.121	-891
222.188	1593
222.254	-545
222.321	-366
222.387	-472
222.453	-427
222.520	-417
222.586	-1399
222.652	165
222.719	-1113
222.785	212
222.851	33
222.918	485
222.984	-686
223.050	-476
223.116	-1135
223.183	307
223.249	-878
223.315	-484
223.382	-295
223.448	-241
223.514	-601
223.580	328
223.647	-564
223.713	-257
223.779	-1153
223.845	183
223.911	-512
223.978	-863
224.044	-807
224.110	168
224.176	-712
224.242	-361
224.309	-1820
224.375	1318
224.441	-588
224.507	-539
224.573	-1046
224.639	999
224.705	-1138
224.772	581
224.838	-386
224.904	119
224.970	-813
225.036	307
225.102	-1311
225.168	422
225.234	-289
225.300	121
225.366	-673
225.432	612
225.499	-452
225.565	-68
225.631	-1135
225.697	-460
225.763	-340
225.829	-80
225.895	-801
225.961	-409
226.027	-130
226.093	-489
226.159	359
226.225	761
226.291	539
226.357	1767
226.423	228
226.489	535
226.554	198
226.620	-199
226.686	-302
226.752	138
226.818	77
226.884	1571
226.950	1891
227.016	769
227.082	337
227.148	22
227.214	-1032
227.279	511
227.345	-767
227.411	-105
227.477	288
227.543	1492
227.609	460
227.674	833
227.740	34
227.806	298
227.872	-729
227.938	478
228.003	-587
228.069	-655
228.135	-33
228.201	320
228.267	-580
228.332	-57
228.398	-1493
228.464	250
228.530	-726
228.595	403
228.661	-1005
228.727	-1178
228.792	295
228.858	67
228.924	-1439
228.990	1239
229.055	-1443
229.121	27
229.187	-314
229.252	-128
229.318	-746
229.384	-358
229.449	-715
229.515	-1782
229.581	-2075
229.646	891
229.712	261
229.777	-1062
229.843	-1071
229.909	118
229.974	-933
230.040	-310
230.105	-453
230.171	-484
230.236	-406
230.302	-36
230.368	-803
230.433	-1064
230.499	-468
230.564	-4
230.630	-1621
230.695	-817
230.761	-139
230.826	-1136
230.892	443
230.957	-628
231.023	-333
231.088	156
231.154	-203
231.219	123
231.284	-868
231.350	273
231.415	-1391
231.481	-119
231.546	-483
231.612	-121
231.677	-210
231.742	-1487
231.808	313
231.873	-120
231.939	-1958
232.004	637
232.069	-161
232.135	-627
232.200	-1043
232.265	-373
232.331	-858
232.396	-253
232.461	-505
232.527	-125
232.592	-199
232.657	-324
232.723	-634
232.788	-454
232.853	80
232.918	25
232.984	-1130
233.049	-358
233.114	-1685
233.179	-544
233.245	-776
233.310	-472
233.375	-2123
233.440	-338
233.506	-937
233.571	-397
233.636	-590
233.701	-92
233.766	-805
233.832	-172
233.897	-622
233.962	-1133
234.027	118
234.092	-189
234.157	-657
234.222	-439
234.288	-354
234.353	-769
234.418	-106
234.483	410
234.548	-188
234.613	308
234.678	-648
234.743	-513
234.808	41
234.873	-1400
234.938	503
235.004	-482
235.069	-1030
235.134	-755
235.199	134
235.264	56
235.329	-1810
235.394	-98
235.459	-840
235.524	-467
235.589	-418
235.654	-377
235.719	-1337
235.784	-50
235.849	-327
235.913	-650
235.978	-867
236.043	166
236.108	-264
236.173	-1105
236.238	649
236.303	-886
236.368	-1520
236.433	387
236.498	-826
236.563	-522
236.627	290
236.692	2728
236.757	1787
236.822	770
236.887	-1260
236.952	315
237.017	-1294
237.081	635
237.146	-1000
237.211	880
237.276	1086
237.341	4297
237.405	707
237.470	-81
237.535	-648
237.600	-754
237.664	647
237.729	-858
237.794	-957
237.859	540
237.923	-992
237.988	-302
238.053	97
238.118	-796
238.182	-1021
238.247	1016
238.312	-948
238.376	80
238.441	-2432
238.506	183
238.570	-1563
238.635	944
238.700	-223
238.764	-371
238.829	-655
238.893	-515
238.958	-73
239.023	-737
239.087	-846
239.152	-362
239.216	-1021
239.281	481
239.346	-696
239.410	-499
239.475	-805
239.539	234
239.604	-1583
239.668	69
239.733	-498
239.797	2213
239.862	1122
239.926	957
239.991	789
240.055	540
240.120	-586
240.184	-284
240.249	-929
240.313	-58
240.378	-1088
240.442	-782
240.507	-571
240.571	-755
240.635	-1020
240.700	-1233
240.764	-582
240.829	-454
240.893	-1634
240.957	110
241.022	-572
241.086	102
241.151	-1650
241.215	-876
241.279	-111
241.344	-1081
241.408	-500
241.472	-1042
241.537	911
241.601	-197
241.665	-2001
241.730	-1476
241.794	-150
241.858	-857
241.922	-1213
241.987	-401
242.051	-896
242.115	-1032
242.179	-509
242.244	-964
242.308	777
242.372	-216
242.436	-1222
242.501	-828
242.565	-1996
242.629	-872
242.693	-211
242.757	-1029
242.822	-686
242.886	343
242.950	-190
243.014	-1241
243.078	-1149
243.142	-221
243.206	-935
243.271	390
243.335	-1473
243.399	-207
243.463	-97
243.527	1451
243.591	-516
243.655	-44
243.719	-1421
243.783	37
243.847	-360
243.911	115
243.975	-1390
244.040	-1724
244.104	35
244.168	107
244.232	-1136
244.296	-386
244.360	-1405
244.424	-2001
244.488	-396
244.552	175
244.615	-1190
244.679	-567
244.743	-1246
244.807	-1950
244.871	-175
244.935	-516
244.999	-1917
245.063	-655
245.127	116
245.191	-103
245.255	-1400
245.319	-88
245.383	-1955
245.446	608
245.510	-1154
245.574	-321
245.638	-82
245.702	-1877
245.766	-302
245.829	101
245.893	-1694
245.957	-1540
246.021	-651
246.085	-217
246.149	-1195
246.212	1096
246.276	-892
246.340	-1302
246.404	-315
246.467	-62
246.531	-2762
246.595	154
246.659	-365
246.722	-1476
246.786	-462
246.850	-1144
246.913	-898
246.977	-1362
247.041	-510
247.104	-821
247.168	-1063
247.232	-159
247.295	-595
247.359	-450
247.423	-946
247.486	-199
247.550	75
247.614	131
247.677	-509
247.741	-683
247.804	-783
247.868	-770
247.932	-1410
247.995	941
248.059	-1179
248.122	-1862
248.186	-240
248.249	-713
248.313	592
248.376	930
248.440	-844
248.503	-1533
248.567	1539
248.630	-451
248.694	-624
248.757	861
248.821	67
248.884	334
248.948	-479
249.011	1145
249.075	-112
249.138	1368
249.202	-384
249.265	-263
249.328	419
249.392	-798
249.455	211
249.519	114
249.582	-355
249.645	556
249.709	-820
249.772	-1034
249.835	-119
249.899	-583
249.962	-813
250.025	-905
250.089	-321
250.152	564
250.215	-416
250.279	-1354
250.342	-434
250.405	40
250.468	-1230
250.532	-1013
250.595	309
250.658	603
250.721	4377
250.785	528
250.848	1388
250.911	-225
250.974	451
251.038	-619
251.101	-208
251.164	221
251.227	-451
251.290	-507
251.354	31
251.417	3106
251.480	3222
251.543	1813
251.606	7013
251.669	5513
251.732	1110
251.795	860
251.859	1328
251.922	3665
251.985	1853
252.048	1033
252.111	-422
252.174	-507
252.237	613
252.300	836
252.363	657
252.426	5567
252.489	151
252.552	452
252.615	-1596
252.678	1001
252.741	994
252.804	809
252.867	5269
252.930	2404
252.993	301
253.056	1623
253.119	-303
253.182	-759
253.245	-571
253.308	101
253.371	-1383
253.434	-757
253.497	141
253.559	662
253.622	-1314
253.685	-620
253.748	-458
253.811	-710
253.874	347
253.937	-1141
254.000	-1031
254.062	-820
254.125	-490
254.188	1181
254.251	-506
254.314	-1438
254.376	-588
254.439	-22
254.502	-1353
254.565	-1060
254.628	-188
254.690	700
254.753	-1400
254.816	-1396
254.878	-426
254.941	-127
255.004	-97
255.067	-141
255.129	-782
255.192	-56
255.255	-1567
255.317	-321
255.380	-477
255.443	-355
255.505	-539
255.568	-898
255.631	-432
255.693	-424
255.756	-1413
255.819	766
255.881	-281
255.944	-246
256.006	-950
256.069	-1105
256.132	-936
256.194	-600
256.257	-534
256.319	463
256.382	-503
256.444	157
256.507	-535
256.569	-469
256.632	-404
256.694	-559
256.757	953
256.819	4510
256.882	-420
256.944	-585
257.007	53
257.069	-677
257.132	-145
257.194	-22
257.257	-251
257.319	-683
257.381	-1724
257.444	1262
257.506	4212
257.569	5408
257.631	855
257.693	279
257.756	-95
257.818	-251
257.880	-500
257.943	-508
258.005	-1601
258.067	-230
258.130	-214
258.192	70
258.254	-1759
258.317	-874
258.379	217
258.441	-667
258.503	-390
258.566	-391
258.628	376
258.690	-790
258.753	64
258.815	203
258.877	-1335
258.939	-752
259.001	-453
259.064	-899
259.126	-1605
259.188	-446
259.250	-857
259.312	-1161
259.375	-1260
259.437	-674
259.499	-684
259.561	-31
259.623	-633
259.685	-454
259.747	5
259.809	490
259.872	-240
259.934	102
259.996	639
260.058	124
260.120	-1273
260.182	-251
260.244	-877
260.306	-888
260.368	-82
260.430	-1026
260.492	-475
260.554	429
260.616	-1108
260.678	-330
260.740	-40
260.802	-965
260.864	429
260.926	-1097
260.988	167
261.050	-498
261.112	-646
261.174	1757
261.236	-342
261.298	-997
261.359	-897
261.421	652
261.483	-937
261.545	674
261.607	-1227
261.669	-75
261.731	-589
261.793	563
261.854	-1563
261.916	173
261.978	-1088
262.040	123
262.102	113
262.164	-87
262.225	-731
262.287	79
262.349	-1008
262.411	-425
262.472	373
262.534	-1346
262.596	-832
262.658	223
262.719	-762
262.781	382
262.843	-1458
262.904	79
262.966	-785
263.028	-408
263.090	-63
263.151	1594
263.213	-182
263.275	-164
263.336	-1193
263.398	670
263.459	-1704
263.521	-463
263.583	-488
263.644	-532
263.706	-793
263.767	-812
263.829	144
263.891	-1158
263.952	-1057
264.014	-500
264.075	-488
264.137	260
264.198	-431
264.260	-1327
264.321	-1469
264.383	-458
264.444	154
264.506	-495
264.567	48
264.629	559
264.690	-1873
264.752	-98
264.813	-330
264.875	-1074
264.936	104
264.998	-756
265.059	-726
265.120	64
265.182	-600
265.243	1119
265.305	1641
265.366	160
265.427	-304
265.489	343
265.550	-835
265.611	111
265.673	-1069
265.734	-1291
265.795	-609
265.857	-586
265.918	-700
265.979	1153
266.040	2674
266.102	2946
266.163	161
266.224	-285
266.286	-498
266.347	-526
266.408	-1328
266.469	-504
266.530	-982
266.592	-663
266.653	-563
266.714	-508
266.775	3
266.836	-376
266.898	-1243
266.959	-701
267.020	-810
267.081	292
267.142	-1526
267.203	-845
267.264	-2163
267.326	580
267.387	-788
267.448	-1044
267.509	-560
267.570	-341
267.631	-924
267.692	-1121
267.753	-437
267.814	-1492
267.875	-738
267.936	-435
267.997	-371
268.058	-504
268.119	-1248
268.180	-807
268.241	-1069
268.302	-342
268.363	-1296
268.424	-463
268.485	-985
268.546	-747
268.607	-557
268.668	-336
268.729	-503
268.790	-353
268.851	-1026
268.912	-601
268.972	-760
269.033	-637
269.094	-1168
269.155	-30
269.216	-189
269.277	-638
269.338	-701
269.398	-654
269.459	-907
269.520	120
269.581	-645
269.642	-106
269.702	-1237
269.763	-316
269.824	-1187
269.885	-429
269.945	-1326
270.006	13
270.067	-1320
270.128	-694
270.188	-854
270.249	-682
270.310	-591
270.370	-621
270.431	-1539
270.492	-588
270.553	-780
270.613	-352
270.674	-101
270.734	-421
270.795	-1473
270.856	-505
270.916	-1589
270.977	-1145
271.038	-3
271.098	-291
271.159	-755
271.219	-222
271.280	-110
271.340	296
271.401	-1701
271.462	-1364
271.522	-1035
271.583	-618
271.643	-1391
271.704	-497
271.764	-507
271.825	-617
271.885	57
271.946	1755
272.006	-199
272.066	611
272.127	989
272.187	2000
272.248	140
272.308	-860
272.369	158
272.429	748
272.489	-1282
272.550	-551
272.610	-723
272.671	63
272.731	-613
272.791	-514
272.852	-1419
272.912	-575
272.972	-305
273.033	-352
273.093	-1239
273.153	-14
273.214	-710
273.274	-946
273.334	-410
273.394	550
273.455	-292
273.515	-69
273.575	163
273.635	-297
273.696	-696
273.756	-466
273.816	130
273.876	131
273.936	-1313
273.997	231
274.057	-1266
274.117	-1141
274.177	-598
274.237	420
274.297	111
274.358	-207
274.418	-786
274.478	247
274.538	-778
274.598	-591
274.658	-434
274.718	-1118
274.778	-358
274.838	-881
274.898	-785
274.958	-153
275.018	-631
275.078	161
275.138	-239
275.198	-709
275.258	-917
275.318	-797
275.378	-1303
275.438	230
275.498	-1527
275.558	98
275.618	76
275.678	-583
275.738	-208
275.798	-636
275.858	-1447
275.918	-569
275.978	-665
276.038	-24
276.098	-669
276.157	81
276.217	-473
276.277	-717
276.337	-1356
276.397	-842
276.457	-416
276.517	46
276.576	-874
276.636	-1200
276.696	-1664
276.756	-125
276.815	-392
276.875	-1299
276.935	-1106
276.995	148
277.055	-674
277.114	216
277.174	-484
277.234	-255
277.293	-685
277.353	-219
277.413	-536
277.472	-584
277.532	-1079
277.592	-462
277.651	-329
277.711	511
277.771	-1135
277.830	874
277.890	460
277.950	-260
278.009	2010
278.069	743
278.128	322
278.188	537
278.248	-303
278.307	684
278.367	441
278.426	-678
278.486	-1060
278.545	-715
278.605	-1375
278.664	-277
278.724	-1337
278.783	-57
278.843	270
278.902	-304
278.962	-715
279.021	186
279.081	-783
279.140	-49
279.199	-1597
279.259	-831
279.318	-166
279.378	-141
279.437	-274
279.496	2945
279.556	8458
279.615	7690
279.675	690
279.734	663
279.793	-168
279.853	2344
279.912	313
279.971	313
280.031	-630
280.090	1302
280.149	945
280.208	881
280.268	4608
280.327	4832
280.386	-11
280.445	516
280.505	-691
280.564	-462
280.623	-623
280.682	-304
280.742	-837
280.801	-163
280.860	-1045
280.919	-390
280.978	-627
281.037	-759
281.097	-800
281.156	86
281.215	-158
281.274	-377
281.333	-546
281.392	635
281.451	-302
281.510	-183
281.569	-1078
281.628	-193
281.688	-588
281.747	-586
281.806	-1055
281.865	-169
281.924	-1747
281.983	-637
282.042	-1541
282.101	-550
282.160	-297
282.219	-517
282.278	-1272
282.337	-228
282.396	-616
282.454	-675
282.513	-929
282.572	231
282.631	-1070
282.690	379
282.749	-1249
282.808	-179
282.867	-925
282.926	-505
282.985	-1041
283.043	-156
283.102	-1214
283.161	-591
283.220	-467
283.279	350
283.338	-484
283.396	453
283.455	-950
283.514	54
283.573	-738
283.631	-545
283.690	-179
283.749	-361
283.808	-455
283.866	-395
283.925	-1475
283.984	-240
284.043	-1446
284.101	161
284.160	-686
284.219	-174
284.277	-836
284.336	-19
284.395	801
284.453	324
284.512	-355
284.570	198
284.629	-919
284.688	98
284.746	-192
284.805	-338
284.863	-419
284.922	-17
284.981	-423
285.039	993
285.098	1494
285.156	5976
285.215	14360
285.273	14349
285.332	7403
285.390	2874
285.449	1440
285.507	1958
285.566	-225
285.624	95
285.683	503
285.741	452
285.799	-660
285.858	-49
285.916	-1293
285.975	-267
286.033	-1410
286.091	293
286.150	-903
286.208	207
286.267	-609
286.325	-668
286.383	-859
286.442	-587
286.500	-1337
286.558	459
286.616	-537
286.675	186
286.733	-759
286.791	-447
286.850	-675
286.908	-247
286.966	-689
287.024	-23
287.083	-809
287.141	160
287.199	-299
287.257	-565
287.315	-777
287.374	-264
287.432	-770
287.490	217
287.548	-596
287.606	299
287.664	-364
287.723	-340
287.781	-431
287.839	-626
287.897	-92
287.955	-53
288.013	-192
288.071	1060
288.129	4487
288.187	19058
288.245	8356
288.303	1894
288.361	822
288.419	325
288.477	-550
288.535	-728
288.593	-513
288.651	-27
288.709	-1497
288.767	-646
288.825	-822
288.883	259
288.941	-685
288.999	58
289.057	-1218
289.115	-356
289.173	-894
289.231	-102
289.289	-548
289.346	-426
289.404	-572
289.462	14
289.520	-998
289.578	-207
289.636	-1092
289.694	-403
289.751	-158
289.809	-34
289.867	-734
289.925	23
289.983	-955
290.040	-81
290.098	-695
290.156	-406
290.214	-1113
290.271	-436
290.329	-881
290.387	-379
290.444	-400
290.502	-580
290.560	-988
290.617	-346
290.675	-976
290.733	332
290.790	-166
290.848	-705
290.906	-1044
290.963	315
291.021	-271
291.078	-158
291.136	-1167
291.194	529
291.251	855
291.309	-407
291.366	-874
291.424	-765
291.481	-228
291.539	-73
291.596	-559
291.654	-940
291.711	-606
291.769	39
291.826	-295
291.884	-302
291.941	-1186
291.999	-570
292.056	-370
292.114	-751
292.171	-822
292.228	-517
292.286	-492
292.343	-378
292.401	-356
292.458	762
292.515	-955
292.573	314
292.630	-663
292.687	-464
292.745	-985
292.802	-1397
292.859	-122
292.917	840
292.974	-31
293.031	-884
293.089	-367
293.146	-638
293.203	-439
293.260	-827
293.318	-1534
293.375	-73
293.432	-1522
293.489	105
293.546	-799
293.604	-442
293.661	-635
293.718	1182
293.775	-403
293.832	-478
293.889	-429
293.947	-199
294.004	-1205
294.061	-456
294.118	-600
294.175	863
294.232	1552
294.289	90
294.346	-971
294.403	-383
294.460	-635
294.517	-700
294.574	-744
294.631	-730
294.688	-293
294.745	-149
294.802	1316
294.859	2374
294.916	-172
294.973	265
295.030	-709
295.087	-5
295.144	337
295.201	-194
295.258	-869
295.315	-309
295.372	163
295.429	1082
295.486	-662
295.542	450
295.599	802
295.656	1115
295.713	-105
295.770	1945
295.827	-577
295.883	-71
295.940	-783
295.997	-511
296.054	-972
296.111	-1185
296.167	-737
296.224	-293
296.281	-619
296.338	-233
296.394	-1124
296.451	-969
296.508	-958
296.564	126
296.621	-75
296.678	1163
296.734	2061
296.791	291
296.848	-792
296.904	-1031
296.961	-273
297.018	1155
297.074	194
297.131	220
297.187	-810
297.244	-834
297.301	651
297.357	3282
297.414	-28
297.470	-267
297.527	-546
297.583	-194
297.640	-617
297.696	-456
297.753	-1197
297.809	-272
297.866	-1350
297.922	-225
297.979	-795
298.035	-220
298.092	-1011
298.148	28
298.204	228
298.261	141
298.317	219
298.374	1215
298.430	251
298.486	-104
298.543	-149
298.599	-280
298.656	-1532
298.712	-186
298.768	324
298.824	532
298.881	-672
298.937	-406
298.993	175
299.050	-327
299.106	-1230
299.162	-1140
299.218	-695
299.275	-866
299.331	-564
299.387	489
299.443	1562
299.500	4640
299.556	3491
299.612	1029
299.668	-500
299.724	2401
299.780	4774
299.837	645
299.893	-54
299.949	2749
300.005	4490
300.061	3316
300.117	6456
300.173	2166
300.229	37
300.285	313
300.341	-706
300.397	39
300.453	-716
300.510	122
300.566	-446
300.622	1278
300.678	5168
300.734	9172
300.790	4400
300.845	2167
300.901	2834
300.957	5116
301.013	1941
301.069	267
301.125	-27
301.181	33
301.237	-769
301.293	-786
301.349	-295
301.405	30
301.461	-1015
301.516	-123
301.572	-1068
301.628	-652
301.684	-779
301.740	-540
301.796	457
301.851	-272
301.907	-214
301.963	684
302.019	76
302.074	4071
302.130	4796
302.186	2152
302.242	426
302.297	-487
302.353	-693
302.409	464
302.464	-28
302.520	-257
302.576	800
302.631	1555
302.687	177
302.743	-98
302.798	-188
302.854	443
302.910	-462
302.965	-1296
303.021	-511
303.076	47
303.132	-124
303.187	239
303.243	-204
303.299	-825
303.354	-1260
303.410	-344
303.465	-257
303.521	-675
303.576	-979
303.632	-160
303.687	-1269
303.743	828
303.798	1190
303.853	473
303.909	-202
303.964	90
304.020	-131
304.075	216
304.130	-438
304.186	-422
304.241	720
304.297	405
304.352	-548
304.358	-491
304.407	-38
304.449	-452
304.463	-587
304.518	-352
304.539	-532
304.573	-857
304.629	-174
304.630	-187
304.684	-722
304.720	390
304.739	941
304.794	827
304.811	833
304.850	802
304.902	316
304.905	285
304.960	-15
304.992	-58
305.015	-103
305.071	-431
305.083	-434
305.126	-432
305.173	-178
305.181	-123
305.236	-1094
305.264	-453
305.292	125
305.347	-210
305.354	-134
305.402	468
305.445	417
305.457	377
305.512	139
305.535	-248
305.567	-762
305.622	-318
305.626	-322
305.678	-105
305.716	1274
305.733	1757
305.788	2040
305.807	1669
305.843	1135
305.897	1839
305.898	1845
305.953	1851
305.988	1042
306.008	636
306.063	-221
306.078	-43
306.118	436
306.168	512
306.173	530
306.228	111
306.259	-24
306.283	-64
306.338	-23
306.349	51
306.393	173
306.440	-188
306.448	-240
306.503	805
306.530	539
306.558	395
306.613	1445
306.620	1316
306.668	741
306.711	2118
306.723	2245
306.778	1433
306.801	1054
306.833	928
306.888	143
306.892	123
306.943	59
306.982	398
306.997	496
307.052	829
307.072	561
307.107	279
307.162	689
307.163	686
307.217	775
307.253	864
307.272	837
307.327	156
307.343	262
307.381	678
307.434	308
307.436	324
307.491	1591
307.524	2139
307.546	2172
307.600	2145
307.614	1921
307.655	947
307.704	676
307.710	760
307.765	1327
307.795	1469
307.819	1502
307.874	2091
307.885	2168
307.929	2192
307.975	1794
307.984	1925
308.038	3499
308.065	4314
308.093	8173
308.148	17344
308.156	19298
308.202	29750
308.246	38256
308.257	36851
308.312	19214
308.336	12059
308.366	8903
308.421	4847
308.426	4502
308.475	2646
308.517	1788
308.530	1706
308.585	1917
308.607	1832
308.639	1591
308.694	1241
308.697	1233
308.748	2696
308.787	3664
308.803	3487
308.857	2801
308.877	2546
308.912	2726
308.967	2692
308.967	2691
309.021	4155
309.058	4946
309.076	6311
309.130	11307
309.148	12976
309.185	24953
309.238	45552
309.239	45736
309.293	49684
309.328	46942
309.348	40283
309.402	18699
309.418	13011
309.457	8899
309.508	5368
309.511	5295
309.566	4519
309.598	3986
309.620	4223
309.674	5352
309.688	5586
309.729	5497
309.778	4954
309.783	4848
309.837	3757
309.868	3080
309.892	3408
309.946	4186
309.959	4455
310.001	5238
310.049	5755
310.055	5580
310.109	3846
310.139	2833
310.163	2520
310.218	1889
310.229	1728
310.272	1793
310.319	2129
310.326	2103
310.381	1638
310.409	1453
310.435	1482
310.489	1407
310.499	1413
310.543	1866
310.589	2185
310.598	2179
310.652	2209
310.679	2145
310.706	2030
310.760	1903
310.769	1856
310.814	2024
310.859	2222
310.868	2271
310.923	2287
310.948	2412
310.977	2381
311.031	2080
311.038	2057
311.085	1646
311.128	1000
311.139	1126
311.193	1987
311.218	2306
311.247	2258
311.301	2161
311.308	2133
311.356	2524
311.398	2874
311.410	2813
311.464	2419
311.488	2285
311.518	2342
311.572	2278
311.578	2271
311.626	2060
311.668	1792
311.680	1932
311.734	2536
311.758	2805
311.788	2824
311.842	2841
311.847	2828
311.896	3130
311.937	3401
311.950	3356
312.004	3083
312.027	2957
312.058	2847
312.112	2619
312.117	2585
312.165	2901
312.207	3147
312.297	2864
312.386	2492
312.476	2992
312.566	2617
312.656	2700
312.745	2733
312.835	3778
312.925	2649
313.015	2889
313.104	2780
313.194	2256
313.284	3148
313.374	3777
313.463	3492
313.553	3510
313.643	3841
313.732	4100
313.822	2866
313.912	4033
314.001	4868
314.091	4854
314.180	4266
314.270	5404
314.360	4285
314.449	4989
314.539	4292
314.628	4482
314.718	4798
314.808	4801
314.897	5236
314.987	5736
315.076	4895
315.166	5779
315.255	4562
315.345	4869
315.434	4137
315.524	4830
315.613	5179
315.703	5446
315.792	10289
315.881	27726
315.971	10273
316.060	5338
316.150	5194
316.239	5040
316.328	4648
316.418	4657
316.507	4885
316.597	5757
316.686	5970
316.775	5921
316.865	5977
316.954	4944
317.043	4375
317.133	5049
317.222	3113
317.311	3462
317.400	1675
317.490	4602
317.579	3757
317.668	3643
317.757	6406
317.847	14103
317.936	41528
318.025	13359
318.114	12323
318.203	7621
318.293	5215
318.382	8615
318.471	8816
318.560	9733
318.649	14440
318.738	5740
318.828	4067
318.917	3550
319.006	3729
319.095	5672
319.184	13754
319.273	7775
319.362	3507
319.451	3901
319.540	3052
319.629	4410
319.718	4555
319.807	5000
319.896	5902
319.985	17283
320.074	6519
320.163	4093
320.252	4211
320.341	6192
320.430	4428
320.519	5768
320.608	4166
320.697	6704
320.786	6713
320.875	6812
320.964	8506
321.053	7603
321.142	8427
321.230	9856
321.319	10060
321.408	12949
321.497	12302
321.586	10419
321.675	8469
321.764	8904
321.852	7939
321.941	9386
322.030	8400
322.119	8769
322.207	11987
322.296	12929
322.385	13046
322.474	14919
322.562	17673
322.651	12794
322.740	9858
322.829	9472
322.917	8439
323.006	7432
323.095	6098
323.183	6092
323.272	6542
323.361	8072
323.449	11459
323.538	6235
323.626	8519
323.715	6598
323.804	5037
323.892	7545
323.981	5393
324.069	4940
324.158	5254
324.246	5633
324.335	5136
324.424	5322
324.512	4411
324.601	4766
324.689	4408
324.778	4939
324.866	4268
324.954	5008
325.043	4627
325.131	4209
325.220	5879
325.308	4970
325.397	4898
325.485	4607
325.574	3568
325.662	3931
325.750	2919
325.839	4040
325.927	3770
326.015	3709
326.104	4528
326.192	5000
326.280	3457
326.369	4044
326.457	4259
326.545	4886
326.634	4007
326.722	3800
326.810	3657
326.898	4532
326.987	4673
327.075	4539
327.163	3992
327.251	4401
327.340	4130
327.428	6122
327.516	6175
327.604	6189
327.692	4709
327.781	3896
327.869	3852
327.957	3902
328.045	3475
328.133	4464
328.221	3757
328.309	3928
328.397	3632
328.485	4621
328.574	6180
328.662	10257
328.750	6910
328.838	4839
328.926	4312
329.014	4644
329.102	4013
329.190	5702
329.278	4414
329.366	4612
329.454	4065
329.542	4397
329.630	3678
329.718	4469
329.806	4076
329.893	5091
329.981	3526
330.069	3982
330.157	5154
330.245	8519
330.333	5293
330.421	3516
330.509	3973
330.597	5635
330.684	5204
330.772	4873
330.860	4182
330.948	4742
331.036	3997
331.123	3686
331.211	3509
331.299	4661
331.387	5178
331.475	5873
331.562	4125
331.650	3810
331.738	4124
331.825	5273
331.913	4372
332.001	4248
332.089	3618
332.176	5271
332.264	4972
332.352	4866
332.439	4167
332.527	4586
332.614	3903
332.702	4482
332.790	3714
332.877	4402
332.965	5481
333.052	5042
333.140	4502
333.228	5978
333.315	3777
333.403	4532
333.490	5293
333.578	5060
333.665	6482
333.753	5796
333.840	4961
333.928	5954
334.015	7334
334.103	10319
334.190	20065
334.278	14368
334.365	16669
334.452	18274
334.540	11474
334.627	12611
334.715	14121
334.802	20557
334.889	35178
334.977	45438
335.064	26699
335.151	15145
335.239	11018
335.326	9918
335.413	15112
335.501	18221
335.588	9931
335.675	10465
335.762	12886
335.850	17644
335.937	22905
336.024	35748
336.111	59796
336.199	52266
336.286	25841
336.373	14503
336.460	9815
336.547	8970
336.635	8262
336.722	7665
336.809	6156
336.896	5093
336.983	8767
337.070	13991
337.157	20747
337.245	10791
337.332	9160
337.419	6065
337.506	5122
337.593	6365
337.680	8522
337.767	14923
337.854	6745
337.941	6804
338.028	5885
338.115	4833
338.202	5942
338.289	5673
338.376	8862
338.463	5909
338.550	9424
338.637	10868
338.724	5017
338.811	5211
338.898	3621
338.984	4865
339.071	4163
339.158	4576
339.245	4806
339.332	5590
339.419	4130
339.506	4965
339.593	3222
339.679	4645
339.766	3837
339.853	4096
339.940	4135
340.027	4302
340.113	3731
340.200	3458
340.287	4050
340.374	4373
340.460	3954
340.547	2812
340.634	3997
340.720	5951
340.807	4790
340.894	4484
340.980	4461
341.067	4021
341.154	4778
341.240	4465
341.327	5285
341.414	5559
341.500	4565
341.587	5001
341.674	4275
341.760	4678
341.847	4463
341.933	4467
342.020	3388
342.106	4541
342.193	4419
342.279	3512
342.366	3969
342.452	3810
342.539	3461
342.625	4813
342.712	5407
342.798	4795
342.885	4529
342.971	4193
343.058	3631
343.144	3988
343.230	4527
343.317	3589
343.403	3623
343.490	4022
343.576	3333
343.662	5139
343.749	4201
343.835	4566
343.921	4773
344.008	10444
344.094	20825
344.180	7014
344.267	5067
344.353	7763
344.439	7578
344.525	4520
344.612	5398
344.698	6226
344.784	3239
344.870	4550
344.957	3025
345.043	4869
345.129	4025
345.215	5360
345.301	3752
345.387	3405
345.474	3987
345.560	4336
345.646	3546
345.732	3591
345.818	3255
345.904	3429
345.990	4104
346.076	4131
346.162	3414
346.249	4934
346.335	3493
346.421	4975
346.507	4696
346.593	10268
346.679	4162
346.765	5674
346.851	6732
346.937	5846
347.023	4996
347.108	3933
347.194	3602
347.280	4736
347.366	4714
347.452	12602
347.538	19292
347.624	13194
347.710	9492
347.796	5161
347.882	5026
347.967	4450
348.053	4004
348.139	4184
348.225	3847
348.311	4081
348.397	3505
348.482	5855
348.568	4888
348.654	6300
348.740	16111
348.825	17364
348.911	8547
348.997	8425
349.083	12245
349.168	4992
349.254	4054
349.340	4394
349.425	4131
349.511	4708
349.597	4471
349.682	4781
349.768	8067
349.854	5808
349.939	4810
350.025	4588
350.110	4298
350.196	4963
350.282	3986
350.367	4816
350.453	4256
350.538	4159
350.624	3563
350.709	4608
350.795	3524
350.880	3614
350.966	5040
351.051	4969
351.137	4190
351.222	5137
351.308	4940
351.393	6378
351.479	3672
351.564	3990
351.649	3920
351.735	4225
351.820	4084
351.906	4527
351.991	3471
352.076	5259
352.162	7037
352.247	4248
352.332	3998
352.418	3853
352.503	4738
352.588	8090
352.673	6528
352.759	3977
352.844	3507
352.929	3849
353.014	3017
353.100	4129
353.185	5360
353.270	4456
353.355	4538
353.441	4462
353.526	3375
353.611	4391
353.696	3633
353.781	4593
353.866	2271
353.952	4261
354.037	3545
354.122	5897
354.207	3782
354.292	4114
354.377	3057
354.462	4386
354.547	3214
354.632	3525
354.717	4420
354.802	5843
354.887	3361
354.972	4244
355.057	3528
355.142	3837
355.227	3936
355.312	3674
355.397	3684
355.482	5863
355.567	4482
355.652	6120
355.737	4925
355.822	8254
355.907	6911
355.991	4978
356.076	3158
356.161	4205
356.246	2971
356.331	4576
356.416	4593
356.501	13840
356.585	12191
356.670	4949
356.755	6059
356.840	4992
356.924	8624
357.009	23374
357.094	11429
357.179	5012
357.263	4526
357.348	4897
357.433	5191
357.517	4354
357.602	4647
357.687	3640
357.771	6142
357.856	7953
357.941	5421
358.025	8588
358.110	24204
358.195	12874
358.279	5451
358.364	4891
358.448	6102
358.533	12592
358.617	8996
358.702	9997
358.787	5248
358.871	5235
358.956	4632
359.040	4538
359.125	4219
359.209	5002
359.294	5784
359.378	8966
359.462	6847
359.547	4403
359.631	3643
359.716	3900
359.800	4076
359.885	5346
359.969	3718
360.053	5481
360.138	3506
360.222	4549
360.306	3855
360.391	4753
360.475	5476
360.559	6911
360.644	6527
360.728	5603
360.812	9790
360.896	17994
360.981	8663
361.065	6976
361.149	5287
361.233	5641
361.318	4070
361.402	5185
361.486	6722
361.570	5491
361.654	5358
361.739	6735
361.823	11561
361.907	19823
361.991	8261
362.075	8307
362.159	10291
362.243	18593
362.327	41064
362.411	63426
362.495	27545
362.580	13395
362.664	12340
362.748	12999
362.832	20011
362.916	38568
363.000	95394
363.084	133982
363.168	64129
363.252	22712
363.336	13424
363.420	12103
363.503	18438
363.587	20697
363.671	9821
363.755	8563
363.839	9847
363.923	9552
364.007	12595
364.091	17366
364.175	24788
364.258	61425
364.342	108069
364.426	170307
364.510	104119
364.594	37698
364.677	19947
364.761	21696
364.845	17002
364.929	8613
365.013	7976
365.096	7118
365.180	6331
365.264	9466
365.347	24217
365.431	11999
365.515	5529
365.598	4473
365.682	6903
365.766	6223
365.849	7355
365.933	5537
366.017	7645
366.100	6878
366.184	5662
366.267	6587
366.351	6135
366.435	5451
366.518	4195
366.602	6327
366.685	6145
366.769	6328
366.852	5947
366.936	6444
367.019	5591
367.103	4972
367.186	7016
367.270	5542
367.353	4532
367.436	6522
367.520	5863
367.603	7138
367.687	4563
367.770	6288
367.853	6601
367.937	9055
368.020	10166
368.104	4700
368.187	6158
368.270	6055
368.353	5595
368.437	5298
368.520	6913
368.603	6563
368.687	5755
368.770	10005
368.853	5280
368.936	5659
369.020	6885
369.103	4691
369.186	4243
369.269	4842
369.352	5462
369.436	5108
369.519	5140
369.602	3611
369.685	6560
369.768	4094
369.851	4651
369.934	4163
370.018	4244
370.101	4151
370.184	6744
370.267	5308
370.350	5097
370.433	5770
370.516	11092
370.599	22282
370.682	8552
370.765	7696
370.848	8681
370.931	12541
371.014	8363
371.097	4743
371.180	5140
371.263	5521
371.346	3549
371.429	5829
371.511	3947
371.594	4444
371.677	6399
371.760	6983
371.843	5029
371.926	10736
372.009	21364
372.091	11012
372.174	6529
372.257	13712
372.340	7127
372.423	6119
372.505	7955
372.588	5116
372.671	6652
372.754	10543
372.836	8276
372.919	9554
373.002	13814
373.085	6572
373.167	5709
373.250	7457
373.332	12359
373.415	15961
373.498	27403
373.580	15008
373.663	28538
373.746	31901
373.828	8724
373.911	7433
373.993	5668
374.076	14332
374.159	13004
374.241	7410
374.324	11116
374.406	10171
374.489	10932
374.571	25448
374.654	12347
374.736	8816
374.819	15974
374.901	23204
374.983	22358
375.066	8727
375.148	7346
375.231	12904
375.313	22063
375.395	11409
375.478	7456
375.560	7594
375.643	7649
375.725	8823
375.807	18940
375.890	16912
375.972	7030
376.054	7578
376.136	7821
376.219	6877
376.301	9053
376.383	16390
376.465	9113
376.548	6016
376.630	6845
376.712	14065
376.794	9405
376.877	5567
376.959	4561
377.041	5792
377.123	5113
377.205	6631
377.287	4473
377.369	5903
377.452	5479
377.534	6061
377.616	5409
377.698	5045
377.780	4192
377.862	6118
377.944	6650
378.026	4405
378.108	5664
378.190	5317
378.272	5797
378.354	5141
378.436	4684
378.518	4556
378.600	6154
378.682	6752
378.764	7735
378.846	7993
378.928	5619
379.010	5212
379.091	5660
379.173	5618
379.255	3889
379.337	4434
379.419	6865
379.501	11640
379.583	7006
379.664	5035
379.746	4560
379.828	9367
379.910	8785
379.991	9857
380.073	4763
380.155	4715
380.237	4292
380.318	5121
380.400	4212
380.482	4968
380.564	5220
380.645	4927
380.727	4768
380.809	5515
380.890	4222
380.972	3521
381.053	4020
381.135	4708
381.217	3874
381.298	9241
381.380	5945
381.461	5340
381.543	12181
381.624	15911
381.706	6555
381.787	5271
381.869	5547
381.951	7340
382.032	19600
382.113	16774
382.195	4202
382.276	7158
382.358	6236
382.439	12621
382.521	14573
382.602	21717
382.684	10656
382.765	15171
382.846	16662
382.928	23504
383.009	14846
383.090	12659
383.172	32846
383.253	49448
383.334	19729
383.416	20118
383.497	12658
383.578	8186
383.659	10407
383.741	31325
383.822	72868
383.903	39215
383.984	14377
384.066	21276
384.147	14221
384.228	8073
384.309	7178
384.390	7521
384.471	7404
384.553	6784
384.634	5610
384.715	6004
384.796	5262
384.877	5475
384.958	8027
385.039	8192
385.120	6375
385.201	6654
385.282	5943
385.363	7201
385.444	6346
385.525	7945
385.606	13545
385.687	13974
385.768	8035
385.849	7954
385.930	15103
386.011	21732
386.092	9667
386.173	8260
386.254	7342
386.335	8390
386.416	8136
386.496	8988
386.577	10909
386.658	8489
386.739	7296
386.820	9622
386.901	7143
386.981	9313
387.062	9022
387.143	10172
387.224	13865
387.304	15936
387.385	13639
387.466	12326
387.547	13681
387.627	12799
387.708	14292
387.789	19731
387.869	20778
387.950	14257
388.031	9513
388.111	7019
388.192	10123
388.273	12456
388.353	8652
388.434	7933
388.514	7891
388.595	14477
388.676	17083
388.756	10879
388.837	9375
388.917	8189
388.998	4761
389.078	7038
389.159	6472
389.239	4403
389.320	8328
389.400	4908
389.480	7671
389.561	10912
389.641	9306
389.722	7459
389.802	7181
389.883	8647
389.963	13851
390.043	10415
390.124	5908
390.204	7544
390.284	9368
390.365	7545
390.445	11203
390.525	18966
390.605	17097
390.686	7812
390.766	7673
390.846	7289
390.927	5332
391.007	6210
391.087	7025
391.167	6176
391.247	5399
391.328	7090
391.408	7907
391.488	7928
391.568	5342
391.648	7029
391.728	7727
391.808	8316
391.888	7352
391.969	10203
392.049	11692
392.129	10729
392.209	10512
392.289	16912
392.369	13453
392.449	14379
392.529	12794
392.609	14072
392.689	15509
392.769	21235
392.849	23763
392.929	27774
393.009	39538
393.089	49967
393.169	80718
393.248	162271
393.328	285703
393.408	296838
393.488	179040
393.568	84106
393.648	46800
393.728	30718
393.807	21435
393.887	19593
393.967	15602
394.047	14362
394.127	13079
394.206	14127
394.286	25549
394.366	86725
394.446	102373
394.525	30669
394.605	12740
394.685	10573
394.764	13164
394.844	25006
394.924	28249
395.003	12845
395.083	8387
395.163	7944
395.242	7596
395.322	8009
395.402	6065
395.481	9760
395.561	11674
395.640	31975
395.720	56159
395.799	37853
395.879	20619
395.958	15439
396.038	33622
396.117	111614
396.197	129749
396.276	47644
396.356	22126
396.435	22422
396.515	24252
396.594	33334
396.673	61843
396.753	145443
396.832	264326
396.912	225497
396.991	95708
397.070	44886
397.150	26238
397.229	24330
397.308	39270
397.388	74848
397.467	41146
397.546	15097
397.625	8773
397.705	11692
397.784	8882
397.863	8003
397.942	7865
398.022	7742
398.101	8729
398.180	17729
398.259	11365
398.338	8110
398.417	6076
398.497	5607
398.576	6677
398.655	5100
398.734	6566
398.813	6324
398.892	7442
398.971	16968
399.050	9597
399.129	5148
399.208	5685
399.287	6835
399.366	4524
399.445	4770
399.524	4532
399.603	3882
399.682	5682
399.761	6716
399.840	16313
399.919	14866
399.998	5490
400.077	4039
400.156	3520
400.235	7044
400.313	3774
400.392	4246
400.471	6086
400.550	7751
400.629	3905
400.708	6208
400.786	3978
400.865	4834
400.944	5334
401.023	7164
401.102	3673
401.180	4173
401.259	3658
401.338	4740
401.416	4373
401.495	3660
401.574	4720
401.652	2940
401.731	4935
401.810	4232
401.888	3713
401.967	3152
402.046	3554
402.124	4200
402.203	2579
402.281	4199
402.360	3330
402.438	6240
402.517	4372
402.596	3619
402.674	2773
402.753	3616
402.831	3722
402.910	4801
402.988	6117
403.066	15997
403.145	11227
403.223	7406
403.302	13829
403.380	12831
403.459	12396
403.537	6490
403.615	4762
403.694	3125
403.772	4503
403.850	4845
403.929	3464
404.007	2911
404.085	5115
404.164	4161
404.242	4178
404.320	7149
404.398	16218
404.477	14954
404.555	17964
404.633	17252
404.711	13756
404.789	10261
404.868	4151
404.946	3019
405.024	4143
405.102	3864
405.180	2169
405.258	2675
405.336	3112
405.415	2355
405.493	4180
405.571	4731
405.649	2852
405.727	2594
405.805	4165
405.883	3719
405.961	4506
406.039	3544
406.117	1642
406.195	3402
406.273	3336
406.351	12850
406.429	10227
406.507	3439
406.585	2688
406.663	3269
406.740	2571
406.818	2601
406.896	2203
406.974	3990
407.052	1783
407.130	8684
407.208	10568
407.285	4573
407.363	1948
407.441	3062
407.519	1669
407.596	3935
407.674	8579
407.752	34661
407.830	28874
407.907	7316
407.985	3313
408.063	2902
408.141	2386
408.218	3577
408.296	3317
408.373	3342
408.451	4469
408.529	5003
408.606	3873
408.684	5153
408.762	4037
408.839	5149
408.917	4959
408.994	5448
409.072	4977
409.149	6888
409.227	10445
409.304	15349
409.382	16666
409.459	18750
409.537	23020
409.614	22767
409.692	16749
409.769	16684
409.846	22403
409.924	29412
410.001	20820
410.079	15862
410.156	11949
410.233	10084
410.311	7894
410.388	7276
410.465	6509
410.543	6124
410.620	6861
410.697	6467
410.775	6277
410.852	5135
410.929	7532
411.006	8452
411.083	6433
411.161	6323
411.238	6218
411.315	5615
411.392	4770
411.469	6006
411.547	5447
411.624	3271
411.701	4151
411.778	4801
411.855	5470
411.932	4058
412.009	3927
412.086	4765
412.163	4140
412.240	3706
412.317	4386
412.394	4650
412.471	4020
412.548	3840
412.625	3358
412.702	3859
412.779	4207
412.856	4829
412.933	3205
413.010	3522
413.087	3142
413.164	5092
413.241	5563
413.318	2427
413.395	4580
413.471	3270
413.548	3086
413.625	4013
413.702	2557
413.779	3637
413.855	2789
413.932	2507
414.009	2048
414.086	3550
414.162	3115
414.239	3808
414.316	4243
414.393	7671
414.469	3448
414.546	2871
414.623	2877
414.699	2769
414.776	2446
414.853	2731
414.929	2750
415.006	2399
415.082	2527
415.159	2903
415.236	2648
415.312	3057
415.389	2862
415.465	3029
415.542	1955
415.618	1802
415.695	2806
415.771	2345
415.848	2513
415.924	3104
416.000	1972
416.077	3276
416.153	1593
416.230	2230
416.306	2849
416.383	2795
416.459	2172
416.535	1986
416.612	1592
416.688	2861
416.764	2421
416.841	1785
416.917	2828
416.993	2870
417.069	3040
417.146	2435
417.222	2679
417.298	2072
417.374	2054
417.451	2344
417.527	2110
417.603	2222
417.679	2640
417.755	2593
417.831	1926
417.908	2762
417.984	2674
418.060	2196
418.136	3015
418.212	2875
418.288	2506
418.364	3121
418.440	2342
418.516	3307
418.592	2792
418.668	3273
418.744	2784
418.820	3817
418.896	2226
418.972	2690
419.048	2770
419.124	4667
419.200	2371
419.276	3412
419.352	2319
419.428	3819
419.504	2889
419.579	4296
419.655	2514
419.731	3764
419.807	4090
419.883	4553
419.959	4697
420.034	3894
420.110	4850
420.186	6137
420.262	6496
420.337	4695
420.413	4798
420.489	5915
420.565	5932
420.640	6410
420.716	7040
420.792	5965
420.867	7164
420.943	7794
421.019	7485
421.094	7954
421.170	9554
421.245	9367
421.321	10114
421.397	11549
421.472	17821
421.548	33157
421.623	25648
421.699	18384
421.774	19870
421.850	20618
421.925	25693
422.001	29133
422.076	35000
422.152	43461
422.227	54362
422.302	71138
422.378	94450
422.453	127399
422.529	149785
422.604	131310
422.679	93209
422.755	128062
422.830	161387
422.905	142244
422.981	108911
423.056	82043
423.131	64845
423.207	50243
423.282	40780
423.357	34809
423.432	28446
423.508	25488
423.583	21080
423.658	19273
423.733	16893
423.808	15794
423.883	15084
423.959	15326
424.034	17244
424.109	16789
424.184	11932
424.259	10926
424.334	10107
424.409	7887
424.484	7326
424.559	7595
424.634	6566
424.709	7302
424.784	6398
424.859	5794
424.934	5368
425.009	6518
425.084	8024
425.159	5994
425.234	5320
425.309	4093
425.384	5618
425.459	5960
425.534	5662
425.609	3329
425.683	4051
425.758	4655
425.833	4591
425.908	5218
425.983	4137
426.058	7455
426.132	5127
426.207	3876
426.282	4508
426.357	4144
426.431	4434
426.506	4120
426.581	3141
426.655	4356
426.730	2861
426.805	2856
426.879	3033
426.954	2827
427.029	3347
427.103	6642
427.178	10230
427.253	6387
427.327	3708
427.402	2837
427.476	4629
427.551	3649
427.625	2691
427.700	3398
427.774	2258
427.849	3709
427.923	3080
427.998	3365
428.072	4101
428.147	7666
428.221	24082
428.296	71876
428.370	45808
428.444	9801
428.519	5762
428.593	5226
428.667	5694
428.742	7079
428.816	11948
428.890	44324
428.965	70517
429.039	22351
429.113	6893
429.188	4519
429.262	2951
429.336	3637
429.410	3616
429.485	3590
429.559	4611
429.633	4713
429.707	4551
429.781	10234
429.855	42836
429.930	64779
430.004	23881
430.078	19403
430.152	35323
430.226	90690
430.300	97088
430.374	28307
430.448	9957
430.522	8484
430.596	14365
430.670	18089
430.744	53882
430.818	65086
430.892	15731
430.966	4862
431.040	2594
431.114	1965
431.188	1573
431.262	2089
431.336	1664
431.410	3681
431.484	3158
431.557	4050
431.631	2738
431.705	5039
431.779	19671
431.853	69243
431.927	51302
432.000	10846
432.074	3416
432.148	2330
432.222	1273
432.295	1634
432.369	1133
432.443	1675
432.516	4931
432.590	9870
432.664	4133
432.737	1016
432.811	542
432.885	1321
432.958	1160
433.032	736
433.106	404
433.179	1434
433.253	1768
433.326	1069
433.400	1572
433.473	1291
433.547	562
433.620	1211
433.694	850
433.767	1888
433.841	1088
433.914	1350
433.988	1348
434.061	2008
434.134	1008
434.208	1169
434.281	197
434.355	665
434.428	1293
434.501	1268
434.575	433
434.648	680
434.721	692
434.795	2172
434.868	833
434.941	791
435.014	909
435.088	2057
435.161	1812
435.234	2647
435.307	2268
435.381	4062
435.454	5704
435.527	10448
435.600	12967
435.673	10270
435.746	6811
435.819	5727
435.892	4976
435.966	3929
436.039	2585
436.112	2491
436.185	1701
436.258	1337
436.331	671
436.404	1807
436.477	1618
436.550	1923
436.623	1840
436.696	1844
436.769	1284
436.842	1358
436.915	1214
436.987	1426
437.060	1634
437.133	1498
437.206	442
437.279	1630
437.352	792
437.425	790
437.498	1215
437.570	2124
437.643	673
437.716	577
437.789	1983
437.861	1428
437.934	1689
438.007	532
438.080	564
438.152	1722
438.225	1634
438.298	6186
438.370	15418
438.443	7142
438.516	1831
438.588	1776
438.661	677
438.734	474
438.806	1917
438.879	2046
438.951	1787
439.024	1690
439.096	1134
439.169	2138
439.241	670
439.314	1036
439.386	350
439.459	1301
439.531	827
439.604	1003
439.676	1355
439.749	1125
439.821	269
439.893	1450
439.966	755
440.038	896
440.110	1344
440.183	696
440.255	470
440.327	2437
440.400	2688
440.472	8667
440.544	5576
440.617	1995
440.689	1759
440.761	2127
440.833	2595
440.905	1996
440.978	397
441.050	1637
441.122	1704
441.194	1117
441.266	1153
441.338	1404
441.411	1543
441.483	3895
441.555	3617
441.627	2715
441.699	2355
441.771	2071
441.843	1573
441.915	2427
441.987	975
442.059	2037
442.131	3260
442.203	3641
442.275	4635
442.347	8105
442.419	14629
442.491	56485
442.563	114689
442.635	55420
442.706	13953
442.778	7326
442.850	4859
442.922	4170
442.994	4023
443.066	4994
443.137	5670
443.209	7676
443.281	11827
443.353	22394
443.425	65465
443.496	154530
443.568	171205
443.640	85124
443.711	23750
443.783	11056
443.855	6353
443.926	4291
443.998	4039
444.070	4314
444.141	3403
444.213	3311
444.285	2467
444.356	2643
444.428	2668
444.499	2509
444.571	2430
444.642	2829
444.714	2613
444.785	3613
444.857	3726
444.928	5620
445.000	4834
445.071	6789
445.143	8296
445.214	11705
445.285	19519
445.357	44823
445.428	112360
445.500	178673
445.571	165058
445.642	121673
445.714	50273
445.785	18334
445.856	8204
445.928	6278
445.999	4066
446.070	4076
446.141	3400
446.213	2685
446.284	1987
446.355	2243
446.426	972
446.497	1861
446.569	1272
446.640	883
446.711	1843
446.782	1137
446.853	897
446.924	1849
446.995	448
447.066	1626
447.138	2038
447.209	1349
447.280	531
447.351	850
447.422	158
447.493	899
447.564	689
447.635	122
447.706	581
447.777	827
447.847	584
447.918	-3
447.989	644
448.060	754
448.131	1556
448.202	2259
448.273	535
448.344	701
448.414	515
448.485	928
448.556	1044
448.627	767
448.698	1728
448.768	-137
448.839	-188
448.910	830
448.981	1388
449.051	614
449.122	-488
449.193	376
449.263	243
449.334	192
449.405	713
449.475	1636
449.546	1218
449.616	1024
449.687	1792
449.758	321
449.828	276
449.899	375
449.969	219
450.040	-15
450.110	408
450.181	600
450.251	315
450.322	995
450.392	298
450.463	650
450.533	444
450.604	772
450.674	149
450.744	1132
450.815	1022
450.885	1680
450.955	1326
451.026	697
451.096	853
451.166	1099
451.237	1757
451.307	4717
451.377	881
451.447	729
451.518	823
451.588	445
451.658	990
451.728	1095
451.799	2207
451.869	2535
451.939	-171
452.009	253
452.079	428
452.149	990
452.219	816
452.289	2988
452.360	1959
452.430	1825
452.500	1803
452.570	2863
452.640	9378
452.710	22921
452.780	27349
452.850	13844
452.920	6273
452.990	2852
453.060	1907
453.129	1506
453.199	1674
453.269	3458
453.339	6924
453.409	10427
453.479	9905
453.549	13602
453.619	14120
453.688	5267
453.758	1858
453.828	918
453.898	418
453.968	1217
454.037	734
454.087	974
454.107	1071
454.168	558
454.177	477
454.247	995
454.249	954
454.316	-179
454.330	-19
454.386	541
454.411	962
454.456	1663
454.492	1839
454.525	2025
454.574	1473
454.595	1203
454.655	190
454.665	24
454.734	535
454.736	561
454.804	1238
454.817	1520
454.873	2686
454.898	2893
454.943	3277
454.979	2028
455.013	867
455.060	1218
455.082	1367
455.141	400
455.152	223
455.221	1811
455.222	1837
455.291	3290
455.303	3351
455.360	3405
455.384	4569
455.430	6678
455.465	5591
455.499	4489
455.546	3062
455.569	2455
455.627	2370
455.638	2336
455.707	918
455.708	923
455.777	1240
455.789	1161
455.846	555
455.869	400
455.916	304
455.950	550
455.985	706
456.031	951
456.054	1075
456.112	875
456.124	828
456.193	759
456.193	752
456.262	647
456.274	808
456.332	1544
456.355	1172
456.401	568
456.436	889
456.470	1086
456.516	980
456.540	974
456.597	959
456.609	952
456.678	1142
456.678	1136
456.747	894
456.759	901
456.817	727
456.840	914
456.886	1354
456.920	1356
456.955	1428
457.001	1303
457.024	1181
457.082	1844
457.093	1957
457.162	1121
457.163	1125
457.232	996
457.243	1052
457.301	1550
457.324	1403
457.370	1007
457.405	1492
457.439	1851
457.485	1621
457.508	1643
457.566	2097
457.577	2223
457.646	2930
457.647	2958
457.715	7318
457.727	8333
457.784	13897
457.808	19780
457.853	28740
457.889	36511
457.922	41066
457.969	27062
457.991	23756
458.050	22830
458.060	22755
458.129	44102
458.130	44702
458.198	58731
458.211	52933
458.267	29965
458.292	21535
458.336	11060
458.372	9901
458.405	11537
458.453	16592
458.474	20041
458.533	37042
458.543	38676
458.611	75342
458.614	75498
458.680	57750
458.694	47542
458.749	20003
458.775	14731
458.818	7353
458.855	5478
458.887	4449
458.936	3790
458.955	3492
459.016	2593
459.024	2454
459.093	3039
459.097	2985
459.162	2172
459.177	2231
459.230	2454
459.257	2361
459.299	2091
459.338	2335
459.368	2459
459.418	2181
459.437	2143
459.499	2053
459.505	2035
459.574	1887
459.579	1888
459.643	1936
459.659	1857
459.711	1587
459.740	1711
459.780	1955
459.820	2141
459.849	2020
459.900	1641
459.917	1761
459.981	2341
459.986	2301
460.054	1597
460.061	1552
460.123	1811
460.141	1833
460.191	1690
460.222	1673
460.260	1776
460.302	2019
460.328	2133
460.382	2318
460.397	2495
460.462	3052
460.465	3126
460.534	5345
460.543	5672
460.602	15124
460.623	18879
460.671	28498
460.703	40009
460.739	39881
460.783	33161
460.808	29877
460.864	9075
460.876	6424
460.944	2677
460.945	2638
461.013	1999
461.024	1899
461.081	2038
461.104	2223
461.150	1882
461.184	1585
461.218	1857
461.264	2228
461.286	2216
461.345	2161
461.355	2176
461.423	2279
461.425	2272
461.491	1530
461.505	1524
461.559	2236
461.585	2317
461.628	2453
461.665	3048
461.696	3280
461.745	3634
461.764	3477
461.825	2300
461.832	2278
461.901	1691
461.905	1736
461.969	2013
461.985	1894
462.037	2307
462.065	2579
462.105	2002
462.145	1505
462.173	1982
462.225	2790
462.241	2698
462.305	2457
462.310	2454
462.378	2698
462.385	2630
462.446	1877
462.465	1752
462.514	1826
462.545	2094
462.582	2382
462.625	2355
462.650	2301
462.705	2155
462.718	2036
462.785	1809
462.786	1814
462.854	1788
462.865	1822
462.922	2589
462.945	2822
462.990	2888
463.025	2966
463.058	2606
463.104	2092
463.126	1954
463.184	1773
463.194	1804
463.262	1408
463.264	1428
463.330	2316
463.344	2295
463.398	2448
463.424	2678
463.466	1961
463.504	1324
463.533	1654
463.583	2373
463.601	2433
463.663	2041
463.669	1997
463.737	2076
463.743	2042
463.805	2615
463.823	2924
463.873	3577
463.903	3841
463.940	3851
463.982	4085
464.008	3710
464.062	2134
464.076	2085
464.142	2556
464.144	2576
464.211	2953
464.221	3007
464.279	2697
464.301	2620
464.347	2522
464.381	2402
464.414	2013
464.461	1650
464.482	1795
464.540	1930
464.550	1938
464.617	1878
464.620	1884
464.685	2617
464.699	2717
464.753	2572
464.779	2585
464.820	3037
464.859	3408
464.888	3144
464.938	2702
464.956	2900
465.018	3494
465.023	3480
465.091	3333
465.098	3310
465.158	2633
465.177	2410
465.226	2890
465.257	3190
465.293	2919
465.336	2603
465.361	2950
465.416	3786
465.428	3764
465.495	3526
465.496	3533
465.563	3722
465.575	3808
465.631	4460
465.654	4726
465.698	4541
465.734	4218
465.765	3508
465.813	2420
465.833	2471
465.893	2694
465.900	2689
465.968	2757
465.972	2744
466.035	2326
466.052	2236
466.102	2491
466.131	2653
466.170	2143
466.210	1545
466.237	2079
466.290	3151
466.304	3102
466.369	2837
466.372	2832
466.439	2586
466.449	2541
466.506	2612
466.528	2645
466.573	3241
466.607	3703
466.641	4475
466.687	5531
466.708	5663
466.766	5958
466.775	5737
466.842	4077
466.845	3992
466.909	3298
466.925	3144
466.977	3817
467.004	4161
467.044	3896
467.083	3639
467.111	3697
467.163	3782
467.178	3863
467.242	4209
467.245	4214
467.312	4269
467.321	4275
467.379	4050
467.400	3958
467.446	4280
467.480	4505
467.559	3525
467.638	3756
467.717	3115
467.796	3807
467.875	3973
467.955	3501
468.034	4839
468.113	6424
468.192	8965
468.271	5776
468.350	7756
468.429	10469
468.508	11177
468.588	7509
468.667	4230
468.746	4113
468.825	3749
468.904	4151
468.983	2971
469.062	4028
469.141	4440
469.220	3778
469.299	3237
469.378	2748
469.456	4201
469.535	4426
469.614	4250
469.693	3980
469.772	4123
469.851	5141
469.930	3485
470.009	3355
470.088	2919
470.166	4166
470.245	4094
470.324	4441
470.403	3526
470.482	3248
470.560	3309
470.639	3737
470.718	3593
470.797	3373
470.875	2904
470.954	3125
471.033	3226
471.111	3708
471.190	3312
471.269	3121
471.347	2995
471.426	3009
471.505	3730
471.583	3893
471.662	3280
471.740	3660
471.819	3481
471.898	3775
471.976	3438
472.055	3070
472.133	3401
472.212	4764
472.290	4053
472.369	3925
472.447	3118
472.526	2348
472.604	3618
472.683	3756
472.761	3380
472.839	3740
472.918	2796
472.996	2949
473.075	4692
473.153	3495
473.231	2914
473.310	4218
473.388	4002
473.466	3244
473.545	3895
473.623	3851
473.701	3237
473.780	4163
473.858	2605
473.936	5496
474.014	3614
474.093	3786
474.171	4823
474.249	4471
474.327	3850
474.405	2626
474.484	3223
474.562	3276
474.640	3457
474.718	3387
474.796	3285
474.874	3893
474.952	3096
475.030	3422
475.108	2812
475.187	3066
475.265	3424
475.343	4337
475.421	4536
475.499	3956
475.577	4041
475.655	4557
475.733	4080
475.811	4745
475.889	4944
475.966	4413
476.044	3511
476.122	3065
476.200	3425
476.278	2958
476.356	3190
476.434	3238
476.512	3146
476.590	3856
476.667	3846
476.745	3187
476.823	3928
476.901	2572
476.979	3299
477.056	3383
477.134	2517
477.212	4222
477.290	3809
477.367	3455
477.445	2201
477.523	3156
477.601	2508
477.678	3391
477.756	2979
477.834	4097
477.911	3369
477.989	2921
478.066	3018
478.144	2901
478.222	3401
478.299	5034
478.377	4207
478.454	3403
478.532	3885
478.609	3984
478.687	2559
478.764	3001
478.842	2250
478.919	2597
478.997	2557
479.074	2540
479.152	2764
479.229	3907
479.307	2124
479.384	3654
479.461	3016
479.539	3437
479.616	2489
479.694	3582
479.771	3300
479.848	2604
479.926	2211
480.003	4872
480.080	4007
480.157	3542
480.235	3332
480.312	3839
480.389	2749
480.467	2832
480.544	3719
480.621	4146
480.698	2879
480.775	3976
480.853	3372
480.930	3516
481.007	3243
481.084	4982
481.161	5608
481.238	4753
481.315	2726
481.392	2800
481.470	2816
481.547	3351
481.624	2340
481.701	3422
481.778	3778
481.855	4225
481.932	4397
482.009	5424
482.086	4474
482.163	3510
482.240	4853
482.317	5713
482.393	4712
482.470	4195
482.547	4119
482.624	3197
482.701	3492
482.778	3194
482.855	2329
482.932	3182
483.009	3341
483.085	5044
483.162	5382
483.239	5433
483.316	4555
483.393	4592
483.469	3754
483.546	4137
483.623	2594
483.699	2946
483.776	1996
483.853	2419
483.930	3924
484.006	5271
484.083	7771
484.160	6564
484.236	10305
484.313	8501
484.389	6228
484.466	7113
484.543	7069
484.619	7272
484.696	10228
484.772	7065
484.849	6839
484.925	5420
485.002	5238
485.078	5696
485.155	4988
485.231	5620
485.308	5725
485.384	4542
485.461	5650
485.537	6085
485.614	7073
485.690	4885
485.766	4807
485.843	5618
485.919	4175
485.995	4998
486.072	4661
486.148	4496
486.224	4411
486.301	5938
486.377	5268
486.453	3814
486.530	5822
486.606	7542
486.682	6428
486.758	6919
486.835	7353
486.911	5010
486.987	8198
487.063	6908
487.139	8541
487.215	8530
487.292	8404
487.368	7747
487.444	8135
487.520	10683
487.596	16253
487.672	35797
487.748	103082
487.824	155793
487.900	47610
487.976	14199
488.052	8541
488.128	8325
488.204	5975
488.280	6286
488.356	6073
488.432	6327
488.508	8064
488.584	5156
488.660	4764
488.736	5215
488.812	3660
488.888	4778
488.964	4597
489.039	5808
489.115	6462
489.191	5927
489.267	4389
489.343	5148
489.418	4566
489.494	3860
489.570	3258
489.646	5533
489.722	3955
489.797	4191
489.873	4879
489.949	6951
490.024	5569
490.100	3892
490.176	4071
490.251	4049
490.327	4314
490.403	3481
490.478	3765
490.554	3766
490.629	3991
490.705	3494
490.781	4829
490.856	3376
490.932	3682
491.007	3592
491.083	3088
491.158	3053
491.234	4177
491.309	5267
491.385	5012
491.460	2453
491.536	4299
491.611	3628
491.686	3919
491.762	3515
491.837	4217
491.913	4556
491.988	4875
492.063	4796
492.139	4489
492.214	4048
492.289	3095
492.365	2969
492.440	3598
492.515	3475
492.590	2595
492.666	2745
492.741	3137
492.816	4211
492.891	2494
492.967	3351
493.042	2932
493.117	3170
493.192	3179
493.267	4094
493.342	9769
493.418	12276
493.493	3176
493.568	3723
493.643	3387
493.718	3303
493.793	3530
493.868	3605
493.943	2548
494.018	3782
494.093	2363
494.168	3510
494.243	2481
494.318	2959
494.393	3693
494.468	2022
494.543	2838
494.618	2170
494.693	1948
494.768	2810
494.842	3693
494.917	3626
494.992	2282
495.067	2851
495.142	3163
495.217	2306
495.292	2742
495.366	2625
495.441	2380
495.516	3560
495.591	2496
495.665	4870
495.740	6769
495.815	3466
495.890	3192
495.964	1236
496.039	4274
496.114	3791
496.188	5106
496.263	4723
496.338	3033
496.412	2622
496.487	2612
496.561	2374
496.636	3673
496.710	3176
496.785	3624
496.860	3460
496.934	2110
497.009	2790
497.083	2645
497.158	2936
497.232	3828
497.307	3126
497.381	3138
497.455	1930
497.530	3481
497.604	3357
497.679	3175
497.753	3563
497.827	3705
497.902	3033
497.976	4117
498.050	10056
498.125	32990
498.199	29413
498.273	4544
498.348	2756
498.422	3363
498.496	3129
498.570	2855
498.645	3048
498.719	1922
498.793	3960
498.867	4427
498.941	5321
499.016	14419
499.090	33038
499.164	11166
499.238	4491
499.312	3196
499.386	3586
499.460	3413
499.534	3882
499.609	4027
499.683	4059
499.757	5012
499.831	7784
499.905	21809
499.979	18882
500.053	3681
500.127	3907
500.201	2742
500.275	3193
500.349	3116
500.422	3143
500.496	2826
500.570	4331
500.644	12648
500.718	20767
500.792	5330
500.866	3636
500.940	3545
501.013	3720
501.087	2809
501.161	3884
501.235	3648
501.309	8992
501.382	18677
501.456	15145
501.530	5431
501.603	5740
501.677	3466
501.751	1662
501.825	3689
501.898	4646
501.972	8094
502.046	5557
502.119	2766
502.193	4981
502.266	7566
502.340	5229
502.413	4694
502.487	7192
502.561	4093
502.634	2920
502.708	2700
502.781	1191
502.855	2513
502.928	1949
503.002	2930
503.075	2149
503.149	2436
503.222	2741
503.295	2294
503.369	4145
503.442	2522
503.516	7668
503.589	12581
503.662	9556
503.736	5935
503.809	10155
503.882	8432
503.956	15755
504.029	23022
504.102	60010
504.175	88343
504.249	29700
504.322	9963
504.395	6338
504.468	4366
504.542	3827
504.615	1940
504.688	3238
504.761	1508
504.834	3375
504.907	2448
504.980	2961
505.053	1760
505.127	896
505.200	3941
505.273	2208
505.346	1996
505.419	1506
505.492	3089
505.565	2752
505.638	2682
505.711	934
505.784	1557
505.857	692
505.930	2634
506.003	945
506.076	3401
506.149	1656
506.221	705
506.294	3638
506.367	3060
506.440	10267
506.513	6181
506.586	3245
506.659	1542
506.731	2286
506.804	1215
506.877	1328
506.950	2417
507.022	3239
507.095	1710
507.168	2436
507.241	2917
507.313	1545
507.386	982
507.459	2976
507.531	1313
507.604	1128
507.677	2354
507.749	26
507.822	2407
507.894	2845
507.967	4549
508.040	2988
508.112	3142
508.185	2375
508.257	992
508.330	3661
508.402	1687
508.475	2332
508.547	1898
508.620	2352
508.692	2569
508.765	2479
508.837	1961
508.909	2603
508.982	2333
509.054	2779
509.127	1995
509.199	1712
509.271	1145
509.344	2155
509.416	2944
509.488	1865
509.560	1820
509.633	1953
509.705	2038
509.777	2596
509.849	2509
509.922	1103
509.994	2221
510.066	3136
510.138	1530
510.210	5459
510.283	3106
510.355	3257
510.427	3338
510.499	3584
510.571	2223
510.643	2258
510.715	3681
510.787	1191
510.859	3439
510.931	3288
511.003	1977
511.076	3054
511.148	2148
511.219	2419
511.291	3986
511.363	3838
511.435	2561
511.507	2125
511.579	2900
511.651	3085
511.723	1892
511.795	2078
511.867	1983
511.939	2621
512.010	2480
512.082	2596
512.154	769
512.226	2764
512.298	4046
512.369	3746
512.441	3188
512.513	4319
512.585	1251
512.656	3393
512.728	2041
512.800	1730
512.871	3339
512.943	3318
513.015	1907
513.086	3001
513.158	2331
513.230	1858
513.301	1396
513.373	3812
513.444	2089
513.516	2281
513.588	1615
513.659	2811
513.731	2467
513.802	1150
513.874	4229
513.945	2629
514.016	2017
514.088	2155
514.159	1302
514.231	2425
514.302	3559
514.374	3381
514.445	1835
514.516	5361
514.588	2936
514.659	3620
514.730	2596
514.802	3955
514.873	552
514.944	4689
515.016	2704
515.087	2195
515.158	2412
515.229	4718
515.301	1759
515.372	3063
515.443	1401
515.514	1748
515.585	1872
515.656	4034
515.728	2656
515.799	2312
515.870	2443
515.941	2699
516.012	1307
516.083	3832
516.154	2042
516.225	3345
516.296	3878
516.367	2369
516.438	2395
516.509	2539
516.580	3470
516.651	7321
516.722	16074
516.793	8304
516.864	3241
516.935	3733
517.006	4186
517.077	4257
517.148	6982
517.219	23687
517.289	31767
517.360	12204
517.431	6472
517.502	3153
517.573	3768
517.643	3397
517.714	3138
517.785	3550
517.856	3375
517.926	5091
517.997	4437
518.068	3737
518.138	6180
518.209	6240
518.280	16992
518.350	55078
518.421	20043
518.492	8675
518.562	7795
518.633	11206
518.703	14928
518.774	39109
518.845	106489
518.915	100872
518.986	26216
519.056	11528
519.127	7811
519.197	7275
519.268	12126
519.338	9668
519.408	4095
519.479	3611
519.549	2238
519.620	4966
519.690	2916
519.760	2841
519.831	2898
519.901	2698
519.971	2776
520.042	3121
520.112	1390
520.182	2691
520.253	3562
520.323	2780
520.393	1790
520.463	4152
520.534	720
520.604	5437
520.674	3086
520.744	2295
520.814	2899
520.885	4831
520.955	4797
521.025	12783
521.095	5775
521.165	3507
521.235	2380
521.305	1799
521.375	3299
521.445	3384
521.515	2048
521.585	3793
521.655	1159
521.725	4049
521.795	3320
521.865	268
521.935	4388
522.005	2422
522.075	1837
522.145	3703
522.215	1871
522.285	4051
522.355	2361
522.424	5653
522.494	3121
522.564	2986
522.634	2793
522.704	5458
522.774	2214
522.843	3478
522.913	2577
522.983	2624
523.053	1800
523.122	3078
523.192	2450
523.262	3485
523.331	2756
523.401	3489
523.471	2558
523.540	2774
523.610	1628
523.680	2579
523.749	2996
523.819	3738
523.888	2137
523.958	3422
524.027	2807
524.097	3149
524.166	2661
524.236	1511
524.305	4039
524.375	2559
524.444	1392
524.514	4150
524.583	2813
524.653	1597
524.722	4059
524.791	1713
524.861	3791
524.930	2217
524.999	1802
525.069	3680
525.138	2488
525.207	3357
525.277	4573
525.346	3642
525.415	3989
525.484	4274
525.554	3914
525.623	5948
525.692	6914
525.761	7568
525.830	9449
525.900	11152
525.969	17636
526.038	33161
526.107	69333
526.176	195743
526.245	146428
526.314	44974
526.383	98279
526.452	130426
526.522	188988
526.591	163403
526.660	26896
526.729	16003
526.797	18696
526.867	26020
526.935	81863
527.004	285755
527.073	169517
527.142	21591
527.211	9489
527.280	7510
527.349	4890
527.418	3498
527.487	5055
527.555	2538
527.624	3588
527.693	2729
527.762	4566
527.831	2713
527.899	3267
527.968	2966
528.037	975
528.106	3666
528.174	2665
528.243	4007
528.312	3302
528.380	2618
528.449	1993
528.518	3645
528.586	1116
528.655	3914
528.723	2373
528.792	2721
528.861	2342
528.929	1159
528.998	3230
529.066	4280
529.135	5783
529.203	5354
529.272	6197
529.340	10153
529.409	9631
529.477	7512
529.545	6607
529.614	9943
529.682	8576
529.751	10508
529.819	12197
529.887	12303
529.956	11083
530.024	12351
530.092	9985
530.161	10195
530.229	10613
530.297	10671
530.365	12363
530.434	12566
530.502	12140
530.570	11044
530.638	8683
530.707	10084
530.775	10438
530.843	8906
530.911	11018
530.979	10929
531.047	10951
531.115	11224
531.183	10479
531.252	10399
531.320	9067
531.388	9195
531.456	10538
531.524	10098
531.592	11123
531.660	14664
531.728	10719
531.796	10852
531.864	12335
531.932	11519
532.000	10632
532.067	12477
532.135	12668
532.203	14488
532.271	13687
532.339	15183
532.407	14201
532.475	13569
532.542	13084
532.610	12602
532.678	12791
532.746	16906
532.814	18896
532.881	15312
532.949	14974
533.017	13639
533.084	12073
533.152	12306
533.220	11708
533.287	11089
533.355	12948
533.423	12728
533.490	12749
533.558	12928
533.625	12148
533.693	11108
533.761	11043
533.828	12285
533.896	10000
533.963	13150
534.031	13120
534.098	14757
534.166	14031
534.233	12788
534.300	13843
534.368	13437
534.435	12229
534.503	13135
534.570	13556
534.637	13512
534.705	14736
534.772	16866
534.840	25103
534.907	91918
534.974	106915
535.041	20252
535.109	12669
535.176	10783
535.243	11778
535.310	11767
535.378	10425
535.445	10421
535.512	11084
535.579	11049
535.646	9422
535.714	9902
535.781	10847
535.848	11540
535.915	11806
535.982	10394
536.049	10334
536.116	10521
536.183	9340
536.250	9124
536.317	9082
536.384	10024
536.451	9952
536.518	10475
536.585	7536
536.652	11546
536.719	10855
536.786	8338
536.853	8543
536.920	9567
536.987	9404
537.053	8768
537.120	12246
537.187	12450
537.254	9765
537.321	9244
537.388	11101
537.454	8821
537.521	8949
537.588	8593
537.654	9487
537.721	9802
537.788	11156
537.855	9308
537.921	8871
537.988	9063
538.055	9725
538.121	8430
538.188	8741
538.254	8250
538.321	7944
538.388	8826
538.454	9395
538.521	9927
538.587	9880
538.654	9112
538.720	8680
538.787	9276
538.853	9430
538.920	9890
538.986	8058
539.053	8124
539.119	8575
539.185	8243
539.252	10438
539.318	8089
539.385	10280
539.451	8523
539.517	9276
539.583	9905
539.650	8285
539.716	10089
539.782	9097
539.849	7935
539.915	8624
539.981	8711
540.047	8289
540.114	8689
540.180	9430
540.246	7740
540.312	9829
540.378	8692
540.444	10289
540.510	9620
540.576	11142
540.643	8857
540.709	7573
540.775	8904
540.841	8236
540.907	9355
540.973	10166
541.039	9225
541.105	8937
541.171	8703
541.237	8103
541.303	9860
541.369	11284
541.435	9062
541.500	8575
541.566	7787
541.632	8222
541.698	8857
541.764	10083
541.830	9186
541.896	8002
541.961	8667
542.027	8557
542.093	9436
542.159	9740
542.224	8530
542.290	9710
542.356	8232
542.421	8677
542.487	8977
542.553	7449
542.618	8641
542.684	7843
542.750	7995
542.815	9202
542.881	8667
542.947	10578
543.012	9963
543.078	8135
543.143	7876
543.209	8969
543.274	7254
543.340	8298
543.405	8440
543.471	9372
543.536	9178
543.602	8236
543.667	7625
543.732	10507
543.798	7884
543.863	8894
543.928	7843
543.994	9128
544.059	8978
544.124	8969
544.190	9226
544.255	10068
544.320	10038
544.386	8306
544.451	10813
544.516	9369
544.581	9480
544.646	10187
544.712	11581
544.777	10583
544.842	9957
544.907	10391
544.972	10098
545.037	10911
545.102	11705
545.168	10994
545.233	12250
545.298	11454
545.363	10776
545.428	11685
545.493	13002
545.558	12837
545.623	11810
545.688	11563
545.753	12793
545.818	12497
545.883	14593
545.947	13542
546.012	14518
546.077	14073
546.142	16100
546.207	15576
546.272	16920
546.337	16623
546.401	18823
546.466	18441
546.531	18538
546.596	21543
546.661	21481
546.725	23228
546.790	22956
546.855	25436
546.919	27546
546.984	31000
547.049	33241
547.113	37796
547.178	42552
547.243	47084
547.307	54650
547.372	60768
547.436	60877
547.501	63901
547.565	69960
547.630	63851
547.695	61577
547.759	61848
547.823	63047
547.888	63458
547.952	65891
548.017	68181
548.081	71184
548.146	69539
548.210	70631
548.274	77214
548.339	76806
548.403	69013
548.468	64795
548.532	64469
548.596	66394
548.660	64602
548.725	72130
548.789	77593
548.853	76509
548.917	73638
548.982	71164
549.046	64209
549.110	56162
549.174	60713
549.238	69172
549.303	77038
549.367	80179
549.431	75665
549.495	71014
549.559	70279
549.623	81176
549.687	89275
549.751	88329
549.815	101831
549.879	107343
549.943	100366
550.007	106329
550.071	105220
550.135	96127
550.199	89588
550.263	89351
550.327	85505
550.391	87703
550.455	95247
550.519	100936
550.582	106344
550.646	117725
550.710	121029
550.774	119174
550.838	120084
550.901	123210
550.965	128887
551.029	134145
551.093	140392
551.156	148280
551.220	156554
551.284	165622
551.347	140836
551.411	129520
551.475	127562
551.538	131915
551.602	126854
551.666	118557
551.729	112295
551.793	110031
551.856	110175
551.920	107961
551.983	108334
552.047	106182
552.110	107832
552.174	109006
552.237	112224
552.301	105025
552.364	99662
552.428	98477
552.491	101267
552.554	103171
552.618	101390
552.681	104950
552.745	99789
552.808	102762
552.871	106681
552.934	104773
552.998	101563
553.061	101503
553.124	98311
553.187	97543
553.251	99463
553.314	100988
553.377	101510
553.440	108411
553.503	116478
553.567	122598
553.630	111645
553.693	110393
553.756	112095
553.819	112573
553.882	108573
553.945	108459
554.008	109692
554.071	110073
554.134	111173
554.197	107762
554.260	105056
554.323	106456
554.386	107740
554.449	109236
554.512	110677
554.575	107248
554.638	106499
554.701	104411
554.764	104672
554.827	100106
554.889	98533
554.952	92036
555.015	90289
555.078	91573
555.141	93182
555.203	91744
555.266	89487
555.329	90302
555.391	87016
555.454	85700
555.517	82025
555.580	78988
555.642	75510
555.705	75743
555.768	75575
555.830	74198
555.893	68322
555.955	68146
556.018	66132
556.080	67092
556.143	68319
556.206	67253
556.268	66131
556.330	63214
556.393	62582
556.455	62190
556.518	60043
556.580	58291
556.643	55063
556.705	55236
556.767	54339
556.830	52049
556.892	50552
556.955	49896
557.017	49445
557.079	48344
557.142	47836
557.204	46338
557.266	45190
557.328	43691
557.391	40679
557.453	39626
557.515	40308
557.577	40443
557.639	39320
557.701	40343
557.764	38850
557.826	38607
557.888	38704
557.950	40111
558.012	43282
558.074	49189
558.136	81909
558.198	161822
558.260	71507
558.322	38357
558.384	38167
558.446	39502
558.508	41395
558.570	44741
558.632	48549
558.694	58983
558.756	88850
558.818	210170
558.880	398710
558.942	170890
559.003	168085
559.065	89225
559.127	43390
559.189	41159
559.251	45062
559.312	60439
559.374	120100
559.436	306021
559.498	158517
559.559	46254
559.621	40829
559.683	46532
559.744	67704
559.806	172491
559.868	233149
559.929	61998
559.991	44486
560.052	63672
560.114	152656
560.176	102145
560.237	94030
560.299	139102
560.360	39628
560.422	21865
560.483	20935
560.545	19318
560.606	18778
560.667	18739
560.729	17228
560.790	17931
560.852	16447
560.913	16794
560.974	16991
561.036	15919
561.097	16973
561.158	16034
561.220	15604
561.281	15100
561.342	13566
561.403	15857
561.465	15105
561.526	15875
561.587	16177
561.648	13592
561.709	14022
561.771	15019
561.832	13408
561.893	13152
561.954	13438
562.015	12958
562.076	13265
562.137	13269
562.198	13027
562.259	12954
562.320	12363
562.381	13068
562.442	13582
562.503	12965
562.564	12108
562.625	12749
562.686	11245
562.747	11849
562.808	11672
562.869	11719
562.930	12279
562.991	11855
563.051	10854
563.112	11408
563.173	11253
563.234	10534
563.294	11674
563.355	10426
563.416	10980
563.477	11121
563.537	10576
563.598	11587
563.659	10421
563.720	10209
563.780	11345
563.841	11102
563.901	11303
563.962	10843
564.023	10715
564.083	11433
564.144	10896
564.204	10630
564.265	10103
564.325	10187
564.386	10564
564.446	11891
564.507	9675
564.567	10388
564.628	10025
564.688	9383
564.749	9969
564.809	10611
564.869	10483
564.930	9675
564.990	10571
565.050	9859
565.111	10749
565.171	9823
565.231	9035
565.292	10616
565.352	9462
565.412	10542
565.472	9792
565.532	10335
565.593	9795
565.653	9671
565.713	9755
565.773	9968
565.833	10621
565.893	11120
565.953	9395
566.013	9898
566.074	9690
566.134	10262
566.194	10523
566.254	10320
566.314	10563
566.374	10008
566.434	9933
566.494	9900
566.554	9019
566.614	9375
566.673	10768
566.733	10347
566.793	9627
566.853	10513
566.913	9876
566.973	9945
567.033	9931
567.092	9965
567.152	9551
567.212	10891
567.272	10104
567.331	9607
567.391	9909
567.451	11483
567.511	11374
567.570	10390
567.630	10370
567.690	10551
567.749	10498
567.809	10121
567.868	10258
567.928	9836
567.988	9327
568.047	10766
568.107	10183
568.166	10273
568.226	9524
568.285	12002
568.345	9853
568.404	10045
568.464	10597
568.523	9754
568.582	10474
568.642	10430
568.701	10115
568.761	10597
568.820	10450
568.879	10503
568.939	11150
568.998	9401
569.057	10941
569.116	10473
569.176	10214
569.235	10286
569.294	9017
569.353	10448
569.413	9254
569.472	10230
569.531	9375
569.590	8555
569.649	8977
569.708	10029
569.767	9828
569.827	9479
569.886	10364
569.945	9865
570.004	9960
570.063	10037
570.122	9767
570.181	9720
570.240	9918
570.299	10415
570.358	10291
570.417	9737
570.475	10882
570.534	10525
570.593	9565
570.652	10866
570.711	9771
570.770	10001
570.829	10576
570.887	9201
570.946	10162
571.005	10960
571.064	10576
571.122	10186
571.181	9704
571.240	10153
571.299	9908
571.357	10807
571.416	9341
571.475	10442
571.533	11108
571.592	11272
571.650	11482
571.709	10975
571.768	11756
571.826	11448
571.885	11885
571.943	10678
572.002	10331
572.060	9932
572.119	11387
572.177	11050
572.236	10982
572.294	10210
572.352	10812
572.411	11182
572.469	9919
572.528	9877
572.586	10093
572.644	11045
572.703	9341
572.761	10288
572.819	9446
572.877	10059
572.936	8739
572.994	9757
573.052	9935
573.110	9770
573.169	9401
573.227	9438
573.285	9820
573.343	9563
573.401	9346
573.459	10719
573.517	10057
573.576	9441
573.634	9081
573.692	9856
573.750	9736
573.808	9113
573.866	9114
573.924	9084
573.982	9179
574.040	9527
574.098	8422
574.155	8672
574.213	8910
574.271	9667
574.329	9069
574.387	8419
574.445	7955
574.503	8567
574.560	8039
574.618	8276
574.676	7807
574.734	7837
574.792	8991
574.849	8063
574.907	6889
574.965	7687
575.022	7642
575.080	7552
575.138	7349
575.195	7342
575.253	6717
575.311	8223
575.368	8361
575.426	6733
575.483	7320
575.541	8073
575.598	7668
575.656	7421
575.713	7273
575.771	8090
575.828	8341
575.886	6749
575.943	7737
576.001	6508
576.058	6526
576.115	6800
576.173	6863
576.230	7746
576.287	7806
576.345	7085
576.402	7027
576.459	7346
576.517	6606
576.574	7786
576.631	7050
576.688	7660
576.746	7462
576.803	7392
576.860	6970
576.917	7453
576.974	6619
577.031	7278
577.089	7523
577.146	7556
577.203	6982
577.260	6709
577.317	6710
577.374	7303
577.431	7140
577.488	7196
577.545	6385
577.602	7672
577.659	6862
577.716	7706
577.773	6700
577.830	6593
577.886	7785
577.943	6248
578.000	6697
578.057	7014
578.114	6439
578.171	7431
578.227	7786
578.284	7986
578.341	8107
578.398	7133
578.454	7195
578.511	6972
578.568	7083
578.625	6687
578.681	6890
578.738	8058
578.794	7435
578.851	6850
578.908	7423
578.964	6771
579.021	7405
579.077	6509
579.134	6414
579.190	7704
579.247	8053
579.303	6847
579.360	6782
579.416	7156
579.473	6737
579.529	6721
579.586	7493
579.642	7411
579.698	7668
579.755	7303
579.811	7543
579.867	7612
579.924	7555
579.980	8205
580.036	8063
580.093	8742
580.149	10046
580.205	10544
580.261	8988
580.317	8096
580.374	8710
580.430	9063
580.486	7921
580.542	7331
580.598	7597
580.619	7887
580.654	8384
580.692	8476
580.710	8511
580.765	8188
580.767	8170
580.823	8855
580.838	8714
580.879	8294
580.911	8879
580.935	9295
580.984	8990
580.991	8943
581.047	9660
581.057	9735
581.103	9990
581.130	10116
581.159	10241
581.203	10336
581.215	10345
581.270	9676
581.276	9658
581.326	9421
581.349	9680
581.382	10001
581.422	10200
581.438	10289
581.494	9600
581.494	9621
581.550	10549
581.567	10514
581.606	10427
581.640	10575
581.661	10616
581.713	11553
581.717	11617
581.773	11568
581.786	11422
581.829	10899
581.859	11257
581.885	11594
581.932	11357
581.940	11305
581.996	12245
582.004	12178
582.052	11493
582.077	11694
582.107	12027
582.150	13086
582.163	13385
582.219	11003
582.223	11115
582.274	12246
582.296	12618
582.330	13227
582.368	12921
582.386	12837
582.441	14083
582.441	14074
582.497	13477
582.514	13520
582.552	13944
582.587	14652
582.608	14915
582.659	14286
582.663	14241
582.719	15078
582.732	15088
582.774	15120
582.805	15560
582.830	15962
582.877	16875
582.885	17057
582.941	17949
582.950	18224
582.996	19656
583.023	20533
583.052	21525
583.095	22477
583.107	22535
583.162	21178
583.168	21225
583.218	21340
583.240	20823
583.273	19970
583.313	19156
583.328	18996
583.384	18888
583.385	18851
583.439	17528
583.458	17541
583.494	17885
583.531	18288
583.549	18466
583.603	17473
583.605	17433
583.660	17748
583.676	17729
583.715	18238
583.748	18731
583.770	18902
583.820	18991
583.825	19036
583.881	19320
583.893	19234
583.936	18777
583.965	19040
583.991	19371
584.038	19729
584.046	19784
584.101	20255
584.110	20247
584.156	20615
584.183	21024
584.211	21308
584.255	21261
584.266	21321
584.321	22352
584.328	22354
584.376	22658
584.400	23037
584.431	23400
584.472	23756
584.486	24123
584.541	25552
584.545	25590
584.596	25659
584.617	25678
584.651	26069
584.689	26308
584.706	26553
584.761	28077
584.762	28050
584.816	28693
584.834	28895
584.871	29316
584.906	29621
584.926	29839
584.978	30387
584.980	30469
585.035	31753
585.051	32370
585.090	34010
585.123	34130
585.145	34528
585.195	36516
585.200	36857
585.254	40326
585.267	41193
585.309	44460
585.340	46684
585.364	49187
585.412	55262
585.419	56518
585.473	67242
585.484	69613
585.528	86712
585.556	101267
585.583	137706
585.628	210242
585.637	241126
585.692	459081
585.700	494047
585.747	602770
585.772	583219
585.801	413271
585.845	185064
585.856	161029
585.910	87382
585.917	79040
585.965	64502
585.989	57812
586.019	54708
586.061	50834
586.074	50224
586.128	48159
586.133	47820
586.183	46359
586.205	45655
586.237	45043
586.277	43915
586.292	43592
586.346	42012
586.349	41876
586.401	42552
586.421	42391
586.455	42006
586.493	42061
586.509	42853
586.564	43636
586.565	43592
586.618	47877
586.637	48775
586.672	50830
586.709	53104
586.727	54685
586.781	59300
586.781	59430
586.835	51049
586.853	48614
586.889	45810
586.925	42976
586.944	42832
586.996	42968
586.998	43090
587.052	42993
587.068	42792
587.106	43233
587.140	43537
587.161	43900
587.212	44264
587.215	44440
587.269	45385
587.284	45617
587.323	46294
587.356	46496
587.377	47226
587.427	48667
587.431	48794
587.485	48063
587.499	47853
587.539	49485
587.571	50542
587.593	51959
587.643	54821
587.648	55074
587.702	55280
587.715	55283
587.755	55554
587.786	55567
587.810	56167
587.858	56453
587.864	56750
587.917	58400
587.930	58480
587.971	59090
588.001	59127
588.025	59088
588.073	59137
588.079	59457
588.133	60361
588.145	60370
588.187	61876
588.217	62731
588.241	63929
588.288	65290
588.295	65744
588.348	68507
588.360	68700
588.402	69856
588.431	70594
588.456	72300
588.503	75116
588.510	76014
588.564	81430
588.575	82402
588.617	87836
588.646	91243
588.671	96399
588.718	105746
588.725	109065
588.778	134583
588.789	140052
588.832	205728
588.861	252594
588.886	338330
588.932	510971
588.939	524882
588.993	609510
589.004	613571
589.047	413410
589.075	283715
589.100	227311
589.147	133654
589.154	131174
589.207	111386
589.218	106993
589.261	105679
589.290	104842
589.314	107869
589.361	113952
589.368	118424
589.421	153562
589.433	161228
589.475	256500
589.504	326256
589.528	405049
589.576	560436
589.582	546629
589.635	364156
589.647	324305
589.689	202905
589.718	122902
589.742	112691
589.790	91902
589.795	91706
589.849	87757
589.861	86519
589.902	85252
589.932	83672
589.955	82474
590.004	78941
590.009	79064
590.062	77304
590.075	76566
590.115	77083
590.146	76923
590.168	77001
590.218	76109
590.222	76506
590.275	78066
590.289	78096
590.328	79486
590.360	80192
590.381	81027
590.431	81713
590.435	82098
590.488	83035
590.503	83021
590.541	83940
590.574	84040
590.594	85377
590.645	87637
590.647	88068
590.700	89965
590.716	90181
590.753	92484
590.787	93921
590.806	95062
590.859	96935
590.859	97354
590.912	98564
590.930	98617
590.965	100296
591.001	101072
591.018	101130
591.071	100016
591.072	99589
591.124	100062
591.143	99620
591.177	100288
591.214	100182
591.230	101317
591.283	103855
591.285	103514
591.336	103735
591.356	103195
591.389	103672
591.427	103320
591.442	103573
591.495	102846
591.498	102352
591.547	104446
591.569	104809
591.600	105946
591.640	106291
591.653	107053
591.706	108395
591.711	108070
591.759	112011
591.782	113363
591.811	116107
591.853	118732
591.864	119426
591.917	120340
591.924	119954
591.969	120499
591.995	119992
592.022	121483
592.066	122511
592.075	123383
592.127	125491
592.137	125332
592.180	129549
592.208	131387
592.233	132735
592.279	133609
592.285	134401
592.338	136098
592.350	135883
592.390	136418
592.421	135755
592.443	137523
592.491	139494
592.495	140430
592.548	144682
592.562	145208
592.600	144811
592.633	143268
592.653	144227
592.704	144232
592.705	145117
592.775	147566
592.846	153871
592.916	152993
592.987	154814
593.058	155571
593.128	157395
593.199	158222
593.270	159281
593.341	163301
593.411	171220
593.482	173462
593.553	177206
593.623	180289
593.694	185341
593.764	188213
593.835	185001
593.906	187127
593.976	191470
594.047	195624
594.117	203901
594.188	210083
594.258	208509
594.329	209032
594.399	215769
594.470	220020
594.540	224617
594.611	231513
594.681	228807
594.751	229477
594.822	236955
594.892	246017
594.963	250409
595.033	257870
595.103	265978
595.174	266584
595.244	275174
595.314	282062
595.384	287253
595.455	293275
595.525	303632
595.595	313634
595.665	314001
595.736	308120
595.806	316312
595.876	317776
595.946	318489
596.016	332530
596.087	343322
596.157	343849
596.227	342638
596.297	361815
596.367	384645
596.437	403357
596.507	400295
596.577	400618
596.647	411470
596.717	431200
596.787	439131
596.857	436787
596.927	438284
596.997	443990
597.067	448185
597.137	455696
597.207	457259
597.277	461835
597.347	446897
597.417	433958
597.487	433332
597.557	443663
597.626	459023
597.696	463415
597.766	461253
597.836	438894
597.906	417567
597.975	412434
598.045	420275
598.115	430854
598.185	462832
598.254	504350
598.324	547288
598.394	555218
598.464	542333
598.533	535182
598.603	503459
598.672	489131
598.742	501410
598.812	504667
598.881	520366
598.951	516662
599.020	525984
599.090	539809
599.159	551372
599.229	534238
599.299	525057
599.368	542726
599.437	539193
599.507	502168
599.576	490048
599.646	488500
599.715	482813
599.785	482806
599.854	474477
599.924	469729
599.993	466800
600.062	480509
600.132	489900
600.201	512619
600.270	577559
600.340	606507
600.409	597830
600.478	595149
600.547	609652
600.617	572548
600.686	488659
600.755	454523
600.824	443093
600.894	438595
600.963	444658
601.032	443602
601.101	436743
601.170	426796
601.239	423040
601.308	424213
601.378	430482
601.447	434821
601.516	442657
601.585	447887
601.654	456934
601.723	463236
601.792	472847
601.861	486866
601.930	506626
601.999	517773
602.068	515112
602.137	517397
602.206	523377
602.275	532690
602.343	534932
602.412	534195
602.481	545880
602.550	546926
602.619	557803
602.688	559377
602.756	569213
602.825	566461
602.894	582331
602.963	586128
603.032	589507
603.100	591566
603.169	585306
603.238	600590
603.307	587327
603.375	593787
603.444	612413
603.513	598655
603.581	609957
603.650	626148
603.719	575397
603.787	569901
603.856	581928
603.924	596001
603.993	613379
604.061	631389
604.130	653395
604.198	662180
604.267	671050
604.335	683057
604.404	689989
604.472	700966
604.541	705581
604.609	718550
604.678	726589
604.746	728826
604.815	754850
604.883	753452
604.951	738092
605.020	754367
605.088	743581
605.156	738094
605.225	744517
605.293	742321
605.361	745407
605.429	743649
605.498	758949
605.566	765450
605.634	795357
605.702	813348
605.771	831014
605.839	839745
605.907	811990
605.975	807147
606.043	785339
606.111	779092
606.180	801242
606.248	773182
606.316	762657
606.384	781468
606.452	736713
606.520	717426
606.588	737578
606.656	745239
606.724	734833
606.792	696539
606.860	641014
606.928	591527
606.996	569997
607.064	560732
607.132	573555
607.200	600018
607.267	625607
607.335	635775
607.403	645303
607.471	628358
607.539	609349
607.607	612857
607.674	551240
607.742	546896
607.810	542940
607.878	542237
607.946	552138
608.013	578388
608.081	586261
608.149	591181
608.216	608454
608.284	625268
608.352	623904
608.419	619771
608.487	608377
608.555	596677
608.622	613669
608.690	643902
608.757	696862
608.825	710513
608.893	697390
608.960	659182
609.028	632417
609.095	639145
609.163	635169
609.230	573292
609.298	528492
609.365	553212
609.432	590483
609.500	633935
609.567	714399
609.635	797170
609.702	835959
609.769	798568
609.837	644570
609.904	562846
609.971	571430
610.039	595464
610.106	668321
610.173	938804
610.241	1560902
610.308	1217615
610.375	720851
610.442	622239
610.509	591311
610.577	588576
610.644	599540
610.711	614194
610.778	623746
610.845	651872
610.912	685692
610.980	708650
611.047	712264
611.114	700648
611.181	681465
611.248	680240
611.315	713549
611.382	729178
611.449	748343
611.516	758787
611.583	748260
611.650	753541
611.717	758899
611.784	764343
611.851	782772
611.918	798400
611.984	856583
612.051	991672
612.118	1343460
612.185	2029580
612.252	1753903
612.319	1076971
612.386	945755
612.452	874149
612.519	837631
612.586	826253
612.653	836298
612.719	862435
612.786	838266
612.853	787748
612.919	776742
612.986	785193
613.053	748921
613.120	714465
613.186	688463
613.253	691720
613.319	693244
613.386	697024
613.453	708219
613.519	709441
613.586	697175
613.652	706750
613.719	698752
613.785	709456
613.852	715172
613.918	714287
613.985	717087
614.051	743783
614.118	741550
614.184	717035
614.250	709446
614.317	725381
614.383	716366
614.449	732026
614.516	724160
614.582	728620
614.648	718473
614.715	709252
614.781	701288
614.847	699552
614.914	698460
614.980	682540
615.046	682144
615.112	699610
615.179	702882
615.245	710400
615.311	699501
615.377	706556
615.443	716528
615.509	717522
615.575	737632
615.642	731419
615.708	740638
615.774	761388
615.840	785810
615.906	799857
615.972	862732
616.038	1045315
616.104	1522170
616.170	2164739
616.236	2048011
616.302	1313430
616.368	1108833
616.434	906975
616.500	838311
616.565	871045
616.631	1020937
616.697	913873
616.763	894938
616.829	1107353
616.895	1638579
616.961	1628102
617.026	1005167
617.092	786318
617.158	747343
617.224	732233
617.289	689620
617.355	661350
617.421	655387
617.487	652840
617.552	629264
617.618	623710
617.684	624275
617.749	627945
617.815	605513
617.880	597089
617.946	596520
618.012	608151
618.077	616487
618.143	594527
618.208	595712
618.274	633505
618.339	640523
618.405	547085
618.470	543281
618.536	543482
618.601	538062
618.667	504397
618.732	483165
618.798	477956
618.863	479729
618.928	474359
618.994	476413
619.059	470978
619.124	477536
619.190	472898
619.255	470082
619.320	468163
619.386	473976
619.451	470613
619.516	454947
619.581	466064
619.647	480810
619.712	483993
619.777	460871
619.842	465202
619.907	471657
619.972	479494
620.038	479640
620.103	465195
620.168	467022
620.233	475263
620.298	476079
620.363	481551
620.428	492684
620.493	505030
620.558	508894
620.623	512120
620.688	513681
620.753	506804
620.818	518827
620.883	518614
620.948	517787
621.013	512647
621.078	505574
621.143	508323
621.207	514372
621.272	507469
621.337	495247
621.402	489530
621.467	489319
621.532	489243
621.596	489133
621.661	477344
621.726	476077
621.791	477398
621.855	475252
621.920	470696
621.985	481322
622.049	487911
622.114	490930
622.179	495253
622.243	502910
622.308	518322
622.373	531824
622.437	525215
622.502	499915
622.566	492573
622.631	494976
622.695	502110
622.760	501889
622.824	500413
622.889	502267
622.953	502383
623.018	523468
623.082	532398
623.147	527469
623.211	517452
623.276	517825
623.340	501548
623.404	487855
623.469	488484
623.533	494099
623.597	485874
623.662	481018
623.726	453939
623.790	429464
623.854	417092
623.919	429108
623.983	428124
624.047	436776
624.111	437674
624.176	445343
624.240	449604
624.304	458880
624.368	443081
624.432	444050
624.496	455500
624.560	471003
624.625	478455
624.689	473650
624.753	492188
624.817	472530
624.881	463974
624.945	423606
625.009	413294
625.073	419729
625.137	431841
625.201	446507
625.265	446961
625.329	428712
625.393	435799
625.456	434725
625.520	446839
625.584	454388
625.648	466331
625.712	474709
625.776	484565
625.839	463169
625.903	394907
625.967	364845
626.031	386300
626.095	453105
626.158	420136
626.222	341498
626.286	321089
626.349	312283
626.413	294133
626.477	287882
626.540	296306
626.604	290570
626.668	285813
626.731	285198
626.795	284813
626.858	282761
626.922	278220
626.986	275216
627.049	276547
627.113	287085
627.176	279000
627.240	270807
627.303	269615
627.366	267959
627.430	273798
627.493	267683
627.557	264574
627.620	267745
627.684	279881
627.747	277550
627.810	258612
627.874	235832
627.937	227140
628.000	235878
628.064	230266
628.127	207769
628.190	205894
628.253	199665
628.317	192339
628.380	185838
628.443	181957
628.506	180578
628.569	172531
628.632	165605
628.696	165765
628.759	165450
628.822	156996
628.885	155381
628.948	152932
629.011	152256
629.074	147439
629.137	143369
629.200	140978
629.263	137930
629.326	136385
629.389	138293
629.452	135417
629.515	132364
629.578	132027
629.641	134516
629.704	136511
629.767	131393
629.830	129785
629.892	125874
629.955	125376
630.018	129599
630.081	126956
630.144	127472
630.207	123648
630.269	125547
630.332	121859
630.395	121231
630.458	118583
630.520	114852
630.583	114545
630.646	117656
630.708	118331
630.771	119210
630.834	125712
630.896	123394
630.959	121753
631.021	118476
631.084	118614
631.146	119151
631.209	120504
631.272	118920
631.334	120880
631.397	121029
631.459	117631
631.522	123887
631.584	125624
631.646	130902
631.709	133620
631.771	132768
631.834	128909
631.896	125098
631.958	119405
632.021	119808
632.083	115472
632.145	115692
632.208	113183
632.270	113320
632.332	113040
632.395	112377
632.457	114369
632.519	111347
632.581	113051
632.643	110447
632.706	111730
632.768	108710
632.830	111594
632.892	113778
632.954	115044
633.016	116232
633.078	113086
633.141	113541
633.203	112858
633.265	112051
633.327	110442
633.389	112906
633.451	112905
633.513	111702
633.575	113740
633.637	111803
633.698	114639
633.760	119917
633.822	122194
633.884	123906
633.946	125561
634.008	125749
634.070	127504
634.132	130340
634.193	137008
634.255	145319
634.317	145497
634.379	144953
634.441	135853
634.502	128040
634.564	119871
634.626	114822
634.687	109694
634.749	107819
634.811	107551
634.873	105091
634.934	108391
634.996	108497
635.057	106986
635.119	108782
635.181	109834
635.242	109538
635.304	106985
635.365	111834
635.427	107323
635.488	109378
635.550	106478
635.611	106810
635.673	107118
635.734	113206
635.796	115063
635.857	122416
635.918	125309
635.980	134664
636.041	141369
636.102	146521
636.164	147328
636.225	142244
636.286	128007
636.348	120895
636.409	112738
636.470	108444
636.531	106630
636.593	105807
636.654	103632
636.715	101637
636.776	100234
636.838	97012
636.899	97807
636.960	96330
637.021	96721
637.082	94159
637.143	92052
637.204	90237
637.265	91506
637.326	92816
637.387	94476
637.448	91895
637.509	93111
637.570	92720
637.631	91803
637.692	89376
637.753	88625
637.814	88166
637.875	88390
637.936	88640
637.997	87909
638.058	85884
638.119	88460
638.179	87007
638.240	86853
638.301	88773
638.362	86060
638.423	84873
638.483	84423
638.544	82571
638.605	84322
638.666	82725
638.726	84440
638.787	83072
638.848	83722
638.908	81187
638.969	78797
639.030	79672
639.090	77762
639.151	79764
639.211	81303
639.272	80850
639.332	82790
639.393	81939
639.453	84507
639.514	84773
639.574	79090
639.635	74708
639.695	77330
639.756	74979
639.816	73369
639.877	73494
639.937	76328
639.997	76055
640.058	73250
640.118	73401
640.178	74496
640.239	73892
640.299	74488
640.359	75255
640.420	76854
640.480	82948
640.540	91576
640.600	90779
640.661	84471
640.721	83439
640.781	90612
640.841	89164
640.901	76658
640.961	75890
641.021	76276
641.082	81420
641.142	75918
641.202	74987
641.262	69622
641.322	72189
641.382	70019
641.442	71662
641.502	70678
641.562	71887
641.622	72458
641.682	75868
641.742	82415
641.802	78641
641.861	71668
641.921	68870
641.981	67300
642.041	64810
642.101	64806
642.161	63706
642.221	65954
642.280	65481
642.340	64585
642.400	66487
642.460	68335
642.519	68004
642.579	68233
642.639	68510
642.698	66729
642.758	70711
642.818	69034
642.877	67739
642.937	69013
642.997	69071
643.056	69083
643.116	66494
643.175	69881
643.235	69658
643.294	72270
643.354	72173
643.414	73907
643.473	79151
643.532	85963
643.592	101156
643.651	129314
643.711	190262
643.770	325255
643.830	673830
643.889	1106241
643.948	469216
644.008	156558
644.067	106527
644.126	85473
644.186	77105
644.245	71973
644.304	68064
644.363	69983
644.423	63208
644.482	65623
644.541	69154
644.600	67759
644.659	77425
644.719	85916
644.778	110228
644.837	162101
644.896	294096
644.955	595012
645.014	248018
645.073	94006
645.132	75273
645.191	71784
645.250	69156
645.309	71569
645.368	76699
645.427	91550
645.486	138200
645.545	225863
645.604	90432
645.663	66555
645.722	65154
645.781	68532
645.840	70170
645.898	75278
645.957	90753
646.016	117189
646.075	178848
646.134	309063
646.192	684291
646.251	903025
646.310	274508
646.369	116749
646.427	98214
646.486	80451
646.545	68491
646.603	64629
646.662	61572
646.721	58521
646.779	57648
646.838	58557
646.896	65261
646.955	77680
647.014	107842
647.072	180661
647.131	436912
647.189	238369
647.248	70550
647.306	57450
647.365	55115
647.423	49821
647.481	52977
647.540	49670
647.598	51432
647.657	50381
647.715	50968
647.773	48638
647.832	49669
647.890	44546
647.948	45616
648.007	45275
648.065	42158
648.123	43690
648.181	44215
648.240	44059
648.298	43504
648.356	41499
648.414	42793
648.472	42026
648.531	40892
648.589	39315
648.647	40511
648.705	40318
648.763	40314
648.821	41462
648.879	41280
648.937	42621
648.995	45997
649.053	51619
649.111	63943
649.169	90255
649.227	145733
649.285	278931
649.343	668321
649.401	376231
649.459	90855
649.516	58652
649.574	50347
649.632	52135
649.690	57319
649.748	58569
649.806	79806
649.863	132653
649.921	329322
649.979	235323
650.037	53664
650.094	38590
650.152	38331
650.210	35994
650.268	36770
650.325	36894
650.383	42881
650.440	32819
650.498	32257
650.556	31367
650.613	31783
650.671	31633
650.728	31473
650.786	33096
650.843	41979
650.901	35339
650.958	28906
651.016	28997
651.073	28102
651.131	28413
651.188	27266
651.246	27514
651.303	26188
651.360	27361
651.418	27251
651.475	27095
651.532	25999
651.590	27792
651.647	26138
651.704	25918
651.762	25992
651.819	25315
651.876	25693
651.933	24717
651.990	25341
652.048	23638
652.105	25101
652.162	24951
652.219	23843
652.276	23861
652.333	24174
652.390	23288
652.448	23920
652.505	23465
652.562	24184
652.619	23010
652.676	25024
652.733	26138
652.790	22791
652.847	21214
652.904	22774
652.961	21954
653.017	21907
653.074	22474
653.131	22460
653.188	20822
653.245	22305
653.302	21490
653.359	22135
653.415	22311
653.472	21470
653.529	22039
653.586	20974
653.642	20796
653.699	22200
653.756	19784
653.813	20917
653.869	23355
653.926	21878
653.983	20565
654.039	21726
654.096	21809
654.152	21709
654.209	20430
654.266	21176
654.322	19083
654.379	21753
654.435	21954
654.492	21920
654.548	20251
654.605	22254
654.661	22515
654.717	20515
654.774	21315
654.830	21523
654.887	21781
654.943	21626
655.000	24479
655.056	23038
655.112	20866
655.168	20157
655.225	21105
655.281	20666
655.337	20582
655.394	21073
655.450	20937
655.506	20322
655.562	21373
655.618	21770
655.675	18389
655.731	20552
655.787	17869
655.843	20269
655.899	18858
655.955	20683
656.011	20696
656.067	18974
656.123	19259
656.179	19874
656.235	20346
656.291	19126
656.347	20659
656.403	19601
656.459	19034
656.515	20317
656.571	19570
656.627	20729
656.683	19740
656.739	20729
656.795	19549
656.850	19512
656.906	19384
656.962	20690
657.018	19082
657.074	24117
657.129	29281
657.185	41169
657.241	84088
657.297	50717
657.352	21887
657.408	19835
657.464	19619
657.519	19210
657.575	17442
657.630	17774
657.686	17831
657.742	17593
657.797	18386
657.853	18408
657.908	19578
657.964	17164
658.019	17435
658.075	18293
658.130	17748
658.186	17992
658.241	17681
658.297	16646
658.352	17922
658.407	18080
658.463	16880
658.518	16999
658.573	17333
658.629	16002
658.684	16759
658.739	17770
658.795	16334
658.850	17156
658.905	15730
658.960	17228
659.016	15519
659.071	16180
659.126	17504
659.181	16769
659.236	17538
659.291	16800
659.346	16921
659.401	17928
659.457	17819
659.512	17455
659.567	18215
659.622	16804
659.677	17149
659.732	15542
659.787	17104
659.842	16037
659.897	16215
659.952	16012
660.007	15921
660.061	16904
660.116	15093
660.171	17185
660.226	15624
660.281	16849
660.336	15943
660.391	16037
660.445	15397
660.500	16487
660.555	16035
660.610	16569
660.664	16470
660.719	15103
660.774	15626
660.828	15596
660.883	15869
660.938	15576
660.992	15201
661.047	16127
661.101	14752
661.156	15255
661.211	13945
661.265	15358
661.320	14956
661.374	15465
661.429	15533
661.483	15703
661.538	15155
661.592	16500
661.647	16361
661.701	21149
661.755	16575
661.810	15713
661.864	15002
661.919	14405
661.973	15756
662.027	14783
662.081	14523
662.136	15829
662.190	15028
662.244	15437
662.299	15251
662.353	16087
662.407	14813
662.461	14281
662.515	14776
662.569	14509
662.624	15920
662.678	14160
662.732	14211
662.786	14102
662.840	15267
662.894	14425
662.948	14750
663.002	15659
663.056	14688
663.110	13923
663.164	14228
663.218	14774
663.272	15339
663.326	15196
663.380	13988
663.434	14791
663.488	13049
663.542	14120
663.595	14489
663.649	14097
663.703	14024
663.757	14265
663.811	14028
663.864	13429
663.918	13667
663.972	14405
664.026	14658
664.079	14113
664.133	15615
664.187	15203
664.240	13918
664.294	14770
664.348	15498
664.401	15081
664.455	14605
664.508	14563
664.562	13473
664.615	14161
664.669	12678
664.722	14581
664.776	13209
664.829	14153
664.883	14191
664.936	13763
664.990	14286
665.043	15280
665.097	14803
665.150	16030
665.203	13908
665.257	14783
665.310	14913
665.363	15442
665.417	15370
665.470	15124
665.523	14374
665.576	14792
665.630	15438
665.683	14444
665.736	15227
665.789	14649
665.842	14266
665.895	14495
665.949	13733
666.002	14778
666.055	14453
666.108	16033
666.161	14266
666.214	14604
666.267	15347
666.320	14515
666.373	14983
666.426	15815
666.479	14808
666.532	16265
666.585	14568
666.638	16598
666.691	15271
666.744	15503
666.796	15519
666.849	14765
666.902	15264
666.955	14830
667.008	15633
667.060	15025
667.113	15581
667.166	16371
667.219	15895
667.271	16497
667.324	15981
667.377	14446
667.430	15375
667.482	16686
667.535	15040
667.587	14715
667.640	14164
667.693	15229
667.745	16042
667.798	15707
667.850	15141
667.903	14984
667.955	15438
668.008	15515
668.060	15484
668.113	13830
668.165	14623
668.218	14348
668.270	13900
668.322	15049
668.375	14211
668.427	14877
668.479	14341
668.532	15866
668.584	14895
668.636	14684
668.689	14527
668.741	14523
668.793	13653
668.845	14952
668.898	14954
668.950	13778
669.002	14685
669.054	14869
669.106	14056
669.158	14565
669.211	13539
669.263	13921
669.315	14743
669.367	15099
669.419	13205
669.471	14401
669.523	14146
669.575	15462
669.627	14169
669.679	13734
669.731	13613
669.783	14462
669.835	13426
669.886	13643
669.938	14112
669.990	14686
670.042	14112
670.094	13204
670.146	14148
670.197	14690
670.249	14871
670.301	15395
670.353	17665
670.404	20094
670.456	23371
670.508	31563
670.560	46851
670.611	75205
670.663	123560
670.715	274318
670.766	401419
670.818	139871
670.869	37784
670.921	24376
670.972	22297
671.024	18605
671.075	16813
671.127	15017
671.178	15766
671.230	16325
671.281	16111
671.333	17601
671.384	18552
671.436	21126
671.487	27456
671.538	36534
671.590	54143
671.641	85793
671.692	148182
671.744	268295
671.795	197140
671.846	81038
671.897	41631
671.949	29896
672.000	23197
672.051	19740
672.102	16967
672.153	15716
672.204	14450
672.256	14213
672.307	13578
672.358	13705
672.409	13175
672.460	12604
672.511	12534
672.562	11908
672.613	10558
672.664	11541
672.715	11942
672.766	10914
672.817	10859
672.868	11131
672.919	10840
672.970	10261
673.021	10921
673.071	10241
673.122	10188
673.173	10326
673.224	10910
673.275	10078
673.326	10125
673.376	10191
673.427	9611
673.478	10926
673.528	10883
673.579	10611
673.630	10358
673.680	10968
673.731	10091
673.782	10424
673.832	10719
673.883	10457
673.934	9759
673.984	10376
674.035	10073
674.085	10433
674.136	10439
674.186	10044
674.237	10970
674.287	10388
674.338	10996
674.388	10005
674.438	10370
674.489	11798
674.539	11488
674.589	10932
674.640	10845
674.690	11075
674.740	10233
674.791	10330
674.841	10719
674.891	10423
674.942	9036
674.992	8957
675.042	9300
675.092	8782
675.142	8621
675.193	7681
675.243	8758
675.293	9282
675.343	9160
675.393	10110
675.443	9977
675.493	10270
675.543	9679
675.593	9647
675.643	9016
675.693	10195
675.743	9050
675.793	9584
675.843	7920
675.893	8328
675.943	8279
675.993	9055
676.043	8097
676.093	8729
676.142	9044
676.192	8649
676.242	8433
676.292	8026
676.341	7611
676.391	7888
676.441	8440
676.491	7881
676.540	8058
676.590	8433
676.640	8042
676.689	7645
676.739	6289
676.789	7445
676.838	7502
676.888	7249
676.937	7870
676.987	7865
677.037	7218
677.086	7390
677.136	7864
677.185	7805
677.235	7272
677.284	8721
677.333	7275
677.383	6263
677.432	6977
677.482	7162
677.531	6789
677.580	7577
677.630	6623
677.679	7622
677.728	7714
677.778	8578
677.827	6865
677.876	7148
677.925	6512
677.975	7959
678.024	8114
678.073	7664
678.122	7644
678.171	8049
678.220	8036
678.269	9072
678.319	9431
678.368	10124
678.417	9627
678.466	8132
678.515	7177
678.564	8226
678.613	6715
678.662	7093
678.711	7170
678.760	7134
678.809	6596
678.857	7862
678.906	7674
678.955	8043
679.004	7997
679.053	8773
679.102	7929
679.151	7201
679.199	5990
679.248	6824
679.297	7065
679.346	7253
679.394	5991
679.443	7275
679.492	6746
679.540	7308
679.589	7150
679.638	7370
679.686	7290
679.735	7053
679.784	7905
679.832	10198
679.881	7548
679.929	7331
679.978	7057
680.026	7344
680.075	6660
680.123	6962
680.172	6685
680.220	7285
680.268	6242
680.317	6100
680.365	6587
680.414	5834
680.462	5440
680.510	6723
680.559	5826
680.607	6490
680.655	6050
680.703	7207
680.752	6709
680.800	6718
680.848	6174
680.896	6207
680.945	6028
680.993	5887
681.041	5892
681.089	5899
681.137	5724
681.185	6350
681.233	6482
681.258	6523
681.281	6521
681.329	5934
681.377	6234
681.380	6302
681.425	6767
681.473	6859
681.502	7012
681.521	7034
681.569	8181
681.617	6937
681.624	7037
681.665	7343
681.713	6841
681.745	6942
681.761	6936
681.809	6780
681.857	8554
681.867	8224
681.904	6883
681.952	7449
681.989	7631
682.000	7631
682.048	8004
682.096	7323
682.111	7555
682.143	7939
682.191	7672
682.233	7788
682.239	7766
682.286	8560
682.334	8284
682.354	8149
682.382	7839
682.430	9092
682.476	8154
682.477	8096
682.525	8381
682.572	8250
682.598	8286
682.620	8256
682.667	8475
682.715	9221
682.720	9251
682.763	9123
682.810	8667
682.841	8931
682.857	9002
682.905	8691
682.952	9365
682.963	9273
683.000	8838
683.047	9109
683.085	10397
683.095	10710
683.142	9704
683.190	9723
683.206	9638
683.237	9337
683.284	10266
683.328	9625
683.332	9536
683.379	9660
683.426	9196
683.449	9505
683.473	9838
683.521	9888
683.568	10436
683.571	10458
683.615	10202
683.662	10143
683.693	10108
683.709	10005
683.757	10228
683.804	10179
683.814	10178
683.851	10090
683.898	9750
683.936	10290
683.945	10418
683.992	11029
684.039	10363
684.057	10560
684.086	10781
684.133	10913
684.179	10481
684.180	10436
684.227	11283
684.274	10725
684.300	11019
684.321	11242
684.368	10473
684.415	11557
684.422	11529
684.462	11319
684.509	11235
684.543	11749
684.556	11858
684.603	12361
684.649	11829
684.665	11819
684.696	11787
684.743	12211
684.786	12710
684.790	12720
684.837	11667
684.883	12266
684.908	11996
684.930	11825
684.977	13108
685.023	12476
685.029	12571
685.070	12773
685.117	12703
685.150	13305
685.164	13611
685.210	12537
685.257	13318
685.272	13244
685.303	12970
685.350	13354
685.393	12430
685.396	12317
685.443	13187
685.490	12666
685.514	12674
685.536	12819
685.583	12807
685.629	13069
685.636	13119
685.675	13264
685.722	13445
685.757	13654
685.768	13683
685.815	12868
685.861	13363
685.878	13371
685.908	13539
685.954	13964
686.000	14210
686.000	14200
686.047	14472
686.093	15024
686.121	14794
686.139	14598
686.185	15050
686.232	14961
686.242	14836
686.278	14276
686.324	14123
686.363	14418
686.370	14483
686.416	13919
686.463	14531
686.484	14836
686.509	15178
686.555	14570
686.601	14904
686.606	14885
686.647	14585
686.693	14307
686.727	14755
686.739	14911
686.785	14491
686.831	15186
686.848	14913
686.877	14500
686.923	15192
686.969	14921
686.969	14919
687.015	15673
687.061	16522
687.090	16622
687.107	16539
687.153	16459
687.199	16566
687.211	16297
687.245	15454
687.291	16033
687.332	15819
687.336	15845
687.382	15635
687.428	16136
687.453	16469
687.474	16581
687.520	16666
687.565	16738
687.574	16674
687.611	17018
687.657	18163
687.695	19168
687.702	19446
687.748	22099
687.794	24115
687.816	24078
687.839	22748
687.885	20428
687.931	19180
687.937	18975
687.976	18565
688.022	18330
688.058	17425
688.067	17262
688.113	17738
688.158	16902
688.179	16996
688.204	17326
688.249	17456
688.295	18122
688.300	18122
688.340	18142
688.386	18388
688.421	18250
688.431	18165
688.477	17716
688.522	17896
688.542	18029
688.567	18631
688.613	18889
688.658	19557
688.663	19610
688.703	19268
688.749	18593
688.784	18269
688.794	18313
688.839	19182
688.884	19599
688.905	19577
688.930	19510
688.975	19078
689.020	19301
689.026	19270
689.065	19186
689.110	19202
689.146	19338
689.155	19470
689.201	19958
689.246	20555
689.267	20625
689.291	20335
689.336	19931
689.381	19906
689.388	19750
689.426	19168
689.471	19745
689.509	19126
689.516	19102
689.561	19258
689.606	19754
689.630	20031
689.651	20020
689.696	19309
689.741	19150
689.750	19070
689.785	19540
689.830	19590
689.871	20169
689.875	20186
689.920	19976
689.965	19996
689.992	19971
690.010	20071
690.054	19950
690.099	19705
690.112	19672
690.144	19691
690.189	19736
690.233	19391
690.233	19413
690.278	19948
690.323	19676
690.354	19869
690.367	20002
690.412	19918
690.457	19982
690.474	19995
690.501	20043
690.546	19986
690.590	19684
690.595	19667
690.635	19759
690.680	19693
690.716	19849
690.724	20073
690.769	21396
690.813	22133
690.836	22574
690.857	23425
690.902	24853
690.946	27189
690.957	27603
690.991	31906
691.035	38534
691.077	44802
691.080	44776
691.124	40302
691.168	36098
691.198	33731
691.213	32302
691.257	28706
691.301	24432
691.318	22889
691.346	22711
691.390	22664
691.434	22100
691.439	22012
691.478	21799
691.522	21794
691.559	21587
691.567	21677
691.611	22369
691.655	22439
691.680	22565
691.699	22442
691.743	22437
691.787	22418
691.800	22136
691.831	21828
691.875	22638
691.919	22471
691.921	22439
691.964	22385
692.008	22546
692.041	22269
692.052	22212
692.096	21433
692.139	22137
692.162	21896
692.183	21828
692.227	21782
692.271	21846
692.282	21783
692.315	21516
692.359	21199
692.402	21067
692.403	21106
692.447	21245
692.490	21716
692.523	21593
692.534	21604
692.578	21944
692.622	21803
692.643	21948
692.666	22105
692.709	22271
692.753	22438
692.763	22471
692.797	22506
692.840	21950
692.884	21664
692.884	21704
692.928	22059
692.971	22069
693.004	21995
693.015	22054
693.059	22312
693.102	22597
693.124	22640
693.146	22660
693.189	22754
693.233	22494
693.245	22589
693.276	23212
693.320	23425
693.363	23347
693.365	23317
693.407	24092
693.450	24971
693.485	25287
693.493	25489
693.537	26579
693.580	27901
693.605	28491
693.624	30221
693.667	34059
693.710	38281
693.725	39793
693.753	48060
693.797	61560
693.840	74764
693.845	75927
693.883	68400
693.926	60058
693.966	52994
693.970	52194
694.013	43104
694.056	34439
694.086	27975
694.099	27625
694.142	26924
694.185	25822
694.206	25400
694.229	25286
694.272	24857
694.315	24502
694.326	24286
694.358	24168
694.401	24024
694.444	23975
694.446	23930
694.487	23986
694.530	23655
694.566	23472
694.573	23559
694.616	23787
694.659	24135
694.686	24318
694.702	24391
694.745	24188
694.787	24106
694.806	24037
694.830	23988
694.873	24000
694.916	23433
694.926	23364
694.959	23838
695.002	24434
695.044	24816
695.046	24783
695.087	24979
695.130	25174
695.166	24989
695.172	25072
695.215	25478
695.258	26003
695.286	26267
695.301	26405
695.343	26684
695.386	26819
695.406	26809
695.428	27467
695.471	28830
695.514	30095
695.526	30456
695.556	32002
695.599	34161
695.641	35480
695.646	35620
695.684	34433
695.726	32816
695.766	31441
695.769	31492
695.811	31085
695.854	30543
695.886	30233
695.896	30359
695.938	30506
695.981	30672
696.005	30785
696.023	31495
696.065	32923
696.108	34472
696.125	34952
696.150	35311
696.192	35947
696.235	36483
696.245	36511
696.277	36824
696.319	37414
696.361	37769
696.365	37715
696.404	37064
696.446	36422
696.485	35626
696.488	35729
696.530	35968
696.572	36308
696.604	36462
696.614	36378
696.656	35613
696.698	34984
696.724	34459
696.740	34692
696.783	35185
696.825	35610
696.844	35736
696.867	36015
696.909	36296
696.951	36516
696.964	36535
696.992	36831
697.034	37186
697.076	37510
697.083	37493
697.118	38426
697.160	39286
697.202	40197
697.203	40128
697.244	39554
697.286	38919
697.323	38198
697.327	38273
697.369	38254
697.411	38154
697.442	37964
697.453	38192
697.494	38765
697.536	39379
697.562	39658
697.578	39541
697.620	39031
697.661	38442
697.682	38085
697.703	38891
697.744	40288
697.786	41744
697.801	42147
697.828	41898
697.869	41308
697.911	40778
697.921	40561
697.952	40967
697.994	41284
698.035	41631
698.040	41582
698.077	41465
698.118	41101
698.160	40801
698.160	40701
698.201	42003
698.243	43135
698.279	44104
698.284	44261
698.325	44721
698.367	45170
698.399	45394
698.408	45628
698.449	46202
698.491	46774
698.518	47050
698.532	47121
698.573	46993
698.614	46841
698.638	46656
698.656	46826
698.697	46934
698.738	47052
698.757	46997
698.779	46994
698.820	46769
698.862	46536
698.877	46333
698.903	46800
698.944	47370
698.985	47949
698.996	47991
699.026	47674
699.067	47073
699.116	46243
699.235	47852
699.354	45100
699.474	42977
699.593	42405
699.713	43531
699.832	44336
699.951	45796
700.070	44674
700.190	41472
700.309	41282
700.428	40935
700.547	39758
700.667	39943
700.786	39903
700.905	38835
701.024	38909
701.143	39287
701.262	39682
701.381	40195
701.500	41228
701.619	39647
701.738	39746
701.857	39260
701.976	36506
702.095	38536
702.214	39599
702.333	38109
702.452	39587
702.571	39315
702.690	39163
702.809	39186
702.928	37520
703.047	36235
703.165	36340
703.284	36579
703.403	34892
703.522	35791
703.640	34994
703.759	35646
703.878	35185
703.997	34584
704.115	35191
704.234	34533
704.353	35421
704.471	33184
704.590	31905
704.708	33378
704.827	31775
704.946	31903
705.064	31965
705.183	31538
705.301	32862
705.420	32821
705.538	31593
705.656	30878
705.775	29500
705.893	35249
706.012	37289
706.130	31031
706.249	32341
706.367	31096
706.485	30360
706.604	30244
706.722	30135
706.840	35458
706.958	45109
707.077	37153
707.195	28968
707.313	28651
707.431	27923
707.549	28304
707.668	26973
707.786	29253
707.904	27067
708.022	28858
708.140	26973
708.258	27070
708.376	28173
708.494	26056
708.612	28893
708.730	29731
708.848	27720
708.966	27373
709.084	28099
709.202	29103
709.320	26101
709.438	26080
709.556	26541
709.674	24876
709.791	25344
709.909	24800
710.027	25590
710.145	24378
710.263	25200
710.380	25568
710.498	23643
710.616	23915
710.733	23692
710.851	23897
710.969	23609
711.086	23175
711.204	24235
711.322	24290
711.439	24104
711.557	22930
711.674	22206
711.792	22951
711.909	21432
712.027	23107
712.144	22284
712.262	21399
712.379	23092
712.497	24915
712.614	23784
712.732	24158
712.849	22430
712.966	23520
713.084	24773
713.201	22291
713.318	22190
713.436	23496
713.553	22224
713.670	23045
713.787	23948
713.905	21873
714.022	24519
714.139	24187
714.256	26472
714.373	33097
714.490	52060
714.608	119441
714.725	439023
714.842	473571
714.959	61049
715.076	30883
715.193	25463
715.310	24780
715.427	20349
715.544	21328
715.661	21589
715.778	21707
715.895	21306
716.011	20773
716.128	19955
716.245	20871
716.362	19822
716.479	19319
716.596	19560
716.713	20147
716.829	18935
716.946	18980
717.063	18861
717.180	18025
717.296	18156
717.413	19285
717.530	18092
717.646	16856
717.763	17570
717.880	17707
717.996	16942
718.113	16993
718.229	16225
718.346	16802
718.462	16358
718.579	17078
718.695	17750
718.812	17695
718.928	17745
719.045	16558
719.161	16037
719.277	17245
719.394	17058
719.510	17690
719.626	18346
719.743	20958
719.859	27078
719.975	47872
720.092	163171
720.208	374508
720.324	58149
720.440	23211
720.557	19102
720.673	18241
720.789	17856
720.905	22206
721.021	17969
721.137	15625
721.253	15338
721.369	15957
721.486	15811
721.602	14608
721.718	15376
721.834	14618
721.950	13440
722.066	14481
722.181	14005
722.297	14830
722.413	14658
722.529	14588
722.645	13971
722.761	14002
722.877	13737
722.993	15116
723.108	18246
723.224	15518
723.340	14389
723.456	14482
723.571	12914
723.687	12627
723.803	13624
723.918	14414
724.034	12524
724.150	13650
724.265	13163
724.381	14251
724.497	14024
724.612	13397
724.728	12473
724.843	12418
724.959	12737
725.074	14173
725.190	14487
725.305	13112
725.421	12799
725.536	12743
725.651	13414
725.767	12489
725.882	12633
725.997	13160
726.113	12908
726.228	13554
726.343	12748
726.459	12258
726.574	12207
726.689	12132
726.804	12799
726.920	12435
727.035	11842
727.150	12484
727.265	11520
727.380	12836
727.495	12304
727.610	12232
727.725	11149
727.841	12355
727.956	13880
728.071	14696
728.186	10698
728.301	11060
728.416	12540
728.531	12886
728.645	10793
728.760	11955
728.875	11820
728.990	11928
729.105	11635
729.220	11136
729.335	10741
729.449	11864
729.564	11676
729.679	10241
729.794	12089
729.908	13112
730.023	10792
730.138	11568
730.253	11453
730.367	11873
730.482	11266
730.596	11263
730.711	12681
730.826	17568
730.940	18428
731.055	14680
731.169	13523
731.284	14357
731.398	13806
731.513	14423
731.627	15420
731.742	20392
731.856	21587
731.970	20907
732.085	23886
732.199	31594
732.313	49631
732.428	115358
732.542	339095
732.656	219929
732.771	47029
732.885	30067
732.999	27744
733.113	30408
733.227	28862
733.342	28226
733.456	27333
733.570	27777
733.684	24989
733.798	24271
733.912	24052
734.026	25598
734.140	24551
734.254	24262
734.368	23516
734.482	24977
734.596	24028
734.710	23285
734.824	22860
734.938	22308
735.052	23461
735.166	23748
735.280	23499
735.393	21456
735.507	21563
735.621	22533
735.735	22107
735.849	22798
735.962	19947
736.076	21673
736.190	20785
736.303	21746
736.417	22125
736.531	19679
736.644	21276
736.758	19980
736.872	19618
736.985	20204
737.099	20606
737.212	19409
737.326	19135
737.439	20712
737.553	18428
737.666	20230
737.780	17669
737.893	20583
738.007	17625
738.120	20084
738.233	18329
738.347	19595
738.460	17086
738.573	19662
738.687	17389
738.800	18533
738.913	19922
739.026	17824
739.140	17272
739.253	18601
739.366	16863
739.479	16724
739.592	17914
739.705	16599
739.818	19427
739.932	16502
740.045	16883
740.158	15891
740.271	17467
740.384	18053
740.497	14805
740.610	16831
740.723	16214
740.836	16658
740.949	16352
741.062	17899
741.174	15114
741.287	15387
741.400	16164
741.513	14625
741.626	16481
741.739	15721
741.851	14425
741.964	16286
742.077	14901
742.189	14048
742.302	15159
742.415	15274
742.527	14474
742.640	15328
742.753	12973
742.865	14886
742.978	13936
743.090	14048
743.203	14377
743.316	14029
743.428	14255
743.541	15657
743.653	12382
743.766	14253
743.878	14235
743.990	12899
744.103	14320
744.215	13341
744.327	13028
744.440	15921
744.552	13724
744.664	12463
744.777	13601
744.889	12719
745.001	13286
745.113	14217
745.226	12689
745.338	12636
745.450	14540
745.562	13561
745.674	11569
745.786	14399
745.898	12805
746.010	12820
746.122	12799
746.234	12504
746.347	12320
746.459	13723
746.570	10523
746.682	13224
746.794	14449
746.906	11905
747.018	11645
747.130	12297
747.242	11000
747.354	11681
747.466	12665
747.577	11930
747.689	12116
747.801	12872
747.913	11045
748.024	10892
748.136	11549
748.248	10583
748.359	11262
748.471	11349
748.583	11234
748.694	10301
748.806	12024
748.918	11560
749.029	10991
749.141	11348
749.252	11564
749.364	10006
749.475	10927
749.587	10608
749.698	10165
749.809	11092
749.921	10682
750.032	10974
750.144	10083
750.255	9517
750.366	10705
750.478	10176
750.589	11151
750.700	9868
750.811	10004
750.923	10460
751.034	9851
751.145	11453
751.256	10161
751.367	10442
751.479	10600
751.590	9828
751.701	10158
751.812	9093
751.923	9129
752.034	10858
752.145	9939
752.256	9653
752.367	9694
752.478	10455
752.589	9125
752.700	10565
752.811	8987
752.922	8973
753.032	9330
753.143	9899
753.254	8696
753.365	10385
753.476	10259
753.586	9549
753.697	9465
753.808	9741
753.919	8121
754.029	9595
754.140	8722
754.251	9279
754.361	10127
754.472	9878
754.582	9104
754.693	9750
754.804	9690
754.914	9552
755.025	7578
755.135	9847
755.246	10252
755.356	8408
755.466	8055
755.577	9662
755.687	9133
755.798	8935
755.908	8508
756.018	9067
756.129	8918
756.239	9820
756.349	9818
756.460	9744
756.570	9145
756.680	8806
756.790	9136
756.900	10232
757.011	9685
757.121	8927
757.231	8166
757.341	9264
757.451	8874
757.561	8701
757.671	9220
757.781	8718
757.891	9168
758.001	8302
758.111	8865
758.221	9840
758.331	9242
758.441	9426
758.551	9419
758.661	10084
758.771	9199
758.880	9724
758.990	9561
759.100	8648
759.210	9442
759.320	9513
759.429	9327
759.539	10445
759.649	10244
759.758	11789
759.868	11219
759.978	11057
760.087	11980
760.197	11774
760.307	11061
760.416	10506
760.526	10561
760.635	11690
760.745	11816
760.854	12049
760.964	14153
761.073	13266
761.182	12269
761.292	12665
761.401	11141
761.511	10265
761.620	9574
761.729	10566
761.839	9481
761.948	10055
762.057	9539
762.166	11160
762.276	9962
762.385	11257
762.494	10803
762.603	10183
762.712	10926
762.822	10822
762.931	10513
763.040	10671
763.149	10846
763.258	11992
763.367	10841
763.476	11494
763.585	12014
763.694	12550
763.803	11913
763.912	13318
764.021	13087
764.130	13209
764.238	14848
764.347	15453
764.456	16585
764.565	17895
764.674	16887
764.783	18510
764.891	19519
765.000	22335
765.109	23061
765.217	26835
765.326	30010
765.435	35423
765.543	42306
765.652	52535
765.761	67660
765.869	93896
765.978	132022
766.086	203333
766.195	332785
766.303	523988
766.412	510463
766.520	484332
766.629	447754
766.737	281502
766.846	179286
766.954	121595
767.062	88908
767.171	68761
767.279	55580
767.387	46696
767.496	38869
767.604	33944
767.712	29785
767.820	27290
767.928	25263
768.037	22219
768.145	22205
768.253	21130
768.361	20729
768.469	20657
768.577	21121
768.685	22212
768.793	23604
768.901	24219
769.009	27728
769.117	33405
769.225	41570
769.333	59125
769.441	86820
769.549	144757
769.657	274181
769.765	477538
769.873	451630
769.981	397234
770.088	224883
770.196	125685
770.304	82607
770.412	58666
770.519	45911
770.627	38927
770.735	31304
770.842	28190
770.950	25555
771.058	23953
771.165	22635
771.273	22344
771.380	21058
771.488	22829
771.595	25625
771.703	22537
771.810	20275
771.918	19731
772.025	22196
772.133	24600
772.240	22449
772.348	25981
772.455	24021
772.562	22315
772.670	20579
772.777	21849
772.884	20064
772.991	19352
773.099	20534
773.206	19793
773.313	19310
773.420	19655
773.528	19207
773.635	17371
773.742	20387
773.849	18610
773.956	18947
774.063	17745
774.170	17670
774.277	19080
774.384	17123
774.491	16493
774.598	17926
774.705	16867
774.812	17103
774.919	16354
775.026	16482
775.133	17028
775.239	16177
775.346	16197
775.453	15187
775.560	15765
775.667	16186
775.773	15353
775.880	15218
775.987	15187
776.093	15196
776.200	16489
776.307	12330
776.413	14358
776.520	16636
776.627	14969
776.733	13098
776.840	12777
776.946	17376
777.053	13906
777.159	13852
777.266	11988
777.372	13223
777.478	14085
777.585	13699
777.691	12303
777.798	14139
777.904	13248
778.010	12977
778.117	14434
778.223	12363
778.329	12465
778.435	11353
778.542	13853
778.648	12737
778.754	11054
778.860	12281
778.966	13163
779.072	10966
779.178	12727
779.284	10679
779.391	12710
779.497	13031
779.603	14470
779.708	15139
779.815	22601
779.920	63807
780.026	100554
780.132	22084
780.238	12623
780.344	10728
780.450	13255
780.556	9637
780.661	10022
780.767	13321
780.873	9038
780.979	10052
781.085	11863
781.190	9724
781.296	10380
781.402	10420
781.507	10898
781.613	8892
781.719	9750
781.824	11782
781.930	9981
782.035	9977
782.141	11354
782.246	8335
782.352	9691
782.457	9565
782.563	9902
782.668	10402
782.773	8781
782.879	8168
782.984	9488
783.090	9458
783.195	10057
783.300	10252
783.405	8540
783.511	6978
783.616	8310
783.721	9075
783.826	9044
783.932	7756
784.037	9570
784.142	9442
784.247	9151
784.352	8733
784.457	6934
784.562	8292
784.667	8342
784.772	7631
784.877	6767
784.982	8853
785.087	8672
785.192	7896
785.297	7602
785.402	9237
785.507	7767
785.611	8660
785.716	7786
785.821	8343
785.926	8354
786.031	7699
786.135	7770
786.240	7410
786.345	6497
786.450	7324
786.554	8723
786.659	7173
786.763	8382
786.868	6947
786.973	8871
787.077	5931
787.182	7133
787.286	7877
787.391	9397
787.495	5629
787.600	5895
787.704	6487
787.809	7247
787.913	7238
788.017	7363
788.122	7334
788.226	7964
788.330	5323
788.435	7487
788.539	7574
788.643	7678
788.747	5112
788.852	5577
788.956	6010
789.060	8330
789.164	7318
789.268	6184
789.372	6461
789.476	6424
789.580	5636
789.684	5118
789.788	6790
789.892	6430
789.996	5408
790.100	5544
790.204	6761
790.308	8088
790.412	5331
790.516	4448
790.620	5290
790.724	8133
790.828	6000
790.931	4753
791.035	6541
791.139	5751
791.242	6740
791.346	6592
791.450	6589
791.554	5130
791.657	3685
791.761	6620
791.864	6202
791.968	6889
792.072	6642
792.175	5136
792.279	4644
792.382	5584
792.486	5675
792.589	6430
792.693	6045
792.796	4567
792.899	5726
793.003	6030
793.106	4364
793.209	4815
793.313	5160
793.416	4463
793.519	4655
793.623	7221
793.726	6178
793.829	4926
793.932	3809
794.035	4107
794.138	6282
794.242	7720
794.345	5120
794.448	6462
794.551	10253
794.654	34224
794.757	58915
794.860	12212
794.963	6135
795.066	5010
795.169	6270
795.272	5191
795.375	5825
795.477	4555
795.580	4476
795.683	3411
795.786	5088
795.889	4015
795.991	4589
796.094	5679
796.197	4100
796.300	5679
796.402	5170
796.505	4385
796.608	3543
796.710	4198
796.813	5157
796.915	5334
797.018	4783
797.120	5037
797.223	3327
797.326	6163
797.428	3212
797.530	3294
797.633	3411
797.735	5371
797.838	4293
797.940	6330
798.042	3477
798.145	4013
798.247	4448
798.349	3705
798.452	4677
798.554	5002
798.656	4315
798.758	5873
798.860	3996
798.962	4104
799.065	3758
799.167	3217
799.269	4637
799.371	5400
799.473	6043
799.575	4890
799.677	3985
799.779	4715
799.881	2924
799.983	5609
800.085	3425
800.187	4543
800.289	2556
800.390	4110
800.492	5104
800.594	5548
800.696	2706
800.798	3724
800.899	3338
801.001	3872
801.103	5044
801.205	3209
801.306	3891
801.408	3297
801.509	3749
801.611	5248
801.713	4576
801.814	3329
801.916	2305
802.017	3716
802.119	2784
802.220	3748
802.322	1758
802.423	4747
802.525	2299
802.626	3293
802.727	4359
802.829	4374
802.930	1022
803.031	3914
803.133	2540
803.234	3358
803.335	4720
803.436	2987
803.538	3561
803.639	2629
803.740	4116
803.841	3493
803.942	4201
804.043	3484
804.144	2077
804.245	4050
804.346	2617
804.447	2819
804.548	2940
804.649	3859
804.750	2699
804.851	3077
804.952	2934
805.053	2769
805.154	2419
805.255	3863
805.355	3282
805.456	3436
805.557	2468
805.658	3127
805.758	2915
805.859	3117
805.960	3759
806.061	2696
806.161	3250
806.262	3260
806.362	2286
806.463	2747
806.564	3799
806.664	3880
806.765	2460
806.865	3448
806.966	1960
807.066	2881
807.166	3837
807.267	4206
807.367	2290
807.468	3839
807.568	969
807.668	3033
807.769	2901
807.869	3315
807.969	3051
808.069	3137
808.170	2490
808.270	3227
808.370	3183
808.470	3601
808.570	1282
808.670	2247
808.770	2457
808.870	2438
808.970	3499
809.070	3131
809.170	2162
809.271	4383
809.370	2709
809.470	2934
809.570	1413
809.670	2690
809.770	2491
809.870	2753
809.970	3416
810.070	3710
810.169	3256
810.269	1452
810.369	3497
810.469	2904
810.568	3094
810.668	2755
810.768	1817
810.867	2510
810.967	1838
811.066	2196
811.166	1778
811.265	3590
811.365	2746
811.464	2766
811.564	2262
811.663	3094
811.763	2656
811.862	3521
811.962	3229
812.061	2552
812.160	2198
812.260	3177
812.359	2677
812.458	2624
812.557	4219
812.657	5150
812.756	2818
812.855	2332
812.954	2335
813.053	2766
813.153	2093
813.252	2153
813.351	2398
813.450	3958
813.549	2346
813.648	3252
813.747	2632
813.846	3318
813.945	2602
814.044	3343
814.143	3427
814.242	3466
814.341	2243
814.439	3734
814.538	3335
814.637	4282
814.736	3044
814.835	3991
814.933	3924
815.032	4817
815.131	5155
815.229	10134
815.328	15007
815.427	11032
815.525	9970
815.624	9875
815.722	9283
815.821	10046
815.919	10012
816.018	10390
816.116	9800
816.215	9669
816.313	9893
816.412	11738
816.510	12022
816.609	13793
816.707	14393
816.805	12631
816.904	11316
817.002	12672
817.100	12216
817.198	13225
817.296	11996
817.395	11466
817.493	12124
817.591	11689
817.689	11606
817.787	11572
817.885	11985
817.983	10404
818.081	12751
818.179	14687
818.277	24882
818.375	21061
818.473	13331
818.571	10604
818.669	10821
818.767	12164
818.865	10003
818.963	9361
819.061	11529
819.158	11665
819.256	15349
819.354	19313
819.452	35844
819.549	24002
819.647	13807
819.745	10003
819.842	9520
819.940	11022
820.038	9032
820.135	8478
820.233	9665
820.330	8928
820.428	8634
820.525	11608
820.623	8600
820.720	8614
820.818	10050
820.915	9579
821.012	7915
821.110	7980
821.207	9617
821.304	8640
821.402	9094
821.499	10334
821.596	7351
821.693	8725
821.791	8918
821.888	8247
821.985	9928
822.082	8285
822.179	9081
822.276	8244
822.373	6955
822.470	7192
822.567	8454
822.664	7495
822.761	7840
822.858	8288
822.955	7868
823.052	8055
823.149	8313
823.246	9228
823.343	6222
823.440	7549
823.536	7944
823.633	7985
823.730	6539
823.827	8273
823.923	7920
824.020	6642
824.117	7987
824.213	7937
824.310	6806
824.407	6018
824.503	7872
824.600	8569
824.696	6390
824.793	8718
824.889	7416
824.986	6486
825.082	4767
825.179	5691
825.275	7657
825.371	9156
825.468	6039
825.564	4204
825.660	7294
825.757	9163
825.853	6414
825.949	5003
826.045	5721
826.142	6429
826.238	7974
826.334	6633
826.430	6278
826.526	5103
826.622	4311
826.718	7413
826.814	7296
826.910	7606
827.006	3811
827.102	4572
827.198	7053
827.294	7271
827.390	7227
827.486	5667
827.582	3486
827.678	4799
827.774	7156
827.869	4652
827.965	6080
828.061	4489
828.157	6708
828.252	6473
828.348	4443
828.444	5714
828.539	3975
828.635	6363
828.731	6314
828.826	4107
828.922	5565
829.017	6163
829.113	6202
829.208	4130
829.304	4729
829.399	7774
829.495	5359
829.590	4350
829.685	4963
829.781	5780
829.876	5699
829.971	2494
830.066	3129
830.162	5001
830.257	6752
830.352	5777
830.447	4290
830.543	4414
830.638	4624
830.733	7494
830.828	5534
830.923	5508
831.018	5510
831.113	6457
831.208	3995
831.303	3297
831.398	3574
831.493	5888
831.588	7687
831.683	4205
831.778	3265
831.873	3813
831.967	6235
832.062	4879
832.157	3431
832.252	4522
832.346	3738
832.441	5616
832.536	4173
832.631	5830
832.725	3999
832.820	3960
832.914	4078
833.009	3580
833.104	3204
833.198	3067
833.293	3267
833.387	5135
833.482	4881
833.576	3295
833.670	4318
833.765	3259
833.859	4483
833.954	5850
834.048	4146
834.142	4002
834.237	2428
834.331	3311
834.425	4541
834.519	3817
834.613	2573
834.708	4166
834.802	3597
834.896	4239
834.990	3662
835.084	3363
835.178	2770
835.272	3313
835.366	4771
835.460	5665
835.554	3628
835.648	3278
835.742	2267
835.836	3530
835.930	2596
836.024	4204
836.117	3689
836.211	3481
836.305	3216
836.399	3381
836.493	2605
836.586	5033
836.680	3452
836.774	2843
836.867	2716
836.961	2726
837.055	2470
837.148	3040
837.242	3301
837.335	3623
837.429	3350
837.522	2569
837.616	2701
837.709	3477
837.803	2170
837.896	4584
837.989	4032
838.083	4189
838.176	2039
838.269	1523
838.363	2794
838.456	2842
838.549	3442
838.642	2921
838.735	3339
838.829	3722
838.922	3017
839.015	3090
839.108	2851
839.201	2892
839.294	2829
839.387	2979
839.480	1592
839.573	2656
839.666	1734
839.759	2585
839.852	1631
839.945	3451
840.038	2519
840.131	1477
840.223	2133
840.316	3371
840.409	3165
840.502	3797
840.594	3889
840.687	1407
840.780	1341
840.873	668
840.965	2072
841.058	3011
841.150	4205
841.243	2275
841.336	2729
841.428	1538
841.521	1398
841.613	1785
841.706	2609
841.798	2119
841.890	2227
841.983	1701
842.075	2712
842.167	2492
842.260	2458
842.352	3796
842.444	1754
842.537	2052
842.629	2574
842.721	2084
842.813	1908
842.905	1223
842.997	2973
843.090	3156
843.182	1975
843.274	725
843.366	3760
843.458	4161
843.550	3491
843.642	2206
843.734	2385
843.826	1899
843.918	1806
844.009	2396
844.101	1405
844.193	2349
844.285	2111
844.377	2732
844.469	2250
844.560	1574
844.652	1276
844.744	1856
844.835	1694
844.927	2339
845.019	2679
845.110	2220
845.202	2594
845.293	2832
845.385	578
845.476	2060
845.568	3078
845.659	1840
845.751	942
845.842	1476
845.934	1720
846.025	2429
846.116	2294
846.208	1765
846.299	1345
846.390	2361
846.482	1735
846.573	2741
846.664	1466
846.755	2170
846.846	3026
846.937	1135
847.029	1409
847.120	1678
847.211	1039
847.302	2157
847.393	1402
847.484	3062
847.575	1000
847.666	492
847.757	1458
847.847	1582
847.938	2396
848.029	2913
848.120	1362
848.211	1911
848.302	822
848.392	691
848.483	2028
848.574	1354
848.664	2433
848.755	2947
848.846	925
848.936	1779
849.027	2267
849.118	2532
849.208	1558
849.299	3500
849.389	3516
849.480	6783
849.570	12177
849.661	23140
849.751	41504
849.841	18144
849.932	3052
850.022	1681
850.112	2034
850.203	2171
850.293	1603
850.383	1431
850.474	725
850.564	1070
850.654	286
850.744	593
850.834	1927
850.924	1586
851.014	3164
851.104	2251
851.194	639
851.284	1617
851.374	1378
851.464	1107
851.554	1653
851.644	1354
851.734	2127
851.824	2243
851.914	1500
852.004	3693
852.094	3134
852.183	2271
852.273	1134
852.363	1637
852.452	1468
852.542	1165
852.632	1419
852.721	1894
852.811	1087
852.901	2574
852.990	1811
853.080	2158
853.169	1979
853.259	2725
853.348	1149
853.438	2414
853.527	3982
853.617	3910
853.706	7014
853.795	12230
853.885	24824
853.974	45314
854.063	78299
854.152	118001
854.242	56415
854.331	14669
854.420	6811
854.509	4933
854.598	3836
854.687	3820
854.777	2758
854.866	2519
854.955	2747
855.044	1763
855.133	2089
855.222	1562
855.311	1085
855.400	1663
855.488	1711
855.577	1415
855.666	1350
855.755	1476
855.844	1944
855.933	1372
856.021	1945
856.110	1749
856.199	705
856.288	1486
856.376	1230
856.465	996
856.554	2221
856.642	1787
856.731	2393
856.819	1909
856.908	1185
856.996	2163
857.085	568
857.173	1851
857.262	582
857.350	1110
857.438	633
857.527	1338
857.615	1003
857.703	2477
857.792	1329
857.880	330
857.968	345
858.056	789
858.145	999
858.233	1655
858.321	661
858.409	2273
858.497	1149
858.585	1979
858.673	779
858.761	990
858.849	548
858.937	1598
859.025	1433
859.113	1516
859.201	657
859.289	2528
859.377	778
859.465	2570
859.552	1001
859.640	1110
859.728	1117
859.816	1367
859.903	1134
859.991	706
860.079	723
860.166	1690
860.254	186
860.342	2548
860.429	742
860.517	1052
860.604	1226
860.692	1649
860.779	393
860.867	781
860.954	865
861.042	1214
861.129	2025
861.216	1635
861.304	1688
861.391	1525
861.478	1921
861.565	1440
861.653	1599
861.740	508
861.827	194
861.914	1025
862.001	-32
862.089	1914
862.176	1598
862.263	1299
862.350	1966
862.437	2114
862.524	1240
862.611	1371
862.698	1985
862.785	2109
862.871	2414
862.958	2311
863.045	2760
863.132	1982
863.219	1334
863.306	1192
863.392	896
863.479	1598
863.566	1170
863.652	2187
863.739	996
863.826	1680
863.912	2672
863.999	2162
864.086	1811
864.172	2439
864.259	2530
864.345	1764
864.432	2867
864.518	1919
864.604	1943
864.691	2441
864.777	3613
864.863	3674
864.950	5125
865.036	7734
865.122	12421
865.209	14134
865.295	11276
865.381	11218
865.467	9668
865.553	11197
865.639	11630
865.726	14332
865.812	20155
865.898	32494
865.984	43831
866.070	70879
866.156	80664
866.242	32711
866.328	14724
866.414	11717
866.499	9903
866.585	10756
866.671	9164
866.757	9879
866.843	8768
866.928	9199
867.014	8017
867.100	9549
867.186	8242
867.271	8789
867.357	8220
867.442	8459
867.528	8598
867.614	8858
867.699	8806
867.785	9052
867.870	8341
867.956	8512
868.041	8474
868.127	8324
868.212	7647
868.297	7671
868.383	8004
868.468	6970
868.553	8545
868.639	8344
868.724	9158
868.809	8263
868.894	8144
868.979	7775
869.065	7789
869.150	6144
869.235	6685
869.320	7651
869.405	6801
869.490	7244
869.575	7251
869.660	6558
869.745	7301
869.830	8628
869.915	7168
870.000	6559
870.085	6399
870.169	8275
870.254	8168
870.339	5671
870.424	5644
870.509	7002
870.593	7818
870.678	7224
870.763	6556
870.847	6853
870.932	6790
871.016	6948
871.101	4822
871.186	6448
871.270	8119
871.355	6407
871.439	5364
871.523	8117
871.608	5143
871.692	5783
871.777	7586
871.861	6574
871.945	5525
872.030	5443
872.114	5421
872.198	5198
872.282	5307
872.367	6110
872.451	5987
872.535	6128
872.619	5044
872.703	5377
872.787	6006
872.871	6128
872.955	4847
873.039	4574
873.123	5535
873.207	7035
873.291	3720
873.375	4228
873.459	5452
873.543	5415
873.627	5295
873.711	5789
873.794	6128
873.878	5471
873.962	4513
874.045	3377
874.129	5562
874.137	5550
874.213	5440
874.245	5320
874.296	5125
874.352	4559
874.380	4291
874.460	5074
874.464	5107
874.547	4679
874.568	4730
874.631	4907
874.676	4627
874.714	4384
874.784	5140
874.798	5294
874.881	6117
874.892	5824
874.965	3823
874.999	4295
875.048	4926
875.107	4928
875.131	4936
875.215	3809
875.215	3808
875.298	3246
875.323	3588
875.381	4395
875.430	5008
875.465	5428
875.538	5582
875.548	5605
875.631	3608
875.646	3516
875.714	3019
875.753	3465
875.798	4055
875.861	4704
875.881	4866
875.964	4297
875.968	4211
876.047	2853
876.076	3252
876.130	3912
876.183	4210
876.213	4409
876.291	4582
876.296	4590
876.379	4372
876.398	4100
876.462	3213
876.506	3063
876.545	2917
876.613	2979
876.628	2988
876.711	3795
876.721	3840
876.794	4267
876.828	4266
876.877	4176
876.935	3414
876.960	3120
877.043	3376
877.043	3375
877.125	2948
877.150	3458
877.208	4538
877.258	3586
877.291	2971
877.365	2103
877.374	1998
877.456	2862
877.472	2793
877.539	2529
877.579	2941
877.622	3378
877.687	3724
877.704	3786
877.787	2876
877.794	2887
877.869	3028
877.901	3226
877.952	3705
878.008	3108
878.034	2684
878.115	1975
878.117	1965
878.199	2223
878.222	2538
878.282	3300
878.329	3568
878.364	3817
878.437	3463
878.447	3387
878.529	1390
878.544	1439
878.611	1639
878.651	1721
878.694	1904
878.758	2314
878.776	2400
878.858	2902
878.865	2818
878.941	1787
878.972	1736
879.023	1745
879.078	2021
879.105	2167
879.185	3218
879.187	3235
879.269	2660
879.292	2867
879.351	3349
879.399	2645
879.433	2109
879.506	2281
879.516	2300
879.598	2320
879.613	2150
879.680	1328
879.720	1725
879.762	2298
879.827	1934
879.844	1801
879.926	1774
879.933	1882
880.007	2820
880.040	2373
880.089	1745
880.147	1974
880.171	2074
880.253	2575
880.254	2577
880.335	2207
880.360	2206
880.417	2596
880.467	2767
880.499	2592
880.574	2343
880.580	2349
880.662	2818
880.680	2550
880.744	1624
880.787	1825
880.825	1838
880.893	1687
880.907	1711
880.989	1956
881.000	1931
881.070	1666
881.106	1900
881.152	1991
881.213	1136
881.233	946
881.315	1557
881.319	1563
881.396	1556
881.426	1546
881.478	1629
881.532	2154
881.559	2395
881.639	2332
881.641	2311
881.722	1103
881.745	995
881.803	1435
881.852	1665
881.885	1515
881.958	1211
881.966	1216
882.047	1466
882.064	1554
882.129	1661
882.171	1355
882.210	999
882.277	842
882.291	913
882.372	1768
882.383	1901
882.454	2777
882.489	2767
882.535	2386
882.596	2205
882.616	2210
882.697	1952
882.702	1926
882.778	1187
882.808	1233
882.859	1551
882.914	1507
882.940	1486
883.020	1807
883.021	1803
883.102	1599
883.127	1613
883.183	2185
883.233	2285
883.264	1952
883.339	614
883.345	526
883.426	409
883.445	460
883.507	936
883.551	1253
883.587	1549
883.657	1792
883.668	1804
883.749	2148
883.763	2059
883.830	1215
883.869	958
883.910	778
883.975	740
883.991	789
884.072	1483
884.081	1498
884.152	1571
884.187	1607
884.233	1671
884.292	1732
884.314	1644
884.394	903
884.398	884
884.475	691
884.504	789
884.555	1022
884.610	864
884.636	758
884.716	1522
884.716	1523
884.797	1548
884.821	1508
884.877	1427
884.927	1502
884.958	1410
885.033	1074
885.038	1050
885.118	617
885.139	632
885.199	620
885.244	384
885.279	649
885.350	1608
885.359	1620
885.439	1774
885.456	1615
885.520	1158
885.561	1146
885.600	942
885.667	925
885.680	959
885.760	614
885.773	610
885.840	939
885.878	1140
885.920	1194
885.984	1193
886.000	1185
886.080	1303
886.089	1297
886.160	925
886.195	789
886.240	761
886.300	666
886.320	664
886.400	933
886.406	931
886.480	169
886.511	-76
886.560	174
886.616	469
886.640	496
886.720	489
886.722	499
886.800	444
886.827	294
886.879	627
886.932	1097
886.959	1047
887.038	940
887.039	942
887.119	1264
887.143	1416
887.198	1168
887.248	1007
887.278	871
887.354	333
887.358	347
887.437	912
887.459	1028
887.517	1209
887.564	1422
887.596	1109
887.669	120
887.676	87
887.755	74
887.774	34
887.835	-17
887.880	97
887.914	291
887.985	485
887.994	511
888.073	889
888.090	941
888.153	789
888.195	699
888.232	714
888.300	791
888.311	814
888.391	1023
888.405	1057
888.470	449
888.510	116
888.549	293
888.615	627
888.628	663
888.708	788
888.720	824
888.787	1146
888.825	1273
888.866	710
888.930	-79
888.945	-23
889.024	388
889.035	435
889.103	503
889.140	531
889.182	691
889.245	1021
889.261	953
889.340	599
889.349	566
889.419	708
889.454	787
889.498	747
889.559	717
889.577	760
889.656	968
889.664	993
889.735	667
889.768	521
889.814	523
889.873	528
889.978	574
890.083	1245
890.187	833
890.292	347
890.397	452
890.501	1040
890.606	-47
890.710	1068
890.815	1284
890.919	431
891.024	917
891.128	1231
891.233	448
891.337	731
891.442	418
891.546	522
891.650	335
891.755	206
891.859	1312
891.963	984
892.068	46
892.172	654
892.276	348
892.380	1080
892.484	347
892.589	813
892.693	645
892.797	-289
892.901	14
893.005	80
893.109	1144
893.213	1544
893.317	795
893.421	-3
893.525	-255
893.629	444
893.733	437
893.837	828
893.941	536
894.045	734
894.148	42
894.252	473
894.356	680
894.460	1444
894.564	172
894.667	518
894.771	107
894.875	-3
894.978	-289
895.082	746
895.186	445
895.289	643
895.393	529
895.496	1118
895.600	47
895.703	739
895.807	625
895.910	255
896.014	62
896.117	105
896.221	344
896.324	57
896.427	354
896.531	-45
896.634	-286
896.737	288
896.840	1151
896.944	248
897.047	157
897.150	769
897.253	-295
897.356	311
897.460	888
897.563	178
897.666	661
897.769	123
897.872	662
897.975	-152
898.078	939
898.181	848
898.284	643
898.387	938
898.490	821
898.593	-225
898.695	523
898.798	-287
898.901	755
899.004	620
899.107	-248
899.209	-54
899.312	281
899.415	922
899.518	245
899.620	-110
899.723	-83
899.826	285
899.928	408
900.031	373
900.133	818
900.236	407
900.338	40
900.441	-578
900.543	631
900.646	397
900.748	121
900.851	42
900.953	-449
901.055	156
901.158	256
901.260	115
901.362	333
901.465	-127
901.567	475
901.669	136
901.771	-27
901.873	393
901.976	-137
902.078	116
902.180	388
902.282	-752
902.384	385
902.486	611
902.588	373
902.690	-122
902.792	728
902.894	201
902.996	31
903.098	-383
903.200	-268
903.302	-137
903.404	-34
903.505	128
903.607	353
903.709	599
903.811	218
903.913	-337
904.014	-344
904.116	-422
904.218	207
904.319	183
904.421	315
904.523	-11
904.624	305
904.726	429
904.827	253
904.929	-9
905.030	-35
905.132	476
905.233	-323
905.335	159
905.436	-843
905.537	-104
905.639	387
905.740	8
905.841	-306
905.943	437
906.044	-58
906.145	-826
906.247	-491
906.348	-164
906.449	408
906.550	-525
906.651	355
906.752	536
906.854	472
906.955	-842
907.056	-214
907.157	480
907.258	850
907.359	-77
907.460	-530
907.561	-90
907.662	243
907.762	-341
907.863	690
907.964	-221
908.065	586
908.166	-344
908.267	-566
908.367	308
908.468	-52
908.569	-296
908.670	-114
908.770	238
908.871	203
908.971	-388
909.072	245
909.173	-3
909.273	-190
909.374	966
909.474	64
909.575	175
909.675	-292
909.776	78
909.876	-676
909.977	-521
910.077	476
910.177	-50
910.278	-23
910.378	-144
910.478	-597
910.579	360
910.679	-464
910.779	462
910.879	84
910.980	258
911.080	317
911.180	-870
911.280	-511
911.380	-130
911.480	142
911.580	-927
911.680	95
911.780	483
911.880	358
911.980	-396
912.080	-147
912.180	79
912.280	234
912.380	-134
912.480	186
912.580	96
912.679	-269
912.779	551
912.879	356
912.979	-151
913.078	44
913.178	-98
913.278	-247
913.377	126
913.477	-321
913.577	-361
913.676	262
913.776	262
913.875	441
913.975	-397
914.074	61
914.174	-809
914.273	-330
914.373	185
914.472	-334
914.572	-81
914.671	-207
914.770	-24
914.870	143
914.969	107
915.068	446
915.167	28
915.267	489
915.366	-106
915.465	82
915.564	22
915.663	-27
915.763	-274
915.862	562
915.961	-769
916.060	320
916.159	-373
916.258	-499
916.357	272
916.456	-23
916.555	-228
916.654	-171
916.752	269
916.851	-336
916.950	-218
917.049	-814
917.148	-90
917.247	776
917.345	-137
917.444	-464
917.543	-190
917.642	274
917.740	-669
917.839	-593
917.937	-128
918.036	932
918.135	316
918.233	368
918.332	45
918.430	-12
918.529	172
918.627	-96
918.726	33
918.824	-83
918.923	-556
919.021	-498
919.119	87
919.218	-517
919.316	744
919.414	504
919.512	-383
919.611	950
919.709	94
919.807	19
919.905	483
920.003	-315
920.102	-556
920.200	-561
920.298	-67
920.396	948
920.494	503
920.592	-408
920.690	80
920.788	23
920.886	-165
920.984	743
921.082	-314
921.180	1137
921.277	172
921.375	327
921.473	936
921.571	-225
921.669	678
921.766	1064
921.864	82
921.962	224
922.060	253
922.157	1285
922.255	715
922.352	-378
922.450	576
922.548	352
922.645	1444
922.743	1543
922.840	2290
922.938	3508
923.035	2765
923.133	1983
923.230	3167
923.327	3146
923.425	3571
923.522	3675
923.619	2909
923.717	2139
923.814	2683
923.911	1982
924.008	3035
924.106	2224
924.203	2345
924.300	1861
924.397	2673
924.494	2525
924.591	2087
924.688	1969
924.786	2060
924.883	2351
924.979	2700
925.077	2402
925.173	1776
925.270	1547
925.367	2621
925.464	2339
925.561	2830
925.658	2698
925.755	1447
925.852	2284
925.948	2360
926.045	1861
926.142	2452
926.239	2305
926.335	581
926.432	2102
926.529	2153
926.625	1906
926.722	1716
926.818	1636
926.915	2331
927.011	2316
927.108	1443
927.204	2166
927.301	1841
927.397	2509
927.494	2563
927.590	1753
927.687	1391
927.783	2187
927.879	1226
927.976	2034
928.072	1294
928.168	1830
928.264	1998
928.361	1007
928.457	2084
928.553	2848
928.649	1986
928.745	2069
928.841	1404
928.937	577
929.033	2363
929.129	2194
929.225	1855
929.321	2011
929.417	1391
929.513	1884
929.609	1305
929.705	1212
929.801	2336
929.897	1160
929.993	1391
930.089	1157
930.184	1843
930.280	1748
930.376	1434
930.471	1487
930.567	1204
930.663	1336
930.758	289
930.854	987
930.950	1242
931.045	1101
931.141	604
931.236	2064
931.332	1826
931.427	650
931.523	921
931.618	673
931.714	1154
931.809	1109
931.905	1574
932.000	1077
932.095	1109
932.191	1849
932.286	1419
932.381	1813
932.476	419
932.572	744
932.667	662
932.762	1454
932.857	1486
932.952	1255
933.047	1440
933.142	654
933.237	1419
933.332	970
933.427	1335
933.522	924
933.617	531
933.712	959
933.807	698
933.902	1280
933.997	1617
934.092	1245
934.187	1072
934.282	1395
934.376	834
934.471	1582
934.566	1636
934.661	125
934.755	1429
934.850	1427
934.945	1112
935.039	735
935.134	570
935.228	544
935.323	1998
935.417	306
935.512	299
935.606	-95
935.701	1257
935.795	688
935.890	1040
935.984	443
936.079	84
936.173	799
936.267	836
936.362	122
936.456	1131
936.550	996
936.644	1143
936.738	531
936.833	1103
936.927	423
937.021	-19
937.115	1028
937.209	805
937.303	1232
937.397	439
937.491	228
937.585	1107
937.679	1031
937.773	459
937.867	747
937.961	57
938.055	582
938.149	1696
938.243	-357
938.337	-377
938.430	634
938.524	1454
938.618	764
938.712	137
938.805	530
938.899	921
938.993	654
939.086	764
939.180	-887
939.274	-298
939.367	737
939.461	703
939.554	-13
939.648	893
939.741	848
939.835	1095
939.928	1298
940.022	1142
940.115	663
940.208	539
940.302	1054
940.395	687
940.488	248
940.582	119
940.675	59
940.768	809
940.861	392
940.954	977
941.048	-1
941.141	224
941.234	116
941.327	942
941.420	1147
941.513	-120
941.606	313
941.699	584
941.792	847
941.885	1096
941.978	1323
942.071	204
942.164	-130
942.257	-349
942.349	984
942.442	398
942.535	-107
942.628	99
942.721	652
942.813	-685
942.906	779
942.999	-128
943.091	132
943.184	556
943.277	-765
943.369	219
943.462	-699
943.554	852
943.647	-117
943.739	843
943.832	857
943.924	-577
944.017	649
944.109	-129
944.201	-46
944.294	666
944.386	-278
944.478	-708
944.571	-366
944.663	497
944.755	-208
944.847	566
944.940	-24
945.032	-308
945.124	-83
945.216	1255
945.308	45
945.400	1119
945.492	-313
945.584	-181
945.676	-402
945.768	184
945.860	27
945.952	656
946.044	600
946.136	6
946.228	21
946.320	-183
946.412	-225
946.503	418
946.595	1340
946.687	-321
946.779	-412
946.870	-410
946.962	-131
947.054	640
947.145	-247
947.237	281
947.329	-163
947.420	-230
947.512	-96
947.603	-608
947.695	-137
947.786	119
947.878	-322
947.969	150
948.061	660
948.152	343
948.243	-613
948.335	-69
948.426	207
948.517	449
948.609	-611
948.700	80
948.791	-320
948.882	-570
948.973	-68
949.065	-686
949.156	459
949.247	-1328
949.338	-251
949.429	-5
949.520	-675
949.611	-1311
949.702	225
949.793	29
949.884	408
949.975	-217
950.066	-841
950.157	-739
950.247	-247
950.338	-125
950.429	-506
950.520	-624
950.611	-244
950.701	-397
950.792	-145
950.883	-159
950.973	-180
951.064	420
951.155	-125
951.245	338
951.336	-589
951.427	-222
951.517	-459
951.608	82
951.698	-1012
951.788	128
951.879	-473
951.969	54
952.060	-136
952.150	-807
952.240	288
952.331	-1172
952.421	1331
952.511	117
952.602	-121
952.692	-1057
952.782	-731
952.872	-523
952.962	-209
953.052	-633
953.143	-956
953.233	60
953.323	-629
953.413	-581
953.503	197
953.593	339
953.683	-192
953.773	-865
953.863	-793
953.953	-608
954.042	512
954.132	-840
954.222	274
954.312	-496
954.402	-28
954.492	-425
954.581	-1073
954.671	-1062
954.761	-710
954.850	416
954.940	-1328
955.030	-670
955.119	-743
955.209	-329
955.298	-1124
955.388	-417
955.477	589
955.567	-1108
955.656	-461
955.746	-662
955.835	-252
955.925	-696
956.014	527
956.103	-859
956.193	820
956.282	-418
956.371	-270
956.461	-169
956.550	11
956.639	-476
956.728	-379
956.817	-497
956.906	-290
956.995	-562
957.085	-363
957.174	233
957.263	-8
957.352	-88
957.441	-152
957.530	274
957.619	36
957.708	-517
957.796	-94
957.885	-201
957.974	-729
958.063	-281
958.152	-594
958.241	-303
958.329	167
958.418	-303
958.507	-883
958.596	16
958.684	-336
958.773	262
958.861	-1080
958.950	193
959.039	-574
959.127	-277
959.216	458
959.304	95
959.393	-1339
959.481	-108
959.570	88
959.658	-213
959.746	-1112
959.835	-173
959.923	-612
960.011	-359
960.100	-41
960.188	210
960.276	-182
960.365	-151
960.453	-850
960.541	-1173
960.629	-589
960.717	-355
960.805	-1354
960.893	-203
960.981	-568
961.069	745
961.158	-433
961.245	723
961.333	-204
961.421	-1152
961.509	-331
961.597	226
961.685	-444
961.773	-761
961.861	-675
961.949	139
962.036	-858
962.124	-892
962.212	-641
962.299	-1200
962.387	-1416
962.475	235
962.562	-1512
962.650	-41
962.738	-841
962.825	-634
962.913	-277
963.000	-885
963.088	-366
963.175	-1081
963.263	-367
963.350	-141
963.438	-960
963.525	-1114
963.612	-708
963.700	-484
963.787	-49
963.874	-785
963.962	-705
964.049	139
964.136	-1076
964.223	-1050
964.310	-340
964.398	-1246
964.485	-920
964.572	305
964.659	-842
964.746	-404
964.833	-476
964.920	-124
965.007	-646
965.094	-644
965.181	-1028
965.268	-435
965.355	-871
965.441	-577
965.528	-1175
965.615	220
965.702	-197
965.789	-1035
965.875	-791
965.962	-586
966.049	-749
966.136	-485
966.222	-1183
966.309	-4
966.395	-1536
966.482	-223
966.569	-708
966.655	-444
966.742	-691
966.828	-628
966.915	-1868
967.001	-758
967.087	-1464
967.174	-217
967.260	-719
967.347	-611
967.433	-1222
967.519	-303
967.605	-1228
967.692	-1264
967.778	-247
967.864	-571
967.950	-540
968.036	-846
968.123	-1045
968.209	-839
968.295	-903
968.381	698
968.467	-362
968.553	-1686
968.639	70
968.725	-950
968.811	-174
968.897	291
968.983	-966
969.069	-1005
969.154	-953
969.240	15
969.326	-653
969.412	-1394
969.497	-611
969.583	-708
969.669	282
969.755	-407
969.840	-462
969.926	187
970.012	-358
970.097	735
970.183	-473
970.268	-73
970.354	-319
970.439	-1881
970.525	-326
970.610	-644
970.696	224
970.781	-149
970.866	-1306
970.952	-217
971.037	-712
971.122	-717
971.208	-708
971.293	-811
971.378	-1378
971.463	-377
971.549	-282
971.634	-338
971.719	-658
971.804	-741
971.889	193
971.974	-1605
972.059	-244
972.144	221
972.229	-482
972.314	-130
972.399	-465
972.484	-1389
972.569	-595
972.654	-845
972.739	-802
972.824	-259
972.908	-823
972.993	-405
973.078	-849
973.163	131
973.247	-365
973.332	-1173
973.417	953
973.501	-1168
973.586	-649
973.671	-721
973.755	-741
973.840	-111
973.924	-525
974.009	140
974.093	-645
974.178	456
974.262	-544
974.346	-1295
974.431	-787
974.515	-430
974.600	-497
974.684	-686
974.768	-1254
974.852	-403
974.937	-750
975.021	-714
975.105	-226
975.189	-1298
975.273	-540
975.358	-1667
975.442	-1784
975.526	16
975.610	-1045
975.694	-1068
975.778	52
975.862	-455
975.946	-2982
976.030	751
976.114	-726
976.198	-324
976.281	-1011
976.365	-732
976.449	-1902
976.533	-597
976.617	-688
976.700	-480
976.784	-632
976.868	-1112
976.951	-1379
977.035	-1090
977.119	-370
977.202	-151
977.286	-616
977.369	-646
977.453	-20
977.536	-502
977.620	-118
977.703	606
977.787	-2016
977.870	-181
977.953	391
978.037	-994
978.120	-172
978.203	-832
978.287	-830
978.370	-302
978.453	-282
978.536	-618
978.620	341
978.703	54
978.786	-1443
978.869	-1614
978.952	-1390
979.035	276
979.118	-48
979.201	-918
979.284	-771
979.367	-256
979.450	-636
979.533	-1422
979.616	-896
979.699	-795
979.782	-399
979.865	-226
979.948	-735
980.030	-1051
980.113	-486
980.196	-1130
980.279	-512
980.361	-452
980.444	-1049
980.526	-440
980.609	-1083
980.692	359
980.774	-254
980.857	-1251
980.939	-326
981.022	202
981.104	-991
981.187	-1600
981.269	-418
981.352	-447
981.434	-1122
981.516	-895
981.599	817
981.681	-104
981.763	-668
981.846	-744
981.928	-688
982.010	-525
982.092	-1191
982.174	-84
982.256	-103
982.339	-438
982.421	-831
982.503	148
982.585	-928
982.667	-394
982.749	-319
982.831	-554
982.913	-1144
982.995	346
983.077	-662
983.158	-500
983.240	-996
983.322	-39
983.404	408
983.486	-1030
983.568	121
983.649	-365
983.731	-104
983.813	197
983.894	-175
983.976	-1052
984.058	-1194
984.139	-563
984.221	-1569
984.302	429
984.384	-108
984.465	-1237
984.547	67
984.628	-922
984.710	306
984.791	81
984.872	-16
984.954	92
985.035	-196
985.116	-411
985.198	-786
985.279	1116
985.360	-58
985.441	-505
985.522	-512
985.604	-876
985.685	-2014
985.766	722
985.847	123
985.928	-1470
986.009	-469
986.090	-1
986.171	-593
986.252	-928
986.333	334
986.414	-394
986.495	-875
986.576	-112
986.656	-228
986.737	-38
986.818	-121
986.899	-859
986.980	-686
987.060	-40
987.141	-549
987.222	-469
987.302	610
987.383	-274
987.464	-1289
987.544	12
987.625	187
987.705	650
987.786	535
987.866	0
987.947	73
988.027	121
988.108	193
988.188	-3
988.268	93
988.349	-88
988.429	740
988.509	-931
988.589	-75
988.670	-1567
988.750	734
988.830	-543
988.910	-498
988.990	-267
989.070	-758
989.151	-765
989.231	-870
989.311	-422
989.391	-577
989.471	513
989.551	-547
989.631	-1791
989.711	-127
989.791	136
989.870	-207
989.950	608
990.030	-376
990.110	45
990.190	-295
990.269	-286
990.349	-683
990.429	-523
990.509	361
990.588	-1404
990.668	-437
990.747	325
990.827	127
990.907	-347
990.986	-1371
991.066	-216
991.145	-792
991.225	143
991.304	-283
991.383	256
991.463	-838
991.542	-381
991.622	-536
991.701	-1021
991.780	-698
991.859	-248
991.939	577
992.018	-1076
992.097	-356
992.176	-700
992.256	-443
992.335	-549
992.414	252
992.493	-502
992.572	-771
992.651	324
992.730	-16
992.809	-685
992.888	-1677
992.967	-502
993.046	-123
993.125	-1644
993.203	-499
993.282	-204
993.361	-496
993.440	185
993.519	-1277
993.597	-838
993.676	-1408
993.755	-160
993.834	402
993.912	-1355
993.991	105
994.069	-1377
994.148	-682
994.226	-733
994.305	190
994.384	-816
994.462	1240
994.540	-1104
994.619	-1373
994.697	74
994.776	-222
994.854	-209
994.932	-1531
995.011	-507
995.089	-1674
995.167	-482
995.245	-309
995.324	-1570
995.402	-283
995.480	-785
995.558	-334
995.636	-1199
995.714	-53
995.792	397
995.870	-1349
995.948	-658
996.026	-125
996.104	-2340
996.182	115
996.260	-1736
996.338	-941
996.416	-1502
996.494	-1350
996.572	-470
996.649	35
996.727	-2115
996.805	-771
996.883	-1385
996.960	-1030
997.038	-960
997.116	-441
997.193	-1210
997.271	162
997.348	-752
997.426	-924
997.504	-973
997.581	-434
997.658	-171
997.736	-1370
997.813	-1615
997.891	-631
997.968	-1191
998.046	-579
998.123	-1019
998.200	-524
998.277	-753
998.355	-937
998.432	-1351
998.509	-1501
998.586	-64
998.663	-1165
998.741	-539
998.818	-1300
998.895	-1564
998.972	-1008
999.049	-411
999.126	-1382
999.203	-665
999.280	-720
999.357	-1595
999.434	-1739
999.511	-819
999.587	328
999.664	-1347
999.741	-458
999.818	-394
999.895	-1377
999.971	-1864
1000.048	-1146
1000.125	227
1000.202	-1678
1000.278	-713
1000.355	-1024
1000.431	-1924
1000.508	-764
1000.584	-1737
1000.661	-509
1000.738	-1195
1000.814	-1980
1000.890	-937
1000.967	-1721
1001.043	-2085
1001.120	-1468
1001.196	-629
1001.272	-1565
1001.349	-1004
1001.425	-143
1001.501	-340
1001.577	-962
1001.654	-870
1001.730	-1506
1001.806	-1224
1001.882	-1770
1001.958	83
1002.034	-993
1002.110	-1348
1002.186	-1283
1002.262	-1333
1002.338	-1925
1002.414	-777
1002.490	-45
1002.566	-914
1002.642	-1330
1002.718	27
1002.794	-1501
1002.870	-894
1002.945	-1090
1003.021	-846
1003.097	-1578
1003.173	61
1003.248	-1470
1003.324	-743
1003.400	-596
1003.475	-2210
1003.551	-1102
1003.626	-715
1003.702	-1881
1003.777	-862
1003.853	-1698
1003.928	-1538
1004.004	-1607
1004.079	-734
1004.155	-1688
1004.230	-1303
1004.305	-297
1004.381	-730
1004.456	-1083
1004.531	-1960
1004.607	-1713
1004.682	-1677
1004.757	-1300
1004.832	-1519
1004.907	-1866
1004.982	-449
1005.057	-1349
1005.133	-1502
1005.208	-765
1005.283	-1563
1005.358	-1213
1005.433	-1750
1005.508	-529
1005.583	-1009
1005.657	-1007
1005.732	-1690
1005.807	-1240
1005.882	-1450
1005.957	-457
1006.032	-1010
1006.106	-1668
1006.181	-1805
1006.256	-1557
1006.331	-1544
1006.405	-1198
1006.480	-1450
1006.554	-1655
1006.629	-1173
1006.704	-1420
1006.778	-1676
1006.853	-616
1006.927	-1392
1007.002	-2483
1007.076	-1085
1007.150	-1444
1007.225	-968
1007.299	-613
1007.373	-1905
1007.448	-937
1007.522	-1133
1007.596	-1791
1007.671	-1448
1007.745	-656
1007.819	-1924
1007.893	-1733
1007.967	-962
1008.041	-2235
1008.115	-1267
1008.190	-2623
1008.264	-1505
1008.338	-1306
1008.412	-2491
1008.486	-1837
1008.560	-1382
1008.633	-1779
1008.707	-995
1008.781	-960
1008.855	-1397
1008.929	-1620
1009.003	-1625
1009.076	-1443
1009.150	-1016
1009.224	-1530
1009.298	-1275
1009.371	-1493
1009.445	-1001
1009.519	-2269
1009.592	-1928
1009.666	-1063
1009.739	-1168
1009.813	-2623
1009.886	-1010
1009.960	-1739
1010.033	-1916
1010.107	-652
1010.180	-2124
1010.253	-2226
1010.327	-2798
1010.400	-970
1010.473	-1566
1010.547	-1059
1010.620	-2071
1010.693	-1244
1010.766	-2384
1010.840	-1803
1010.913	-1564
1010.986	-2045
1011.059	-1255
1011.132	-1782
1011.205	-1093
1011.278	-1566
1011.351	-1523
1011.424	-1933
1011.497	-1747
1011.570	-1313
1011.643	-2313
1011.716	-1998
1011.789	-1547
1011.862	-1780
1011.934	-164
1012.007	-2240
1012.080	-1926
1012.153	-1667
1012.225	-967
1012.298	-1640
1012.371	-1915
1012.443	-1216
1012.516	-3160
1012.588	-1465
1012.661	-1954
1012.733	-2058
1012.806	-884
1012.879	-2625
1012.951	-1851
1013.023	-2286
1013.096	-1383
1013.168	-1896
1013.241	-666
1013.313	-1551
1013.385	-2106
1013.458	-1847
1013.530	-1360
1013.602	-2587
1013.674	-1158
1013.746	-2259
1013.819	-1749
1013.891	-996
1013.963	-1862
1014.035	-1609
1014.107	-1194
1014.179	-750
1014.251	-2510
1014.323	-1352
1014.395	-1715
1014.467	-1327
1014.539	-1023
1014.611	-2966
1014.683	-1962
1014.754	-1057
1014.826	-1944
1014.898	-1638
1014.970	-2248
1015.042	-1155
1015.113	-2429
1015.185	-1747
1015.257	-2323
1015.328	-1159
1015.400	-2768
1015.471	-2172
1015.543	-2699
1015.615	-1798
1015.686	-1904
1015.757	-1544
1015.829	-1561
1015.901	-1818
1015.972	-1593
1016.043	-1893
1016.115	-2117
1016.186	-1523
1016.257	-2471
1016.328	-1734
1016.400	-1954
1016.471	-2848
1016.542	-1837
1016.613	-1467
1016.685	-1039
1016.756	-1443
1016.827	-1978
1016.898	-2020
1016.969	-1151
1017.040	-1625
1017.111	-2532
1017.182	-1990
1017.253	-1136
1017.324	-1793
1017.395	-2393
1017.466	-1496
1017.537	-1809
1017.608	-1894
1017.678	-1959
1017.749	-1916
1017.820	-1596
1017.891	-2385
1017.961	-2089
1018.032	-2079
1018.103	-977
1018.173	-1495
1018.244	-1993
1018.315	-2836
1018.385	-1115
1018.456	-1485
1018.526	-1856
1018.597	-1643
1018.667	-1170
1018.738	-2637
1018.808	-2149
1018.878	-1887
1018.949	-1517
1019.019	-1706
1019.089	-2502
1019.160	-1479
1019.230	-2051
1019.300	-1219
1019.371	-3064
1019.441	-1138
1019.511	-1877
1019.581	-1869
1019.651	-1366
1019.721	-1240
1019.791	-1424
1019.861	-2053
1019.931	-1498
1020.001	-1844
1020.071	-1842
1020.141	-1300
1020.211	-1511
1020.281	-1451
1020.351	-2350
1020.421	-1509
1020.491	-1648
1020.560	-2597
1020.630	-1229
1020.700	-1548
1020.770	-2047
1020.839	-2203
1020.909	-1143
1020.979	-2207
1021.048	-1578
1021.118	-2409
1021.187	-2402
1021.257	-2283
1021.326	-1393
1021.396	-2163
1021.465	-1230
1021.535	-1862
1021.604	-2557
1021.674	-1468
1021.743	-1397
1021.812	-1929
1021.882	-1232
1021.951	-1926
1022.020	-1239
1022.089	-1489
1022.159	-2144
1022.228	-1210
1022.297	-1768
1022.366	-2050
1022.435	-1039
1022.504	-2416
1022.573	-2185
1022.642	-1404
1022.711	-2207
1022.781	-1465
1022.849	-1774
1022.918	-2159
1022.987	-1281
1023.056	-1475
1023.125	-1760
1023.194	-1606
1023.263	-1237
1023.331	-1100
1023.400	-1788
1023.469	-1905
1023.538	-1544
1023.606	-2205
1023.675	-1440
1023.744	-2193
1023.812	-2113
1023.881	-898
1023.949	-1003
1024.018	-1386
1024.086	-1243
1024.155	-1255
1024.223	-979
1024.292	-1248
1024.360	-1986
1024.429	-1994
1024.497	-1966
1024.565	-1647
1024.634	-1669
1024.702	-1625
1024.770	-1992
1024.838	-1886
1024.907	-1692
1024.975	-2270
1025.043	-534
1025.111	-1645
1025.179	-1355
1025.247	-1515
1025.315	-2024
1025.383	-872
1025.451	-2222
1025.519	-1733
1025.587	-2509
1025.655	-1128
1025.723	-1915
1025.791	-1171
1025.859	-2081
1025.927	-1773
1025.995	-2256
1026.062	-1249
1026.130	-1469
1026.198	-1111
1026.266	-1945
1026.333	-1181
1026.401	-1023
1026.469	-2312
1026.536	-1554
1026.604	-1429
1026.671	-1701
1026.739	-2415
1026.806	-1873
1026.874	-1721
1026.941	-1371
1027.009	-1245
1027.076	-1345
1027.144	-1542
1027.211	-1962
1027.278	-1726
1027.345	-1627
1027.413	-1404
1027.480	-1893
1027.547	-1188
1027.614	-2124
1027.682	-1197
1027.749	-1604
1027.816	-1036
1027.883	-886
1027.950	-1493
1028.017	-1399
1028.084	-1422
1028.151	-1931
1028.218	-1303
1028.285	-846
1028.352	-1600
1028.419	-2094
1028.486	-2248
1028.553	-1892
1028.619	-1671
1028.686	-1153
1028.753	-2195
1028.820	-2279
1028.886	-2082
1028.953	-1387
1029.020	-1331
1029.086	-1228
1029.153	-2034
1029.220	-1486
1029.286	-1490
1029.353	-1155
1029.419	-2393
1029.486	-1017
1029.552	-1026
1029.619	-1210
1029.685	-1816
1029.751	-1736
1029.818	-495
1029.884	-1755
1029.951	-1404
1030.017	-1336
1030.083	-2149
1030.149	-1535
1030.216	-1293
1030.282	-1608
1030.348	-1951
1030.414	-1566
1030.480	-1544
1030.546	-1858
1030.612	-1205
1030.678	-1267
1030.744	-1152
1030.810	-679
1030.876	-2403
1030.942	-1507
1031.008	-2057
1031.074	-2331
1031.140	-1517
1031.206	-1014
1031.272	-1987
1031.337	-1657
1031.403	-1024
1031.469	-1709
1031.534	-1738
1031.600	-1103
1031.666	-1855
1031.731	-2419
1031.797	-2210
1031.863	-1561
1031.928	-858
1031.994	-2301
1032.059	-1051
1032.125	-1595
1032.190	-1838
1032.256	-1766
1032.321	-2268
1032.386	-1879
1032.452	-1666
1032.517	-1924
1032.582	-1312
1032.647	-2339
1032.713	-1504
1032.778	-1538
1032.843	-2202
1032.908	-1436
1032.974	-1405
1033.039	-1821
1033.104	-1050
1033.169	-2069
1033.234	-2375
1033.299	-1252
1033.364	-1451
1033.429	-1375
1033.494	-1500
1033.559	-1379
1033.624	-1265
1033.688	-1213
1033.753	-2473
1033.818	-1253
1033.883	-1760
1033.948	-612
1034.013	-1515
1034.077	-907
1034.142	-1740
1034.207	-1184
1034.271	-879
1034.336	-90
1034.400	-795
1034.465	-1627
1034.530	-1322
1034.594	-1512
1034.658	-970
1034.723	-1912
1034.787	-1900
1034.852	-1786
1034.916	-1676
1034.981	-1476
1035.045	-758
1035.109	-2355
1035.173	-1182
1035.238	-2054
1035.302	-1131
1035.366	-1931
1035.430	-2428
1035.495	-1573
1035.559	-822
1035.623	-1691
1035.687	-1890
1035.751	-1668
1035.815	-937
1035.879	-1670
1035.943	-1322
1036.007	-1915
1036.071	-1611
1036.135	-1574
1036.198	-1658
1036.262	-2078
1036.326	-1450
1036.390	-1616
1036.454	-1778
1036.517	-1857
1036.581	-1968
1036.645	-2002
1036.709	-1962
1036.772	-1519
1036.836	-1648
1036.900	-1706
1036.963	-1669
1037.026	-1579
1037.090	-1655
1037.154	-1490
1037.217	-2722
1037.280	-2112
1037.344	-1282
1037.407	-1720
1037.471	-1679
1037.534	-1348
1037.597	-2327
1037.661	-1727
1037.724	-1482
1037.787	-1912
1037.850	-1608
1037.913	-2249
1037.977	-1006
1038.040	-1816
1038.103	-1507
1038.166	-1899
1038.229	-1598
1038.292	-2144
1038.355	-1930
1038.418	-1201
1038.481	-1871
1038.544	-1111
1038.607	-2161
1038.670	-1499
1038.732	-1394
1038.795	-1894
1038.858	-1411
1038.921	-2002
1038.984	-2241
1039.046	-1714
1039.109	-1812
1039.172	-1123
1039.234	-1871
1039.297	-1791
1039.360	-1720
1039.422	-2026
1039.485	-2716
1039.547	-2199
1039.610	-1378
1039.672	-1853
1039.734	-1533
1039.797	-1721
1039.859	-1991
1039.922	-2135
1039.984	-1298
1040.046	-1328
1040.109	-791
1040.171	-1983
1040.233	-1384
1040.295	-1300
1040.358	-1547
1040.420	-2415
1040.482	-2048
1040.544	-1406
1040.606	-1051
1040.668	-1357
1040.730	-1059
1040.792	-1941
1040.854	-1793
1040.916	-1415
1040.978	-2090
1041.040	-1601
1041.102	-1532
1041.164	-1915
1041.225	-1852
1041.287	-1988
1041.349	-1867
1041.411	-1581
1041.472	-1498
1041.534	-1895
1041.596	-1944
1041.657	-1613
1041.719	-1806
1041.781	-2231
1041.842	-2220
1041.904	-2613
1041.965	-1730
1042.027	-1451
1042.088	-1167
1042.150	-1746
1042.211	-1514
1042.272	-1092
1042.334	-1797
1042.395	-2130
1042.456	-2259
1042.518	-2225
1042.579	-1549
1042.640	-1496
1042.701	-1878
1042.763	-771
1042.824	-2078
1042.885	-2038
1042.946	-1431
1043.007	-2105
1043.068	-1169
1043.129	-1785
1043.190	-2281
1043.251	-889
1043.312	-2033
1043.373	-2253
1043.434	-1736
1043.495	-1150
1043.556	-1635
1043.616	-2113
1043.677	-2125
1043.738	-1332
1043.799	-1527
1043.859	-1532
1043.920	-2179
1043.981	-867
1044.041	-2071
1044.102	-2108
1044.162	-1404
1044.223	-2038
1044.284	-2502
1044.344	-625
1044.405	-1879
1044.465	-1780
1044.525	-2574
1044.586	-1518
1044.646	-2218
1044.707	-822
1044.767	-2109
1044.827	-1583
1044.887	-1876
1044.948	-1153
1045.008	-1813
1045.068	-1283
1045.128	-1418
1045.188	-1975
1045.249	-1863
1045.309	-2144
1045.369	-1877
1045.429	-1243
1045.489	-1475
1045.549	-2417
1045.609	-2172
1045.669	-1079
1045.729	-1503
1045.789	-2278
1045.848	-1927
1045.908	-811
1045.968	-836
1046.028	-1176
1046.088	-1301
1046.147	-1163
1046.207	-1152
1046.267	-726
1046.326	-1116
1046.386	-243
1046.446	-1043
1046.505	-892
1046.565	-920
1046.624	-1086
1046.684	-724
1046.743	-1244
1046.803	-673
1046.862	-80
1046.922	0
