'Start Wavelength	183.907
'End Wavelength	1046.922
'Gate Delay	5.000
'Gate Width (ms)	1.050
'Laser Output Level	0.000
'X Position	0.000
'Y Position	0.000
'Z Position	0.000
'Grid Point Number	1.000
'Shot Number	100.000
183.907	709.000
183.977	-194.000
184.047	552
184.116	680
184.186	-299
184.256	674
184.325	-9
184.395	-1283
184.465	496
184.534	297
184.604	-496
184.674	648
184.743	-1048
184.813	-58
184.883	-153
184.952	295
185.022	354
185.092	-16
185.161	110
185.231	-596
185.301	-403
185.370	-209
185.440	-564
185.509	404
185.579	-278
185.649	-114
185.718	-128
185.788	129
185.857	-176
185.927	-351
185.996	-239
186.066	-555
186.136	-144
186.205	-51
186.275	56
186.344	219
186.414	226
186.483	-748
186.553	589
186.622	2
186.692	-110
186.761	-181
186.831	30
186.900	-98
186.970	393
187.039	-36
187.109	538
187.178	197
187.248	-545
187.317	-186
187.387	-811
187.456	-204
187.526	27
187.595	-30
187.664	-278
187.734	441
187.803	-738
187.873	-38
187.942	258
188.012	109
188.081	-15
188.150	227
188.220	-59
188.289	-77
188.358	93
188.428	547
188.497	-589
188.567	233
188.636	-55
188.705	-293
188.775	172
188.844	-569
188.913	-243
188.983	-274
189.052	-126
189.121	42
189.191	-411
189.260	-33
189.329	-185
189.399	-349
189.468	370
189.537	-106
189.606	354
189.676	4
189.745	-127
189.814	89
189.883	317
189.953	-37
190.022	-489
190.091	-371
190.161	-79
190.230	373
190.299	-242
190.368	239
190.437	-489
190.507	83
190.576	-1034
190.645	460
190.714	-396
190.783	28
190.853	340
190.922	515
190.991	-584
191.060	252
191.129	-38
191.198	-305
191.268	-264
191.337	-544
191.406	-24
191.475	37
191.544	-353
191.613	645
191.682	-501
191.752	69
191.821	-122
191.890	107
191.959	33
192.028	-438
192.097	-128
192.166	-164
192.235	-550
192.304	285
192.373	-287
192.442	308
192.511	-865
192.580	-191
192.650	-598
192.719	44
192.788	271
192.857	-163
192.926	-642
192.995	-928
193.064	380
193.133	-460
193.202	-125
193.271	301
193.340	342
193.409	275
193.478	495
193.547	117
193.615	132
193.684	478
193.753	165
193.822	546
193.891	-176
193.960	57
194.029	-465
194.098	-945
194.167	-297
194.236	1184
194.305	-223
194.374	-1032
194.443	-779
194.512	-282
194.580	-158
194.649	133
194.718	218
194.787	224
194.856	-701
194.925	-29
194.994	-573
195.062	472
195.131	-344
195.200	-528
195.269	-89
195.338	305
195.407	273
195.475	-145
195.544	328
195.613	224
195.682	485
195.751	226
195.819	-643
195.888	348
195.957	490
196.026	2
196.094	521
196.163	-401
196.232	-355
196.301	147
196.369	293
196.438	-218
196.507	-394
196.576	-346
196.644	-938
196.713	-412
196.782	-230
196.850	248
196.919	-544
196.988	91
197.056	-1004
197.125	18
197.194	-473
197.262	-455
197.331	-376
197.400	-436
197.468	59
197.537	544
197.606	146
197.674	322
197.743	370
197.812	-191
197.880	-133
197.949	-112
198.017	394
198.086	-106
198.155	1
198.223	31
198.292	-367
198.360	699
198.429	-535
198.497	-488
198.566	-43
198.635	731
198.703	419
198.772	-164
198.840	705
198.909	100
198.977	-231
199.046	137
199.114	155
199.183	226
199.251	-239
199.320	878
199.388	-4
199.457	-385
199.525	-316
199.594	218
199.662	-196
199.731	-256
199.799	-308
199.867	599
199.936	-163
200.004	-42
200.073	41
200.141	-379
200.210	-560
200.278	-102
200.346	-529
200.415	52
200.483	-716
200.552	371
200.620	-348
200.688	-498
200.757	135
200.825	-62
200.893	-223
200.962	295
201.030	3
201.098	-243
201.167	648
201.235	-331
201.303	-277
201.372	310
201.440	-170
201.508	519
201.577	117
201.645	345
201.713	-455
201.781	-194
201.850	7
201.918	165
201.986	-1247
202.055	1109
202.123	-235
202.191	389
202.259	-127
202.327	-13
202.396	126
202.464	333
202.532	-958
202.600	569
202.669	-406
202.737	-79
202.805	-567
202.873	153
202.941	440
203.009	205
203.078	364
203.146	118
203.214	-287
203.282	-614
203.350	-57
203.418	281
203.487	80
203.555	-291
203.623	233
203.691	-675
203.759	-503
203.827	427
203.895	-338
203.963	-45
204.031	-588
204.099	-22
204.168	-370
204.236	420
204.304	223
204.372	-422
204.440	456
204.508	157
204.576	-858
204.644	617
204.712	-125
204.780	-521
204.848	-210
204.916	-283
204.984	-571
205.052	597
205.120	-307
205.188	508
205.256	5
205.324	-541
205.392	196
205.460	473
205.528	-732
205.596	665
205.664	-566
205.732	267
205.799	20
205.867	671
205.935	-103
206.003	403
206.071	-671
206.139	-266
206.207	-373
206.275	-594
206.343	-734
206.411	-87
206.478	-153
206.546	52
206.614	187
206.682	-50
206.750	-407
206.818	911
206.885	343
206.953	-1421
207.021	62
207.089	418
207.157	-300
207.225	-428
207.292	-862
207.360	404
207.428	-603
207.496	588
207.563	135
207.631	316
207.699	83
207.767	-208
207.834	-123
207.902	-193
207.970	310
208.038	-161
208.105	1033
208.173	148
208.241	-500
208.309	977
208.376	-256
208.444	-275
208.512	-270
208.579	-446
208.647	-640
208.715	993
208.782	-627
208.850	469
208.918	-266
208.985	183
209.053	-428
209.120	-46
209.188	-1150
209.256	472
209.323	-288
209.391	85
209.459	1093
209.526	27
209.594	5
209.661	-125
209.729	-250
209.796	685
209.864	191
209.932	-1350
209.999	346
210.067	985
210.134	-384
210.202	2
210.269	210
210.337	154
210.404	208
210.472	371
210.539	-184
210.607	-1083
210.674	-174
210.742	-743
210.809	-59
210.877	188
210.944	368
211.012	-510
211.079	353
211.146	-3
211.214	322
211.281	-161
211.349	-343
211.416	241
211.484	-190
211.551	219
211.618	-333
211.686	47
211.753	-332
211.821	175
211.888	-405
211.955	-12
212.023	841
212.090	-294
212.157	-732
212.225	-474
212.292	-483
212.359	801
212.427	2032
212.494	1008
212.561	620
212.629	576
212.696	273
212.763	497
212.831	-269
212.898	620
212.965	-428
213.032	-205
213.100	201
213.167	-520
213.234	-62
213.301	-85
213.369	599
213.436	-117
213.503	-641
213.570	428
213.638	-51
213.705	-120
213.772	-838
213.839	152
213.906	95
213.973	-252
214.041	-874
214.108	311
214.175	318
214.242	546
214.309	268
214.376	102
214.444	62
214.511	17
214.578	298
214.645	295
214.712	220
214.779	-347
214.846	-760
214.913	530
214.980	291
215.048	238
215.115	125
215.182	-198
215.249	69
215.316	-248
215.383	226
215.450	193
215.517	15
215.584	697
215.651	-549
215.718	165
215.785	968
215.852	69
215.919	777
215.986	360
216.053	-275
216.120	-890
216.187	-378
216.254	-226
216.321	-278
216.388	-219
216.455	-7
216.522	39
216.589	-10
216.656	140
216.722	88
216.789	690
216.856	833
216.923	1447
216.990	260
217.057	450
217.124	115
217.191	-83
217.258	-128
217.324	913
217.391	787
217.458	1533
217.525	517
217.592	-174
217.659	-933
217.725	710
217.792	427
217.859	548
217.926	-444
217.993	192
218.059	528
218.126	-382
218.193	304
218.260	581
218.327	172
218.393	-454
218.460	-475
218.527	-588
218.594	-701
218.660	-760
218.727	423
218.794	-199
218.860	613
218.927	-694
218.994	-811
219.061	-950
219.127	-105
219.194	36
219.261	212
219.327	62
219.394	785
219.461	-32
219.527	393
219.594	121
219.661	-815
219.727	-554
219.794	-703
219.860	-1015
219.927	539
219.994	-477
220.060	544
220.127	234
220.193	632
220.260	77
220.326	824
220.393	1188
220.460	1729
220.526	912
220.593	306
220.659	1182
220.726	1127
220.792	1680
220.859	1118
220.925	2173
220.992	4068
221.058	3549
221.125	1986
221.191	1004
221.258	-375
221.324	-129
221.391	-184
221.457	-125
221.524	8
221.590	664
221.657	1272
221.723	580
221.789	211
221.856	239
221.922	-661
221.989	1095
222.055	-421
222.121	-932
222.188	1320
222.254	91
222.321	-403
222.387	-319
222.453	47
222.520	-12
222.586	-732
222.652	-317
222.719	-887
222.785	240
222.851	-245
222.918	-407
222.984	238
223.050	-163
223.116	-1420
223.183	887
223.249	-840
223.315	-694
223.382	-460
223.448	-305
223.514	-857
223.580	-66
223.647	-520
223.713	-901
223.779	-478
223.845	-68
223.911	-321
223.978	-1076
224.044	688
224.110	-729
224.176	566
224.242	7
224.309	-959
224.375	379
224.441	-101
224.507	-125
224.573	-1222
224.639	-390
224.705	-360
224.772	-159
224.838	-1042
224.904	268
224.970	-1136
225.036	-285
225.102	-572
225.168	561
225.234	-455
225.300	-473
225.366	-459
225.432	-341
225.499	-487
225.565	-727
225.631	-1129
225.697	-726
225.763	-781
225.829	-94
225.895	-507
225.961	327
226.027	162
226.093	14
226.159	426
226.225	770
226.291	2353
226.357	5453
226.423	1538
226.489	1778
226.554	-177
226.620	366
226.686	773
226.752	1372
226.818	1481
226.884	6279
226.950	5719
227.016	1947
227.082	1311
227.148	200
227.214	-15
227.279	446
227.345	-12
227.411	-189
227.477	-515
227.543	1124
227.609	456
227.674	367
227.740	-424
227.806	60
227.872	-83
227.938	182
228.003	305
228.069	51
228.135	-1374
228.201	-236
228.267	-916
228.332	-67
228.398	-450
228.464	603
228.530	-671
228.595	-114
228.661	-833
228.727	-344
228.792	237
228.858	493
228.924	-2204
228.990	743
229.055	-768
229.121	15
229.187	-647
229.252	-429
229.318	-977
229.384	-67
229.449	-236
229.515	-1789
229.581	-153
229.646	1840
229.712	-268
229.777	226
229.843	33
229.909	-66
229.974	235
230.040	-555
230.105	-99
230.171	-1156
230.236	6
230.302	327
230.368	-751
230.433	-239
230.499	298
230.564	700
230.630	-685
230.695	410
230.761	-349
230.826	-1647
230.892	304
230.957	-1231
231.023	-405
231.088	-163
231.154	-544
231.219	102
231.284	-888
231.350	-367
231.415	-1168
231.481	143
231.546	318
231.612	-128
231.677	-604
231.742	-1301
231.808	1146
231.873	-1052
231.939	-1850
232.004	1422
232.069	207
232.135	-315
232.200	-592
232.265	241
232.331	-701
232.396	-731
232.461	-1339
232.527	-894
232.592	-818
232.657	-326
232.723	-456
232.788	-400
232.853	75
232.918	88
232.984	-668
233.049	-445
233.114	-496
233.179	-208
233.245	125
233.310	55
233.375	-1100
233.440	-17
233.506	-1150
233.571	-596
233.636	-637
233.701	381
233.766	-521
233.832	-20
233.897	-291
233.962	-982
234.027	1044
234.092	284
234.157	-1023
234.222	-677
234.288	-482
234.353	817
234.418	1113
234.483	1013
234.548	-363
234.613	99
234.678	-733
234.743	-334
234.808	755
234.873	-1177
234.938	1064
235.004	-1063
235.069	-625
235.134	-1108
235.199	-692
235.264	-908
235.329	-1929
235.394	754
235.459	-43
235.524	-928
235.589	28
235.654	-1274
235.719	-1467
235.784	811
235.849	-897
235.913	-370
235.978	-579
236.043	517
236.108	-707
236.173	-1322
236.238	355
236.303	-729
236.368	-929
236.433	907
236.498	-105
236.563	311
236.627	1448
236.692	7918
236.757	6638
236.822	1961
236.887	156
236.952	1066
237.017	-979
237.081	2048
237.146	220
237.211	3088
237.276	6736
237.341	11688
237.405	5053
237.470	1379
237.535	192
237.600	626
237.664	437
237.729	-365
237.794	-170
237.859	1961
237.923	783
237.988	13
238.053	950
238.118	80
238.182	752
238.247	3324
238.312	-269
238.376	109
238.441	-1917
238.506	915
238.570	-1061
238.635	1248
238.700	-559
238.764	-251
238.829	80
238.893	-616
238.958	419
239.023	-784
239.087	181
239.152	348
239.216	-379
239.281	-613
239.346	-85
239.410	-542
239.475	-1328
239.539	1720
239.604	-238
239.668	397
239.733	-700
239.797	-268
239.862	-420
239.926	487
239.991	-255
240.055	-500
240.120	-629
240.184	167
240.249	-1495
240.313	-148
240.378	-801
240.442	307
240.507	1294
240.571	-12
240.635	-384
240.700	349
240.764	-430
240.829	-614
240.893	-1188
240.957	22
241.022	205
241.086	1316
241.151	-563
241.215	-1993
241.279	252
241.344	-830
241.408	60
241.472	-1115
241.537	1121
241.601	441
241.665	-1814
241.730	-698
241.794	25
241.858	-307
241.922	-31
241.987	-170
242.051	-730
242.115	-948
242.179	119
242.244	-1099
242.308	-118
242.372	-241
242.436	-832
242.501	-101
242.565	-122
242.629	193
242.693	911
242.757	-932
242.822	-392
242.886	270
242.950	374
243.014	-1062
243.078	-364
243.142	-690
243.206	-963
243.271	-658
243.335	-894
243.399	294
243.463	520
243.527	7560
243.591	1692
243.655	180
243.719	-501
243.783	937
243.847	-688
243.911	486
243.975	-200
244.040	-426
244.104	719
244.168	-247
244.232	-382
244.296	260
244.360	239
244.424	-713
244.488	21
244.552	-169
244.615	-1012
244.679	175
244.743	-331
244.807	-1190
244.871	-215
244.935	105
244.999	-1067
245.063	-437
245.127	496
245.191	444
245.255	-103
245.319	-126
245.383	-1522
245.446	767
245.510	-996
245.574	-270
245.638	-591
245.702	-1786
245.766	537
245.829	824
245.893	-862
245.957	-499
246.021	270
246.085	-253
246.149	-405
246.212	1349
246.276	1691
246.340	333
246.404	138
246.467	425
246.531	-822
246.595	1078
246.659	773
246.722	-1611
246.786	-131
246.850	-385
246.913	573
246.977	-965
247.041	-19
247.104	-173
247.168	482
247.232	400
247.295	2911
247.359	713
247.423	-235
247.486	660
247.550	715
247.614	-190
247.677	319
247.741	-211
247.804	-366
247.868	47
247.932	648
247.995	3469
248.059	197
248.122	-1034
248.186	370
248.249	1041
248.313	4583
248.376	5951
248.440	2911
248.503	-261
248.567	1318
248.630	-96
248.694	825
248.757	1880
248.821	4856
248.884	3420
248.948	1305
249.011	4084
249.075	6428
249.138	5019
249.202	1621
249.265	-53
249.328	526
249.392	-504
249.455	247
249.519	373
249.582	-408
249.645	895
249.709	666
249.772	1336
249.835	891
249.899	381
249.962	340
250.025	-610
250.089	1497
250.152	3109
250.215	7
250.279	-550
250.342	678
250.405	177
250.468	-385
250.532	249
250.595	1356
250.658	5060
250.721	12670
250.785	2750
250.848	2371
250.911	224
250.974	101
251.038	1195
251.101	3402
251.164	1237
251.227	1137
251.290	1006
251.354	2151
251.417	10026
251.480	10823
251.543	6042
251.606	18812
251.669	14102
251.732	4814
251.795	4495
251.859	5206
251.922	11594
251.985	7498
252.048	3076
252.111	1140
252.174	-165
252.237	2518
252.300	6603
252.363	6402
252.426	17145
252.489	5821
252.552	2555
252.615	425
252.678	2637
252.741	3671
252.804	5844
252.867	15760
252.930	9024
252.993	3835
253.056	2286
253.119	233
253.182	264
253.245	1721
253.308	1763
253.371	-474
253.434	927
253.497	1211
253.559	3402
253.622	1701
253.685	896
253.748	1392
253.811	6
253.874	661
253.937	-16
254.000	221
254.062	945
254.125	2775
254.188	2146
254.251	1080
254.314	-64
254.376	846
254.439	1517
254.502	1716
254.565	750
254.628	3458
254.690	1145
254.753	-133
254.816	-713
254.878	-201
254.941	1593
255.004	1403
255.067	234
255.129	-1163
255.192	234
255.255	-858
255.317	71
255.380	-6
255.443	-831
255.505	-914
255.568	-1254
255.631	-782
255.693	440
255.756	-1233
255.819	474
255.881	-733
255.944	-75
256.006	-580
256.069	-674
256.132	-406
256.194	-88
256.257	701
256.319	663
256.382	-485
256.444	1050
256.507	-391
256.569	-1012
256.632	361
256.694	91
256.757	4001
256.819	12610
256.882	3676
256.944	419
257.007	1210
257.069	-955
257.132	220
257.194	1939
257.257	-674
257.319	-705
257.381	-475
257.444	3048
257.506	12792
257.569	16347
257.631	4304
257.693	2400
257.756	1120
257.818	-616
257.880	-451
257.943	178
258.005	-1246
258.067	-231
258.130	482
258.192	-790
258.254	-254
258.317	-831
258.379	357
258.441	962
258.503	1280
258.566	1472
258.628	1604
258.690	-1128
258.753	503
258.815	585
258.877	-14
258.939	-165
259.001	47
259.064	-645
259.126	-1042
259.188	-85
259.250	116
259.312	-283
259.375	-55
259.437	-85
259.499	-467
259.561	-771
259.623	312
259.685	-1146
259.747	14
259.809	781
259.872	2456
259.934	4406
259.996	5159
260.058	827
260.120	158
260.182	-32
260.244	83
260.306	-737
260.368	-105
260.430	-834
260.492	226
260.554	485
260.616	-634
260.678	1566
260.740	2521
260.802	-662
260.864	649
260.926	-147
260.988	106
261.050	-1072
261.112	186
261.174	3788
261.236	2217
261.298	-135
261.359	89
261.421	1940
261.483	-1263
261.545	132
261.607	-1365
261.669	-582
261.731	-270
261.793	1126
261.854	-466
261.916	55
261.978	-839
262.040	-165
262.102	-789
262.164	-565
262.225	-412
262.287	-451
262.349	-381
262.411	776
262.472	488
262.534	-639
262.596	778
262.658	260
262.719	-1372
262.781	10
262.843	349
262.904	-126
262.966	-178
263.028	12
263.090	2513
263.151	10960
263.213	3197
263.275	664
263.336	-140
263.398	-290
263.459	-245
263.521	-283
263.583	382
263.644	-47
263.706	-1133
263.767	-1795
263.829	312
263.891	-373
263.952	-1029
264.014	-467
264.075	-602
264.137	1141
264.198	598
264.260	-1037
264.321	-473
264.383	-78
264.444	2304
264.506	415
264.567	-536
264.629	680
264.690	259
264.752	230
264.813	-52
264.875	-1530
264.936	-101
264.998	-745
265.059	-1123
265.120	-742
265.182	532
265.243	6605
265.305	7333
265.366	694
265.427	30
265.489	237
265.550	-1510
265.611	-298
265.673	-821
265.734	-711
265.795	-638
265.857	-99
265.918	-1485
265.979	1035
266.040	9475
266.102	9285
266.163	1445
266.224	496
266.286	-362
266.347	-1504
266.408	-586
266.469	-1308
266.530	-896
266.592	-303
266.653	-274
266.714	415
266.775	-1172
266.836	-443
266.898	-1375
266.959	-257
267.020	-1001
267.081	906
267.142	-401
267.203	-381
267.264	-1029
267.326	-6
267.387	-789
267.448	-1503
267.509	-1337
267.570	-628
267.631	-938
267.692	-1826
267.753	-917
267.814	-1093
267.875	-1379
267.936	728
267.997	-337
268.058	-1184
268.119	-626
268.180	-712
268.241	-1195
268.302	-804
268.363	-749
268.424	-444
268.485	-1375
268.546	-827
268.607	-1418
268.668	-782
268.729	-1123
268.790	-1077
268.851	-530
268.912	-194
268.972	-296
269.033	-1132
269.094	-584
269.155	8
269.216	-1106
269.277	-1094
269.338	-1247
269.398	-722
269.459	-1259
269.520	-702
269.581	-484
269.642	3
269.702	-638
269.763	-486
269.824	-1364
269.885	-127
269.945	-305
270.006	-362
270.067	-839
270.128	-914
270.188	-1347
270.249	-506
270.310	-1134
270.370	-191
270.431	-935
270.492	-967
270.553	-671
270.613	-231
270.674	600
270.734	-1093
270.795	-1004
270.856	-304
270.916	-639
270.977	-171
271.038	-181
271.098	-661
271.159	-1168
271.219	-866
271.280	-896
271.340	-193
271.401	-1983
271.462	220
271.522	-778
271.583	-20
271.643	-989
271.704	-589
271.764	-1044
271.825	532
271.885	3693
271.946	7437
272.006	636
272.066	2009
272.127	5704
272.187	793
272.248	-45
272.308	-180
272.369	3384
272.429	2017
272.489	544
272.550	-316
272.610	604
272.671	-368
272.731	-280
272.791	-317
272.852	-438
272.912	-238
272.972	-346
273.033	-1202
273.093	-889
273.153	836
273.214	-85
273.274	-284
273.334	1621
273.394	5831
273.455	728
273.515	1060
273.575	3381
273.635	671
273.696	914
273.756	5541
273.816	1177
273.876	297
273.936	1064
273.997	2649
274.057	-229
274.117	144
274.177	45
274.237	5727
274.297	5574
274.358	1719
274.418	3182
274.478	1889
274.538	-266
274.598	-134
274.658	892
274.718	2235
274.778	629
274.838	-268
274.898	-455
274.958	3322
275.018	4103
275.078	3365
275.138	-87
275.198	-420
275.258	-612
275.318	-131
275.378	-753
275.438	949
275.498	-115
275.558	1101
275.618	3145
275.678	2565
275.738	500
275.798	376
275.858	-578
275.918	-1231
275.978	-16
276.038	270
276.098	-650
276.157	-273
276.217	1667
276.277	920
276.337	-1030
276.397	-415
276.457	-870
276.517	-630
276.576	-1050
276.636	-1007
276.696	-1032
276.756	958
276.815	-23
276.875	-765
276.935	-295
276.995	-15
277.055	-1256
277.114	-548
277.174	-676
277.234	1956
277.293	-201
277.353	-747
277.413	-728
277.472	-484
277.532	-1240
277.592	-697
277.651	574
277.711	3183
277.771	201
277.830	4003
277.890	2436
277.950	1278
278.009	9885
278.069	3001
278.128	2167
278.188	3330
278.248	658
278.307	3411
278.367	1522
278.426	138
278.486	-1246
278.545	-1315
278.605	-664
278.664	-536
278.724	-561
278.783	608
278.843	5630
278.902	1016
278.962	-729
279.021	-360
279.081	-109
279.140	286
279.199	-398
279.259	-500
279.318	-865
279.378	342
279.437	472
279.496	6104
279.556	24066
279.615	20637
279.675	3729
279.734	909
279.793	1732
279.853	4808
279.912	1589
279.971	-97
280.031	-447
280.090	1427
280.149	3447
280.208	2620
280.268	14956
280.327	19937
280.386	3038
280.445	1910
280.505	83
280.564	640
280.623	26
280.682	201
280.742	1691
280.801	432
280.860	-589
280.919	-476
280.978	-1216
281.037	-948
281.097	-378
281.156	-868
281.215	-1081
281.274	-478
281.333	1572
281.392	1985
281.451	-677
281.510	-358
281.569	-776
281.628	-325
281.688	-747
281.747	-441
281.806	-523
281.865	-527
281.924	-1443
281.983	-893
282.042	-1082
282.101	-1111
282.160	-1143
282.219	-512
282.278	-1031
282.337	104
282.396	-419
282.454	-561
282.513	-582
282.572	1015
282.631	233
282.690	-1495
282.749	-1430
282.808	-971
282.867	-496
282.926	-221
282.985	-156
283.043	-1174
283.102	-407
283.161	-1391
283.220	957
283.279	2539
283.338	370
283.396	-585
283.455	-1131
283.514	-193
283.573	-693
283.631	-842
283.690	-550
283.749	-1039
283.808	-465
283.866	525
283.925	-939
283.984	78
284.043	-520
284.101	-539
284.160	-1026
284.219	-32
284.277	-1052
284.336	-195
284.395	1861
284.453	2682
284.512	496
284.570	-389
284.629	-248
284.688	-97
284.746	-605
284.805	164
284.863	643
284.922	680
284.981	566
285.039	2699
285.098	3196
285.156	11572
285.215	42107
285.273	44942
285.332	15808
285.390	6629
285.449	3139
285.507	2591
285.566	508
285.624	650
285.683	190
285.741	329
285.799	-98
285.858	-743
285.916	-577
285.975	-54
286.033	-689
286.091	-115
286.150	-513
286.208	-692
286.267	-777
286.325	-381
286.383	-739
286.442	-605
286.500	-807
286.558	-375
286.616	-1161
286.675	159
286.733	-970
286.791	-992
286.850	-654
286.908	-180
286.966	690
287.024	60
287.083	-939
287.141	-1302
287.199	-973
287.257	-733
287.315	-599
287.374	-819
287.432	122
287.490	-106
287.548	-1087
287.606	-797
287.664	-1252
287.723	-273
287.781	-271
287.839	-135
287.897	-827
287.955	719
288.013	482
288.071	1882
288.129	12020
288.187	50619
288.245	20567
288.303	4865
288.361	2164
288.419	525
288.477	618
288.535	-115
288.593	-498
288.651	-845
288.709	-1354
288.767	-1122
288.825	-1995
288.883	-1512
288.941	-267
288.999	-1647
289.057	-1199
289.115	-530
289.173	-1747
289.231	-671
289.289	-1258
289.346	-1450
289.404	-1332
289.462	-756
289.520	-690
289.578	-1080
289.636	-1194
289.694	-1295
289.751	-1254
289.809	-1160
289.867	-1370
289.925	-992
289.983	-868
290.040	-207
290.098	-807
290.156	-789
290.214	-1414
290.271	-863
290.329	-378
290.387	-1154
290.444	-823
290.502	-1503
290.560	-893
290.617	-776
290.675	-1842
290.733	-1371
290.790	-1261
290.848	-1121
290.906	-1885
290.963	-336
291.021	-909
291.078	-1203
291.136	-1254
291.194	-293
291.251	2857
291.309	400
291.366	-576
291.424	-940
291.481	-694
291.539	-631
291.596	-278
291.654	-1243
291.711	-1337
291.769	-1062
291.826	-656
291.884	470
291.941	-1430
291.999	-1133
292.056	-1010
292.114	-722
292.171	-1691
292.228	-1386
292.286	-1023
292.343	-539
292.401	-213
292.458	-61
292.515	-1363
292.573	-391
292.630	-2082
292.687	-1324
292.745	-1531
292.802	-898
292.859	411
292.917	2850
292.974	979
293.031	-729
293.089	-662
293.146	-112
293.203	-1213
293.260	-1358
293.318	-693
293.375	-799
293.432	-703
293.489	-479
293.546	-802
293.604	-165
293.661	42
293.718	7673
293.775	2351
293.832	-11
293.889	-486
293.947	-770
294.004	-211
294.061	-199
294.118	-192
294.175	2614
294.232	3588
294.289	775
294.346	-211
294.403	58
294.460	-1551
294.517	-759
294.574	-772
294.631	-865
294.688	-692
294.745	941
294.802	7340
294.859	9249
294.916	1816
294.973	364
295.030	-755
295.087	38
295.144	-290
295.201	-786
295.258	-417
295.315	-480
295.372	1537
295.429	5500
295.486	2052
295.542	-214
295.599	2002
295.656	6077
295.713	3577
295.770	4599
295.827	1191
295.883	-1
295.940	-788
295.997	148
296.054	-202
296.111	490
296.167	-354
296.224	-545
296.281	-505
296.338	-505
296.394	-1117
296.451	-654
296.508	562
296.564	2605
296.621	2192
296.678	5246
296.734	10639
296.791	3448
296.848	1443
296.904	872
296.961	2222
297.018	4956
297.074	4717
297.131	1299
297.187	122
297.244	1234
297.301	4698
297.357	14347
297.414	4735
297.470	770
297.527	104
297.583	140
297.640	-351
297.696	-744
297.753	-848
297.809	-285
297.866	-721
297.922	-151
297.979	-1351
298.035	-1179
298.092	-422
298.148	2578
298.204	3175
298.261	262
298.317	2536
298.374	8426
298.430	4947
298.486	1000
298.543	-458
298.599	360
298.656	-74
298.712	1489
298.768	3066
298.824	3004
298.881	490
298.937	-271
298.993	-83
299.050	-515
299.106	348
299.162	-586
299.218	-261
299.275	-47
299.331	-256
299.387	430
299.443	6135
299.500	8833
299.556	2771
299.612	674
299.668	360
299.724	-97
299.780	807
299.837	-86
299.893	279
299.949	4230
300.005	5389
300.061	5499
300.117	10428
300.173	5568
300.229	476
300.285	1462
300.341	1506
300.397	162
300.453	-421
300.510	-264
300.566	-1029
300.622	-174
300.678	2403
300.734	5110
300.790	6430
300.845	7620
300.901	3766
300.957	4543
301.013	3746
301.069	969
301.125	489
301.181	640
301.237	-330
301.293	-1143
301.349	-43
301.405	-546
301.461	-456
301.516	-117
301.572	-379
301.628	-275
301.684	52
301.740	721
301.796	3528
301.851	1534
301.907	2616
301.963	3118
302.019	5853
302.074	21864
302.130	23881
302.186	11782
302.242	3211
302.297	870
302.353	1201
302.409	3025
302.464	2906
302.520	1611
302.576	5850
302.631	8281
302.687	3708
302.743	803
302.798	-146
302.854	-628
302.910	-794
302.965	131
303.021	-66
303.076	1117
303.132	1206
303.187	2291
303.243	104
303.299	-295
303.354	-678
303.410	276
303.465	-928
303.521	-190
303.576	-620
303.632	503
303.687	1107
303.743	7267
303.798	7072
303.853	1918
303.909	784
303.964	54
304.020	-172
304.075	823
304.130	1154
304.186	2530
304.241	3285
304.297	2354
304.352	1364
304.358	1245
304.407	278
304.449	-41
304.463	-148
304.518	392
304.539	158
304.573	-228
304.629	-54
304.630	-36
304.684	862
304.720	3378
304.739	4618
304.794	9174
304.811	7880
304.850	4697
304.902	1741
304.905	1557
304.960	339
304.992	262
305.015	219
305.071	699
305.083	619
305.126	245
305.173	228
305.181	241
305.236	-60
305.264	-76
305.292	-122
305.347	202
305.354	198
305.402	261
305.445	373
305.457	395
305.512	552
305.535	861
305.567	1299
305.622	1370
305.626	1406
305.678	2715
305.716	6166
305.733	7300
305.788	8760
305.807	7585
305.843	5738
305.897	8015
305.898	8035
305.953	8979
305.988	5844
306.008	4173
306.063	1993
306.078	1610
306.118	777
306.168	245
306.173	204
306.228	242
306.259	195
306.283	188
306.338	3
306.349	108
306.393	629
306.440	899
306.448	931
306.503	1015
306.530	853
306.558	1066
306.613	3378
306.620	3623
306.668	5637
306.711	7652
306.723	7600
306.778	5966
306.801	4471
306.833	3081
306.888	1486
306.892	1450
306.943	1389
306.982	502
306.997	272
307.052	403
307.072	629
307.107	853
307.162	447
307.163	451
307.217	1793
307.253	2397
307.272	2436
307.327	2617
307.343	2457
307.381	2251
307.434	1641
307.436	1702
307.491	4149
307.524	6493
307.546	7181
307.600	7730
307.614	7198
307.655	4703
307.704	2078
307.710	2018
307.765	2436
307.795	3223
307.819	3909
307.874	5923
307.885	6041
307.929	5904
307.975	5447
307.984	5696
308.038	8240
308.065	9853
308.093	17364
308.148	36385
308.156	40672
308.202	62315
308.246	77867
308.257	75886
308.312	43593
308.336	30542
308.366	22787
308.421	13740
308.426	12853
308.475	8101
308.517	5628
308.530	5108
308.585	3982
308.607	3548
308.639	3664
308.694	4061
308.697	4117
308.748	6802
308.787	9139
308.803	9032
308.857	7143
308.877	6494
308.912	6541
308.967	6244
308.967	6247
309.021	8999
309.058	10856
309.076	14024
309.130	24920
309.148	29116
309.185	50196
309.238	87423
309.239	87777
309.293	99126
309.328	93233
309.348	80969
309.402	42569
309.418	32451
309.457	22370
309.508	12422
309.511	12185
309.566	10361
309.598	9210
309.620	9263
309.674	10697
309.688	11111
309.729	10610
309.778	9014
309.783	8836
309.837	6367
309.868	5316
309.892	7038
309.946	11259
309.959	12524
310.001	16583
310.049	20850
310.055	20141
310.109	11676
310.139	6868
310.163	5445
310.218	3139
310.229	2715
310.272	2556
310.319	2437
310.326	2351
310.381	1573
310.409	1330
310.435	1466
310.489	1561
310.499	1579
310.543	1699
310.589	1848
310.598	1900
310.652	2448
310.679	2522
310.706	2125
310.760	1452
310.769	1309
310.814	1180
310.859	1231
310.868	1270
310.923	1422
310.948	1420
310.977	1492
311.031	1848
311.038	1871
311.085	1571
311.128	1165
311.139	1215
311.193	1728
311.218	1855
311.247	1885
311.301	2014
311.308	2008
311.356	1991
311.398	2052
311.410	2004
311.464	1606
311.488	1447
311.518	1499
311.572	1635
311.578	1638
311.626	2191
311.668	2738
311.680	2748
311.734	2609
311.758	2568
311.788	2580
311.842	2582
311.847	2570
311.896	3297
311.937	3930
311.950	3885
312.004	3634
312.027	3507
312.058	3117
312.112	2392
312.117	2314
312.165	2094
312.207	1895
312.297	3153
312.386	2139
312.476	2475
312.566	4395
312.656	2441
312.745	1234
312.835	2797
312.925	2608
313.015	2604
313.104	2263
313.194	2742
313.284	1818
313.374	3058
313.463	2721
313.553	1671
313.643	1529
313.732	2283
313.822	995
313.912	2030
314.001	2014
314.091	2586
314.180	2853
314.270	2758
314.360	2925
314.449	2650
314.539	1034
314.628	2444
314.718	2419
314.808	2792
314.897	1989
314.987	2224
315.076	1704
315.166	2910
315.255	2658
315.345	2595
315.434	2159
315.524	2861
315.613	2345
315.703	3192
315.792	3896
315.881	4219
315.971	2437
316.060	4807
316.150	4191
316.239	4776
316.328	2303
316.418	1873
316.507	1346
316.597	3227
316.686	2503
316.775	2148
316.865	6111
316.954	2503
317.043	1434
317.133	1701
317.222	1456
317.311	1555
317.400	519
317.490	3625
317.579	2516
317.668	2399
317.757	2075
317.847	3538
317.936	6861
318.025	5401
318.114	2658
318.203	3071
318.293	5682
318.382	9704
318.471	7110
318.560	11528
318.649	24326
318.738	5538
318.828	2380
318.917	2828
319.006	3254
319.095	8718
319.184	30197
319.273	14723
319.362	6822
319.451	2785
319.540	2151
319.629	4986
319.718	8930
319.807	4542
319.896	8412
319.985	36436
320.074	11472
320.163	2820
320.252	3817
320.341	5094
320.430	3395
320.519	3544
320.608	2394
320.697	2698
320.786	2284
320.875	3844
320.964	3414
321.053	5118
321.142	7135
321.230	8089
321.319	5480
321.408	14778
321.497	6134
321.586	5144
321.675	6051
321.764	7567
321.852	5602
321.941	8432
322.030	4612
322.119	6128
322.207	13957
322.296	8890
322.385	4867
322.474	5253
322.562	16158
322.651	9383
322.740	5004
322.829	7192
322.917	6628
323.006	4436
323.095	4279
323.183	3207
323.272	4990
323.361	7511
323.449	23489
323.538	7476
323.626	15799
323.715	8507
323.804	3786
323.892	13085
323.981	7425
324.069	3158
324.158	7189
324.246	7570
324.335	2883
324.424	5580
324.512	2748
324.601	5076
324.689	12859
324.778	25242
324.866	6731
324.954	2078
325.043	2555
325.131	2539
325.220	6150
325.308	6276
325.397	5206
325.485	3772
325.574	1112
325.662	2068
325.750	1138
325.839	1676
325.927	1638
326.015	1770
326.104	1640
326.192	3029
326.280	1155
326.369	1817
326.457	2888
326.545	4779
326.634	1269
326.722	1356
326.810	1605
326.898	2351
326.987	1835
327.075	3252
327.163	3428
327.251	2537
327.340	11915
327.428	18236
327.516	2956
327.604	1474
327.692	1428
327.781	1346
327.869	1872
327.957	2402
328.045	1140
328.133	1447
328.221	1331
328.309	1943
328.397	1395
328.485	2608
328.574	2794
328.662	9236
328.750	4014
328.838	1324
328.926	1427
329.014	1853
329.102	2577
329.190	6466
329.278	4069
329.366	1532
329.454	531
329.542	793
329.630	170
329.718	1084
329.806	1788
329.893	1920
329.981	538
330.069	2005
330.157	3621
330.245	10013
330.333	4822
330.421	1715
330.509	2527
330.597	10649
330.684	7190
330.772	2968
330.860	2715
330.948	6265
331.036	1579
331.123	975
331.211	1462
331.299	1927
331.387	4773
331.475	9466
331.562	1984
331.650	1859
331.738	1039
331.825	2118
331.913	962
332.001	1185
332.089	1329
332.176	3003
332.264	6659
332.352	5422
332.439	2104
332.527	2141
332.614	887
332.702	1435
332.790	1016
332.877	2221
332.965	5521
333.052	1818
333.140	1875
333.228	2840
333.315	1190
333.403	1572
333.490	3975
333.578	2954
333.665	4391
333.753	2834
333.840	1097
333.928	2260
334.015	4301
334.103	8565
334.190	34932
334.278	8091
334.365	1753
334.452	2216
334.540	927
334.627	1395
334.715	2825
334.802	4788
334.889	24074
334.977	25124
335.064	3704
335.151	1927
335.239	2628
335.326	3659
335.413	18207
335.501	26164
335.588	3305
335.675	1495
335.762	2561
335.850	5749
335.937	2427
336.024	7560
336.111	31392
336.199	13042
336.286	2356
336.373	2394
336.460	1136
336.547	1892
336.635	2573
336.722	1659
336.809	1311
336.896	3037
336.983	10164
337.070	27087
337.157	38038
337.245	18325
337.332	11752
337.419	2194
337.506	1568
337.593	2032
337.680	7769
337.767	28984
337.854	6478
337.941	7889
338.028	6829
338.115	2199
338.202	3608
338.289	4234
338.376	16198
338.463	5564
338.550	15811
338.637	17145
338.724	3663
338.811	4976
338.898	1247
338.984	2092
339.071	1651
339.158	1861
339.245	5861
339.332	4480
339.419	3111
339.506	4050
339.593	467
339.679	1400
339.766	390
339.853	1668
339.940	3581
340.027	1907
340.113	1245
340.200	1309
340.287	1639
340.374	1856
340.460	4461
340.547	1721
340.634	2663
340.720	10851
340.807	5536
340.894	1581
340.980	399
341.067	1488
341.154	2299
341.240	2985
341.327	5124
341.414	4029
341.500	2739
341.587	2021
341.674	690
341.760	3861
341.847	4101
341.933	1427
342.020	471
342.106	392
342.193	1736
342.279	2877
342.366	1680
342.452	3834
342.539	2125
342.625	4228
342.712	11301
342.798	4562
342.885	1030
342.971	100
343.058	772
343.144	1084
343.230	968
343.317	1692
343.403	710
343.490	489
343.576	821
343.662	950
343.749	1498
343.835	1661
343.921	3876
344.008	22443
344.094	54223
344.180	11442
344.267	3580
344.353	15222
344.439	15380
344.525	6206
344.612	7565
344.698	8555
344.784	3750
344.870	2035
344.957	1472
345.043	2802
345.129	1108
345.215	3984
345.301	2636
345.387	2847
345.474	645
345.560	684
345.646	333
345.732	1348
345.818	2018
345.904	1791
345.990	1386
346.076	2098
346.162	2743
346.249	1955
346.335	376
346.421	1108
346.507	5001
346.593	21685
346.679	3932
346.765	2584
346.851	887
346.937	212
347.023	1387
347.108	1804
347.194	1174
347.280	1409
347.366	1583
347.452	5182
347.538	24290
347.624	19283
347.710	14566
347.796	1524
347.882	842
347.967	1414
348.053	1608
348.139	791
348.225	492
348.311	739
348.397	1390
348.482	2099
348.568	942
348.654	467
348.740	886
348.825	598
348.911	1795
348.997	11569
349.083	23964
349.168	3678
349.254	1825
349.340	2528
349.425	1237
349.511	1032
349.597	1898
349.682	3314
349.768	15345
349.854	7300
349.939	1198
350.025	571
350.110	1272
350.196	1949
350.282	129
350.367	1041
350.453	1415
350.538	1419
350.624	1379
350.709	2026
350.795	190
350.880	1045
350.966	1644
351.051	2475
351.137	718
351.222	1354
351.308	4815
351.393	13761
351.479	3950
351.564	689
351.649	1269
351.735	1024
351.820	1036
351.906	694
351.991	664
352.076	7759
352.162	12352
352.247	1761
352.332	1854
352.418	4528
352.503	5280
352.588	19161
352.673	14277
352.759	2898
352.844	1092
352.929	2017
353.014	2045
353.100	2142
353.185	1126
353.270	2135
353.355	4234
353.441	2032
353.526	954
353.611	2994
353.696	3005
353.781	3293
353.866	398
353.952	1929
354.037	2708
354.122	8051
354.207	5611
354.292	2928
354.377	1323
354.462	559
354.547	1531
354.632	1250
354.717	2613
354.802	1322
354.887	581
354.972	1056
355.057	97
355.142	720
355.227	982
355.312	1616
355.397	3935
355.482	12368
355.567	5045
355.652	4401
355.737	4606
355.822	16832
355.907	13615
355.991	2653
356.076	634
356.161	1782
356.246	508
356.331	1204
356.416	2023
356.501	27119
356.585	28198
356.670	3701
356.755	3565
356.840	3385
356.924	14609
357.009	60101
357.094	23150
357.179	4499
357.263	2623
357.348	2734
357.433	2655
357.517	2988
357.602	1616
357.687	1979
357.771	3608
357.856	13019
357.941	7356
358.025	13065
358.110	61921
358.195	28424
358.279	4227
358.364	2989
358.448	10790
358.533	32272
358.617	21818
358.702	23681
358.787	7406
358.871	4386
358.956	3775
359.040	1228
359.125	1132
359.209	1262
359.294	5594
359.378	10021
359.462	3374
359.547	2488
359.631	-214
359.716	313
359.800	823
359.885	2715
359.969	520
360.053	2256
360.138	1376
360.222	1688
360.306	4168
360.391	3143
360.475	6261
360.559	14375
360.644	9824
360.728	5836
360.812	12900
360.896	41696
360.981	16662
361.065	8221
361.149	2906
361.233	1923
361.318	974
361.402	1152
361.486	1981
361.570	885
361.654	1717
361.739	4555
361.823	24717
361.907	42109
361.991	6543
362.075	3002
362.159	6014
362.243	6045
362.327	3959
362.411	6535
362.495	3079
362.580	1509
362.664	1345
362.748	846
362.832	1216
362.916	2089
363.000	10482
363.084	30023
363.168	47223
363.252	10336
363.336	3302
363.420	5421
363.503	24359
363.587	31386
363.671	4930
363.755	1682
363.839	4292
363.923	1325
364.007	4697
364.091	4380
364.175	6773
364.258	44165
364.342	24840
364.426	21180
364.510	9734
364.594	6901
364.677	7901
364.761	34194
364.845	25968
364.929	7269
365.013	5182
365.096	4490
365.180	5263
365.264	10328
365.347	45137
365.431	18486
365.515	3701
365.598	921
365.682	2944
365.766	3751
365.849	4535
365.933	1650
366.017	4562
366.100	1684
366.184	-266
366.267	1885
366.351	867
366.435	331
366.518	-97
366.602	1450
366.685	1183
366.769	1366
366.852	3380
366.936	6342
367.019	2602
367.103	2004
367.186	6323
367.270	1817
367.353	-381
367.436	1996
367.520	252
367.603	680
367.687	1472
367.770	4470
367.853	2331
367.937	11529
368.020	19110
368.104	3121
368.187	2527
368.270	5881
368.353	5432
368.437	4249
368.520	9324
368.603	6869
368.687	10520
368.770	24189
368.853	5446
368.936	5314
369.020	6025
369.103	1535
369.186	303
369.269	761
369.352	3181
369.436	4173
369.519	2238
369.602	-380
369.685	1927
369.768	599
369.851	1988
369.934	708
370.018	1090
370.101	2131
370.184	4621
370.267	1310
370.350	2629
370.433	5379
370.516	18479
370.599	21985
370.682	3915
370.765	12512
370.848	14890
370.931	29359
371.014	11745
371.097	896
371.180	1198
371.263	1420
371.346	-299
371.429	1067
371.511	20
371.594	2189
371.677	4860
371.760	7151
371.843	3419
371.926	22285
372.009	55693
372.091	18646
372.174	9158
372.257	28344
372.340	10501
372.423	8094
372.505	10170
372.588	2861
372.671	7685
372.754	26786
372.836	14109
372.919	12456
373.002	26575
373.085	5841
373.167	4057
373.250	10535
373.332	27080
373.415	34820
373.498	69997
373.580	25843
373.663	30444
373.746	44473
373.828	9070
373.911	4669
373.993	4221
374.076	24767
374.159	23075
374.241	7352
374.324	23482
374.406	15534
374.489	18153
374.571	62774
374.654	25390
374.736	10713
374.819	35307
374.901	50802
374.983	52551
375.066	8850
375.148	3493
375.231	17955
375.313	39400
375.395	12261
375.478	2388
375.560	1830
375.643	2741
375.725	9123
375.807	43444
375.890	34893
375.972	8942
376.054	6179
376.136	7823
376.219	3245
376.301	12727
376.383	39484
376.465	14034
376.548	6518
376.630	9739
376.712	34260
376.794	15412
376.877	1603
376.959	197
377.041	2056
377.123	4434
377.205	6566
377.287	669
377.369	1418
377.452	666
377.534	653
377.616	714
377.698	552
377.780	61
377.862	913
377.944	658
378.026	-361
378.108	568
378.190	829
378.272	859
378.354	-227
378.436	463
378.518	1682
378.600	8992
378.682	8354
378.764	16305
378.846	13246
378.928	3019
379.010	4673
379.091	2123
379.173	1548
379.255	398
379.337	1216
379.419	6614
379.501	24782
379.583	9770
379.664	1751
379.746	3220
379.828	16986
379.910	22759
379.991	20485
380.073	2354
380.155	1755
380.237	1434
380.318	907
380.400	1187
380.482	2689
380.564	4265
380.645	3148
380.727	3157
380.809	3362
380.890	1283
380.972	747
381.053	1311
381.135	2515
381.217	4630
381.298	17386
381.380	8498
381.461	6099
381.543	30904
381.624	40636
381.706	6190
381.787	3549
381.869	4044
381.951	12480
382.032	53269
382.113	35751
382.195	5240
382.276	4265
382.358	7812
382.439	28761
382.521	31852
382.602	51715
382.684	20987
382.765	37660
382.846	34395
382.928	35100
383.009	18889
383.090	12849
383.172	48821
383.253	81533
383.334	30266
383.416	43408
383.497	21595
383.578	6543
383.659	10190
383.741	41908
383.822	124278
383.903	62523
383.984	24964
384.066	54492
384.147	32617
384.228	5763
384.309	3453
384.390	3269
384.471	1518
384.553	2198
384.634	3908
384.715	3837
384.796	939
384.877	1920
384.958	15375
385.039	18768
385.120	5439
385.201	2657
385.282	3212
385.363	3425
385.444	1824
385.525	6285
385.606	23029
385.687	21255
385.768	4582
385.849	4720
385.930	24750
386.011	47063
386.092	12779
386.173	2700
386.254	1613
386.335	2735
386.416	1837
386.496	10329
386.577	17827
386.658	5528
386.739	2268
386.820	4299
386.901	1839
386.981	3022
387.062	958
387.143	2680
387.224	15833
387.304	16597
387.385	6004
387.466	2475
387.547	4403
387.627	2001
387.708	5729
387.789	29443
387.869	37065
387.950	10900
388.031	1306
388.111	170
388.192	6047
388.273	9426
388.353	4252
388.434	1827
388.514	4755
388.595	27308
388.676	37229
388.756	17626
388.837	14927
388.917	9961
388.998	793
389.078	2149
389.159	1176
389.239	694
389.320	3402
389.400	803
389.480	6328
389.561	19732
389.641	9180
389.722	2567
389.802	4169
389.883	7217
389.963	23513
390.043	13478
390.124	2642
390.204	5684
390.284	18319
390.365	11822
390.445	13698
390.525	30153
390.605	25019
390.686	9316
390.766	3765
390.846	3046
390.927	507
391.007	253
391.087	3171
391.167	1779
391.247	184
391.328	2758
391.408	5231
391.488	4295
391.568	-197
391.648	1461
391.728	3132
391.808	3299
391.888	2417
391.969	9907
392.049	17941
392.129	7836
392.209	7854
392.289	21960
392.369	12303
392.449	11102
392.529	5314
392.609	4201
392.689	4765
392.769	19820
392.849	17035
392.929	12132
393.009	30073
393.089	20015
393.169	9420
393.248	29259
393.328	147273
393.408	167788
393.488	36661
393.568	9358
393.648	4948
393.728	3177
393.807	2536
393.887	3449
393.967	3705
394.047	4011
394.127	6171
394.206	12466
394.286	40994
394.366	166116
394.446	186273
394.525	53082
394.605	13644
394.685	9685
394.764	16805
394.844	27614
394.924	19482
395.003	5730
395.083	3986
395.163	4740
395.242	3178
395.322	3621
395.402	1774
395.481	5676
395.561	9820
395.640	30843
395.720	23044
395.799	34731
395.879	29586
395.958	20283
396.038	65293
396.117	211519
396.197	239577
396.276	89542
396.356	29776
396.435	18212
396.515	10683
396.594	7776
396.673	10921
396.753	37723
396.832	145752
396.912	113784
396.991	25302
397.070	7047
397.150	2810
397.229	3780
397.308	3487
397.388	7177
397.467	4640
397.546	1837
397.625	-749
397.705	4283
397.784	2360
397.863	1773
397.942	712
398.022	1629
398.101	8281
398.180	29663
398.259	15645
398.338	3806
398.417	1949
398.497	984
398.576	2304
398.655	819
398.734	923
398.813	755
398.892	7148
398.971	31182
399.050	15666
399.129	1189
399.208	422
399.287	1946
399.366	-630
399.445	657
399.524	767
399.603	104
399.682	1437
399.761	6777
399.840	30698
399.919	25751
399.998	3098
400.077	-1
400.156	-868
400.235	2579
400.313	182
400.392	162
400.471	7459
400.550	14891
400.629	2743
400.708	1667
400.786	525
400.865	6717
400.944	6052
401.023	4362
401.102	291
401.180	609
401.259	531
401.338	892
401.416	1550
401.495	976
401.574	1086
401.652	266
401.731	2009
401.810	351
401.888	615
401.967	-409
402.046	109
402.124	1480
402.203	1344
402.281	1651
402.360	997
402.438	8520
402.517	5144
402.596	1914
402.674	1215
402.753	817
402.831	382
402.910	1595
402.988	3329
403.066	14653
403.145	8831
403.223	4953
403.302	10846
403.380	8736
403.459	7327
403.537	2355
403.615	1269
403.694	-516
403.772	1466
403.850	715
403.929	-193
404.007	718
404.085	1843
404.164	848
404.242	2165
404.320	11571
404.398	37775
404.477	37911
404.555	47992
404.633	44104
404.711	30650
404.789	20619
404.868	3870
404.946	974
405.024	243
405.102	421
405.180	-8
405.258	-511
405.336	549
405.415	319
405.493	1677
405.571	2856
405.649	-521
405.727	58
405.805	2090
405.883	551
405.961	1137
406.039	1590
406.117	-475
406.195	1564
406.273	7295
406.351	34779
406.429	22633
406.507	3105
406.585	502
406.663	766
406.740	578
406.818	587
406.896	668
406.974	1590
407.052	1228
407.130	19159
407.208	30378
407.285	5947
407.363	-676
407.441	535
407.519	-766
407.596	804
407.674	4591
407.752	24754
407.830	22958
407.907	5603
407.985	887
408.063	756
408.141	761
408.218	2270
408.296	615
408.373	493
408.451	599
408.529	703
408.606	258
408.684	342
408.762	-219
408.839	-301
408.917	6
408.994	593
409.072	-943
409.149	-289
409.227	779
409.304	1444
409.382	898
409.459	-212
409.537	1190
409.614	984
409.692	555
409.769	-88
409.846	636
409.924	3211
410.001	-171
410.079	902
410.156	1223
410.233	-100
410.311	-285
410.388	97
410.465	-226
410.543	339
410.620	884
410.697	606
410.775	404
410.852	-901
410.929	564
411.006	2169
411.083	-881
411.161	2069
411.238	3372
411.315	1594
411.392	-287
411.469	1584
411.547	1252
411.624	-732
411.701	-1145
411.778	208
411.855	1252
411.932	379
412.009	-445
412.086	368
412.163	48
412.240	102
412.317	679
412.394	1614
412.471	953
412.548	77
412.625	-282
412.702	1395
412.779	1836
412.856	1453
412.933	49
413.010	477
413.087	440
413.164	7014
413.241	11988
413.318	1689
413.395	1893
413.471	1672
413.548	76
413.625	210
413.702	-537
413.779	728
413.855	-563
413.932	-947
414.009	-493
414.086	10
414.162	229
414.239	1348
414.316	6416
414.393	18044
414.469	5645
414.546	261
414.623	-136
414.699	375
414.776	1039
414.853	1205
414.929	-233
415.006	549
415.082	-353
415.159	122
415.236	-65
415.312	-13
415.389	1013
415.465	840
415.542	145
415.618	-592
415.695	495
415.771	-179
415.848	-258
415.924	705
416.000	44
416.077	1507
416.153	-1873
416.230	-437
416.306	-830
416.383	-366
416.459	46
416.535	-313
416.612	-492
416.688	-266
416.764	-476
416.841	-53
416.917	-710
416.993	398
417.069	97
417.146	701
417.222	1662
417.298	1149
417.374	-435
417.451	812
417.527	560
417.603	412
417.679	511
417.755	823
417.831	-518
417.908	175
417.984	311
418.060	-471
418.136	973
418.212	2021
418.288	928
418.364	794
418.440	119
418.516	1551
418.592	874
418.668	3458
418.744	4358
418.820	3055
418.896	330
418.972	-766
419.048	-674
419.124	2564
419.200	677
419.276	413
419.352	-401
419.428	399
419.504	404
419.579	110
419.655	-258
419.731	105
419.807	2056
419.883	5062
419.959	3577
420.034	1031
420.110	2288
420.186	10009
420.262	9088
420.337	1307
420.413	-169
420.489	-479
420.565	480
420.640	-354
420.716	1413
420.792	-1332
420.867	753
420.943	349
421.019	823
421.094	-70
421.170	213
421.245	225
421.321	315
421.397	435
421.472	4102
421.548	14556
421.623	9120
421.699	1421
421.774	1860
421.850	82
421.925	2015
422.001	2577
422.076	1644
422.152	1439
422.227	4149
422.302	5479
422.378	6668
422.453	12832
422.529	31609
422.604	94584
422.679	166029
422.755	111053
422.830	37952
422.905	15510
422.981	7855
423.056	5338
423.131	3529
423.207	2803
423.282	2169
423.357	4241
423.432	2472
423.508	2004
423.583	4710
423.658	4255
423.733	-80
423.808	1864
423.883	2036
423.959	1235
424.034	489
424.109	1305
424.184	72
424.259	252
424.334	245
424.409	84
424.484	130
424.559	-77
424.634	-490
424.709	432
424.784	745
424.859	392
424.934	345
425.009	6786
425.084	12287
425.159	4723
425.234	757
425.309	21
425.384	2594
425.459	5332
425.534	1205
425.609	593
425.683	485
425.758	533
425.833	471
425.908	675
425.983	2864
426.058	12188
426.132	4414
426.207	1030
426.282	1892
426.357	1948
426.431	214
426.506	280
426.581	87
426.655	1047
426.730	-93
426.805	300
426.879	509
426.954	-284
427.029	1699
427.103	11141
427.178	31186
427.253	14147
427.327	1011
427.402	2122
427.476	7022
427.551	3820
427.625	1491
427.700	829
427.774	183
427.849	976
427.923	-320
427.998	-34
428.072	-54
428.147	1838
428.221	9255
428.296	28757
428.370	15433
428.444	2283
428.519	1382
428.593	6185
428.667	5029
428.742	6028
428.816	5452
428.890	18962
428.965	32446
429.039	11468
429.113	6693
429.188	2307
429.262	201
429.336	1907
429.410	5541
429.485	4975
429.559	5165
429.633	4029
429.707	692
429.781	2760
429.855	20121
429.930	32927
430.004	17109
430.078	29470
430.152	25873
430.226	39634
430.300	43524
430.374	6210
430.448	3069
430.522	8009
430.596	28406
430.670	17206
430.744	31665
430.818	49497
430.892	9809
430.966	1552
431.040	458
431.114	180
431.188	-554
431.262	370
431.336	-107
431.410	3295
431.484	7406
431.557	4923
431.631	169
431.705	759
431.779	4202
431.853	24707
431.927	18868
432.000	1641
432.074	805
432.148	897
432.222	126
432.295	779
432.369	-402
432.443	625
432.516	11417
432.590	33317
432.664	12111
432.737	687
432.811	-692
432.885	-274
432.958	479
433.032	-273
433.106	-232
433.179	414
433.253	322
433.326	109
433.400	-157
433.473	516
433.547	-871
433.620	-27
433.694	966
433.767	913
433.841	-1103
433.914	80
433.988	-517
434.061	-171
434.134	-612
434.208	83
434.281	-550
434.355	-22
434.428	-343
434.501	593
434.575	-72
434.648	335
434.721	-20
434.795	-1253
434.868	-519
434.941	-1241
435.014	-953
435.088	-166
435.161	-408
435.234	802
435.307	754
435.381	4
435.454	-202
435.527	764
435.600	484
435.673	808
435.746	484
435.819	-8
435.892	-541
435.966	-88
436.039	-708
436.112	-357
436.185	-400
436.258	-206
436.331	-1121
436.404	5
436.477	-922
436.550	-841
436.623	516
436.696	-411
436.769	-813
436.842	-265
436.915	62
436.987	328
437.060	-286
437.133	-80
437.206	-844
437.279	-154
437.352	-462
437.425	-316
437.498	-239
437.570	1752
437.643	706
437.716	-74
437.789	-526
437.861	1192
437.934	3288
438.007	1357
438.080	-334
438.152	-224
438.225	2159
438.298	15217
438.370	47314
438.443	19195
438.516	3073
438.588	1013
438.661	-671
438.734	-328
438.806	-680
438.879	942
438.951	646
439.024	1530
439.096	-505
439.169	-370
439.241	-542
439.314	-493
439.386	190
439.459	884
439.531	1888
439.604	177
439.676	-226
439.749	384
439.821	-316
439.893	93
439.966	-698
440.038	78
440.110	738
440.183	-79
440.255	-222
440.327	205
440.400	6003
440.472	29723
440.544	19114
440.617	2178
440.689	1429
440.761	1828
440.833	2518
440.905	1798
440.978	-642
441.050	46
441.122	129
441.194	-547
441.266	0
441.338	132
441.411	863
441.483	8093
441.555	12728
441.627	2616
441.699	905
441.771	1877
441.843	-776
441.915	-209
441.987	-156
442.059	-535
442.131	-355
442.203	871
442.275	500
442.347	1938
442.419	1944
442.491	12217
442.563	35206
442.635	20384
442.706	9667
442.778	6657
442.850	906
442.922	-31
442.994	1212
443.066	917
443.137	1430
443.209	1055
443.281	924
443.353	4887
443.425	17318
443.496	63150
443.568	69355
443.640	28399
443.711	5452
443.783	1727
443.855	1161
443.926	599
443.998	-23
444.070	1079
444.141	732
444.213	1252
444.285	1772
444.356	1175
444.428	748
444.499	334
444.571	745
444.642	-241
444.714	-259
444.785	2031
444.857	1685
444.928	5771
445.000	2891
445.071	3906
445.143	3528
445.214	3271
445.285	4498
445.357	14784
445.428	43474
445.500	103913
445.571	73730
445.642	38934
445.714	16555
445.785	11811
445.856	3457
445.928	2195
445.999	1600
446.070	1456
446.141	850
446.213	1687
446.284	699
446.355	1332
446.426	258
446.497	-76
446.569	720
446.640	2701
446.711	1301
446.782	22
446.853	754
446.924	840
446.995	781
447.066	617
447.138	1360
447.209	1468
447.280	-960
447.351	-197
447.422	-969
447.493	692
447.564	421
447.635	579
447.706	-197
447.777	-581
447.847	-241
447.918	-602
447.989	497
448.060	2125
448.131	3118
448.202	3071
448.273	2605
448.344	424
448.414	599
448.485	101
448.556	461
448.627	307
448.698	-6
448.768	-291
448.839	-235
448.910	607
448.981	1183
449.051	610
449.122	-890
449.193	-540
449.263	353
449.334	-174
449.405	106
449.475	1699
449.546	1830
449.616	2022
449.687	1888
449.758	-8
449.828	-764
449.899	40
449.969	-202
450.040	-470
450.110	-89
450.181	474
450.251	-643
450.322	348
450.392	-96
450.463	-101
450.533	-442
450.604	1047
450.674	-767
450.744	537
450.815	-479
450.885	242
450.955	946
451.026	172
451.096	-604
451.166	490
451.237	2275
451.307	7666
451.377	1522
451.447	-518
451.518	-144
451.588	508
451.658	-55
451.728	1038
451.799	7303
451.869	8605
451.939	1390
452.009	390
452.079	102
452.149	1025
452.219	2276
452.289	7915
452.360	6180
452.430	1881
452.500	379
452.570	1337
452.640	2382
452.710	7104
452.780	11139
452.850	7242
452.920	4440
452.990	1699
453.060	1230
453.129	1036
453.199	2387
453.269	8862
453.339	20753
453.409	32694
453.479	31102
453.549	45829
453.619	48971
453.688	17871
453.758	2834
453.828	1377
453.898	509
453.968	987
454.037	526
454.087	221
454.107	90
454.168	41
454.177	26
454.247	338
454.249	339
454.316	178
454.330	282
454.386	662
454.411	1914
454.456	3963
454.492	5040
454.525	6042
454.574	3110
454.595	1837
454.655	897
454.665	746
454.734	483
454.736	523
454.804	1773
454.817	2755
454.873	6768
454.898	7182
454.943	7907
454.979	4782
455.013	1988
455.060	1061
455.082	660
455.141	1164
455.152	1258
455.221	5500
455.222	5576
455.291	10963
455.303	11066
455.360	11206
455.384	17473
455.430	28474
455.465	21459
455.499	15016
455.546	9854
455.569	7383
455.627	4912
455.638	4482
455.707	343
455.708	348
455.777	800
455.789	713
455.846	208
455.869	399
455.916	773
455.950	590
455.985	371
456.031	1172
456.054	1596
456.112	694
456.124	503
456.193	62
456.193	54
456.262	92
456.274	284
456.332	1462
456.355	1202
456.401	574
456.436	154
456.470	-430
456.516	-258
456.540	-84
456.597	-106
456.609	-109
456.678	61
456.678	54
456.747	514
456.759	338
456.817	-336
456.840	-152
456.886	-25
456.920	284
456.955	738
457.001	396
457.024	137
457.082	168
457.093	215
457.162	1097
457.163	1103
457.232	563
457.243	557
457.301	619
457.324	422
457.370	-37
457.405	463
457.439	1032
457.485	769
457.508	595
457.566	443
457.577	466
457.646	1566
457.647	1577
457.715	2169
457.727	2268
457.784	3102
457.808	4209
457.853	5814
457.889	7446
457.922	8417
457.969	6591
457.991	6351
458.050	5450
458.060	5332
458.129	9556
458.130	9680
458.198	11952
458.211	11180
458.267	8510
458.292	6184
458.336	2855
458.372	2671
458.405	3303
458.453	4326
458.474	4955
458.533	8976
458.543	9382
458.611	16840
458.614	16998
458.680	16005
458.694	13530
458.749	7048
458.775	5220
458.818	2469
458.855	1766
458.887	1181
458.936	1161
458.955	1149
459.016	1062
459.024	1125
459.093	1946
459.097	1934
459.162	897
459.177	949
459.230	1308
459.257	1303
459.299	1262
459.338	1285
459.368	1396
459.418	1587
459.437	1432
459.499	931
459.505	980
459.574	1081
459.579	1095
459.643	871
459.659	909
459.711	863
459.740	840
459.780	761
459.820	821
459.849	1195
459.900	1331
459.917	1228
459.981	1246
459.986	1229
460.054	689
460.061	736
460.123	1496
460.141	1494
460.191	1541
460.222	1728
460.260	2009
460.302	2296
460.328	2360
460.382	2603
460.397	2642
460.462	2006
460.465	2085
460.534	4597
460.543	4908
460.602	12803
460.623	16381
460.671	26517
460.703	38790
460.739	39166
460.783	33555
460.808	31524
460.864	9768
460.876	6735
460.944	2360
460.945	2311
461.013	1528
461.024	1477
461.081	1421
461.104	1634
461.150	1816
461.184	1452
461.218	1125
461.264	1053
461.286	1130
461.345	880
461.355	840
461.423	1597
461.425	1588
461.491	909
461.505	983
461.559	2324
461.585	2586
461.628	3395
461.665	4989
461.696	5527
461.745	7428
461.764	7502
461.825	3731
461.832	3489
461.901	1330
461.905	1319
461.969	1143
461.985	972
462.037	1019
462.065	1257
462.105	1375
462.145	1384
462.173	1824
462.225	2837
462.241	3101
462.305	4752
462.310	4700
462.378	3427
462.385	3093
462.446	1710
462.465	1572
462.514	1231
462.545	1072
462.582	1114
462.625	1458
462.650	1445
462.705	937
462.718	1061
462.785	2025
462.786	2018
462.854	1060
462.865	1010
462.922	2182
462.945	2763
462.990	2715
463.025	2104
463.058	1881
463.104	1732
463.126	1626
463.184	1568
463.194	1635
463.262	1596
463.264	1626
463.330	1411
463.344	1280
463.398	2113
463.424	2379
463.466	1828
463.504	1633
463.533	1680
463.583	1270
463.601	1237
463.663	1619
463.669	1647
463.737	1643
463.743	1635
463.805	2791
463.823	3265
463.873	5217
463.903	6518
463.940	6431
463.982	6683
464.008	6218
464.062	3538
464.076	3127
464.142	1148
464.144	1129
464.211	1449
464.221	1460
464.279	1984
464.301	2192
464.347	1872
464.381	1630
464.414	1378
464.461	1268
464.482	1772
464.540	2991
464.550	2799
464.617	1124
464.620	1071
464.685	1820
464.699	1983
464.753	2952
464.779	3477
464.820	3791
464.859	4089
464.888	3691
464.938	2925
464.956	3246
465.018	4192
465.023	4112
465.091	3266
465.098	3134
465.158	2782
465.177	2817
465.226	2728
465.257	2511
465.293	3110
465.336	3975
465.361	3983
465.416	3848
465.428	4075
465.495	5309
465.496	5325
465.563	6756
465.575	7048
465.631	8155
465.654	8774
465.698	6663
465.734	4243
465.765	3715
465.813	3030
465.833	2754
465.893	2290
465.900	2351
465.968	2717
465.972	2751
466.035	2506
466.052	2400
466.102	2617
466.131	2836
466.170	2651
466.210	2292
466.237	2382
466.290	2637
466.304	2726
466.369	3101
466.372	3097
466.439	2888
466.449	2834
466.506	3368
466.528	3612
466.573	4435
466.607	5022
466.641	6472
466.687	8516
466.708	9367
466.766	11852
466.775	10977
466.842	4205
466.845	3875
466.909	2882
466.925	2716
466.977	3096
467.004	3310
467.044	3661
467.083	4043
467.111	4048
467.163	4003
467.178	4279
467.242	5451
467.245	5414
467.312	4554
467.321	4440
467.379	4424
467.400	4407
467.446	4117
467.480	3902
467.559	4392
467.638	3794
467.717	3490
467.796	3614
467.875	4347
467.955	3652
468.034	6430
468.113	10994
468.192	15787
468.271	5064
468.350	4182
468.429	4981
468.508	5416
468.588	3868
468.667	3998
468.746	4027
468.825	3641
468.904	3265
468.983	4043
469.062	5292
469.141	6741
469.220	3062
469.299	3880
469.378	3357
469.456	5681
469.535	4878
469.614	4436
469.693	3836
469.772	5621
469.851	5295
469.930	5142
470.009	4132
470.088	4379
470.166	3620
470.245	4287
470.324	3976
470.403	3842
470.482	3921
470.560	3984
470.639	3137
470.718	3733
470.797	3785
470.875	4701
470.954	4241
471.033	4593
471.111	2916
471.190	3932
471.269	2252
471.347	2844
471.426	3771
471.505	4092
471.583	4509
471.662	4765
471.740	3209
471.819	3569
471.898	3486
471.976	3336
472.055	4005
472.133	4329
472.212	4626
472.290	4135
472.369	3107
472.447	3589
472.526	3105
472.604	4027
472.683	2392
472.761	3167
472.839	3691
472.918	3986
472.996	2767
473.075	4069
473.153	3637
473.231	3789
473.310	3207
473.388	3363
473.466	3797
473.545	3583
473.623	4969
473.701	3922
473.780	2886
473.858	2164
473.936	3728
474.014	3137
474.093	2806
474.171	4806
474.249	6520
474.327	4841
474.405	2399
474.484	2635
474.562	2596
474.640	2537
474.718	3660
474.796	2227
474.874	3015
474.952	3007
475.030	3156
475.108	2649
475.187	2826
475.265	3297
475.343	3196
475.421	4172
475.499	2063
475.577	3466
475.655	4178
475.733	5412
475.811	8410
475.889	8607
475.966	5669
476.044	3200
476.122	3349
476.200	2782
476.278	2555
476.356	2319
476.434	3135
476.512	2384
476.590	3782
476.667	3808
476.745	2357
476.823	2593
476.901	3435
476.979	2572
477.056	2823
477.134	3413
477.212	3378
477.290	2537
477.367	3008
477.445	2988
477.523	1270
477.601	2664
477.678	2429
477.756	3075
477.834	4248
477.911	2260
477.989	2565
478.066	2411
478.144	2273
478.222	2718
478.299	2499
478.377	3256
478.454	2549
478.532	2490
478.609	2301
478.687	2960
478.764	1770
478.842	3277
478.919	2370
478.997	2951
479.074	1541
479.152	2961
479.229	3373
479.307	3087
479.384	2205
479.461	3018
479.539	2438
479.616	2966
479.694	1870
479.771	2132
479.848	1997
479.926	1746
480.003	3872
480.080	2652
480.157	2441
480.235	2126
480.312	2243
480.389	2054
480.467	3268
480.544	3277
480.621	3046
480.698	2758
480.775	3024
480.853	3282
480.930	2024
481.007	2449
481.084	3058
481.161	5106
481.238	3199
481.315	2522
481.392	1780
481.470	2851
481.547	2367
481.624	2761
481.701	2558
481.778	2156
481.855	1813
481.932	4037
482.009	5207
482.086	3424
482.163	2342
482.240	2381
482.317	2580
482.393	3591
482.470	2465
482.547	2805
482.624	2060
482.701	2286
482.778	1608
482.855	1521
482.932	1472
483.009	2475
483.085	2926
483.162	3019
483.239	2509
483.316	1412
483.393	2469
483.469	2174
483.546	1950
483.623	2232
483.699	2153
483.776	1840
483.853	1945
483.930	3307
484.006	7112
484.083	14378
484.160	10042
484.236	17410
484.313	12255
484.389	8720
484.466	8323
484.543	7088
484.619	8216
484.696	8804
484.772	8133
484.849	8540
484.925	6170
485.002	7335
485.078	7220
485.155	7432
485.231	5758
485.308	5970
485.384	7233
485.461	7565
485.537	9071
485.614	11673
485.690	6668
485.766	6234
485.843	5707
485.919	7219
485.995	6627
486.072	6215
486.148	4749
486.224	5574
486.301	5702
486.377	6578
486.453	5323
486.530	7129
486.606	9462
486.682	10467
486.758	10202
486.835	11351
486.911	8639
486.987	12473
487.063	12649
487.139	12484
487.215	11799
487.292	8863
487.368	6861
487.444	7640
487.520	8740
487.596	7874
487.672	13089
487.748	27243
487.824	37436
487.900	14260
487.976	7587
488.052	6256
488.128	8521
488.204	5902
488.280	6094
488.356	6875
488.432	10317
488.508	14060
488.584	6142
488.660	5604
488.736	5804
488.812	5182
488.888	8050
488.964	7085
489.039	11303
489.115	16540
489.191	10851
489.267	6154
489.343	5095
489.418	4980
489.494	5154
489.570	3254
489.646	5428
489.722	4825
489.797	5009
489.873	6824
489.949	11324
490.024	9599
490.100	4323
490.176	4425
490.251	4249
490.327	5716
490.403	4582
490.478	4475
490.554	4392
490.629	4152
490.705	3937
490.781	5327
490.856	3212
490.932	4566
491.007	4309
491.083	4088
491.158	3846
491.234	4892
491.309	8574
491.385	7516
491.460	3191
491.536	4385
491.611	3135
491.686	4557
491.762	5093
491.837	7434
491.913	11476
491.988	15656
492.063	18237
492.139	7495
492.214	4940
492.289	3525
492.365	2984
492.440	3828
492.515	3392
492.590	4048
492.666	2708
492.741	4273
492.816	4920
492.891	2962
492.967	3086
493.042	3191
493.117	2009
493.192	3212
493.267	7451
493.342	25959
493.418	34328
493.493	5798
493.568	3235
493.643	3338
493.718	3215
493.793	4062
493.868	3576
493.943	3497
494.018	2995
494.093	2095
494.168	3099
494.243	2805
494.318	2112
494.393	2334
494.468	1678
494.543	2443
494.618	2533
494.693	2552
494.768	2061
494.842	2335
494.917	2024
494.992	3085
495.067	1778
495.142	1884
495.217	2612
495.292	2317
495.366	2381
495.441	3250
495.516	4156
495.591	4915
495.665	14391
495.740	31152
495.815	11440
495.890	3841
495.964	1317
496.039	4700
496.114	2839
496.188	4490
496.263	3505
496.338	2861
496.412	2094
496.487	3883
496.561	3000
496.636	3389
496.710	3201
496.785	3137
496.860	3637
496.934	2672
497.009	3359
497.083	2821
497.158	2421
497.232	3287
497.307	3825
497.381	3171
497.455	3915
497.530	4749
497.604	2531
497.679	2727
497.753	5102
497.827	5724
497.902	4373
497.976	7207
498.050	20258
498.125	74589
498.199	68885
498.273	6758
498.348	3314
498.422	4264
498.496	3802
498.570	4170
498.645	2808
498.719	2703
498.793	3547
498.867	5955
498.941	8170
499.016	31295
499.090	77868
499.164	25137
499.238	3156
499.312	3383
499.386	3325
499.460	3546
499.534	2992
499.609	3764
499.683	5480
499.757	6043
499.831	13092
499.905	51219
499.979	44309
500.053	6606
500.127	5842
500.201	4509
500.275	2648
500.349	2994
500.422	2607
500.496	4388
500.570	9727
500.644	27765
500.718	50127
500.792	10538
500.866	3947
500.940	3542
501.013	4120
501.087	3651
501.161	4861
501.235	6226
501.309	17030
501.382	44430
501.456	36456
501.530	7834
501.603	12874
501.677	5573
501.751	1081
501.825	4929
501.898	5766
501.972	16755
502.046	9808
502.119	2531
502.193	8541
502.266	18079
502.340	7807
502.413	8512
502.487	15738
502.561	7404
502.634	3802
502.708	2289
502.781	519
502.855	2681
502.928	851
503.002	2048
503.075	1000
503.149	1509
503.222	1642
503.295	2698
503.369	2133
503.442	3398
503.516	12573
503.589	30527
503.662	18265
503.736	6316
503.809	14636
503.882	10622
503.956	19522
504.029	16992
504.102	15209
504.175	18140
504.249	4988
504.322	4076
504.395	3177
504.468	2450
504.542	1096
504.615	936
504.688	1451
504.761	395
504.834	3086
504.907	2611
504.980	3716
505.053	2071
505.127	895
505.200	4895
505.273	2349
505.346	1612
505.419	-81
505.492	2130
505.565	1070
505.638	1837
505.711	893
505.784	655
505.857	414
505.930	3610
506.003	-213
506.076	3185
506.149	1210
506.221	1444
506.294	4469
506.367	6220
506.440	24050
506.513	12039
506.586	2637
506.659	1290
506.731	1492
506.804	2486
506.877	944
506.950	1994
507.022	1632
507.095	372
507.168	1902
507.241	1481
507.313	1095
507.386	58
507.459	2237
507.531	850
507.604	710
507.677	2002
507.749	324
507.822	2628
507.894	3612
507.967	6095
508.040	2588
508.112	4113
508.185	3625
508.257	1961
508.330	4059
508.402	2504
508.475	2278
508.547	3461
508.620	2746
508.692	3233
508.765	2470
508.837	1460
508.909	1767
508.982	2107
509.054	2300
509.127	1460
509.199	1444
509.271	584
509.344	1220
509.416	2141
509.488	1714
509.560	2676
509.633	1772
509.705	1976
509.777	2322
509.849	3632
509.922	1064
509.994	1866
510.066	3209
510.138	1915
510.210	7354
510.283	4432
510.355	3847
510.427	3257
510.499	3980
510.571	3494
510.643	2076
510.715	4746
510.787	1813
510.859	4065
510.931	2634
511.003	4148
511.076	4160
511.148	1977
511.219	1717
511.291	4281
511.363	4570
511.435	1761
511.507	790
511.579	3295
511.651	2861
511.723	2188
511.795	2520
511.867	1750
511.939	2218
512.010	3618
512.082	3958
512.154	1578
512.226	2447
512.298	5125
512.369	5189
512.441	5598
512.513	3928
512.585	2560
512.656	3641
512.728	3472
512.800	2705
512.871	2946
512.943	2901
513.015	1603
513.086	2797
513.158	2328
513.230	1458
513.301	3061
513.373	3935
513.444	2212
513.516	2032
513.588	2629
513.659	2338
513.731	2433
513.802	1479
513.874	6402
513.945	6225
514.016	1572
514.088	2213
514.159	2084
514.231	3071
514.302	5317
514.374	3331
514.445	2928
514.516	6607
514.588	3357
514.659	2537
514.730	4996
514.802	3839
514.873	1227
514.944	4439
515.016	3055
515.087	2087
515.158	3409
515.229	5288
515.301	1686
515.372	3462
515.443	1019
515.514	2222
515.585	1502
515.656	3099
515.728	2794
515.799	1411
515.870	2231
515.941	2017
516.012	1024
516.083	4020
516.154	2591
516.225	4311
516.296	4244
516.367	3204
516.438	3141
516.509	3313
516.580	5115
516.651	14870
516.722	43081
516.793	18741
516.864	5622
516.935	5743
517.006	5878
517.077	6688
517.148	15711
517.219	47972
517.289	67303
517.360	28459
517.431	10653
517.502	3013
517.573	4124
517.643	3489
517.714	3441
517.785	4025
517.856	2927
517.926	4997
517.997	6037
518.068	4743
518.138	7742
518.209	8653
518.280	34047
518.350	111268
518.421	37277
518.492	7198
518.562	4682
518.633	4668
518.703	3811
518.774	10866
518.845	22994
518.915	19342
518.986	7066
519.056	4928
519.127	7330
519.197	11502
519.268	26279
519.338	18241
519.408	4383
519.479	3930
519.549	2645
519.620	3574
519.690	2142
519.760	2350
519.831	2703
519.901	1928
519.971	1967
520.042	1619
520.112	2705
520.182	3971
520.253	3000
520.323	1888
520.393	2069
520.463	5285
520.534	1799
520.604	7900
520.674	4007
520.744	1884
520.814	5572
520.885	6103
520.955	9428
521.025	30901
521.095	10901
521.165	3491
521.235	1859
521.305	547
521.375	2358
521.445	2648
521.515	2294
521.585	3388
521.655	984
521.725	3332
521.795	3518
521.865	-11
521.935	4805
522.005	1491
522.075	2074
522.145	2837
522.215	1513
522.285	3153
522.355	3545
522.424	7978
522.494	5729
522.564	3599
522.634	6095
522.704	15639
522.774	5085
522.843	2070
522.913	1746
522.983	2915
523.053	1062
523.122	2108
523.192	2353
523.262	6838
523.331	6543
523.401	3293
523.471	1708
523.540	1739
523.610	1102
523.680	2224
523.749	1803
523.819	2393
523.888	813
523.958	1179
524.027	1481
524.097	1974
524.166	1844
524.236	774
524.305	3195
524.375	777
524.444	488
524.514	3372
524.583	1825
524.653	1556
524.722	2325
524.791	766
524.861	2600
524.930	-40
524.999	815
525.069	2592
525.138	1676
525.207	2298
525.277	2801
525.346	817
525.415	2826
525.484	1672
525.554	1121
525.623	2161
525.692	2958
525.761	1799
525.830	3592
525.900	3643
525.969	4875
526.038	7899
526.107	15563
526.176	46424
526.245	30486
526.314	11761
526.383	25853
526.452	28439
526.522	56914
526.591	44232
526.660	11211
526.729	6045
526.797	8834
526.867	15337
526.935	64421
527.004	119349
527.073	52127
527.142	4701
527.211	3175
527.280	3438
527.349	2566
527.418	97
527.487	2631
527.555	-733
527.624	229
527.693	173
527.762	2654
527.831	668
527.899	1712
527.968	2029
528.037	-246
528.106	2099
528.174	1799
528.243	2629
528.312	2921
528.380	3608
528.449	995
528.518	1691
528.586	-449
528.655	1192
528.723	611
528.792	1563
528.861	770
528.929	-408
528.998	2102
529.066	591
529.135	2285
529.203	180
529.272	876
529.340	2263
529.409	3530
529.477	1219
529.545	771
529.614	3805
529.682	2117
529.751	2939
529.819	4469
529.887	2901
529.956	1423
530.024	2972
530.092	1292
530.161	3455
530.229	3585
530.297	1552
530.365	3217
530.434	2747
530.502	2164
530.570	2131
530.638	668
530.707	2464
530.775	3642
530.843	1164
530.911	2037
530.979	2691
531.047	2313
531.115	2603
531.183	1037
531.252	2468
531.320	2013
531.388	1378
531.456	2135
531.524	197
531.592	3158
531.660	4244
531.728	2128
531.796	702
531.864	2339
531.932	2498
532.000	1955
532.067	2644
532.135	3326
532.203	4664
532.271	2940
532.339	5650
532.407	8678
532.475	4955
532.542	3834
532.610	4566
532.678	4483
532.746	17049
532.814	34901
532.881	9399
532.949	3446
533.017	3190
533.084	2873
533.152	3045
533.220	2714
533.287	2218
533.355	3150
533.423	3838
533.490	2384
533.558	2103
533.625	2765
533.693	2475
533.761	2187
533.828	2740
533.896	1943
533.963	5471
534.031	6033
534.098	6084
534.166	3397
534.233	2851
534.300	4042
534.368	3470
534.435	2790
534.503	2951
534.570	3423
534.637	2017
534.705	3483
534.772	4073
534.840	5352
534.907	23112
534.974	23433
535.041	3607
535.109	3198
535.176	1643
535.243	2625
535.310	2429
535.378	1523
535.445	3126
535.512	1752
535.579	2895
535.646	1055
535.714	2538
535.781	3587
535.848	2673
535.915	3744
535.982	2871
536.049	2852
536.116	3659
536.183	2165
536.250	1816
536.317	2458
536.384	2335
536.451	3513
536.518	2691
536.585	1237
536.652	4668
536.719	4723
536.786	1343
536.853	2359
536.920	3877
536.987	5280
537.053	4694
537.120	18850
537.187	14240
537.254	1537
537.321	1506
537.388	2877
537.454	602
537.521	1638
537.588	869
537.654	3699
537.721	1580
537.788	3288
537.855	1634
537.921	2336
537.988	1107
538.055	3201
538.121	565
538.188	2465
538.254	2074
538.321	4242
538.388	2774
538.454	1962
538.521	2439
538.587	1274
538.654	1486
538.720	2304
538.787	1692
538.853	1608
538.920	2023
538.986	2175
539.053	1964
539.119	2348
539.185	1234
539.252	3326
539.318	2749
539.385	3261
539.451	859
539.517	2544
539.583	2519
539.650	4907
539.716	11671
539.782	4578
539.849	1327
539.915	1915
539.981	1487
540.047	1969
540.114	2160
540.180	3548
540.246	1312
540.312	1387
540.378	3965
540.444	5334
540.510	5914
540.576	14550
540.643	4423
540.709	1081
540.775	2063
540.841	1728
540.907	3297
540.973	4698
541.039	3350
541.105	3439
541.171	1067
541.237	316
541.303	1758
541.369	4579
541.435	2441
541.500	4917
541.566	1483
541.632	1338
541.698	1433
541.764	2796
541.830	1651
541.896	699
541.961	2547
542.027	1068
542.093	1323
542.159	1794
542.224	471
542.290	4272
542.356	3150
542.421	5278
542.487	3146
542.553	1695
542.618	2267
542.684	2337
542.750	1869
542.815	4477
542.881	4097
542.947	11822
543.012	8530
543.078	1736
543.143	848
543.209	2820
543.274	1461
543.340	2223
543.405	5613
543.471	7194
543.536	2070
543.602	2310
543.667	485
543.732	2772
543.798	292
543.863	1964
543.928	1436
543.994	862
544.059	2121
544.124	2174
544.190	1212
544.255	2405
544.320	1848
544.386	528
544.451	3035
544.516	2682
544.581	1634
544.646	8493
544.712	12227
544.777	3352
544.842	1325
544.907	2356
544.972	2373
545.037	2024
545.102	3037
545.168	2503
545.233	2472
545.298	3874
545.363	2920
545.428	4379
545.493	5665
545.558	9239
545.623	4386
545.688	2027
545.753	2400
545.818	1777
545.883	3304
545.947	2501
546.012	3090
546.077	3259
546.142	3579
546.207	2181
546.272	3376
546.337	3842
546.401	3825
546.466	3732
546.531	2043
546.596	4169
546.661	3616
546.725	4248
546.790	2463
546.855	4072
546.919	3113
546.984	4924
547.049	4319
547.113	5511
547.178	3707
547.243	6022
547.307	6695
547.372	7562
547.436	7655
547.501	7248
547.565	7778
547.630	8798
547.695	7663
547.759	8176
547.823	6512
547.888	7663
547.952	7267
548.017	8315
548.081	9062
548.146	8602
548.210	8724
548.274	7677
548.339	7893
548.403	7686
548.468	6059
548.532	7621
548.596	7951
548.660	7218
548.725	7728
548.789	8286
548.853	9301
548.917	8976
548.982	9110
549.046	7964
549.110	6317
549.174	6941
549.238	7134
549.303	8011
549.367	9491
549.431	7762
549.495	7121
549.559	8130
549.623	8523
549.687	10808
549.751	11121
549.815	10927
549.879	12158
549.943	10557
550.007	11193
550.071	11412
550.135	11131
550.199	9644
550.263	10019
550.327	10303
550.391	10992
550.455	10446
550.519	11821
550.582	12260
550.646	14066
550.710	13511
550.774	12808
550.838	13105
550.901	13896
550.965	15122
551.029	14695
551.093	17654
551.156	18621
551.220	23679
551.284	25816
551.347	18455
551.411	21508
551.475	21087
551.538	14280
551.602	13106
551.666	12149
551.729	10935
551.793	11844
551.856	11924
551.920	10986
551.983	11895
552.047	11010
552.110	11227
552.174	12158
552.237	11184
552.301	10779
552.364	10687
552.428	10766
552.491	9979
552.554	11461
552.618	11367
552.681	11478
552.745	11091
552.808	12323
552.871	13528
552.934	12155
552.998	11167
553.061	10794
553.124	11356
553.187	10508
553.251	11676
553.314	12235
553.377	13626
553.440	18168
553.503	35600
553.567	49249
553.630	16325
553.693	13406
553.756	12684
553.819	11398
553.882	11453
553.945	10828
554.008	11584
554.071	10765
554.134	12323
554.197	10416
554.260	11159
554.323	11380
554.386	10663
554.449	11056
554.512	11802
554.575	10769
554.638	11363
554.701	10175
554.764	10983
554.827	10560
554.889	10270
554.952	8907
555.015	9052
555.078	9122
555.141	9892
555.203	8617
555.266	9554
555.329	9586
555.391	9415
555.454	9808
555.517	9062
555.580	8094
555.642	7629
555.705	7533
555.768	8238
555.830	8353
555.893	8071
555.955	7254
556.018	8358
556.080	6721
556.143	7923
556.206	7341
556.268	7398
556.330	7384
556.393	7987
556.455	7404
556.518	8890
556.580	8323
556.643	6341
556.705	6532
556.767	5513
556.830	7576
556.892	6933
556.955	8305
557.017	8052
557.079	6869
557.142	6203
557.204	6294
557.266	9767
557.328	7170
557.391	5156
557.453	5288
557.515	6398
557.577	6413
557.639	5976
557.701	5463
557.764	5367
557.826	6106
557.888	7353
557.950	7330
558.012	8266
558.074	10888
558.136	23239
558.198	44719
558.260	16104
558.322	6776
558.384	8957
558.446	8824
558.508	11101
558.570	13298
558.632	17399
558.694	24765
558.756	37199
558.818	98445
558.880	191501
558.942	59409
559.003	50553
559.065	22831
559.127	11101
559.189	11426
559.251	14701
559.312	22409
559.374	50617
559.436	132099
559.498	55906
559.559	12339
559.621	11239
559.683	16359
559.744	26871
559.806	70450
559.868	87822
559.929	17857
559.991	15160
560.052	20858
560.114	50000
560.176	30570
560.237	31373
560.299	41966
560.360	10539
560.422	6050
560.483	5869
560.545	4471
560.606	4073
560.667	4058
560.729	3554
560.790	4464
560.852	4368
560.913	4520
560.974	4059
561.036	4093
561.097	4953
561.158	4269
561.220	4260
561.281	4306
561.342	4167
561.403	5788
561.465	5504
561.526	11078
561.587	12704
561.648	4364
561.709	3852
561.771	4619
561.832	4424
561.893	3816
561.954	5124
562.015	4261
562.076	4804
562.137	3955
562.198	4487
562.259	3998
562.320	4032
562.381	4997
562.442	5746
562.503	3968
562.564	4428
562.625	4493
562.686	4667
562.747	4814
562.808	4343
562.869	4123
562.930	5945
562.991	4328
563.051	4221
563.112	4285
563.173	4555
563.234	3874
563.294	3740
563.355	3159
563.416	4523
563.477	4375
563.537	3969
563.598	3960
563.659	5126
563.720	3416
563.780	4587
563.841	4154
563.901	3832
563.962	4431
564.023	4138
564.083	4604
564.144	4931
564.204	3504
564.265	3992
564.325	5165
564.386	8873
564.446	7556
564.507	4924
564.567	3759
564.628	4642
564.688	4536
564.749	3822
564.809	5545
564.869	5427
564.930	3819
564.990	4852
565.050	3493
565.111	4768
565.171	3846
565.231	4219
565.292	5592
565.352	3799
565.412	4636
565.472	4573
565.532	4568
565.593	3865
565.653	3536
565.713	3790
565.773	4960
565.833	5694
565.893	6462
565.953	4593
566.013	4808
566.074	5430
566.134	6215
566.194	8216
566.254	8269
566.314	6358
566.374	4186
566.434	5236
566.494	4764
566.554	4093
566.614	4024
566.673	4766
566.733	5389
566.793	5254
566.853	5915
566.913	5034
566.973	5249
567.033	5663
567.092	4779
567.152	5713
567.212	4344
567.272	5168
567.331	5580
567.391	5937
567.451	6092
567.511	7035
567.570	7009
567.630	5092
567.690	4736
567.749	5490
567.809	5060
567.868	5370
567.928	5170
567.988	6121
568.047	5994
568.107	5449
568.166	4245
568.226	6470
568.285	7063
568.345	5773
568.404	6871
568.464	6481
568.523	5771
568.582	6446
568.642	6125
568.701	6000
568.761	7514
568.820	8090
568.879	8740
568.939	9371
568.998	6779
569.057	6356
569.116	6014
569.176	6035
569.235	5152
569.294	5712
569.353	4470
569.413	5458
569.472	4636
569.531	5315
569.590	4330
569.649	4695
569.708	4957
569.767	5451
569.827	5700
569.886	5328
569.945	4606
570.004	5030
570.063	4862
570.122	5096
570.181	6164
570.240	6348
570.299	6725
570.358	6217
570.417	4425
570.475	5631
570.534	6256
570.593	5293
570.652	5363
570.711	5383
570.770	4578
570.829	6264
570.887	5312
570.946	6428
571.005	5422
571.064	5972
571.122	5603
571.181	6166
571.240	5471
571.299	4803
571.357	5544
571.416	6247
571.475	6986
571.533	6663
571.592	5721
571.650	5852
571.709	4927
571.768	5223
571.826	5987
571.885	5387
571.943	4782
572.002	5192
572.060	5705
572.119	4918
572.177	5237
572.236	5737
572.294	5102
572.352	5429
572.411	5515
572.469	5725
572.528	4957
572.586	5597
572.644	5552
572.703	7273
572.761	4951
572.819	5082
572.877	5192
572.936	3795
572.994	4572
573.052	5209
573.110	5219
573.169	5321
573.227	4297
573.285	4980
573.343	4388
573.401	4485
573.459	6021
573.517	5359
573.576	5510
573.634	5941
573.692	6488
573.750	5394
573.808	5034
573.866	6375
573.924	6333
573.982	6345
574.040	5282
574.098	6071
574.155	5423
574.213	5105
574.271	4516
574.329	4712
574.387	4558
574.445	4602
574.503	4180
574.560	4714
574.618	4657
574.676	4279
574.734	5203
574.792	5288
574.849	4399
574.907	4497
574.965	4095
575.022	4345
575.080	4987
575.138	4816
575.195	4719
575.253	5908
575.311	5821
575.368	4907
575.426	4576
575.483	5724
575.541	4743
575.598	4730
575.656	5547
575.713	5607
575.771	4630
575.828	5247
575.886	4921
575.943	5186
576.001	5139
576.058	4922
576.115	4858
576.173	5801
576.230	6543
576.287	7645
576.345	6784
576.402	6362
576.459	5126
576.517	6142
576.574	7201
576.631	6207
576.688	5236
576.746	5646
576.803	5230
576.860	4911
576.917	5843
576.974	6089
577.031	5012
577.089	5409
577.146	5226
577.203	6631
577.260	6312
577.317	6562
577.374	7108
577.431	5965
577.488	5599
577.545	5554
577.602	6491
577.659	6838
577.716	6567
577.773	8107
577.830	6669
577.886	6820
577.943	6582
578.000	7026
578.057	7925
578.114	9316
578.171	10031
578.227	12110
578.284	12547
578.341	12251
578.398	10141
578.454	9560
578.511	9283
578.568	8415
578.625	6969
578.681	7540
578.738	7111
578.794	6547
578.851	6876
578.908	6400
578.964	6661
579.021	7693
579.077	5657
579.134	7180
579.190	6093
579.247	6428
579.303	5015
579.360	6371
579.416	6149
579.473	6338
579.529	7137
579.586	5849
579.642	6911
579.698	6658
579.755	6984
579.811	7891
579.867	8599
579.924	8218
579.980	9484
580.036	11753
580.093	13538
580.149	18590
580.205	21672
580.261	19526
580.317	16065
580.374	14416
580.430	13656
580.486	11528
580.542	10477
580.598	9893
580.619	9516
580.654	8852
580.692	8786
580.710	8742
580.765	8451
580.767	8430
580.823	9582
580.838	9237
580.879	8300
580.911	8822
580.935	9188
580.984	8889
580.991	8838
581.047	9747
581.057	9691
581.103	9426
581.130	9996
581.159	10590
581.203	11976
581.215	12271
581.270	10442
581.276	10547
581.326	11460
581.349	11379
581.382	11146
581.422	10927
581.438	10853
581.494	10414
581.494	10427
581.550	10065
581.567	10187
581.606	10425
581.640	10241
581.661	10098
581.713	10575
581.717	10615
581.773	9438
581.786	9839
581.829	10914
581.859	11004
581.885	11169
581.932	10502
581.940	10339
581.996	11485
582.004	11365
582.052	10643
582.077	10669
582.107	10686
582.150	11371
582.163	11562
582.219	11992
582.223	11965
582.274	11590
582.296	11657
582.330	11627
582.368	12093
582.386	12366
582.441	12891
582.441	12881
582.497	13525
582.514	14070
582.552	15461
582.587	15448
582.608	15201
582.659	14841
582.663	14806
582.719	14710
582.732	14791
582.774	15218
582.805	15203
582.830	15195
582.877	15784
582.885	15936
582.941	17427
582.950	17626
582.996	18462
583.023	19633
583.052	21575
583.095	23585
583.107	24040
583.162	27204
583.168	27355
583.218	27949
583.240	28150
583.273	27405
583.313	26019
583.328	25444
583.384	23323
583.385	23244
583.439	21117
583.458	20394
583.494	19566
583.531	19660
583.549	19682
583.603	19008
583.605	18994
583.660	18601
583.676	18492
583.715	18448
583.748	18579
583.770	18677
583.820	19595
583.825	19683
583.881	19117
583.893	18904
583.936	18275
583.965	18715
583.991	19040
584.038	19057
584.046	19142
584.101	18578
584.110	18879
584.156	20366
584.183	20026
584.211	19662
584.255	20068
584.266	20153
584.321	19636
584.328	19627
584.376	20514
584.400	21110
584.431	21368
584.472	21204
584.486	21302
584.541	21562
584.545	21590
584.596	22332
584.617	22353
584.651	22824
584.689	23560
584.706	23784
584.761	24085
584.762	24058
584.816	24878
584.834	25005
584.871	24830
584.906	24900
584.926	25231
584.978	25906
584.980	25969
585.035	27571
585.051	27668
585.090	28272
585.123	28736
585.145	28857
585.195	29238
585.200	29421
585.254	31961
585.267	32427
585.309	33794
585.340	35405
585.364	36570
585.412	36708
585.419	36712
585.473	39482
585.484	40195
585.528	45500
585.556	51008
585.583	59376
585.628	79393
585.637	86186
585.692	142610
585.700	153457
585.747	201650
585.772	182084
585.801	132636
585.845	68880
585.856	59056
585.910	42494
585.917	40947
585.965	37167
585.989	36244
586.019	35924
586.061	35023
586.074	35009
586.128	35376
586.133	35348
586.183	35274
586.205	35113
586.237	35266
586.277	34753
586.292	34672
586.346	34858
586.349	34828
586.401	35292
586.421	34863
586.455	35166
586.493	36138
586.509	37687
586.564	43129
586.565	43204
586.618	52471
586.637	53762
586.672	48307
586.709	41305
586.727	39503
586.781	37028
586.781	37122
586.835	36594
586.853	36463
586.889	36009
586.925	35395
586.944	35527
586.996	36269
586.998	36407
587.052	36783
587.068	36901
587.106	37311
587.140	37781
587.161	38206
587.212	38156
587.215	38307
587.269	39968
587.284	40022
587.323	39893
587.356	40002
587.377	40501
587.427	41578
587.431	41786
587.485	42082
587.499	42128
587.539	42708
587.571	42943
587.593	43636
587.643	44930
587.648	45196
587.702	45998
587.715	46282
587.755	47874
587.786	48581
587.810	48941
587.858	48801
587.864	49147
587.917	51990
587.930	52311
587.971	54736
588.001	56421
588.025	57426
588.073	58851
588.079	59456
588.133	63256
588.145	63916
588.187	67198
588.217	69395
588.241	73208
588.288	79980
588.295	81233
588.348	89776
588.360	91427
588.402	100672
588.431	106508
588.456	112554
588.503	123771
588.510	126441
588.564	145944
588.575	149655
588.617	171345
588.646	186377
588.671	208475
588.718	251589
588.725	266983
588.778	386789
588.789	412221
588.832	674404
588.861	857201
588.886	1135383
588.932	1677563
588.939	1707865
588.993	1855025
589.004	1857860
589.047	1343095
589.075	994714
589.100	780476
589.147	401749
589.154	388347
589.207	282956
589.218	261046
589.261	246853
589.290	237050
589.314	250362
589.361	277149
589.368	294273
589.421	433949
589.433	463932
589.475	811766
589.504	1061257
589.528	1294691
589.576	1738649
589.582	1695540
589.635	1168709
589.647	1049318
589.689	618522
589.718	325751
589.742	273260
589.790	170130
589.795	167453
589.849	138583
589.861	131622
589.902	123053
589.932	115164
589.955	107538
590.004	90099
590.009	89781
590.062	83529
590.075	81622
590.115	78596
590.146	75904
590.168	75320
590.218	72933
590.222	73151
590.275	72251
590.289	71761
590.328	70828
590.360	69089
590.381	68956
590.431	68513
590.435	68731
590.488	67157
590.503	66551
590.541	67582
590.574	67781
590.594	67653
590.645	66443
590.647	66712
590.700	66431
590.716	66071
590.753	66430
590.787	66210
590.806	66489
590.859	66542
590.859	66805
590.912	65459
590.930	64843
590.965	66049
591.001	66597
591.018	66946
591.071	67364
591.072	67081
591.124	67812
591.143	67691
591.177	67710
591.214	67182
591.230	68184
591.283	70726
591.285	70515
591.336	69814
591.356	69131
591.389	69155
591.427	68475
591.442	68327
591.495	66642
591.498	66230
591.547	67747
591.569	68073
591.600	67929
591.640	66951
591.653	67664
591.706	69489
591.711	69379
591.759	70620
591.782	70844
591.811	73252
591.853	75896
591.864	75585
591.917	72357
591.924	71560
591.969	73001
591.995	73380
592.022	73452
592.066	72642
592.075	73438
592.127	76479
592.137	76696
592.180	79278
592.208	80390
592.233	79158
592.279	75744
592.285	75851
592.338	74024
592.350	73272
592.390	73646
592.421	73392
592.443	74023
592.491	74337
592.495	74696
592.548	75096
592.562	74872
592.600	74915
592.633	74347
592.653	74730
592.704	74454
592.705	74872
592.775	74157
592.846	76576
592.916	76880
592.987	77191
593.058	75115
593.128	75587
593.199	74997
593.270	75518
593.341	74193
593.411	75067
593.482	75749
593.553	77738
593.623	75707
593.694	78084
593.764	77924
593.835	78318
593.906	77402
593.976	76819
594.047	79838
594.117	84247
594.188	83700
594.258	77434
594.329	77056
594.399	79544
594.470	79783
594.540	81249
594.611	81096
594.681	81560
594.751	81113
594.822	85004
594.892	85165
594.963	88325
595.033	87768
595.103	89298
595.174	90635
595.244	100168
595.314	107597
595.384	92650
595.455	90863
595.525	94090
595.595	96281
595.665	96926
595.736	94058
595.806	94473
595.876	95292
595.946	96405
596.016	96736
596.087	100374
596.157	100351
596.227	100146
596.297	103551
596.367	107133
596.437	112462
596.507	119093
596.577	123883
596.647	114498
596.717	112699
596.787	115377
596.857	114518
596.927	115432
596.997	116022
597.067	120184
597.137	129966
597.207	125272
597.277	122219
597.347	120365
597.417	118905
597.487	120698
597.557	123796
597.626	124033
597.696	129079
597.766	130931
597.836	133262
597.906	122989
597.975	118609
598.045	119147
598.115	122513
598.185	126653
598.254	135339
598.324	141633
598.394	141891
598.464	142196
598.533	139738
598.603	136497
598.672	134687
598.742	137565
598.812	138040
598.881	140822
598.951	140874
599.020	142960
599.090	145890
599.159	150029
599.229	148288
599.299	146810
599.368	151336
599.437	149781
599.507	147169
599.576	148730
599.646	153051
599.715	158891
599.785	148407
599.854	150163
599.924	152357
599.993	153804
600.062	155372
600.132	157145
600.201	162282
600.270	174072
600.340	182124
600.409	181346
600.478	182078
600.547	186655
600.617	184133
600.686	174298
600.755	170069
600.824	170505
600.894	171560
600.963	173914
601.032	173984
601.101	177745
601.170	176471
601.239	180127
601.308	184092
601.378	188075
601.447	187723
601.516	192000
601.585	197588
601.654	203349
601.723	208207
601.792	213071
601.861	221366
601.930	240853
601.999	240611
602.068	233404
602.137	234828
602.206	238079
602.275	238183
602.343	243893
602.412	243577
602.481	243602
602.550	246220
602.619	248510
602.688	247086
602.756	254740
602.825	249586
602.894	259555
602.963	252309
603.032	258361
603.100	259034
603.169	251933
603.238	261402
603.307	249672
603.375	252162
603.444	264899
603.513	244121
603.581	250497
603.650	267940
603.719	220427
603.787	207100
603.856	213926
603.924	216073
603.993	220930
604.061	226458
604.130	232490
604.198	236861
604.267	240269
604.335	245107
604.404	246012
604.472	252980
604.541	250778
604.609	260304
604.678	270839
604.746	274620
604.815	288201
604.883	275500
604.951	266290
605.020	273630
605.088	251648
605.156	234874
605.225	236395
605.293	232542
605.361	237571
605.429	232559
605.498	239027
605.566	233549
605.634	246864
605.702	242262
605.771	245122
605.839	255234
605.907	232228
605.975	245056
606.043	235602
606.111	223235
606.180	256720
606.248	238851
606.316	239840
606.384	248020
606.452	195859
606.520	155146
606.588	152349
606.656	150809
606.724	148934
606.792	142481
606.860	131520
606.928	121943
606.996	119824
607.064	117575
607.132	122056
607.200	126180
607.267	131150
607.335	131411
607.403	134321
607.471	130773
607.539	129679
607.607	127898
607.674	116955
607.742	118292
607.810	116788
607.878	114855
607.946	116829
608.013	120893
608.081	123510
608.149	121635
608.216	124329
608.284	126223
608.352	127718
608.419	125856
608.487	130458
608.555	120616
608.622	121544
608.690	125619
608.757	134008
608.825	135626
608.893	133664
608.960	129938
609.028	128885
609.095	131534
609.163	124467
609.230	114528
609.298	106181
609.365	108019
609.432	117500
609.500	124884
609.567	138366
609.635	155749
609.702	163443
609.769	158922
609.837	131116
609.904	114844
609.971	116350
610.039	127673
610.106	154977
610.173	241150
610.241	479675
610.308	448995
610.375	248090
610.442	144313
610.509	124050
610.577	120395
610.644	120172
610.711	121246
610.778	125448
610.845	126967
610.912	137559
610.980	148570
611.047	177376
611.114	151662
611.181	131264
611.248	128959
611.315	136146
611.382	137522
611.449	141785
611.516	142286
611.583	141442
611.650	141729
611.717	143529
611.784	144903
611.851	151145
611.918	157163
611.984	172912
612.051	220054
612.118	381634
612.185	830473
612.252	629782
612.319	218740
612.386	181192
612.452	167967
612.519	163342
612.586	167680
612.653	163077
612.719	163756
612.786	159665
612.853	149741
612.919	145825
612.986	148021
613.053	141079
613.120	133599
613.186	129892
613.253	131798
613.319	130487
613.386	132895
613.453	134024
613.519	136064
613.586	139242
613.652	150318
613.719	142589
613.785	140957
613.852	135702
613.918	134814
613.985	139831
614.051	155249
614.118	188051
614.184	182535
614.250	138920
614.317	137033
614.383	135268
614.449	135931
614.516	136017
614.582	137611
614.648	135464
614.715	134138
614.781	132259
614.847	134480
614.914	135471
614.980	131224
615.046	129238
615.112	132077
615.179	132824
615.245	134640
615.311	135043
615.377	136674
615.443	139115
615.509	138174
615.575	140408
615.642	140089
615.708	145166
615.774	149535
615.840	158822
615.906	168548
615.972	188521
616.038	252066
616.104	464302
616.170	1025504
616.236	989797
616.302	300957
616.368	209808
616.434	177134
616.500	166615
616.565	166195
616.631	182469
616.697	172485
616.763	169135
616.829	197869
616.895	278764
616.961	290894
617.026	191299
617.092	152871
617.158	148407
617.224	145246
617.289	139536
617.355	134505
617.421	135741
617.487	136791
617.552	129591
617.618	127002
617.684	127520
617.749	130184
617.815	125425
617.880	121240
617.946	122997
618.012	127044
618.077	129496
618.143	123995
618.208	126077
618.274	131865
618.339	137664
618.405	119684
618.470	120825
618.536	120538
618.601	125480
618.667	119440
618.732	113214
618.798	110155
618.863	111820
618.928	110022
618.994	113563
619.059	116446
619.124	124814
619.190	115522
619.255	111168
619.320	111411
619.386	112748
619.451	109106
619.516	108677
619.581	108999
619.647	113666
619.712	112084
619.777	111174
619.842	111116
619.907	112509
619.972	113145
620.038	114575
620.103	111372
620.168	109961
620.233	112540
620.298	110885
620.363	111177
620.428	114601
620.493	117249
620.558	116251
620.623	117390
620.688	118013
620.753	116620
620.818	118447
620.883	119291
620.948	119669
621.013	118498
621.078	119461
621.143	118614
621.207	122194
621.272	122415
621.337	121212
621.402	122088
621.467	132314
621.532	132918
621.596	127695
621.661	121500
621.726	121328
621.791	120909
621.855	125022
621.920	124925
621.985	124505
622.049	126716
622.114	127675
622.179	128936
622.243	134482
622.308	134553
622.373	139300
622.437	136646
622.502	130987
622.566	128892
622.631	130953
622.695	134197
622.760	133223
622.824	129681
622.889	130600
622.953	134369
623.018	148190
623.082	146137
623.147	135869
623.211	133335
623.276	133503
623.340	127924
623.404	126587
623.469	126075
623.533	128321
623.597	125122
623.662	125121
623.726	119411
623.790	117205
623.854	115719
623.919	117593
623.983	115785
624.047	117170
624.111	115027
624.176	119354
624.240	121623
624.304	125852
624.368	117863
624.432	117454
624.496	118412
624.560	123575
624.625	122168
624.689	122819
624.753	123070
624.817	119041
624.881	116373
624.945	111410
625.009	110068
625.073	109457
625.137	112919
625.201	121582
625.265	120163
625.329	113579
625.393	112919
625.456	110910
625.520	112707
625.584	115916
625.648	122488
625.712	137368
625.776	184578
625.839	193540
625.903	122451
625.967	102377
626.031	121639
626.095	150894
626.158	109434
626.222	93488
626.286	89339
626.349	88359
626.413	83886
626.477	86617
626.540	83576
626.604	84583
626.668	83897
626.731	82717
626.795	85766
626.858	83728
626.922	81037
626.986	79292
627.049	79055
627.113	81780
627.176	79971
627.240	78607
627.303	77910
627.366	78180
627.430	78310
627.493	79612
627.557	80838
627.620	80574
627.684	78358
627.747	79106
627.810	74507
627.874	72543
627.937	69998
628.000	74424
628.064	73185
628.127	66442
628.190	67110
628.253	66312
628.317	63369
628.380	63317
628.443	63064
628.506	63002
628.569	60728
628.632	60007
628.696	58509
628.759	60106
628.822	58530
628.885	57477
628.948	56273
629.011	57597
629.074	55337
629.137	54195
629.200	55596
629.263	56652
629.326	53511
629.389	53698
629.452	53839
629.515	55903
629.578	53629
629.641	55146
629.704	53706
629.767	56496
629.830	53649
629.892	52642
629.955	51764
630.018	55030
630.081	52688
630.144	54949
630.207	51620
630.269	53593
630.332	52326
630.395	52224
630.458	49209
630.520	48453
630.583	48928
630.646	48218
630.708	48437
630.771	48385
630.834	49126
630.896	46951
630.959	47676
631.021	47616
631.084	47716
631.146	49620
631.209	49740
631.272	47607
631.334	47641
631.397	46522
631.459	46321
631.522	47458
631.584	47255
631.646	48328
631.709	47674
631.771	51529
631.834	47247
631.896	47220
631.958	43683
632.021	46718
632.083	43573
632.145	47460
632.208	44501
632.270	47159
632.332	44224
632.395	43091
632.457	46612
632.519	45221
632.581	45269
632.643	42706
632.706	44262
632.768	43233
632.830	44299
632.892	43426
632.954	43750
633.016	45392
633.078	42707
633.141	43445
633.203	43918
633.265	44259
633.327	43279
633.389	41978
633.451	45076
633.513	48660
633.575	45842
633.637	44785
633.698	44069
633.760	44147
633.822	42652
633.884	44190
633.946	43065
634.008	45707
634.070	46510
634.132	54767
634.193	47936
634.255	44277
634.317	43220
634.379	44178
634.441	42718
634.502	42710
634.564	41131
634.626	40081
634.687	39879
634.749	40441
634.811	40892
634.873	39234
634.934	39097
634.996	41458
635.057	39320
635.119	39682
635.181	40826
635.242	41420
635.304	37667
635.365	41852
635.427	39381
635.488	40737
635.550	38552
635.611	39344
635.673	37778
635.734	41133
635.796	40318
635.857	43021
635.918	39956
635.980	43154
636.041	40290
636.102	42035
636.164	40062
636.225	41490
636.286	38617
636.348	39515
636.409	38793
636.470	37636
636.531	39125
636.593	40617
636.654	38546
636.715	37375
636.776	37496
636.838	35721
636.899	37353
636.960	35266
637.021	35746
637.082	37082
637.143	36623
637.204	34418
637.265	35192
637.326	36663
637.387	35652
637.448	34632
637.509	35071
637.570	35807
637.631	35737
637.692	34024
637.753	33552
637.814	35606
637.875	33617
637.936	34947
637.997	34813
638.058	35457
638.119	35388
638.179	34298
638.240	33397
638.301	34167
638.362	33388
638.423	34426
638.483	35884
638.544	33257
638.605	34373
638.666	33665
638.726	34523
638.787	34929
638.848	33217
638.908	33742
638.969	33104
639.030	34108
639.090	31762
639.151	32006
639.211	33874
639.272	36918
639.332	43106
639.393	35821
639.453	31426
639.514	31806
639.574	31985
639.635	31076
639.695	32037
639.756	30642
639.816	31014
639.877	31814
639.937	37266
639.997	40768
640.058	30201
640.118	30153
640.178	29699
640.239	29452
640.299	29658
640.359	29932
640.420	28559
640.480	30005
640.540	29537
640.600	31399
640.661	31639
640.721	31932
640.781	37917
640.841	38461
640.901	31271
640.961	30959
641.021	29738
641.082	30406
641.142	32887
641.202	32212
641.262	27767
641.322	30029
641.382	28806
641.442	30294
641.502	28350
641.562	30164
641.622	27848
641.682	30102
641.742	29624
641.802	29866
641.861	30384
641.921	29985
641.981	30543
642.041	30334
642.101	32091
642.161	28923
642.221	27412
642.280	28139
642.340	27152
642.400	27094
642.460	28695
642.519	29909
642.579	28906
642.639	30473
642.698	26473
642.758	29326
642.818	28762
642.877	27673
642.937	29245
642.997	31431
643.056	34125
643.116	28613
643.175	29955
643.235	28530
643.294	27654
643.354	31061
643.414	29755
643.473	31743
643.532	33251
643.592	37761
643.651	48724
643.711	72087
643.770	126439
643.830	281934
643.889	587043
643.948	158883
644.008	43635
644.067	34039
644.126	30148
644.186	27987
644.245	27602
644.304	25212
644.363	27477
644.423	25955
644.482	26233
644.541	27598
644.600	25464
644.659	29079
644.719	29998
644.778	36138
644.837	44917
644.896	73987
644.955	145272
645.014	67587
645.073	37135
645.132	30009
645.191	27773
645.250	26303
645.309	27640
645.368	28067
645.427	30274
645.486	34417
645.545	44640
645.604	27665
645.663	26011
645.722	25896
645.781	27774
645.840	27442
645.898	29176
645.957	35817
646.016	42815
646.075	67115
646.134	115389
646.192	280478
646.251	414127
646.310	78555
646.369	34315
646.427	31206
646.486	27127
646.545	26347
646.603	25318
646.662	25529
646.721	24832
646.779	23988
646.838	23066
646.896	26792
646.955	27505
647.014	33793
647.072	45954
647.131	97502
647.189	55263
647.248	24700
647.306	23860
647.365	23502
647.423	20637
647.481	23952
647.540	20683
647.598	22691
647.657	21220
647.715	21926
647.773	21233
647.832	22541
647.890	20379
647.948	21581
648.007	22208
648.065	20853
648.123	22144
648.181	26187
648.240	29252
648.298	27494
648.356	21319
648.414	22554
648.472	21565
648.531	22399
648.589	19875
648.647	20180
648.705	21268
648.763	21913
648.821	20780
648.879	21541
648.937	21685
648.995	22654
649.053	23101
649.111	29080
649.169	36306
649.227	53527
649.285	93412
649.343	244747
649.401	129550
649.459	48414
649.516	37826
649.574	30793
649.632	46277
649.690	54147
649.748	36354
649.806	51181
649.863	75906
649.921	77210
649.979	53300
650.037	23961
650.094	18939
650.152	20726
650.210	19631
650.268	20211
650.325	21121
650.383	24778
650.440	18451
650.498	19609
650.556	18235
650.613	18506
650.671	17908
650.728	18803
650.786	19336
650.843	20116
650.901	16618
650.958	18120
651.016	17012
651.073	17537
651.131	16042
651.188	17075
651.246	17034
651.303	16158
651.360	17176
651.418	17283
651.475	16905
651.532	15647
651.590	17208
651.647	16018
651.704	16595
651.762	15583
651.819	16202
651.876	16542
651.933	15578
651.990	16589
652.048	14547
652.105	16359
652.162	15698
652.219	15319
652.276	16495
652.333	16828
652.390	15343
652.448	17448
652.505	17628
652.562	17681
652.619	20600
652.676	32214
652.733	31688
652.790	16972
652.847	13970
652.904	15792
652.961	13683
653.017	14890
653.074	14967
653.131	15626
653.188	13704
653.245	15066
653.302	14868
653.359	14930
653.415	14672
653.472	14495
653.529	14711
653.586	13807
653.642	14145
653.699	15580
653.756	13725
653.813	13963
653.869	14487
653.926	14261
653.983	13440
654.039	14527
654.096	13829
654.152	16105
654.209	11620
654.266	14737
654.322	13804
654.379	16016
654.435	15939
654.492	15652
654.548	17811
654.605	21163
654.661	16671
654.717	14910
654.774	15234
654.830	14955
654.887	14727
654.943	16438
655.000	16659
655.056	15931
655.112	14584
655.168	14295
655.225	14610
655.281	16791
655.337	15681
655.394	21212
655.450	17436
655.506	16283
655.562	20026
655.618	19609
655.675	14169
655.731	15129
655.787	13626
655.843	15363
655.899	13100
655.955	14112
656.011	14360
656.067	13556
656.123	13712
656.179	13915
656.235	15586
656.291	13273
656.347	15403
656.403	13935
656.459	13660
656.515	14678
656.571	14427
656.627	14901
656.683	14254
656.739	15683
656.795	14013
656.850	15020
656.906	14559
656.962	15716
657.018	12832
657.074	15137
657.129	16228
657.185	17113
657.241	22146
657.297	17931
657.352	14809
657.408	13866
657.464	14665
657.519	14242
657.575	13313
657.630	14692
657.686	13148
657.742	14702
657.797	14063
657.853	14638
657.908	15493
657.964	13121
658.019	13871
658.075	13721
658.130	15037
658.186	12910
658.241	13619
658.297	12979
658.352	13965
658.407	13548
658.463	13200
658.518	14876
658.573	14043
658.629	13667
658.684	12881
658.739	14944
658.795	12050
658.850	14560
658.905	13553
658.960	14190
659.016	12528
659.071	14337
659.126	14634
659.181	14363
659.236	17920
659.291	18625
659.346	15629
659.401	18214
659.457	20969
659.512	27207
659.567	18058
659.622	14730
659.677	13370
659.732	14198
659.787	13030
659.842	15030
659.897	15882
659.952	14416
660.007	13036
660.061	14224
660.116	12568
660.171	14143
660.226	13239
660.281	14375
660.336	12957
660.391	14112
660.445	12248
660.500	14228
660.555	13345
660.610	13711
660.664	13711
660.719	12551
660.774	13909
660.828	13938
660.883	13828
660.938	13839
660.992	12675
661.047	14649
661.101	12895
661.156	14097
661.211	12947
661.265	12999
661.320	12737
661.374	13786
661.429	12282
661.483	12942
661.538	12819
661.592	13346
661.647	13484
661.701	17014
661.755	13520
661.810	14898
661.864	13308
661.919	12891
661.973	13827
662.027	13884
662.081	13532
662.136	12965
662.190	14280
662.244	14004
662.299	13255
662.353	13727
662.407	12877
662.461	13587
662.515	14755
662.569	14606
662.624	14488
662.678	13724
662.732	13054
662.786	12779
662.840	14407
662.894	13650
662.948	12151
663.002	13273
663.056	12337
663.110	12138
663.164	12452
663.218	13623
663.272	13024
663.326	13265
663.380	12927
663.434	13241
663.488	12601
663.542	13800
663.595	13030
663.649	13343
663.703	13089
663.757	13462
663.811	11902
663.864	12458
663.918	12185
663.972	12878
664.026	12098
664.079	12379
664.133	12679
664.187	12371
664.240	11828
664.294	13360
664.348	13072
664.401	13727
664.455	12203
664.508	11818
664.562	12409
664.615	12832
664.669	11273
664.722	12742
664.776	11126
664.829	12927
664.883	13812
664.936	12333
664.990	13614
665.043	13940
665.097	13762
665.150	15817
665.203	13737
665.257	13779
665.310	13504
665.363	14162
665.417	13570
665.470	14046
665.523	13608
665.576	13370
665.630	12690
665.683	14063
665.736	14007
665.789	12966
665.842	12044
665.895	13630
665.949	13341
666.002	13185
666.055	13479
666.108	14058
666.161	13278
666.214	13847
666.267	12962
666.320	13790
666.373	13376
666.426	12972
666.479	12822
666.532	13596
666.585	13244
666.638	14845
666.691	13795
666.744	14927
666.796	12877
666.849	13514
666.902	13850
666.955	13617
667.008	12340
667.060	12206
667.113	12102
667.166	13348
667.219	12648
667.271	13728
667.324	12944
667.377	14233
667.430	13569
667.482	18731
667.535	16074
667.587	13181
667.640	14217
667.693	14823
667.745	15563
667.798	17144
667.850	13356
667.903	12922
667.955	12975
668.008	12824
668.060	15260
668.113	15389
668.165	14583
668.218	15339
668.270	14474
668.322	14347
668.375	12855
668.427	14307
668.479	13399
668.532	14250
668.584	13704
668.636	13538
668.689	13392
668.741	14475
668.793	12781
668.845	12928
668.898	13419
668.950	13996
669.002	12914
669.054	14652
669.106	13618
669.158	15089
669.211	14849
669.263	15149
669.315	17742
669.367	19488
669.419	15538
669.471	15345
669.523	14661
669.575	16256
669.627	15703
669.679	14506
669.731	13516
669.783	14650
669.835	15407
669.886	14884
669.938	14736
669.990	15669
670.042	13995
670.094	15372
670.146	15399
670.197	18026
670.249	19031
670.301	22256
670.353	27554
670.404	35152
670.456	47496
670.508	72202
670.560	119698
670.611	202162
670.663	355342
670.715	762369
670.766	996277
670.818	373502
670.869	97237
670.921	53450
670.972	37960
671.024	29663
671.075	25025
671.127	21945
671.178	19050
671.230	18179
671.281	17313
671.333	16570
671.384	15908
671.436	17448
671.487	17695
671.538	18224
671.590	19255
671.641	22279
671.692	27923
671.744	39267
671.795	34365
671.846	22196
671.897	17538
671.949	16397
672.000	13867
672.051	14790
672.102	14823
672.153	13753
672.204	13100
672.256	14540
672.307	12334
672.358	14287
672.409	13943
672.460	13809
672.511	12122
672.562	13940
672.613	11578
672.664	12183
672.715	12974
672.766	12747
672.817	12244
672.868	13017
672.919	11299
672.970	11718
673.021	11590
673.071	11881
673.122	11276
673.173	12675
673.224	11455
673.275	12333
673.326	11139
673.376	11568
673.427	11022
673.478	12346
673.528	11812
673.579	11448
673.630	11186
673.680	12048
673.731	10354
673.782	10562
673.832	11203
673.883	11680
673.934	10924
673.984	10936
674.035	10947
674.085	11233
674.136	11120
674.186	12025
674.237	12683
674.287	14474
674.338	11679
674.388	11446
674.438	10501
674.489	11302
674.539	10894
674.589	11468
674.640	11185
674.690	11345
674.740	11945
674.791	13199
674.841	11633
674.891	12121
674.942	10498
674.992	10619
675.042	9561
675.092	10898
675.142	9352
675.193	11228
675.243	10391
675.293	11911
675.343	10655
675.393	11873
675.443	10355
675.493	11030
675.543	9822
675.593	11438
675.643	9581
675.693	10612
675.743	9890
675.793	10582
675.843	9524
675.893	10617
675.943	10241
675.993	10865
676.043	10112
676.093	9963
676.142	9165
676.192	10005
676.242	9756
676.292	9708
676.341	10114
676.391	10136
676.441	9426
676.491	9787
676.540	8829
676.590	9940
676.640	9708
676.689	10602
676.739	9448
676.789	9329
676.838	8963
676.888	9192
676.937	9355
676.987	8734
677.037	8610
677.086	8776
677.136	8950
677.185	8857
677.235	8759
677.284	9336
677.333	8602
677.383	8616
677.432	8084
677.482	9181
677.531	9205
677.580	8612
677.630	8514
677.679	7907
677.728	8432
677.778	8662
677.827	8115
677.876	9094
677.925	8550
677.975	9169
678.024	9421
678.073	9676
678.122	9261
678.171	9368
678.220	9689
678.269	10264
678.319	9608
678.368	9139
678.417	9050
678.466	10822
678.515	9567
678.564	10068
678.613	8598
678.662	9221
678.711	9202
678.760	9655
678.809	9361
678.857	10151
678.906	9787
678.955	9381
679.004	9015
679.053	10339
679.102	8888
679.151	10081
679.199	7931
679.248	9458
679.297	8044
679.346	9166
679.394	8687
679.443	8521
679.492	8849
679.540	9009
679.589	9325
679.638	9287
679.686	8061
679.735	9461
679.784	9047
679.832	8490
679.881	7101
679.929	8772
679.978	8049
680.026	8767
680.075	9067
680.123	9037
680.172	7126
680.220	8185
680.268	7793
680.317	8725
680.365	7810
680.414	7998
680.462	6658
680.510	9454
680.559	6738
680.607	7915
680.655	7501
680.703	8241
680.752	7857
680.800	8051
680.848	7859
680.896	7336
680.945	7239
680.993	7996
681.041	6912
681.089	8057
681.137	5850
681.185	8201
681.233	7364
681.258	7399
681.281	7378
681.329	7031
681.377	7866
681.380	7927
681.425	8022
681.473	9741
681.502	9374
681.521	9024
681.569	8553
681.617	7480
681.624	7701
681.665	8714
681.713	8531
681.745	8941
681.761	9054
681.809	7874
681.857	9400
681.867	9234
681.904	8444
681.952	9866
681.989	9386
682.000	9170
682.048	9867
682.096	9005
682.111	9388
682.143	10036
682.191	9480
682.233	10089
682.239	10126
682.286	10120
682.334	9763
682.354	9730
682.382	9595
682.430	10914
682.476	9924
682.477	9854
682.525	10157
682.572	9538
682.598	9450
682.620	9301
682.667	10053
682.715	11325
682.720	11338
682.763	10942
682.810	10803
682.841	10268
682.857	9924
682.905	9964
682.952	10548
682.963	10749
683.000	11336
683.047	11200
683.085	11875
683.095	11979
683.142	10706
683.190	11732
683.206	11710
683.237	11588
683.284	11682
683.328	11060
683.332	10968
683.379	11560
683.426	10984
683.449	11688
683.473	12323
683.521	11494
683.568	12076
683.571	12078
683.615	11543
683.662	12255
683.693	12277
683.709	12249
683.757	12080
683.804	12298
683.814	12519
683.851	13119
683.898	12489
683.936	12866
683.945	12932
683.992	12284
684.039	12966
684.057	13193
684.086	13386
684.133	13416
684.179	13699
684.180	13676
684.227	14015
684.274	13284
684.300	13337
684.321	13381
684.368	12534
684.415	13977
684.422	13915
684.462	13296
684.509	14208
684.543	13569
684.556	13272
684.603	14287
684.649	13549
684.665	13718
684.696	14156
684.743	13915
684.786	14569
684.790	14593
684.837	14225
684.883	15840
684.908	15922
684.930	15984
684.977	17378
685.023	16494
685.029	16601
685.070	16811
685.117	15954
685.150	15909
685.164	15960
685.210	16561
685.257	17215
685.272	17261
685.303	17106
685.350	17124
685.393	16243
685.396	16167
685.443	16728
685.490	16833
685.514	17038
685.536	17171
685.583	17342
685.629	17161
685.636	17203
685.675	17108
685.722	16877
685.757	16800
685.768	16841
685.815	17799
685.861	17830
685.878	18085
685.908	18428
685.954	17541
686.000	18499
686.000	18502
686.047	17965
686.093	19447
686.121	19206
686.139	18873
686.185	19054
686.232	18353
686.242	18483
686.278	18958
686.324	18068
686.363	18457
686.370	18556
686.416	17893
686.463	19550
686.484	19121
686.509	18551
686.555	19159
686.601	18295
686.606	18368
686.647	18829
686.693	18289
686.727	18930
686.739	19202
686.785	18339
686.831	19182
686.848	19139
686.877	18975
686.923	18883
686.969	18619
686.969	18617
687.015	18963
687.061	19570
687.090	20056
687.107	20168
687.153	19295
687.199	19324
687.211	19074
687.245	18576
687.291	19842
687.332	20061
687.336	20090
687.382	20760
687.428	19780
687.453	20062
687.474	20187
687.520	19998
687.565	20025
687.574	19965
687.611	20245
687.657	21119
687.695	21664
687.702	21922
687.748	24677
687.794	26151
687.816	26772
687.839	25962
687.885	23900
687.931	22773
687.937	22455
687.976	21300
688.022	20768
688.058	20749
688.067	20865
688.113	20899
688.158	20253
688.179	20403
688.204	20755
688.249	20705
688.295	21539
688.300	21623
688.340	22341
688.386	22827
688.421	22224
688.431	22008
688.477	22143
688.522	22501
688.542	22384
688.567	22200
688.613	22102
688.658	21921
688.663	21882
688.703	21982
688.749	22269
688.784	22143
688.794	22106
688.839	22467
688.884	22197
688.905	22263
688.930	22391
688.975	22742
689.020	23171
689.026	23141
689.065	23143
689.110	23345
689.146	23288
689.155	23326
689.201	23792
689.246	24214
689.267	24126
689.291	23715
689.336	23561
689.381	23408
689.388	23355
689.426	23722
689.471	23807
689.509	23818
689.516	23778
689.561	23929
689.606	23970
689.630	23597
689.651	23403
689.696	23403
689.741	23821
689.750	23755
689.785	23951
689.830	24290
689.871	24600
689.875	24606
689.920	24400
689.965	24033
689.992	23967
690.010	24253
690.054	24616
690.099	25386
690.112	25625
690.144	26067
690.189	25944
690.233	26160
690.233	26192
690.278	26750
690.323	26675
690.354	26995
690.367	27344
690.412	27473
690.457	28728
690.474	28911
690.501	29635
690.546	31570
690.590	32509
690.595	32625
690.635	34917
690.680	37245
690.716	39802
690.724	40999
690.769	46311
690.813	52580
690.836	55597
690.857	62654
690.902	78731
690.946	95393
690.957	99957
690.991	136251
691.035	187771
691.077	236999
691.080	238226
691.124	239710
691.168	237949
691.198	238581
691.213	222381
691.257	176287
691.301	130505
691.318	113017
691.346	101287
691.390	82446
691.434	63124
691.439	60959
691.478	55476
691.522	49265
691.559	43515
691.567	43100
691.611	41083
691.655	38288
691.680	37045
691.699	36735
691.743	35399
691.787	34328
691.800	33802
691.831	33123
691.875	32766
691.919	31905
691.921	31846
691.964	32176
692.008	32012
692.041	31836
692.052	31846
692.096	31509
692.139	32013
692.162	31688
692.183	31365
692.227	31079
692.271	30971
692.282	30818
692.315	30808
692.359	30560
692.402	30875
692.403	30928
692.447	30458
692.490	30468
692.523	30386
692.534	30611
692.578	31032
692.622	31257
692.643	31614
692.666	31822
692.709	31371
692.753	31559
692.763	31422
692.797	31635
692.840	32583
692.884	32551
692.884	32612
692.928	33599
692.971	34234
693.004	34752
693.015	34953
693.059	35428
693.102	35789
693.124	35917
693.146	36731
693.189	38637
693.233	40085
693.245	40531
693.276	43040
693.320	46399
693.363	49491
693.365	49515
693.407	55220
693.450	61358
693.485	66269
693.493	69067
693.537	83474
693.580	97368
693.605	106024
693.624	121421
693.667	157055
693.710	194910
693.725	208569
693.753	273572
693.797	377930
693.840	483736
693.845	494160
693.883	503573
693.926	508149
693.966	514479
693.970	505365
694.013	402758
694.056	301218
694.086	231431
694.099	218188
694.142	175236
694.185	132035
694.206	111766
694.229	104614
694.272	89732
694.315	75383
694.326	71338
694.358	66429
694.401	60689
694.444	54039
694.446	53632
694.487	51131
694.530	47908
694.566	45434
694.573	45228
694.616	42969
694.659	41216
694.686	39594
694.702	39071
694.745	37934
694.787	36641
694.806	35996
694.830	35891
694.873	35346
694.916	35100
694.926	34905
694.959	34505
695.002	34260
695.044	33560
695.046	33475
695.087	33694
695.130	33649
695.166	33595
695.172	33660
695.215	33401
695.258	33700
695.286	33353
695.301	33198
695.343	33069
695.386	32679
695.406	32468
695.428	32497
695.471	32327
695.514	32315
695.526	32156
695.556	32521
695.599	33468
695.641	33988
695.646	33963
695.684	33388
695.726	32674
695.766	32256
695.769	32330
695.811	32052
695.854	31947
695.886	31751
695.896	31786
695.938	31661
695.981	31291
696.005	31232
696.023	31653
696.065	32257
696.108	33098
696.125	33308
696.150	33581
696.192	33831
696.235	34103
696.245	34116
696.277	34249
696.319	34295
696.361	34475
696.365	34392
696.404	35559
696.446	36969
696.485	37915
696.488	37938
696.530	37281
696.572	36561
696.604	35991
696.614	35859
696.656	34901
696.698	33840
696.724	33037
696.740	32887
696.783	32615
696.825	32201
696.844	31947
696.867	32151
696.909	32300
696.951	32582
696.964	32543
696.992	32463
697.034	32339
697.076	32152
697.083	32074
697.118	32552
697.160	32752
697.202	33277
697.203	33206
697.244	32737
697.286	32248
697.323	31623
697.327	31695
697.369	31980
697.411	31930
697.442	31990
697.453	32127
697.494	32178
697.536	32366
697.562	32314
697.578	32343
697.620	32381
697.661	32266
697.682	32218
697.703	32475
697.744	32619
697.786	33004
697.801	32998
697.828	33064
697.869	33055
697.911	33032
697.921	32965
697.952	32953
697.994	32754
698.035	32596
698.040	32492
698.077	32359
698.118	32175
698.160	31930
698.160	31848
698.201	31868
698.243	31796
698.279	31632
698.284	31731
698.325	31914
698.367	32178
698.399	32227
698.408	32261
698.449	32072
698.491	31882
698.518	31703
698.532	31882
698.573	32152
698.614	32423
698.638	32495
698.656	32730
698.697	33122
698.738	33465
698.757	33550
698.779	33846
698.820	34235
698.862	34642
698.877	34702
698.903	34720
698.944	34616
698.985	34502
698.996	34386
699.026	34404
699.067	34310
699.116	34115
699.235	33674
699.354	33045
699.474	32519
699.593	34259
699.713	34167
699.832	32672
699.951	33783
700.070	33180
700.190	31189
700.309	31856
700.428	31416
700.547	30841
700.667	30575
700.786	31164
700.905	30524
701.024	31138
701.143	31046
701.262	29745
701.381	30368
701.500	30294
701.619	31112
701.738	29720
701.857	29715
701.976	28975
702.095	28415
702.214	29811
702.333	29197
702.452	29731
702.571	28513
702.690	29391
702.809	28630
702.928	28279
703.047	28363
703.165	27974
703.284	27796
703.403	27878
703.522	29172
703.640	28249
703.759	29895
703.878	31769
703.997	28499
704.115	27530
704.234	27772
704.353	26518
704.471	26788
704.590	26829
704.708	25866
704.827	26612
704.946	26911
705.064	26710
705.183	27971
705.301	30922
705.420	40386
705.538	37112
705.656	33971
705.775	36672
705.893	63448
706.012	77613
706.130	35461
706.249	33429
706.367	31514
706.485	33735
706.604	32115
706.722	32591
706.840	37744
706.958	47543
707.077	39583
707.195	31125
707.313	29849
707.431	29570
707.549	29767
707.668	30064
707.786	30170
707.904	27869
708.022	29767
708.140	29553
708.258	28064
708.376	29402
708.494	28967
708.612	30892
708.730	40726
708.848	38487
708.966	35648
709.084	33738
709.202	33075
709.320	33743
709.438	34748
709.556	34372
709.674	33515
709.791	34047
709.909	32881
710.027	33417
710.145	32275
710.263	32533
710.380	31891
710.498	31124
710.616	32640
710.733	32319
710.851	31638
710.969	31681
711.086	30831
711.204	31242
711.322	31159
711.439	30866
711.557	30263
711.674	30958
711.792	30957
711.909	33967
712.027	36591
712.144	30347
712.262	29859
712.379	31505
712.497	41288
712.614	42776
712.732	36695
712.849	34574
712.966	35155
713.084	37313
713.201	36996
713.318	37246
713.436	36153
713.553	35633
713.670	35633
713.787	37954
713.905	36883
714.022	36373
714.139	35926
714.256	38989
714.373	43662
714.490	58172
714.608	112738
714.725	398728
714.842	426697
714.959	57840
715.076	38546
715.193	34907
715.310	33789
715.427	32378
715.544	31952
715.661	32332
715.778	31427
715.895	33473
716.011	34083
716.128	32281
716.245	31400
716.362	31469
716.479	32447
716.596	30000
716.713	30747
716.829	29280
716.946	29978
717.063	28598
717.180	28976
717.296	29510
717.413	28514
717.530	28438
717.646	26839
717.763	27884
717.880	27442
717.996	27476
718.113	27736
718.229	27305
718.346	26648
718.462	26669
718.579	28870
718.695	30924
718.812	30844
718.928	29666
719.045	26911
719.161	25884
719.277	26083
719.394	26657
719.510	27009
719.626	26773
719.743	31501
719.859	34836
719.975	46489
720.092	130608
720.208	284684
720.324	54598
720.440	28797
720.557	28815
720.673	30221
720.789	36773
720.905	53377
721.021	31243
721.137	25586
721.253	26138
721.369	25252
721.486	26308
721.602	28814
721.718	24438
721.834	22862
721.950	24104
722.066	23378
722.181	23898
722.297	23465
722.413	22027
722.529	22885
722.645	23153
722.761	22953
722.877	22599
722.993	21678
723.108	24059
723.224	22780
723.340	22718
723.456	21945
723.571	22462
723.687	21212
723.803	23141
723.918	21700
724.034	21782
724.150	21291
724.265	23886
724.381	29221
724.497	32976
724.612	20723
724.728	20858
724.843	20360
724.959	21283
725.074	27544
725.190	29582
725.305	21849
725.421	21158
725.536	19398
725.651	20182
725.767	18880
725.882	20108
725.997	20531
726.113	19754
726.228	19487
726.343	19480
726.459	18903
726.574	19882
726.689	17573
726.804	18784
726.920	19848
727.035	21455
727.150	18874
727.265	18525
727.380	19601
727.495	19262
727.610	18159
727.725	19650
727.841	23095
727.956	39610
728.071	32517
728.186	18365
728.301	16877
728.416	18788
728.531	17466
728.645	16952
728.760	17416
728.875	18217
728.990	17198
729.105	17923
729.220	17114
729.335	17809
729.449	17173
729.564	16542
729.679	16329
729.794	17179
729.908	18099
730.023	17010
730.138	17059
730.253	16429
730.367	16606
730.482	16665
730.596	16402
730.711	17354
730.826	18590
730.940	20367
731.055	17630
731.169	17157
731.284	17059
731.398	16321
731.513	18465
731.627	17981
731.742	18386
731.856	19297
731.970	19025
732.085	19746
732.199	24255
732.313	32128
732.428	62814
732.542	144823
732.656	88893
732.771	28928
732.885	20763
732.999	19998
733.113	19480
733.227	18996
733.342	17676
733.456	17805
733.570	16627
733.684	17127
733.798	17127
733.912	17625
734.026	16513
734.140	17194
734.254	17668
734.368	21496
734.482	22207
734.596	15952
734.710	16235
734.824	17331
734.938	15571
735.052	15944
735.166	16862
735.280	16610
735.393	16881
735.507	15833
735.621	18091
735.735	21907
735.849	16921
735.962	15821
736.076	15874
736.190	16547
736.303	17765
736.417	18964
736.531	15421
736.644	16351
736.758	15800
736.872	15343
736.985	15556
737.099	15512
737.212	14770
737.326	14784
737.439	14968
737.553	14461
737.666	15284
737.780	15027
737.893	14870
738.007	14975
738.120	14874
738.233	14910
738.347	14591
738.460	14908
738.573	14476
738.687	15254
738.800	15345
738.913	15844
739.026	14881
739.140	15788
739.253	16057
739.366	15056
739.479	15398
739.592	13716
739.705	14782
739.818	15750
739.932	14351
740.045	15531
740.158	14581
740.271	14915
740.384	14508
740.497	13735
740.610	15534
740.723	14862
740.836	15829
740.949	15466
741.062	15039
741.174	16659
741.287	14456
741.400	14816
741.513	14412
741.626	14055
741.739	14712
741.851	14693
741.964	14179
742.077	14065
742.189	12983
742.302	14548
742.415	14034
742.527	15117
742.640	13290
742.753	14528
742.865	13892
742.978	13722
743.090	15212
743.203	13562
743.316	13193
743.428	13920
743.541	14302
743.653	13084
743.766	14267
743.878	14907
743.990	14904
744.103	15871
744.215	14123
744.327	14219
744.440	14951
744.552	16647
744.664	14407
744.777	14241
744.889	13252
745.001	14214
745.113	13485
745.226	13918
745.338	13644
745.450	14124
745.562	13779
745.674	14192
745.786	13888
745.898	14914
746.010	13455
746.122	13469
746.234	13578
746.347	13639
746.459	13961
746.570	14224
746.682	13565
746.794	14209
746.906	13395
747.018	14298
747.130	14109
747.242	14086
747.354	13290
747.466	14289
747.577	13829
747.689	14980
747.801	12939
747.913	14127
748.024	13562
748.136	13306
748.248	14255
748.359	14491
748.471	14376
748.583	14231
748.694	15187
748.806	17998
748.918	15725
749.029	15172
749.141	13783
749.252	15682
749.364	14938
749.475	16575
749.587	15801
749.698	14021
749.809	14433
749.921	13932
750.032	14080
750.144	14362
750.255	13689
750.366	13930
750.478	14333
750.589	14185
750.700	14485
750.811	15621
750.923	15247
751.034	17356
751.145	18263
751.256	14580
751.367	14709
751.479	14491
751.590	14450
751.701	15455
751.812	14629
751.923	14454
752.034	14884
752.145	15457
752.256	15127
752.367	15439
752.478	14944
752.589	15799
752.700	15282
752.811	14698
752.922	14746
753.032	15400
753.143	16014
753.254	15052
753.365	15561
753.476	15897
753.586	15143
753.697	15595
753.808	15708
753.919	15668
754.029	16197
754.140	16124
754.251	16151
754.361	16088
754.472	16020
754.582	16382
754.693	16454
754.804	17345
754.914	16502
755.025	16514
755.135	17228
755.246	16598
755.356	16630
755.466	17592
755.577	17391
755.687	17840
755.798	18090
755.908	17751
756.018	18452
756.129	18626
756.239	18364
756.349	19021
756.460	18183
756.570	19480
756.680	18224
756.790	19185
756.900	20615
757.011	19787
757.121	19751
757.231	19569
757.341	20021
757.451	20836
757.561	19572
757.671	20944
757.781	20927
757.891	21740
758.001	22334
758.111	22384
758.221	21195
758.331	22838
758.441	23559
758.551	23518
758.661	24350
758.771	24119
758.880	25028
758.990	25640
759.100	25454
759.210	26572
759.320	26622
759.429	27159
759.539	26555
759.649	27658
759.758	28607
759.868	29309
759.978	29898
760.087	30829
760.197	31602
760.307	30680
760.416	31345
760.526	31403
760.635	33796
760.745	34370
760.854	35626
760.964	36845
761.073	37693
761.182	37944
761.292	39173
761.401	39916
761.511	39944
761.620	41540
761.729	41863
761.839	43667
761.948	45376
762.057	47186
762.166	47351
762.276	48394
762.385	52251
762.494	53234
762.603	55356
762.712	57722
762.822	60417
762.931	63161
763.040	65413
763.149	68499
763.258	71222
763.367	75217
763.476	79676
763.585	83142
763.694	89173
763.803	93885
763.912	99115
764.021	105003
764.130	111208
764.238	120789
764.347	129121
764.456	139139
764.565	151289
764.674	164970
764.783	179788
764.891	198863
765.000	222387
765.109	248867
765.217	280606
765.326	321671
765.435	369362
765.543	433630
765.652	516192
765.761	621844
765.869	751624
765.978	919866
766.086	1109847
766.195	1275803
766.303	1261264
766.412	845232
766.520	869474
766.629	1200318
766.737	1224233
766.846	1075599
766.954	886685
767.062	726943
767.171	591400
767.279	482406
767.387	399662
767.496	336693
767.604	292742
767.712	257358
767.820	230698
767.928	209936
768.037	195962
768.145	184626
768.253	179039
768.361	174348
768.469	171022
768.577	177347
768.685	188175
768.793	198551
768.901	219028
769.009	252034
769.117	296970
769.225	365131
769.333	468294
769.441	621730
769.549	848060
769.657	1121415
769.765	1173082
769.873	824927
769.981	1056439
770.088	1082822
770.196	860856
770.304	666802
770.412	521979
770.519	415844
770.627	341418
770.735	286106
770.842	243741
770.950	212606
771.058	185604
771.165	165965
771.273	148184
771.380	135377
771.488	123654
771.595	113105
771.703	104663
771.810	96996
771.918	91126
772.025	86203
772.133	81131
772.240	75811
772.348	72227
772.455	68730
772.562	65262
772.670	61493
772.777	58808
772.884	56186
772.991	55689
773.099	53487
773.206	50522
773.313	48808
773.420	47361
773.528	44140
773.635	43401
773.742	43123
773.849	41354
773.956	39757
774.063	38971
774.170	37678
774.277	37112
774.384	36134
774.491	34944
774.598	34523
774.705	32669
774.812	33679
774.919	31594
775.026	31502
775.133	31025
775.239	30054
775.346	30207
775.453	28993
775.560	27859
775.667	28787
775.773	27519
775.880	27080
775.987	26614
776.093	26256
776.200	26211
776.307	24184
776.413	24753
776.520	24062
776.627	23412
776.733	24613
776.840	21807
776.946	24307
777.053	21160
777.159	21581
777.266	19542
777.372	21779
777.478	21229
777.585	20962
777.691	20112
777.798	19846
777.904	19390
778.010	21772
778.117	20525
778.223	18603
778.329	18154
778.435	17623
778.542	18156
778.648	17962
778.754	17214
778.860	17353
778.966	17307
779.072	17888
779.178	17030
779.284	17591
779.391	18562
779.497	20348
779.603	26206
779.708	35285
779.815	68869
779.920	217924
780.026	393776
780.132	98849
780.238	30225
780.344	21814
780.450	20216
780.556	17739
780.661	15593
780.767	15150
780.873	13906
780.979	15338
781.085	13860
781.190	13857
781.296	13516
781.402	12700
781.507	13336
781.613	13252
781.719	12325
781.824	13210
781.930	12254
782.035	12391
782.141	12036
782.246	11454
782.352	11274
782.457	11712
782.563	11900
782.668	11596
782.773	11478
782.879	10816
782.984	12060
783.090	12200
783.195	12036
783.300	12745
783.405	10671
783.511	10795
783.616	11075
783.721	10686
783.826	10854
783.932	10458
784.037	11286
784.142	9792
784.247	10399
784.352	9942
784.457	10975
784.562	10438
784.667	10114
784.772	10234
784.877	9585
784.982	10562
785.087	9209
785.192	10444
785.297	9823
785.402	10006
785.507	9723
785.611	9413
785.716	9432
785.821	8671
785.926	8813
786.031	9381
786.135	9604
786.240	9287
786.345	8185
786.450	9090
786.554	9192
786.659	8342
786.763	8054
786.868	9175
786.973	9823
787.077	8513
787.182	8314
787.286	8542
787.391	8160
787.495	7777
787.600	8476
787.704	7495
787.809	8464
787.913	7838
788.017	8687
788.122	8448
788.226	8117
788.330	7763
788.435	8308
788.539	7272
788.643	7713
788.747	7360
788.852	7998
788.956	8609
789.060	7935
789.164	7919
789.268	6894
789.372	7979
789.476	7244
789.580	7551
789.684	7232
789.788	7715
789.892	7859
789.996	8093
790.100	7736
790.204	7290
790.308	7249
790.412	7224
790.516	7822
790.620	7986
790.724	7641
790.828	7219
790.931	6571
791.035	8310
791.139	7739
791.242	6448
791.346	8622
791.450	6585
791.554	6542
791.657	5890
791.761	7302
791.864	6829
791.968	7164
792.072	6853
792.175	6911
792.279	6915
792.382	6522
792.486	6555
792.589	6921
792.693	6684
792.796	6219
792.899	7221
793.003	6566
793.106	5549
793.209	6106
793.313	7905
793.416	5059
793.519	6827
793.623	8121
793.726	7674
793.829	7087
793.932	7202
794.035	6256
794.138	8009
794.242	8691
794.345	11075
794.448	17517
794.551	35577
794.654	117148
794.757	243104
794.860	56865
794.963	14160
795.066	9037
795.169	8980
795.272	7433
795.375	7664
795.477	6322
795.580	6825
795.683	4123
795.786	5723
795.889	4851
795.991	6373
796.094	7143
796.197	4657
796.300	7237
796.402	5260
796.505	5254
796.608	5739
796.710	6197
796.813	5930
796.915	4600
797.018	5493
797.120	5733
797.223	4658
797.326	6430
797.428	5481
797.530	4756
797.633	4599
797.735	5799
797.838	6092
797.940	6722
798.042	5121
798.145	4581
798.247	5984
798.349	3787
798.452	5648
798.554	4451
798.656	4211
798.758	5616
798.860	4890
798.962	4580
799.065	4820
799.167	3686
799.269	5928
799.371	5896
799.473	5572
799.575	4372
799.677	5564
799.779	7123
799.881	4465
799.983	5275
800.085	5826
800.187	4964
800.289	4124
800.390	5150
800.492	4848
800.594	5633
800.696	4355
800.798	4320
800.899	4326
801.001	4797
801.103	4317
801.205	4658
801.306	5610
801.408	3895
801.509	5006
801.611	4753
801.713	4018
801.814	3733
801.916	3640
802.017	4434
802.119	3917
802.220	3892
802.322	2769
802.423	6028
802.525	3805
802.626	4525
802.727	4660
802.829	5386
802.930	2445
803.031	4933
803.133	3753
803.234	4699
803.335	4087
803.436	3893
803.538	3925
803.639	2565
803.740	4354
803.841	3442
803.942	4361
804.043	4064
804.144	3655
804.245	3479
804.346	3546
804.447	3105
804.548	4235
804.649	5182
804.750	4075
804.851	2955
804.952	3856
805.053	3850
805.154	3128
805.255	4974
805.355	3905
805.456	3051
805.557	2962
805.658	2633
805.758	4648
805.859	4109
805.960	3685
806.061	3804
806.161	3090
806.262	3595
806.362	3485
806.463	3761
806.564	4436
806.664	3649
806.765	4040
806.865	3975
806.966	3750
807.066	3503
807.166	4456
807.267	3970
807.367	3827
807.468	4727
807.568	3335
807.668	4014
807.769	4484
807.869	2703
807.969	3393
808.069	3854
808.170	3764
808.270	2317
808.370	3501
808.470	3779
808.570	3719
808.670	2986
808.770	3895
808.870	3095
808.970	3653
809.070	2726
809.170	3631
809.271	3790
809.370	2653
809.470	3557
809.570	3172
809.670	3114
809.770	3235
809.870	4170
809.970	3361
810.070	2711
810.169	3117
810.269	2095
810.369	3963
810.469	3349
810.568	3819
810.668	3134
810.768	2476
810.867	2674
810.967	2938
811.066	3479
811.166	3411
811.265	3146
811.365	2520
811.464	2948
811.564	2989
811.663	3547
811.763	2248
811.862	2872
811.962	3664
812.061	2885
812.160	2405
812.260	2795
812.359	3509
812.458	4375
812.557	8030
812.657	11227
812.756	6900
812.855	3854
812.954	3977
813.053	3814
813.153	3472
813.252	2708
813.351	3021
813.450	2983
813.549	2975
813.648	3066
813.747	2941
813.846	3632
813.945	2444
814.044	2704
814.143	3051
814.242	3978
814.341	2649
814.439	3444
814.538	4068
814.637	2591
814.736	1897
814.835	3261
814.933	2267
815.032	3969
815.131	3478
815.229	3289
815.328	4276
815.427	3726
815.525	4285
815.624	3440
815.722	2963
815.821	3844
815.919	4396
816.018	2498
816.116	4232
816.215	3480
816.313	3409
816.412	3759
816.510	4187
816.609	5190
816.707	4510
816.805	4241
816.904	3175
817.002	4406
817.100	4830
817.198	3775
817.296	3765
817.395	4467
817.493	5313
817.591	3967
817.689	5694
817.787	4997
817.885	6507
817.983	7638
818.081	12002
818.179	24130
818.277	58584
818.375	63739
818.473	22521
818.571	10118
818.669	7041
818.767	6522
818.865	6643
818.963	6837
819.061	8325
819.158	12751
819.256	24453
819.354	51463
819.452	118377
819.549	99208
819.647	32142
819.745	12847
819.842	9129
819.940	7755
820.038	5356
820.135	5473
820.233	6527
820.330	4366
820.428	3930
820.525	5528
820.623	4423
820.720	3393
820.818	4764
820.915	4482
821.012	4851
821.110	2753
821.207	5233
821.304	3211
821.402	3334
821.499	3549
821.596	3424
821.693	3138
821.791	4127
821.888	4079
821.985	5253
822.082	4690
822.179	3419
822.276	3103
822.373	3566
822.470	3015
822.567	3197
822.664	1768
822.761	3269
822.858	2950
822.955	3154
823.052	3214
823.149	3730
823.246	2576
823.343	3617
823.440	3249
823.536	3141
823.633	3357
823.730	3265
823.827	2919
823.923	3126
824.020	3118
824.117	3877
824.213	3088
824.310	3714
824.407	2405
824.503	3250
824.600	4025
824.696	2628
824.793	3441
824.889	2590
824.986	2198
825.082	2570
825.179	3588
825.275	2486
825.371	2803
825.468	3709
825.564	1820
825.660	3251
825.757	3755
825.853	2734
825.949	1937
826.045	2485
826.142	2002
826.238	3062
826.334	2943
826.430	3184
826.526	3393
826.622	2190
826.718	2212
826.814	2061
826.910	3282
827.006	2187
827.102	2623
827.198	3059
827.294	2443
827.390	2282
827.486	3070
827.582	2523
827.678	2227
827.774	3096
827.869	1671
827.965	3182
828.061	2419
828.157	2522
828.252	2357
828.348	1587
828.444	3009
828.539	1104
828.635	2424
828.731	3323
828.826	2057
828.922	2718
829.017	2083
829.113	2827
829.208	1675
829.304	1871
829.399	3527
829.495	2191
829.590	3064
829.685	1682
829.781	2796
829.876	2876
829.971	2109
830.066	2395
830.162	2602
830.257	2141
830.352	2438
830.447	2936
830.543	2566
830.638	1827
830.733	3652
830.828	2768
830.923	3346
831.018	2318
831.113	3115
831.208	1292
831.303	1756
831.398	3012
831.493	1913
831.588	3142
831.683	1324
831.778	2767
831.873	1988
831.967	2692
832.062	2408
832.157	2221
832.252	2615
832.346	2526
832.441	3090
832.536	3346
832.631	5366
832.725	5313
832.820	1605
832.914	2592
833.009	2106
833.104	2346
833.198	2442
833.293	2070
833.387	2189
833.482	2435
833.576	2392
833.670	2996
833.765	2289
833.859	1138
833.954	2143
834.048	2436
834.142	2860
834.237	2079
834.331	2466
834.425	2700
834.519	1750
834.613	1811
834.708	2357
834.802	2245
834.896	2046
834.990	2034
835.084	2484
835.178	2117
835.272	921
835.366	2162
835.460	3046
835.554	2499
835.648	2051
835.742	1609
835.836	2147
835.930	1584
836.024	2104
836.117	2469
836.211	2903
836.305	2562
836.399	3685
836.493	1428
836.586	2010
836.680	1665
836.774	1290
836.867	2841
836.961	646
837.055	1393
837.148	1488
837.242	2209
837.335	1884
837.429	2442
837.522	1794
837.616	2052
837.709	3980
837.803	3349
837.896	1805
837.989	1781
838.083	3570
838.176	3646
838.269	3168
838.363	2920
838.456	1105
838.549	2451
838.642	4297
838.735	5828
838.829	4135
838.922	1207
839.015	1948
839.108	1473
839.201	1790
839.294	1735
839.387	2702
839.480	1482
839.573	1838
839.666	2920
839.759	1913
839.852	1545
839.945	2594
840.038	1445
840.131	1574
840.223	2245
840.316	2098
840.409	2950
840.502	1616
840.594	2363
840.687	980
840.780	1199
840.873	961
840.965	2288
841.058	2893
841.150	4284
841.243	2752
841.336	1987
841.428	1554
841.521	904
841.613	1276
841.706	2246
841.798	2064
841.890	2051
841.983	1419
842.075	3280
842.167	1914
842.260	2097
842.352	2178
842.444	3270
842.537	3838
842.629	5913
842.721	2571
842.813	1573
842.905	1127
842.997	1882
843.090	1465
843.182	2835
843.274	4029
843.366	7952
843.458	13387
843.550	9576
843.642	2730
843.734	2346
843.826	1869
843.918	2235
844.009	1342
844.101	1184
844.193	1538
844.285	1026
844.377	3251
844.469	2318
844.560	546
844.652	1933
844.744	2160
844.835	2475
844.927	2281
845.019	2573
845.110	2319
845.202	1412
845.293	2674
845.385	877
845.476	1907
845.568	2841
845.659	1161
845.751	2383
845.842	1550
845.934	679
846.025	1513
846.116	1829
846.208	2486
846.299	1960
846.390	1128
846.482	2140
846.573	2381
846.664	2144
846.755	3263
846.846	3377
846.937	807
847.029	1011
847.120	1013
847.211	1719
847.302	1818
847.393	866
847.484	2650
847.575	1157
847.666	797
847.757	1948
847.847	1700
847.938	2386
848.029	2537
848.120	2185
848.211	1954
848.302	1643
848.392	1172
848.483	1120
848.574	1406
848.664	1418
848.755	2474
848.846	2424
848.936	1506
849.027	2542
849.118	1665
849.208	1616
849.299	1526
849.389	3447
849.480	2810
849.570	4347
849.661	7118
849.751	10458
849.841	5636
849.932	2407
850.022	1740
850.112	1705
850.203	1407
850.293	1728
850.383	1150
850.474	990
850.564	1180
850.654	2222
850.744	1829
850.834	1666
850.924	1161
851.014	1904
851.104	1600
851.194	784
851.284	1745
851.374	2358
851.464	1923
851.554	1677
851.644	1428
851.734	3070
851.824	2980
851.914	4683
852.004	8505
852.094	9725
852.183	3587
852.273	2468
852.363	1626
852.452	2235
852.542	1333
852.632	1696
852.721	1008
852.811	812
852.901	1900
852.990	1435
853.080	1943
853.169	1091
853.259	1514
853.348	1586
853.438	2310
853.527	2784
853.617	1783
853.706	4569
853.795	5562
853.885	11815
853.974	20666
854.063	35901
854.152	54347
854.242	24621
854.331	5246
854.420	2300
854.509	2180
854.598	2028
854.687	1650
854.777	1929
854.866	1391
854.955	1945
855.044	536
855.133	2125
855.222	1134
855.311	1037
855.400	1806
855.488	2358
855.577	1148
855.666	2067
855.755	2403
855.844	2540
855.933	3088
856.021	2101
856.110	1737
856.199	819
856.288	1120
856.376	1925
856.465	794
856.554	1134
856.642	1221
856.731	1237
856.819	1822
856.908	1369
856.996	830
857.085	1602
857.173	1050
857.262	1565
857.350	1200
857.438	738
857.527	1958
857.615	1321
857.703	1650
857.792	654
857.880	1336
857.968	742
858.056	536
858.145	1785
858.233	1116
858.321	996
858.409	1516
858.497	916
858.585	753
858.673	1797
858.761	515
858.849	1100
858.937	380
859.025	1164
859.113	1764
859.201	253
859.289	1527
859.377	1136
859.465	732
859.552	817
859.640	1113
859.728	1746
859.816	1230
859.903	2462
859.991	799
860.079	727
860.166	393
860.254	860
860.342	922
860.429	878
860.517	686
860.604	175
860.692	730
860.779	307
860.867	722
860.954	983
861.042	1301
861.129	1441
861.216	1828
861.304	934
861.391	1244
861.478	1256
861.565	1900
861.653	1578
861.740	1044
861.827	1307
861.914	336
862.001	1007
862.089	1050
862.176	1471
862.263	1090
862.350	1355
862.437	1143
862.524	1037
862.611	767
862.698	1037
862.785	608
862.871	813
862.958	387
863.045	989
863.132	444
863.219	1309
863.306	-426
863.392	1588
863.479	891
863.566	762
863.652	945
863.739	619
863.826	1537
863.912	1007
863.999	98
864.086	909
864.172	534
864.259	1069
864.345	-81
864.432	877
864.518	919
864.604	856
864.691	458
864.777	820
864.863	1493
864.950	1601
865.036	1784
865.122	2208
865.209	2182
865.295	2212
865.381	1961
865.467	3180
865.553	3224
865.639	2186
865.726	3868
865.812	5992
865.898	11944
865.984	16270
866.070	27214
866.156	31095
866.242	9707
866.328	3323
866.414	2013
866.499	2277
866.585	2058
866.671	1863
866.757	2064
866.843	1973
866.928	1669
867.014	1921
867.100	1450
867.186	2514
867.271	2460
867.357	2818
867.442	2479
867.528	2033
867.614	1889
867.699	1690
867.785	2211
867.870	1426
867.956	1759
868.041	1883
868.127	2650
868.212	2563
868.297	1185
868.383	2788
868.468	2754
868.553	3526
868.639	3486
868.724	6367
868.809	5823
868.894	2425
868.979	1374
869.065	2257
869.150	1034
869.235	2204
869.320	1374
869.405	807
869.490	1362
869.575	1487
869.660	1351
869.745	1829
869.830	916
869.915	1458
870.000	827
870.085	1542
870.169	807
870.254	1618
870.339	464
870.424	1457
870.509	1335
870.593	1585
870.678	1238
870.763	1475
870.847	908
870.932	1398
871.016	902
871.101	1214
871.186	1622
871.270	1741
871.355	1187
871.439	1411
871.523	1493
871.608	789
871.692	1318
871.777	1075
871.861	1393
871.945	774
872.030	1508
872.114	1005
872.198	667
872.282	-58
872.367	908
872.451	1107
872.535	1080
872.619	1342
872.703	476
872.787	1102
872.871	1696
872.955	1826
873.039	961
873.123	671
873.207	1654
873.291	851
873.375	841
873.459	1258
873.543	1366
873.627	424
873.711	795
873.794	980
873.878	156
873.962	476
874.045	1626
874.129	820
874.137	791
874.213	504
874.245	793
874.296	1261
874.352	376
874.380	-53
874.460	418
874.464	437
874.547	848
874.568	940
874.631	1208
874.676	926
874.714	679
874.784	1369
874.798	1509
874.881	2037
874.892	1933
874.965	1272
874.999	1244
875.048	1143
875.107	1368
875.131	1474
875.215	812
875.215	812
875.298	777
875.323	707
875.381	557
875.430	738
875.465	880
875.538	605
875.548	552
875.631	499
875.646	447
875.714	295
875.753	422
875.798	517
875.861	1008
875.881	1196
875.964	1016
875.968	988
876.047	318
876.076	408
876.130	657
876.183	273
876.213	41
876.291	787
876.296	845
876.379	346
876.398	432
876.462	649
876.506	563
876.545	464
876.613	692
876.628	741
876.711	690
876.721	714
876.794	1035
876.828	1090
876.877	1011
876.935	995
876.960	1075
877.043	941
877.043	941
877.125	643
877.150	670
877.208	891
877.258	944
877.291	885
877.365	586
877.374	568
877.456	592
877.472	715
877.539	1112
877.579	945
877.622	771
877.687	647
877.704	645
877.787	1304
877.794	1299
877.869	1194
877.901	1176
877.952	1150
878.008	1292
878.034	1303
878.115	185
878.117	165
878.199	406
878.222	426
878.282	533
878.329	665
878.364	714
878.437	783
878.447	800
878.529	65
878.544	157
878.611	549
878.651	570
878.694	608
878.758	536
878.776	482
878.858	262
878.865	241
878.941	178
878.972	147
879.023	-88
879.078	-127
879.105	5
879.185	324
879.187	325
879.269	1126
879.292	892
879.351	271
879.399	314
879.433	420
879.506	696
879.516	715
879.598	365
879.613	310
879.680	-71
879.720	-119
879.762	-165
879.827	-61
879.844	8
879.926	169
879.933	160
880.007	61
880.040	148
880.089	395
880.147	626
880.171	639
880.253	586
880.254	588
880.335	682
880.360	772
880.417	949
880.467	1179
880.499	1506
880.574	2004
880.580	2008
880.662	1440
880.680	1189
880.744	286
880.787	283
880.825	242
880.893	-37
880.907	-60
880.989	319
881.000	371
881.070	731
881.106	455
881.152	-32
881.213	183
881.233	396
881.315	465
881.319	491
881.396	560
881.426	471
881.478	314
881.532	614
881.559	645
881.639	74
881.641	67
881.722	518
881.745	408
881.803	130
881.852	164
881.885	231
881.958	452
881.966	439
882.047	494
882.064	399
882.129	94
882.171	262
882.210	528
882.277	777
882.291	842
882.372	732
882.383	697
882.454	140
882.489	-15
882.535	-196
882.596	-412
882.616	-423
882.697	-42
882.702	-41
882.778	-6
882.808	91
882.859	129
882.914	269
882.940	396
883.020	234
883.021	227
883.102	-480
883.127	-504
883.183	118
883.233	239
883.264	-16
883.339	251
883.345	307
883.426	126
883.445	43
883.507	-32
883.551	370
883.587	391
883.657	598
883.668	681
883.749	308
883.763	346
883.830	502
883.869	411
883.910	-57
883.975	-283
883.991	-82
884.072	287
884.081	352
884.152	-153
884.187	-510
884.233	-588
884.292	-37
884.314	96
884.394	-308
884.398	-303
884.475	130
884.504	231
884.555	-30
884.610	-102
884.636	58
884.716	167
884.716	163
884.797	-192
884.821	-260
884.877	412
884.927	607
884.958	273
885.033	-117
885.038	-108
885.118	-34
885.139	-5
885.199	-15
885.244	-52
885.279	53
885.350	444
885.359	446
885.439	320
885.456	286
885.520	547
885.561	867
885.600	663
885.667	-41
885.680	-48
885.760	87
885.773	110
885.840	-99
885.878	-217
885.920	-161
885.984	-6
886.000	47
886.080	97
886.089	122
886.160	-169
886.195	-307
886.240	-146
886.300	246
886.320	254
886.400	-98
886.406	-107
886.480	64
886.511	107
886.560	138
886.616	108
886.640	-111
886.720	-626
886.722	-638
886.800	-639
886.827	-556
886.879	-318
886.932	-273
886.959	-103
887.038	562
887.039	556
887.119	130
887.143	-10
887.198	436
887.248	823
887.278	481
887.354	-403
887.358	-386
887.437	97
887.459	218
887.517	352
887.564	453
887.596	426
887.669	427
887.676	399
887.755	-0
887.774	-69
887.835	120
887.880	258
887.914	184
887.985	-90
887.994	-107
888.073	36
888.090	-5
888.153	-345
888.195	-439
888.232	77
888.300	1019
888.311	886
888.391	-34
888.405	-213
888.470	155
888.510	375
888.549	100
888.615	-279
888.628	-288
888.708	-374
888.720	-377
888.787	-282
888.825	-221
888.866	-239
888.930	-262
888.945	-181
889.024	232
889.035	296
889.103	395
889.140	440
889.182	42
889.245	-482
889.261	-477
889.340	-473
889.349	-465
889.419	-300
889.454	-206
889.498	-312
889.559	-445
889.577	-523
889.656	-832
889.664	-852
889.735	-257
889.768	29
889.814	-165
889.873	-407
889.978	-903
890.083	-264
890.187	-165
890.292	134
890.397	-136
890.501	-118
890.606	862
890.710	312
890.815	-34
890.919	-285
891.024	-356
891.128	-469
891.233	-119
891.337	41
891.442	133
891.546	42
891.650	-679
891.755	-24
891.859	1307
891.963	-164
892.068	771
892.172	18
892.276	-601
892.380	36
892.484	-701
892.589	518
892.693	-189
892.797	-476
892.901	295
893.005	-217
893.109	411
893.213	-340
893.317	329
893.421	732
893.525	-593
893.629	-386
893.733	263
893.837	-566
893.941	-359
894.045	160
894.148	262
894.252	610
894.356	392
894.460	860
894.564	414
894.667	-976
894.771	-430
894.875	-740
894.978	-202
895.082	-748
895.186	28
895.289	-349
895.393	-380
895.496	384
895.600	-961
895.703	-514
895.807	-396
895.910	-42
896.014	-92
896.117	-380
896.221	0
896.324	360
896.427	733
896.531	336
896.634	-389
896.737	597
896.840	467
896.944	-335
897.047	-481
897.150	-17
897.253	171
897.356	-381
897.460	-399
897.563	-758
897.666	-35
897.769	-559
897.872	-363
897.975	-681
898.078	-21
898.181	-358
898.284	35
898.387	-713
898.490	-961
898.593	277
898.695	-354
898.798	-447
898.901	344
899.004	373
899.107	188
899.209	-289
899.312	-545
899.415	-251
899.518	-1123
899.620	213
899.723	-1023
899.826	-62
899.928	-231
900.031	-1039
900.133	270
900.236	-83
900.338	-277
900.441	-512
900.543	-49
900.646	-425
900.748	-892
900.851	-1031
900.953	170
901.055	-409
901.158	-12
901.260	440
901.362	-268
901.465	-742
901.567	-771
901.669	-290
901.771	-817
901.873	-959
901.976	-759
902.078	-178
902.180	-99
902.282	-457
902.384	-191
902.486	-435
902.588	-527
902.690	341
902.792	-507
902.894	-203
902.996	-9
903.098	-433
903.200	366
903.302	-20
903.404	68
903.505	-539
903.607	44
903.709	-463
903.811	-802
903.913	-599
904.014	-696
904.116	-281
904.218	-634
904.319	-872
904.421	-251
904.523	-807
904.624	120
904.726	-863
904.827	-467
904.929	-1131
905.030	-227
905.132	-135
905.233	-451
905.335	-423
905.436	250
905.537	218
905.639	780
905.740	-842
905.841	305
905.943	-66
906.044	-886
906.145	-296
906.247	-572
906.348	-818
906.449	-88
906.550	-897
906.651	45
906.752	-944
906.854	-417
906.955	-1155
907.056	-351
907.157	22
907.258	-1039
907.359	-523
907.460	-571
907.561	-651
907.662	-1164
907.762	-438
907.863	-962
907.964	241
908.065	-344
908.166	-757
908.267	439
908.367	-840
908.468	-541
908.569	15
908.670	-1239
908.770	-944
908.871	-232
908.971	-1155
909.072	-405
909.173	-549
909.273	-198
909.374	-720
909.474	211
909.575	21
909.675	-742
909.776	-573
909.876	-448
909.977	-280
910.077	-420
910.177	-798
910.278	-791
910.378	-984
910.478	-71
910.579	-47
910.679	-753
910.779	-1023
910.879	-660
910.980	80
911.080	-42
911.180	-1135
911.280	-444
911.380	-770
911.480	-214
911.580	126
911.680	-669
911.780	-716
911.880	-645
911.980	-537
912.080	-776
912.180	-693
912.280	-724
912.380	-483
912.480	-430
912.580	-117
912.679	-688
912.779	167
912.879	-840
912.979	-1225
913.078	-526
913.178	-1206
913.278	-636
913.377	-360
913.477	-695
913.577	-353
913.676	-124
913.776	-667
913.875	-364
913.975	83
914.074	-458
914.174	-275
914.273	-901
914.373	377
914.472	-470
914.572	-634
914.671	-1020
914.770	-1042
914.870	-118
914.969	-328
915.068	-926
915.167	-532
915.267	-308
915.366	-681
915.465	-650
915.564	-927
915.663	-966
915.763	-748
915.862	73
915.961	-301
916.060	-1004
916.159	-568
916.258	-438
916.357	-720
916.456	85
916.555	-800
916.654	-496
916.752	104
916.851	-544
916.950	-731
917.049	-783
917.148	-925
917.247	-71
917.345	-989
917.444	-285
917.543	-558
917.642	-465
917.740	-848
917.839	-866
917.937	-787
918.036	-805
918.135	-752
918.233	-481
918.332	-714
918.430	-1004
918.529	-951
918.627	-254
918.726	-351
918.824	29
918.923	-436
919.021	-871
919.119	-694
919.218	-266
919.316	-438
919.414	-739
919.512	-849
919.611	-549
919.709	-700
919.807	-489
919.905	-578
920.003	-847
920.102	-1013
920.200	-722
920.298	-593
920.396	-667
920.494	-872
920.592	-49
920.690	-73
920.788	-367
920.886	-364
920.984	-87
921.082	-435
921.180	31
921.277	-714
921.375	-789
921.473	-1122
921.571	-238
921.669	-1094
921.766	-646
921.864	200
921.962	-371
922.060	-1350
922.157	-674
922.255	-397
922.352	-1091
922.450	173
922.548	-829
922.645	-919
922.743	341
922.840	-549
922.938	-148
923.035	-1436
923.133	-1181
923.230	-1037
923.327	60
923.425	-224
923.522	-417
923.619	-184
923.717	-619
923.814	-1146
923.911	117
924.008	-475
924.106	-730
924.203	-451
924.300	-981
924.397	-1227
924.494	194
924.591	-226
924.688	-1151
924.786	-687
924.883	-155
924.979	-533
925.077	-968
925.173	-422
925.270	-473
925.367	-984
925.464	-913
925.561	-534
925.658	-97
925.755	-609
925.852	-394
925.948	-252
926.045	-754
926.142	-897
926.239	59
926.335	-523
926.432	-675
926.529	-334
926.625	106
926.722	-1668
926.818	-493
926.915	-26
927.011	-894
927.108	-691
927.204	-318
927.301	-356
927.397	-907
927.494	-1111
927.590	-336
927.687	-1176
927.783	-614
927.879	-1227
927.976	-955
928.072	-628
928.168	-264
928.264	-800
928.361	-1114
928.457	-992
928.553	-561
928.649	-672
928.745	-800
928.841	-460
928.937	-562
929.033	-505
929.129	-597
929.225	-323
929.321	-805
929.417	-929
929.513	-575
929.609	-462
929.705	-923
929.801	-872
929.897	-656
929.993	-710
930.089	-960
930.184	-563
930.280	6
930.376	-962
930.471	-1753
930.567	-159
930.663	-902
930.758	-733
930.854	-563
930.950	-994
931.045	-847
931.141	-736
931.236	-192
931.332	-442
931.427	-615
931.523	-911
931.618	-1229
931.714	-1254
931.809	-51
931.905	-480
932.000	-147
932.095	-1068
932.191	-509
932.286	-1328
932.381	-1087
932.476	-873
932.572	-941
932.667	-766
932.762	-483
932.857	-457
932.952	-1269
933.047	-617
933.142	163
933.237	-628
933.332	-1385
933.427	-1300
933.522	-422
933.617	-562
933.712	394
933.807	-46
933.902	-1477
933.997	-528
934.092	-626
934.187	-756
934.282	-514
934.376	-720
934.471	-596
934.566	-999
934.661	-1050
934.755	-1004
934.850	-829
934.945	-393
935.039	-222
935.134	-613
935.228	-255
935.323	-1148
935.417	95
935.512	-378
935.606	-945
935.701	-420
935.795	-1237
935.890	-617
935.984	-120
936.079	-789
936.173	-557
936.267	-1174
936.362	-1539
936.456	-963
936.550	-1333
936.644	-1762
936.738	-1035
936.833	-285
936.927	-237
937.021	134
937.115	-517
937.209	-795
937.303	-423
937.397	-663
937.491	-71
937.585	-446
937.679	-618
937.773	-770
937.867	-512
937.961	-1351
938.055	-815
938.149	-413
938.243	-793
938.337	-873
938.430	-161
938.524	-629
938.618	-590
938.712	-34
938.805	-659
938.899	-717
938.993	-1246
939.086	-748
939.180	-549
939.274	-769
939.367	-348
939.461	-185
939.554	-731
939.648	-560
939.741	-1252
939.835	-1518
939.928	-1065
940.022	-850
940.115	68
940.208	-694
940.302	-1091
940.395	-1745
940.488	-989
940.582	-167
940.675	-1318
940.768	-372
940.861	-467
940.954	-1136
941.048	-559
941.141	-946
941.234	-47
941.327	-726
941.420	-297
941.513	-441
941.606	-1053
941.699	-103
941.792	-1224
941.885	-978
941.978	-510
942.071	-1127
942.164	-1465
942.257	-1216
942.349	-358
942.442	-896
942.535	-1192
942.628	-777
942.721	-1196
942.813	-1178
942.906	-173
942.999	-701
943.091	-1272
943.184	-1362
943.277	-1284
943.369	-566
943.462	-494
943.554	-775
943.647	-1172
943.739	-215
943.832	-652
943.924	-1466
944.017	-110
944.109	-1848
944.201	-760
944.294	-771
944.386	-892
944.478	-986
944.571	-1323
944.663	-844
944.755	-623
944.847	-953
944.940	-1353
945.032	-478
945.124	-1065
945.216	338
945.308	-1300
945.400	-1091
945.492	-711
945.584	-900
945.676	-1277
945.768	-714
945.860	-492
945.952	-783
946.044	-102
946.136	-339
946.228	-691
946.320	-830
946.412	-587
946.503	-317
946.595	-611
946.687	-1183
946.779	-1200
946.870	-399
946.962	-470
947.054	-1030
947.145	-223
947.237	-1164
947.329	-863
947.420	-1039
947.512	-1458
947.603	-891
947.695	-149
947.786	-738
947.878	-1255
947.969	-1059
948.061	-1633
948.152	-1628
948.243	-667
948.335	-1263
948.426	-1119
948.517	-1007
948.609	-966
948.700	-861
948.791	-370
948.882	-561
948.973	-762
949.065	-1349
949.156	-683
949.247	-1377
949.338	-100
949.429	-1257
949.520	-1051
949.611	-1691
949.702	-223
949.793	-1211
949.884	-983
949.975	-1249
950.066	-1736
950.157	-916
950.247	-1085
950.338	-1289
950.429	-1076
950.520	-597
950.611	-1012
950.701	-999
950.792	-934
950.883	-316
950.973	-652
951.064	-1118
951.155	-591
951.245	-708
951.336	-480
951.427	-1097
951.517	-565
951.608	-1130
951.698	-1415
951.788	-975
951.879	-237
951.969	-955
952.060	-1160
952.150	-1760
952.240	-455
952.331	-2366
952.421	1233
952.511	-1451
952.602	-490
952.692	-1540
952.782	-756
952.872	-1309
952.962	-960
953.052	-887
953.143	-1642
953.233	-783
953.323	-129
953.413	-483
953.503	-654
953.593	-1965
953.683	-1349
953.773	-1153
953.863	-738
953.953	-727
954.042	-830
954.132	-1164
954.222	-539
954.312	-1109
954.402	-1352
954.492	-1753
954.581	-947
954.671	-1760
954.761	-2182
954.850	-384
954.940	-605
955.030	-1276
955.119	-1330
955.209	8
955.298	-1367
955.388	-1186
955.477	-484
955.567	-1277
955.656	-1045
955.746	-804
955.835	-162
955.925	-1163
956.014	-696
956.103	-859
956.193	-595
956.282	-156
956.371	-1359
956.461	-1241
956.550	-1331
956.639	-619
956.728	-606
956.817	-718
956.906	-456
956.995	-301
957.085	-1269
957.174	-1560
957.263	-1794
957.352	-1361
957.441	-607
957.530	-739
957.619	-822
957.708	-1587
957.796	-608
957.885	-1795
957.974	-867
958.063	-460
958.152	-2133
958.241	-795
958.329	-973
958.418	-1357
958.507	-502
958.596	-481
958.684	-876
958.773	-1250
958.861	-1718
958.950	-1204
959.039	-682
959.127	-831
959.216	-954
959.304	-845
959.393	-1076
959.481	-1192
959.570	-676
959.658	-1521
959.746	-192
959.835	-1280
959.923	-547
960.011	-1515
960.100	-167
960.188	-357
960.276	-1718
960.365	-1541
960.453	-746
960.541	-1649
960.629	140
960.717	-965
960.805	-992
960.893	-561
960.981	-1133
961.069	-1096
961.158	-1075
961.245	-426
961.333	-190
961.421	-1341
961.509	-456
961.597	-650
961.685	-791
961.773	-1335
961.861	-1501
961.949	-20
962.036	-1706
962.124	-853
962.212	-856
962.299	-1955
962.387	-1214
962.475	-774
962.562	-1470
962.650	-316
962.738	-954
962.825	-552
962.913	-1137
963.000	-1077
963.088	-745
963.175	-464
963.263	-897
963.350	-1693
963.438	-993
963.525	-1119
963.612	-647
963.700	-936
963.787	110
963.874	-930
963.962	490
964.049	-611
964.136	-743
964.223	-852
964.310	-1060
964.398	-849
964.485	-462
964.572	-1833
964.659	-211
964.746	-865
964.833	-638
964.920	-578
965.007	-558
965.094	-1012
965.181	-643
965.268	-971
965.355	-1174
965.441	-687
965.528	-1375
965.615	-750
965.702	-536
965.789	-1556
965.875	-1007
965.962	-956
966.049	-1428
966.136	-807
966.222	-684
966.309	-1501
966.395	-2265
966.482	-1024
966.569	-515
966.655	-598
966.742	-1240
966.828	-934
966.915	-960
967.001	-707
967.087	-1964
967.174	-1264
967.260	-23
967.347	-1747
967.433	-1679
967.519	175
967.605	-1282
967.692	-1306
967.778	-868
967.864	-1425
967.950	-351
968.036	-1655
968.123	-353
968.209	-892
968.295	-1627
968.381	-199
968.467	-825
968.553	-1856
968.639	63
968.725	-1536
968.811	-407
968.897	-1118
968.983	-413
969.069	-1785
969.154	-705
969.240	-78
969.326	-1584
969.412	-1405
969.497	-1210
969.583	-1216
969.669	-314
969.755	-564
969.840	-1456
969.926	-588
970.012	-1937
970.097	-20
970.183	-1163
970.268	-1163
970.354	-156
970.439	-1782
970.525	-27
970.610	-2746
970.696	54
970.781	-982
970.866	-716
970.952	233
971.037	-1798
971.122	-704
971.208	-1366
971.293	-997
971.378	-2025
971.463	-527
971.549	-222
971.634	-555
971.719	-1069
971.804	-1311
971.889	178
971.974	-889
972.059	-566
972.144	-1269
972.229	-579
972.314	-900
972.399	-1107
972.484	-1041
972.569	-533
972.654	-1826
972.739	-101
972.824	-1466
972.908	-1735
972.993	-1109
973.078	-1014
973.163	-1306
973.247	-776
973.332	-2122
973.417	334
973.501	-1451
973.586	-1057
973.671	-990
973.755	-850
973.840	-947
973.924	-488
974.009	-848
974.093	-1403
974.178	-361
974.262	-535
974.346	-1283
974.431	-1244
974.515	-1602
974.600	-903
974.684	-932
974.768	-1258
974.852	425
974.937	-2429
975.021	-388
975.105	-34
975.189	-999
975.273	-401
975.358	-1296
975.442	-850
975.526	-325
975.610	-1242
975.694	-1417
975.778	-17
975.862	-557
975.946	-2923
976.030	242
976.114	-1210
976.198	-325
976.281	-906
976.365	-546
976.449	-1121
976.533	-1295
976.617	-1673
976.700	-1257
976.784	-668
976.868	-1333
976.951	-1268
977.035	-565
977.119	228
977.202	-1505
977.286	-906
977.369	-1677
977.453	-445
977.536	-1124
977.620	-797
977.703	-570
977.787	-1657
977.870	-344
977.953	-900
978.037	-2315
978.120	-545
978.203	-1659
978.287	-925
978.370	-612
978.453	-1568
978.536	-1311
978.620	-548
978.703	-443
978.786	-1178
978.869	-2040
978.952	-1780
979.035	626
979.118	-590
979.201	-634
979.284	-147
979.367	-1293
979.450	-823
979.533	-1386
979.616	-1018
979.699	-798
979.782	-165
979.865	-1199
979.948	-1278
980.030	-1418
980.113	-681
980.196	-1292
980.279	-980
980.361	-1777
980.444	-421
980.526	-820
980.609	-692
980.692	-1341
980.774	-886
980.857	-2853
980.939	-663
981.022	-777
981.104	-1054
981.187	-1622
981.269	202
981.352	-1376
981.434	-1640
981.516	-1790
981.599	-498
981.681	-64
981.763	-1635
981.846	-566
981.928	-1349
982.010	-1401
982.092	-875
982.174	-135
982.256	-724
982.339	-1355
982.421	-324
982.503	-755
982.585	-1973
982.667	-692
982.749	-691
982.831	-584
982.913	-1794
982.995	-794
983.077	-1666
983.158	-593
983.240	-2519
983.322	-425
983.404	-259
983.486	-1715
983.568	-1062
983.649	-565
983.731	-788
983.813	-1181
983.894	-736
983.976	-2015
984.058	-1594
984.139	-225
984.221	-2486
984.302	-524
984.384	-619
984.465	-1609
984.547	-1271
984.628	-2602
984.710	-321
984.791	-932
984.872	-1117
984.954	-826
985.035	-1042
985.116	-1954
985.198	-2007
985.279	-265
985.360	-1056
985.441	-1673
985.522	-888
985.604	-986
985.685	-3892
985.766	74
985.847	160
985.928	-1732
986.009	-1286
986.090	-1003
986.171	-305
986.252	-1656
986.333	-748
986.414	-956
986.495	-253
986.576	-1600
986.656	-1240
986.737	-1248
986.818	-491
986.899	-1414
986.980	-1632
987.060	-618
987.141	-1959
987.222	-1095
987.302	-1262
987.383	-715
987.464	-1378
987.544	-1801
987.625	-793
987.705	-467
987.786	-915
987.866	-1264
987.947	-1044
988.027	-1891
988.108	-2170
988.188	-1204
988.268	-344
988.349	-1373
988.429	-1275
988.509	-596
988.589	-1588
988.670	-2803
988.750	-243
988.830	-916
988.910	-774
988.990	-1216
989.070	-701
989.151	-1541
989.231	-1702
989.311	-1056
989.391	-1453
989.471	-854
989.551	-1291
989.631	-1540
989.711	-796
989.791	-999
989.870	-1915
989.950	-333
990.030	-1228
990.110	-1286
990.190	-2044
990.269	-1355
990.349	-808
990.429	-1589
990.509	-772
990.588	-775
990.668	-994
990.747	-918
990.827	-1840
990.907	-696
990.986	-1277
991.066	-1152
991.145	-1657
991.225	-705
991.304	-1272
991.383	-836
991.463	-1045
991.542	-899
991.622	-530
991.701	-1234
991.780	-1570
991.859	-904
991.939	-1516
992.018	-1278
992.097	-671
992.176	-1616
992.256	-362
992.335	-2316
992.414	-252
992.493	-1675
992.572	-1652
992.651	-3
992.730	-1164
992.809	-897
992.888	-1182
992.967	-885
993.046	-1175
993.125	-1938
993.203	-1641
993.282	-832
993.361	-1125
993.440	-702
993.519	-1464
993.597	-1329
993.676	-1759
993.755	-389
993.834	-1298
993.912	-2229
993.991	59
994.069	-1286
994.148	-907
994.226	-1662
994.305	-929
994.384	-1150
994.462	-60
994.540	-2238
994.619	-1578
994.697	-722
994.776	-1865
994.854	-863
994.932	-1299
995.011	-462
995.089	-1214
995.167	-1092
995.245	-1149
995.324	-2265
995.402	-800
995.480	-1260
995.558	-1354
995.636	-1785
995.714	-2339
995.792	187
995.870	-1105
995.948	-1474
996.026	-672
996.104	-2082
996.182	-921
996.260	-2162
996.338	-1217
996.416	-1949
996.494	-702
996.572	-792
996.649	-1364
996.727	-2024
996.805	-1646
996.883	-1606
996.960	-1788
997.038	-1544
997.116	-741
997.193	-2252
997.271	-1196
997.348	-2238
997.426	-1478
997.504	-2088
997.581	-503
997.658	-664
997.736	-2132
997.813	-1430
997.891	-518
997.968	-2113
998.046	-1442
998.123	-2119
998.200	-1077
998.277	-2182
998.355	-332
998.432	-1741
998.509	-647
998.586	-1383
998.663	-945
998.741	-1117
998.818	-1328
998.895	-2825
998.972	-1387
999.049	-1448
999.126	-919
999.203	-925
999.280	-1342
999.357	-2071
999.434	-1653
999.511	-1876
999.587	-595
999.664	-2076
999.741	-1317
999.818	-240
999.895	-2249
999.971	-1703
1000.048	-1440
1000.125	-689
1000.202	-2146
1000.278	-1756
1000.355	-965
1000.431	-1161
1000.508	-1702
1000.584	-291
1000.661	-1011
1000.738	-1539
1000.814	-1869
1000.890	-1547
1000.967	-1363
1001.043	-1423
1001.120	-2259
1001.196	-1181
1001.272	-1915
1001.349	-1056
1001.425	-854
1001.501	-1256
1001.577	-934
1001.654	-1007
1001.730	-1661
1001.806	-1793
1001.882	-1770
1001.958	-829
1002.034	-801
1002.110	-1106
1002.186	-1529
1002.262	-1427
1002.338	-1199
1002.414	-1066
1002.490	-679
1002.566	-967
1002.642	-1355
1002.718	-493
1002.794	-1461
1002.870	-789
1002.945	-1849
1003.021	-866
1003.097	-586
1003.173	-490
1003.248	-1689
1003.324	-1350
1003.400	-782
1003.475	-1792
1003.551	-1312
1003.626	-903
1003.702	-1021
1003.777	-1479
1003.853	-1677
1003.928	-1361
1004.004	-1132
1004.079	-950
1004.155	-1067
1004.230	-2643
1004.305	154
1004.381	-1583
1004.456	-1715
1004.531	-1141
1004.607	-1489
1004.682	-1440
1004.757	-1024
1004.832	-1726
1004.907	-1724
1004.982	-1699
1005.057	-921
1005.133	-1892
1005.208	-1707
1005.283	-898
1005.358	-574
1005.433	-2336
1005.508	-889
1005.583	-2343
1005.657	-1234
1005.732	-2178
1005.807	-1871
1005.882	-1850
1005.957	-1033
1006.032	-1405
1006.106	-1281
1006.181	-1966
1006.256	-1607
1006.331	-2262
1006.405	-1696
1006.480	-1894
1006.554	-1797
1006.629	-766
1006.704	-1294
1006.778	-871
1006.853	-583
1006.927	-1576
1007.002	-1917
1007.076	-1314
1007.150	-1440
1007.225	-1172
1007.299	-1123
1007.373	-1564
1007.448	-1409
1007.522	-349
1007.596	-1468
1007.671	-1623
1007.745	-1062
1007.819	-1978
1007.893	-2129
1007.967	-1228
1008.041	-2229
1008.115	-1162
1008.190	-1616
1008.264	-1355
1008.338	-2557
1008.412	-1525
1008.486	-2228
1008.560	-1205
1008.633	-1539
1008.707	-1974
1008.781	-1361
1008.855	-2168
1008.929	-1334
1009.003	-2367
1009.076	-1640
1009.150	-701
1009.224	-1445
1009.298	-1053
1009.371	-1722
1009.445	-823
1009.519	-777
1009.592	-2339
1009.666	-1202
1009.739	-1874
1009.813	-1191
1009.886	-1121
1009.960	-1812
1010.033	-2316
1010.107	-812
1010.180	-2613
1010.253	-1927
1010.327	-2303
1010.400	-1505
1010.473	-1544
1010.547	-531
1010.620	-2049
1010.693	-773
1010.766	-1778
1010.840	-1437
1010.913	-1600
1010.986	-1904
1011.059	-1255
1011.132	-2045
1011.205	-884
1011.278	-1374
1011.351	-1958
1011.424	-2011
1011.497	-1980
1011.570	-1941
1011.643	-1618
1011.716	-1700
1011.789	-1554
1011.862	-1466
1011.934	-1152
1012.007	-2435
1012.080	-812
1012.153	-1857
1012.225	-603
1012.298	-2318
1012.371	-2182
1012.443	-1299
1012.516	-2114
1012.588	-1331
1012.661	-2107
1012.733	-1726
1012.806	-579
1012.879	-1856
1012.951	-1246
1013.023	-1788
1013.096	-1587
1013.168	-2336
1013.241	-1506
1013.313	-2191
1013.385	-2388
1013.458	-1167
1013.530	-1205
1013.602	-2142
1013.674	-1631
1013.746	-3092
1013.819	-1797
1013.891	-1025
1013.963	-846
1014.035	-2235
1014.107	-1419
1014.179	-1330
1014.251	-2319
1014.323	-1581
1014.395	-1729
1014.467	-1246
1014.539	-813
1014.611	-1700
1014.683	-2306
1014.754	-1423
1014.826	-1455
1014.898	-675
1014.970	-2089
1015.042	-1224
1015.113	-811
1015.185	-2113
1015.257	-2307
1015.328	-1422
1015.400	-1680
1015.471	-1073
1015.543	-2283
1015.615	-1511
1015.686	-2055
1015.757	-1467
1015.829	-989
1015.901	-1943
1015.972	-2400
1016.043	-2160
1016.115	-2063
1016.186	-1062
1016.257	-2551
1016.328	-915
1016.400	-1278
1016.471	-1902
1016.542	-1519
1016.613	-1468
1016.685	-1927
1016.756	-1967
1016.827	-1854
1016.898	-2374
1016.969	-790
1017.040	-1923
1017.111	-2372
1017.182	-1198
1017.253	-2409
1017.324	-1521
1017.395	-2617
1017.466	-1667
1017.537	-2166
1017.608	-1416
1017.678	-1781
1017.749	-2089
1017.820	-1268
1017.891	-2063
1017.961	-1843
1018.032	-920
1018.103	-1111
1018.173	-2015
1018.244	-1758
1018.315	-1363
1018.385	-1099
1018.456	-1840
1018.526	-1406
1018.597	-2142
1018.667	-2131
1018.738	-1695
1018.808	-1967
1018.878	-1666
1018.949	-2232
1019.019	-1375
1019.089	-1540
1019.160	-2166
1019.230	-1893
1019.300	-1526
1019.371	-2729
1019.441	-1191
1019.511	-1445
1019.581	-1631
1019.651	-1439
1019.721	-2201
1019.791	-2055
1019.861	-1571
1019.931	-2211
1020.001	-1743
1020.071	-1476
1020.141	-1626
1020.211	-1546
1020.281	-2008
1020.351	-1252
1020.421	-2402
1020.491	-1658
1020.560	-1883
1020.630	-1919
1020.700	-1793
1020.770	-2557
1020.839	-1295
1020.909	-2208
1020.979	-2289
1021.048	-2070
1021.118	-2105
1021.187	-2461
1021.257	-2125
1021.326	-1279
1021.396	-1655
1021.465	-1865
1021.535	-1857
1021.604	-1698
1021.674	-1552
1021.743	-1346
1021.812	-1843
1021.882	-1719
1021.951	-2041
1022.020	-2339
1022.089	-920
1022.159	-2342
1022.228	-1286
1022.297	-2639
1022.366	-2305
1022.435	-2646
1022.504	-1593
1022.573	-2594
1022.642	-1182
1022.711	-2259
1022.781	-1692
1022.849	-2169
1022.918	-2125
1022.987	-1713
1023.056	-2155
1023.125	-1570
1023.194	-1574
1023.263	-1298
1023.331	-1282
1023.400	-2652
1023.469	-1858
1023.538	-1675
1023.606	-2294
1023.675	-2024
1023.744	-2528
1023.812	-2414
1023.881	-1812
1023.949	-2563
1024.018	-1913
1024.086	-1878
1024.155	-2037
1024.223	-2403
1024.292	-1431
1024.360	-1532
1024.429	-1961
1024.497	-2390
1024.565	-1001
1024.634	-1696
1024.702	-852
1024.770	-2140
1024.838	-2325
1024.907	-2219
1024.975	-1585
1025.043	-1014
1025.111	-2053
1025.179	-1913
1025.247	-1184
1025.315	-2223
1025.383	-1605
1025.451	-1808
1025.519	-2180
1025.587	-2357
1025.655	-1177
1025.723	-2155
1025.791	-2810
1025.859	-2290
1025.927	-1831
1025.995	-1754
1026.062	-1866
1026.130	-1528
1026.198	-2397
1026.266	-2848
1026.333	-1724
1026.401	-1852
1026.469	-2234
1026.536	-1870
1026.604	-2059
1026.671	-2447
1026.739	-977
1026.806	-931
1026.874	-2445
1026.941	-2149
1027.009	-2060
1027.076	-1593
1027.144	-736
1027.211	-2450
1027.278	-2758
1027.345	-1844
1027.413	-1803
1027.480	-1539
1027.547	-2551
1027.614	-2240
1027.682	-1554
1027.749	-2439
1027.816	-2563
1027.883	-1618
1027.950	-1329
1028.017	-2103
1028.084	-1110
1028.151	-1792
1028.218	-1436
1028.285	-2041
1028.352	-2029
1028.419	-2105
1028.486	-2144
1028.553	-2135
1028.619	-2440
1028.686	-1819
1028.753	-2364
1028.820	-2323
1028.886	-1596
1028.953	-1814
1029.020	-1804
1029.086	-2552
1029.153	-1408
1029.220	-1925
1029.286	-2102
1029.353	-2063
1029.419	-2351
1029.486	-1569
1029.552	-1713
1029.619	-1982
1029.685	-2096
1029.751	-1866
1029.818	-1308
1029.884	-2396
1029.951	-730
1030.017	-2277
1030.083	-1560
1030.149	-1182
1030.216	-2710
1030.282	-1712
1030.348	-1912
1030.414	-1807
1030.480	-2528
1030.546	-2035
1030.612	-1501
1030.678	-2154
1030.744	-1575
1030.810	-3336
1030.876	-1889
1030.942	-2022
1031.008	-1887
1031.074	-1900
1031.140	-2196
1031.206	-1424
1031.272	-2041
1031.337	-1497
1031.403	-947
1031.469	-1430
1031.534	-1041
1031.600	-2017
1031.666	-2588
1031.731	-2327
1031.797	-1597
1031.863	-1698
1031.928	-2339
1031.994	-1200
1032.059	-1269
1032.125	-2519
1032.190	-2575
1032.256	-2258
1032.321	-1950
1032.386	-1908
1032.452	-1978
1032.517	-1744
1032.582	-2315
1032.647	-2092
1032.713	-2776
1032.778	-1800
1032.843	-1474
1032.908	-1734
1032.974	-1557
1033.039	-1835
1033.104	-1483
1033.169	-2167
1033.234	-1911
1033.299	-2129
1033.364	-2531
1033.429	-2406
1033.494	-1474
1033.559	-1335
1033.624	-1846
1033.688	-1470
1033.753	-2282
1033.818	-2216
1033.883	-2173
1033.948	-1659
1034.013	-1794
1034.077	-2895
1034.142	-2137
1034.207	-2220
1034.271	-2179
1034.336	-979
1034.400	-1976
1034.465	-2096
1034.530	-1874
1034.594	-2367
1034.658	-1761
1034.723	-2615
1034.787	-1891
1034.852	-1980
1034.916	-1982
1034.981	-2365
1035.045	-1423
1035.109	-1457
1035.173	-1624
1035.238	-1653
1035.302	-2092
1035.366	-2154
1035.430	-2079
1035.495	-2703
1035.559	-1905
1035.623	-1251
1035.687	-1651
1035.751	-2403
1035.815	-2157
1035.879	-2116
1035.943	-1040
1036.007	-2450
1036.071	-2050
1036.135	-1930
1036.198	-1751
1036.262	-2578
1036.326	-2226
1036.390	-2193
1036.454	-2146
1036.517	-2442
1036.581	-1992
1036.645	-2387
1036.709	-2570
1036.772	-1949
1036.836	-1701
1036.900	-2294
1036.963	-2336
1037.026	-1835
1037.090	-2079
1037.154	-2123
1037.217	-1843
1037.280	-1980
1037.344	-2466
1037.407	-2230
1037.471	-1331
1037.534	-2825
1037.597	-1604
1037.661	-2173
1037.724	-2311
1037.787	-2617
1037.850	-1597
1037.913	-2529
1037.977	-1468
1038.040	-2170
1038.103	-2145
1038.166	-2220
1038.229	-1221
1038.292	-1705
1038.355	-1574
1038.418	-2325
1038.481	-2002
1038.544	-2470
1038.607	-2117
1038.670	-2098
1038.732	-1858
1038.795	-2564
1038.858	-2752
1038.921	-1324
1038.984	-1761
1039.046	-2123
1039.109	-2311
1039.172	-2050
1039.234	-2355
1039.297	-2009
1039.360	-1914
1039.422	-1946
1039.485	-1983
1039.547	-2055
1039.610	-1896
1039.672	-2341
1039.734	-2629
1039.797	-2231
1039.859	-2596
1039.922	-2403
1039.984	-2211
1040.046	-2373
1040.109	-2027
1040.171	-2282
1040.233	-3271
1040.295	-2239
1040.358	-2042
1040.420	-2938
1040.482	-2416
1040.544	-1978
1040.606	-2187
1040.668	-2025
1040.730	-1501
1040.792	-2438
1040.854	-2589
1040.916	-1802
1040.978	-2531
1041.040	-1935
1041.102	-2251
1041.164	-2086
1041.225	-2550
1041.287	-2389
1041.349	-1953
1041.411	-3062
1041.472	-1717
1041.534	-2858
1041.596	-3159
1041.657	-1887
1041.719	-2085
1041.781	-2388
1041.842	-1876
1041.904	-2401
1041.965	-2200
1042.027	-2428
1042.088	-2912
1042.150	-2158
1042.211	-2467
1042.272	-1956
1042.334	-2956
1042.395	-1761
1042.456	-2498
1042.518	-2840
1042.579	-1842
1042.640	-2167
1042.701	-2052
1042.763	-2373
1042.824	-2505
1042.885	-2746
1042.946	-2128
1043.007	-2985
1043.068	-1954
1043.129	-2482
1043.190	-1998
1043.251	-1739
1043.312	-2577
1043.373	-1837
1043.434	-2282
1043.495	-1909
1043.556	-1952
1043.616	-1673
1043.677	-1317
1043.738	-2949
1043.799	-2365
1043.859	-2303
1043.920	-2584
1043.981	-2484
1044.041	-1939
1044.102	-2532
1044.162	-2383
1044.223	-2211
1044.284	-2718
1044.344	-2923
1044.405	-1473
1044.465	-2265
1044.525	-1806
1044.586	-2272
1044.646	-2914
1044.707	-2366
1044.767	-2508
1044.827	-1977
1044.887	-2686
1044.948	-1944
1045.008	-2145
1045.068	-2078
1045.128	-1403
1045.188	-2301
1045.249	-1774
1045.309	-2530
1045.369	-2293
1045.429	-2455
1045.489	-2304
1045.549	-2061
1045.609	-1999
1045.669	-2097
1045.729	-2181
1045.789	-1978
1045.848	-1660
1045.908	-2254
1045.968	-1700
1046.028	-2107
1046.088	-779
1046.147	-1824
1046.207	-1599
1046.267	-2171
1046.326	-1095
1046.386	-1893
1046.446	-1080
1046.505	-1753
1046.565	-1969
1046.624	-1076
1046.684	-1337
1046.743	-748
1046.803	-1421
1046.862	-761
1046.922	0
