'Start Wavelength	183.907
'End Wavelength	1046.922
'Gate Delay	5.000
'Gate Width (ms)	1.050
'Laser Output Level	0.000
'X Position	0.000
'Y Position	0.000
'Z Position	0.000
'Grid Point Number	1.000
'Shot Number	100.000
183.907	536.000
183.977	-259.000
184.047	408
184.116	-419
184.186	-377
184.256	48
184.325	72
184.395	-910
184.465	1025
184.534	68
184.604	34
184.674	166
184.743	-14
184.813	423
184.883	461
184.952	-40
185.022	225
185.092	267
185.161	13
185.231	-360
185.301	452
185.370	76
185.440	-10
185.509	-443
185.579	382
185.649	-248
185.718	152
185.788	-179
185.857	317
185.927	-308
185.996	481
186.066	-377
186.136	58
186.205	126
186.275	334
186.344	-158
186.414	777
186.483	405
186.553	234
186.622	51
186.692	-273
186.761	304
186.831	445
186.900	-178
186.970	882
187.039	-512
187.109	156
187.178	-109
187.248	347
187.317	-174
187.387	-195
187.456	191
187.526	-344
187.595	541
187.664	1164
187.734	244
187.803	163
187.873	109
187.942	687
188.012	356
188.081	214
188.150	165
188.220	82
188.289	527
188.358	512
188.428	1140
188.497	-154
188.567	584
188.636	-148
188.705	-518
188.775	-559
188.844	-901
188.913	970
188.983	91
189.052	-2
189.121	-205
189.191	-361
189.260	493
189.329	-50
189.399	332
189.468	675
189.537	-272
189.606	613
189.676	283
189.745	412
189.814	566
189.883	135
189.953	725
190.022	257
190.091	-85
190.161	774
190.230	311
190.299	557
190.368	-300
190.437	426
190.507	789
190.576	53
190.645	374
190.714	-208
190.783	344
190.853	1239
190.922	256
190.991	302
191.060	439
191.129	-147
191.198	-491
191.268	638
191.337	482
191.406	850
191.475	352
191.544	395
191.613	717
191.682	5
191.752	-321
191.821	702
191.890	-13
191.959	677
192.028	-389
192.097	43
192.166	-267
192.235	81
192.304	68
192.373	-123
192.442	171
192.511	-406
192.580	83
192.650	59
192.719	-746
192.788	885
192.857	660
192.926	683
192.995	241
193.064	429
193.133	-38
193.202	1199
193.271	939
193.340	771
193.409	1421
193.478	1022
193.547	1032
193.615	806
193.684	993
193.753	352
193.822	488
193.891	578
193.960	737
194.029	806
194.098	671
194.167	-22
194.236	783
194.305	752
194.374	824
194.443	-45
194.512	869
194.580	1005
194.649	296
194.718	596
194.787	235
194.856	-193
194.925	157
194.994	605
195.062	766
195.131	275
195.200	-98
195.269	1048
195.338	209
195.407	391
195.475	-720
195.544	628
195.613	168
195.682	807
195.751	-92
195.819	553
195.888	601
195.957	1104
196.026	842
196.094	-507
196.163	-402
196.232	483
196.301	269
196.369	-145
196.438	-134
196.507	624
196.576	-24
196.644	-204
196.713	-34
196.782	272
196.850	91
196.919	987
196.988	365
197.056	-297
197.125	-294
197.194	1047
197.262	337
197.331	965
197.400	481
197.468	572
197.537	38
197.606	-256
197.674	671
197.743	831
197.812	195
197.880	417
197.949	498
198.017	369
198.086	444
198.155	292
198.223	229
198.292	580
198.360	1164
198.429	-3
198.497	388
198.566	378
198.635	844
198.703	360
198.772	199
198.840	1081
198.909	31
198.977	-169
199.046	408
199.114	435
199.183	438
199.251	331
199.320	-66
199.388	514
199.457	-2
199.525	946
199.594	634
199.662	760
199.731	387
199.799	722
199.867	719
199.936	316
200.004	545
200.073	1028
200.141	-372
200.210	252
200.278	-50
200.346	441
200.415	858
200.483	834
200.552	808
200.620	50
200.688	494
200.757	435
200.825	-172
200.893	650
200.962	-880
201.030	-162
201.098	317
201.167	620
201.235	456
201.303	416
201.372	-618
201.440	635
201.508	556
201.577	513
201.645	1091
201.713	125
201.781	-9
201.850	579
201.918	513
201.986	1004
202.055	578
202.123	692
202.191	477
202.259	611
202.327	159
202.396	70
202.464	224
202.532	292
202.600	290
202.669	130
202.737	253
202.805	-277
202.873	249
202.941	1333
203.009	203
203.078	-7
203.146	547
203.214	165
203.282	-45
203.350	1140
203.418	467
203.487	759
203.555	368
203.623	751
203.691	660
203.759	709
203.827	438
203.895	465
203.963	-490
204.031	313
204.099	535
204.168	410
204.236	500
204.304	789
204.372	1130
204.440	734
204.508	405
204.576	324
204.644	583
204.712	50
204.780	895
204.848	1107
204.916	195
204.984	46
205.052	825
205.120	1086
205.188	64
205.256	447
205.324	-148
205.392	-31
205.460	1058
205.528	185
205.596	451
205.664	350
205.732	-200
205.799	780
205.867	1429
205.935	86
206.003	1147
206.071	510
206.139	610
206.207	513
206.275	528
206.343	124
206.411	288
206.478	747
206.546	277
206.614	1041
206.682	423
206.750	872
206.818	1305
206.885	1497
206.953	-562
207.021	1009
207.089	1029
207.157	440
207.225	404
207.292	751
207.360	26
207.428	744
207.496	672
207.563	133
207.631	735
207.699	324
207.767	467
207.834	778
207.902	-208
207.970	-215
208.038	650
208.105	1053
208.173	589
208.241	1391
208.309	473
208.376	1370
208.444	287
208.512	398
208.579	141
208.647	1040
208.715	1836
208.782	488
208.850	633
208.918	894
208.985	410
209.053	943
209.120	-162
209.188	958
209.256	595
209.323	261
209.391	281
209.459	688
209.526	1035
209.594	339
209.661	707
209.729	1021
209.796	805
209.864	613
209.932	-157
209.999	2049
210.067	606
210.134	227
210.202	487
210.269	1143
210.337	1714
210.404	928
210.472	829
210.539	298
210.607	317
210.674	1760
210.742	261
210.809	713
210.877	1026
210.944	1797
211.012	367
211.079	1672
211.146	990
211.214	1108
211.281	343
211.349	1028
211.416	479
211.484	1376
211.551	710
211.618	-160
211.686	1199
211.753	737
211.821	838
211.888	1867
211.955	609
212.023	1394
212.090	746
212.157	1291
212.225	426
212.292	1672
212.359	1513
212.427	4140
212.494	1723
212.561	1702
212.629	1608
212.696	849
212.763	1258
212.831	878
212.898	896
212.965	739
213.032	1747
213.100	939
213.167	486
213.234	1485
213.301	1421
213.369	872
213.436	225
213.503	588
213.570	1788
213.638	880
213.705	233
213.772	22
213.839	451
213.906	1700
213.973	1284
214.041	843
214.108	1559
214.175	1518
214.242	699
214.309	666
214.376	1296
214.444	723
214.511	1226
214.578	457
214.645	1216
214.712	1556
214.779	755
214.846	1226
214.913	1477
214.980	1997
215.048	1547
215.115	1953
215.182	1578
215.249	1230
215.316	1670
215.383	995
215.450	981
215.517	1310
215.584	1236
215.651	726
215.718	1147
215.785	1315
215.852	553
215.919	1498
215.986	1767
216.053	1637
216.120	906
216.187	1146
216.254	1019
216.321	360
216.388	1246
216.455	1248
216.522	1538
216.589	746
216.656	2232
216.722	1293
216.789	2184
216.856	2017
216.923	1716
216.990	1864
217.057	1114
217.124	1961
217.191	1424
217.258	2017
217.324	2130
217.391	2671
217.458	2405
217.525	1630
217.592	1293
217.659	1201
217.725	1833
217.792	990
217.859	1579
217.926	991
217.993	715
218.059	1418
218.126	331
218.193	405
218.260	1067
218.327	1213
218.393	1208
218.460	816
218.527	866
218.594	769
218.660	1295
218.727	1059
218.794	-88
218.860	865
218.927	1137
218.994	718
219.061	35
219.127	756
219.194	1158
219.261	721
219.327	143
219.394	1462
219.461	-424
219.527	585
219.594	1423
219.661	444
219.727	-438
219.794	1072
219.860	240
219.927	1389
219.994	1520
220.060	2403
220.127	2520
220.193	1723
220.260	664
220.326	2514
220.393	3227
220.460	4244
220.526	2915
220.593	2021
220.659	3231
220.726	2198
220.792	3166
220.859	3034
220.925	5368
220.992	5082
221.058	5288
221.125	4148
221.191	2640
221.258	1533
221.324	1899
221.391	1549
221.457	235
221.524	1505
221.590	1480
221.657	3281
221.723	878
221.789	1534
221.856	2195
221.922	644
221.989	1108
222.055	1442
222.121	8
222.188	1969
222.254	588
222.321	445
222.387	-343
222.453	924
222.520	-75
222.586	1048
222.652	731
222.719	897
222.785	1382
222.851	475
222.918	967
222.984	832
223.050	332
223.116	-238
223.183	1012
223.249	-6
223.315	-327
223.382	1368
223.448	365
223.514	339
223.580	159
223.647	1299
223.713	275
223.779	979
223.845	53
223.911	1490
223.978	-651
224.044	-79
224.110	220
224.176	512
224.242	207
224.309	-248
224.375	461
224.441	14
224.507	-364
224.573	-165
224.639	545
224.705	240
224.772	570
224.838	534
224.904	972
224.970	1206
225.036	456
225.102	-94
225.168	883
225.234	876
225.300	-43
225.366	1101
225.432	901
225.499	492
225.565	839
225.631	827
225.697	595
225.763	1396
225.829	1330
225.895	849
225.961	1273
226.027	1264
226.093	720
226.159	2300
226.225	3376
226.291	5633
226.357	8683
226.423	5376
226.489	3567
226.554	2380
226.620	2104
226.686	2934
226.752	2972
226.818	5836
226.884	9230
226.950	8385
227.016	4969
227.082	2696
227.148	1990
227.214	1899
227.279	1642
227.345	1072
227.411	1420
227.477	1178
227.543	2848
227.609	3345
227.674	2881
227.740	1519
227.806	1384
227.872	636
227.938	929
228.003	2099
228.069	1233
228.135	1041
228.201	387
228.267	728
228.332	1305
228.398	765
228.464	1240
228.530	606
228.595	820
228.661	650
228.727	399
228.792	1812
228.858	20
228.924	-656
228.990	2185
229.055	91
229.121	1968
229.187	1023
229.252	362
229.318	149
229.384	1349
229.449	1209
229.515	-504
229.581	-474
229.646	1453
229.712	597
229.777	1043
229.843	912
229.909	989
229.974	2307
230.040	1098
230.105	1088
230.171	228
230.236	1526
230.302	2589
230.368	1089
230.433	262
230.499	1527
230.564	2161
230.630	572
230.695	266
230.761	1509
230.826	-523
230.892	2983
230.957	-116
231.023	507
231.088	801
231.154	387
231.219	1320
231.284	843
231.350	1357
231.415	462
231.481	1247
231.546	713
231.612	462
231.677	1132
231.742	-436
231.808	1767
231.873	597
231.939	-172
232.004	2391
232.069	2402
232.135	178
232.200	284
232.265	1320
232.331	-63
232.396	162
232.461	1228
232.527	287
232.592	531
232.657	972
232.723	1012
232.788	155
232.853	1994
232.918	1229
232.984	-682
233.049	361
233.114	951
233.179	1596
233.245	1961
233.310	1452
233.375	530
233.440	475
233.506	605
233.571	509
233.636	1301
233.701	569
233.766	879
233.832	1257
233.897	206
233.962	-155
234.027	2705
234.092	863
234.157	55
234.222	561
234.288	1086
234.353	2612
234.418	3323
234.483	3086
234.548	2296
234.613	981
234.678	1750
234.743	-228
234.808	3474
234.873	1545
234.938	2301
235.004	1008
235.069	686
235.134	159
235.199	1572
235.264	977
235.329	17
235.394	543
235.459	1720
235.524	518
235.589	1502
235.654	447
235.719	-533
235.784	1754
235.849	758
235.913	1479
235.978	2376
236.043	1757
236.108	1508
236.173	429
236.238	1447
236.303	648
236.368	509
236.433	1749
236.498	2033
236.563	2613
236.627	3902
236.692	11764
236.757	11912
236.822	5118
236.887	3595
236.952	3668
237.017	1513
237.081	4008
237.146	2771
237.211	7499
237.276	12187
237.341	16125
237.405	9712
237.470	4670
237.535	3145
237.600	2484
237.664	3204
237.729	1125
237.794	1010
237.859	6771
237.923	3077
237.988	2129
238.053	2733
238.118	1770
238.182	3015
238.247	4397
238.312	1693
238.376	2555
238.441	-77
238.506	2180
238.570	175
238.635	2013
238.700	1527
238.764	257
238.829	1855
238.893	1246
238.958	1768
239.023	1433
239.087	1516
239.152	1525
239.216	200
239.281	762
239.346	1298
239.410	846
239.475	948
239.539	4026
239.604	2484
239.668	1807
239.733	1637
239.797	2809
239.862	5890
239.926	6982
239.991	3406
240.055	1203
240.120	1001
240.184	1467
240.249	1250
240.313	782
240.378	755
240.442	2559
240.507	3716
240.571	1816
240.635	1513
240.700	2099
240.764	1731
240.829	1207
240.893	310
240.957	1367
241.022	2656
241.086	3748
241.151	1253
241.215	-892
241.279	2053
241.344	1812
241.408	2067
241.472	-164
241.537	1979
241.601	2062
241.665	619
241.730	884
241.794	1776
241.858	1124
241.922	1028
241.987	896
242.051	1102
242.115	644
242.179	1181
242.244	71
242.308	2097
242.372	1531
242.436	1751
242.501	1971
242.565	376
242.629	1273
242.693	2057
242.757	534
242.822	829
242.886	1910
242.950	2061
243.014	-96
243.078	1791
243.142	1030
243.206	460
243.271	1480
243.335	1664
243.399	2525
243.463	5366
243.527	14343
243.591	5125
243.655	2142
243.719	849
243.783	2079
243.847	2588
243.911	3321
243.975	2847
244.040	1829
244.104	3394
244.168	1717
244.232	1642
244.296	2594
244.360	2157
244.424	774
244.488	969
244.552	1720
244.615	68
244.679	1898
244.743	1334
244.807	454
244.871	1560
244.935	1392
244.999	-18
245.063	1011
245.127	2110
245.191	1731
245.255	1090
245.319	1095
245.383	784
245.446	2152
245.510	649
245.574	1147
245.638	1665
245.702	109
245.766	2582
245.829	2401
245.893	1021
245.957	1038
246.021	1926
246.085	804
246.149	1428
246.212	4675
246.276	4416
246.340	3135
246.404	2202
246.467	2370
246.531	1364
246.595	2938
246.659	2929
246.722	684
246.786	3107
246.850	1919
246.913	1768
246.977	890
247.041	1381
247.104	1791
247.168	1313
247.232	3369
247.295	6304
247.359	3105
247.423	2055
247.486	3244
247.550	3302
247.614	1658
247.677	2936
247.741	1920
247.804	1717
247.868	2591
247.932	2385
247.995	6521
248.059	3105
248.122	707
248.186	3247
248.249	3447
248.313	8978
248.376	10660
248.440	7298
248.503	1800
248.567	4271
248.630	2843
248.694	4721
248.757	6275
248.821	9748
248.884	8443
248.948	6577
249.011	8478
249.075	11656
249.138	10475
249.202	5273
249.265	2682
249.328	4169
249.392	2789
249.455	3214
249.519	2275
249.582	2446
249.645	4573
249.709	4459
249.772	3586
249.835	3721
249.899	1655
249.962	3143
250.025	2064
250.089	4041
250.152	7059
250.215	3929
250.279	2347
250.342	3898
250.405	3087
250.468	2115
250.532	3773
250.595	5187
250.658	11235
250.721	22662
250.785	8637
250.848	5900
250.911	2911
250.974	3259
251.038	3656
251.101	7116
251.164	3615
251.227	4860
251.290	3947
251.354	5591
251.417	17512
251.480	19376
251.543	12691
251.606	31245
251.669	25421
251.732	11027
251.795	10031
251.859	10794
251.922	20296
251.985	14644
252.048	6443
252.111	5195
252.174	4113
252.237	7063
252.300	13082
252.363	14594
252.426	26933
252.489	12219
252.552	6977
252.615	4558
252.678	5456
252.741	10090
252.804	12813
252.867	26627
252.930	17355
252.993	9775
253.056	6266
253.119	4428
253.182	3495
253.245	5461
253.308	4572
253.371	4409
253.434	4008
253.497	4521
253.559	6210
253.622	4476
253.685	6288
253.748	6227
253.811	3301
253.874	3897
253.937	3850
254.000	2785
254.062	4364
254.125	7795
254.188	8202
254.251	6815
254.314	3048
254.376	4828
254.439	6660
254.502	5857
254.565	3957
254.628	8685
254.690	5783
254.753	2382
254.816	2358
254.878	3321
254.941	4994
255.004	4466
255.067	2134
255.129	2297
255.192	2206
255.255	1591
255.317	2264
255.380	1418
255.443	1382
255.505	1023
255.568	960
255.631	1447
255.693	2144
255.756	1146
255.819	2022
255.881	625
255.944	1310
256.006	1195
256.069	1163
256.132	773
256.194	2386
256.257	4280
256.319	2771
256.382	2570
256.444	3234
256.507	2187
256.569	1637
256.632	1361
256.694	2590
256.757	9348
256.819	23506
256.882	10937
256.944	4575
257.007	4755
257.069	3178
257.132	3070
257.194	3160
257.257	1805
257.319	1509
257.381	2881
257.444	7629
257.506	24833
257.569	29326
257.631	13123
257.693	6403
257.756	4836
257.818	2801
257.880	1918
257.943	2450
258.005	1911
258.067	1450
258.130	2793
258.192	1236
258.254	3729
258.317	1190
258.379	1813
258.441	3640
258.503	5157
258.566	3986
258.628	6183
258.690	1370
258.753	2745
258.815	4071
258.877	2836
258.939	1952
259.001	2464
259.064	1157
259.126	1322
259.188	2305
259.250	2001
259.312	2073
259.375	4082
259.437	2311
259.499	2133
259.561	1408
259.623	2029
259.685	1576
259.747	1791
259.809	4340
259.872	7479
259.934	11170
259.996	12525
260.058	4858
260.120	1151
260.182	927
260.244	2224
260.306	998
260.368	2633
260.430	630
260.492	4466
260.554	7220
260.616	3078
260.678	5760
260.740	7753
260.802	2177
260.864	2018
260.926	1423
260.988	2998
261.050	2606
261.112	5095
261.174	12560
261.236	7361
261.298	2012
261.359	3967
261.421	5960
261.483	1961
261.545	2441
261.607	394
261.669	2214
261.731	2938
261.793	5637
261.854	2908
261.916	2776
261.978	2284
262.040	2945
262.102	2175
262.164	1694
262.225	1708
262.287	1509
262.349	3451
262.411	2469
262.472	2158
262.534	1467
262.596	4413
262.658	2318
262.719	1529
262.781	2450
262.843	3103
262.904	2547
262.966	2788
263.028	2576
263.090	7941
263.151	22304
263.213	8998
263.275	6127
263.336	1771
263.398	1954
263.459	1107
263.521	779
263.583	3937
263.644	2767
263.706	2115
263.767	244
263.829	813
263.891	499
263.952	954
264.014	1481
264.075	2430
264.137	8002
264.198	4113
264.260	607
264.321	1654
264.383	3810
264.444	10880
264.506	3595
264.567	2452
264.629	4051
264.690	9135
264.752	4195
264.813	2296
264.875	1171
264.936	2069
264.998	2071
265.059	774
265.120	1480
265.182	3652
265.243	14005
265.305	16748
265.366	4273
265.427	2989
265.489	2771
265.550	570
265.611	2566
265.673	1750
265.734	1636
265.795	2215
265.857	1194
265.918	1578
265.979	4446
266.040	21112
266.102	20042
266.163	7065
266.224	5253
266.286	2930
266.347	1216
266.408	1345
266.469	1298
266.530	1377
266.592	1200
266.653	2404
266.714	4458
266.775	2524
266.836	1392
266.898	927
266.959	2172
267.020	1993
267.081	1855
267.142	1333
267.203	1143
267.264	448
267.326	1876
267.387	1744
267.448	719
267.509	1381
267.570	1222
267.631	1016
267.692	330
267.753	1402
267.814	51
267.875	2261
267.936	4776
267.997	3806
268.058	2230
268.119	1168
268.180	1943
268.241	1251
268.302	1205
268.363	537
268.424	385
268.485	2039
268.546	857
268.607	1119
268.668	812
268.729	893
268.790	1514
268.851	1725
268.912	2975
268.972	4389
269.033	2104
269.094	1284
269.155	1490
269.216	683
269.277	1487
269.338	805
269.398	1936
269.459	1394
269.520	2166
269.581	1837
269.642	2760
269.702	1556
269.763	1585
269.824	1624
269.885	1251
269.945	2592
270.006	1188
270.067	418
270.128	862
270.188	989
270.249	67
270.310	1067
270.370	1494
270.431	779
270.492	14
270.553	1371
270.613	3092
270.674	5389
270.734	2704
270.795	1249
270.856	2370
270.916	1667
270.977	1289
271.038	2332
271.098	2153
271.159	2846
271.219	2746
271.280	2211
271.340	761
271.401	1265
271.462	2969
271.522	2311
271.583	2148
271.643	1693
271.704	1378
271.764	2194
271.825	3968
271.885	11383
271.946	14144
272.006	5715
272.066	6066
272.127	11295
272.187	6404
272.248	2459
272.308	2615
272.369	7690
272.429	5447
272.489	4273
272.550	4367
272.610	4062
272.671	3602
272.731	2645
272.791	4039
272.852	3170
272.912	2032
272.972	1574
273.033	1268
273.093	1854
273.153	3050
273.214	2301
273.274	1261
273.334	6827
273.394	11708
273.455	5721
273.515	5014
273.575	10503
273.635	5355
273.696	5590
273.756	10449
273.816	4532
273.876	3410
273.936	4283
273.997	9168
274.057	2950
274.117	1466
274.177	3490
274.237	12836
274.297	12351
274.358	7119
274.418	8268
274.478	7267
274.538	3487
274.598	1926
274.658	6019
274.718	7214
274.778	4414
274.838	1622
274.898	3653
274.958	9123
275.018	9990
275.078	7437
275.138	3359
275.198	2067
275.258	2006
275.318	2307
275.378	3548
275.438	4572
275.498	3198
275.558	4799
275.618	10617
275.678	7568
275.738	5688
275.798	4959
275.858	3756
275.918	1153
275.978	1982
276.038	1836
276.098	1330
276.157	2648
276.217	8789
276.277	4214
276.337	3416
276.397	1801
276.457	3660
276.517	1510
276.576	1577
276.636	1147
276.696	2337
276.756	5221
276.815	4343
276.875	2328
276.935	2157
276.995	2505
277.055	1851
277.114	1423
277.174	2474
277.234	5578
277.293	3529
277.353	1485
277.413	1633
277.472	1631
277.532	1933
277.592	2453
277.651	5116
277.711	8967
277.771	3064
277.830	10455
277.890	9826
277.950	4640
278.009	15891
278.069	6853
278.128	6800
278.188	10054
278.248	3354
278.307	9659
278.367	6419
278.426	1431
278.486	1755
278.545	860
278.605	1950
278.664	994
278.724	1399
278.783	4183
278.843	10816
278.902	3767
278.962	1915
279.021	2363
279.081	3649
279.140	1610
279.199	2823
279.259	2557
279.318	2884
279.378	3326
279.437	3766
279.496	13138
279.556	37135
279.615	32592
279.675	8965
279.734	4424
279.793	7584
279.853	10308
279.912	5445
279.971	3138
280.031	2579
280.090	4586
280.149	7986
280.208	6131
280.268	26998
280.327	30068
280.386	7796
280.445	6316
280.505	5914
280.564	3251
280.623	2764
280.682	3546
280.742	6917
280.801	2673
280.860	1879
280.919	1587
280.978	2789
281.037	660
281.097	892
281.156	2166
281.215	1623
281.274	1465
281.333	6487
281.392	6454
281.451	1924
281.510	1471
281.569	1098
281.628	1285
281.688	1299
281.747	1653
281.806	938
281.865	772
281.924	934
281.983	1595
282.042	818
282.101	814
282.160	1195
282.219	1465
282.278	1024
282.337	4700
282.396	3575
282.454	918
282.513	2131
282.572	6822
282.631	4475
282.690	1328
282.749	1213
282.808	2057
282.867	1842
282.926	1584
282.985	1490
283.043	992
283.102	1159
283.161	1960
283.220	3717
283.279	7066
283.338	3992
283.396	1411
283.455	2800
283.514	1982
283.573	3744
283.631	2232
283.690	1322
283.749	1359
283.808	3059
283.866	3998
283.925	2459
283.984	2316
284.043	2521
284.101	2611
284.160	2218
284.219	2828
284.277	1491
284.336	2639
284.395	9077
284.453	7937
284.512	3953
284.570	4404
284.629	3484
284.688	2611
284.746	3138
284.805	4083
284.863	5275
284.922	5867
284.981	5762
285.039	9108
285.098	14541
285.156	28667
285.215	45758
285.273	42840
285.332	34561
285.390	20277
285.449	12470
285.507	8110
285.566	6488
285.624	5154
285.683	5147
285.741	3343
285.799	3204
285.858	3412
285.916	3435
285.975	1681
286.033	1952
286.091	2286
286.150	1988
286.208	1466
286.267	2533
286.325	1938
286.383	3316
286.442	3248
286.500	1756
286.558	1544
286.616	1320
286.675	2308
286.733	1984
286.791	1786
286.850	1397
286.908	2529
286.966	5003
287.024	2052
287.083	1372
287.141	934
287.199	2060
287.257	2482
287.315	2454
287.374	2274
287.432	4855
287.490	3089
287.548	1741
287.606	1295
287.664	1682
287.723	2164
287.781	3900
287.839	2495
287.897	2362
287.955	3509
288.013	3534
288.071	7163
288.129	25951
288.187	72504
288.245	38601
288.303	11754
288.361	6667
288.419	5316
288.477	4360
288.535	2959
288.593	3036
288.651	1829
288.709	1257
288.767	1256
288.825	1455
288.883	1429
288.941	1299
288.999	1590
289.057	1013
289.115	1938
289.173	1398
289.231	1626
289.289	1511
289.346	948
289.404	1752
289.462	2559
289.520	2946
289.578	1800
289.636	1647
289.694	1526
289.751	928
289.809	1501
289.867	1450
289.925	2070
289.983	2122
290.040	1387
290.098	306
290.156	1237
290.214	2201
290.271	1542
290.329	1504
290.387	986
290.444	834
290.502	852
290.560	705
290.617	1411
290.675	1312
290.733	503
290.790	1620
290.848	1607
290.906	1510
290.963	1367
291.021	1972
291.078	1297
291.136	1570
291.194	4463
291.251	11055
291.309	3718
291.366	1834
291.424	1452
291.481	1598
291.539	1105
291.596	1229
291.654	836
291.711	1028
291.769	1289
291.826	3209
291.884	2054
291.941	504
291.999	1401
292.056	1163
292.114	926
292.171	2027
292.228	2088
292.286	2815
292.343	2396
292.401	3385
292.458	2252
292.515	2128
292.573	2133
292.630	1345
292.687	1256
292.745	2236
292.802	1634
292.859	6689
292.917	9087
292.974	6533
293.031	2077
293.089	629
293.146	1023
293.203	649
293.260	1413
293.318	1467
293.375	3773
293.432	2446
293.489	2180
293.546	1193
293.604	2058
293.661	4877
293.718	12174
293.775	9244
293.832	3659
293.889	3065
293.947	2491
294.004	2393
294.061	2492
294.118	4073
294.175	9546
294.232	15513
294.289	7337
294.346	3662
294.403	2949
294.460	2412
294.517	1579
294.574	1256
294.631	2301
294.688	2891
294.745	4624
294.802	15430
294.859	21951
294.916	8893
294.973	3496
295.030	4126
295.087	2661
295.144	2587
295.201	2220
295.258	1190
295.315	2174
295.372	5276
295.429	10096
295.486	5723
295.542	3517
295.599	8958
295.656	18633
295.713	11859
295.770	10776
295.827	6025
295.883	2904
295.940	2238
295.997	4263
296.054	4519
296.111	2429
296.167	2863
296.224	1613
296.281	2029
296.338	1051
296.394	1565
296.451	2647
296.508	4629
296.564	9924
296.621	8058
296.678	11651
296.734	17351
296.791	8726
296.848	4228
296.904	3735
296.961	8102
297.018	10909
297.074	10274
297.131	4676
297.187	3254
297.244	3581
297.301	9239
297.357	17968
297.414	7884
297.470	4121
297.527	2586
297.583	1955
297.640	2596
297.696	1951
297.753	1152
297.809	2014
297.866	1323
297.922	2235
297.979	1485
298.035	1957
298.092	2473
298.148	6867
298.204	7072
298.261	3944
298.317	6491
298.374	13839
298.430	8945
298.486	4618
298.543	3127
298.599	3635
298.656	3699
298.712	5301
298.768	12586
298.824	9926
298.881	3739
298.937	2652
298.993	2763
299.050	2599
299.106	3260
299.162	1960
299.218	2687
299.275	2495
299.331	2662
299.387	3125
299.443	12513
299.500	18118
299.556	10556
299.612	4456
299.668	4631
299.724	7794
299.780	10072
299.837	4515
299.893	4365
299.949	13203
300.005	18403
300.061	12966
300.117	21924
300.173	11821
300.229	5423
300.285	5527
300.341	6522
300.397	3708
300.453	2860
300.510	2140
300.566	2300
300.622	3621
300.678	13374
300.734	22117
300.790	14221
300.845	13348
300.901	11857
300.957	18791
301.013	12558
301.069	4373
301.125	3625
301.181	3404
301.237	3924
301.293	1970
301.349	1961
301.405	1811
301.461	1943
301.516	3180
301.572	2373
301.628	4464
301.684	4247
301.740	4907
301.796	8254
301.851	5676
301.907	9278
301.963	9112
302.019	11536
302.074	27769
302.130	31576
302.186	16549
302.242	6842
302.297	4327
302.353	4318
302.409	7187
302.464	7373
302.520	5522
302.576	12767
302.631	15332
302.687	9965
302.743	4258
302.798	2972
302.854	2900
302.910	2685
302.965	2461
303.021	5466
303.076	5200
303.132	5905
303.187	7943
303.243	4862
303.299	2874
303.354	2610
303.410	2956
303.465	2055
303.521	2230
303.576	2147
303.632	2574
303.687	4284
303.743	9931
303.798	9992
303.853	4784
303.909	2775
303.964	2934
304.020	4220
304.075	5804
304.130	4993
304.186	8036
304.241	10466
304.297	8322
304.352	4820
304.358	4620
304.407	2993
304.449	3232
304.463	3318
304.518	2842
304.539	2862
304.573	2882
304.629	2418
304.630	2449
304.684	3965
304.720	6686
304.739	8019
304.794	12878
304.811	11364
304.850	7720
304.902	3830
304.905	3583
304.960	3406
304.992	3345
305.015	3296
305.071	3178
305.083	3242
305.126	3421
305.173	1741
305.181	1486
305.236	1750
305.264	2112
305.292	2410
305.347	2617
305.354	2640
305.402	2894
305.445	3632
305.457	3800
305.512	4100
305.535	3732
305.567	3325
305.622	3124
305.626	3257
305.678	6391
305.716	11361
305.733	12972
305.788	15337
305.807	13440
305.843	10298
305.897	11268
305.898	11269
305.953	11564
305.988	8280
306.008	6464
306.063	4781
306.078	4196
306.118	3031
306.168	1867
306.173	1745
306.228	2107
306.259	2075
306.283	2184
306.338	2372
306.349	2348
306.393	2153
306.440	3081
306.448	3265
306.503	3740
306.530	3465
306.558	3883
306.613	8029
306.620	8665
306.668	12127
306.711	13944
306.723	13838
306.778	11193
306.801	8716
306.833	6109
306.888	3857
306.892	3725
306.943	2768
306.982	2551
306.997	2472
307.052	2598
307.072	2520
307.107	2724
307.162	3838
307.163	3853
307.217	5666
307.253	6795
307.272	7009
307.327	6977
307.343	6508
307.381	5529
307.434	4818
307.436	4944
307.491	9294
307.524	13661
307.546	14608
307.600	13370
307.614	12012
307.655	7884
307.704	4742
307.710	4696
307.765	5970
307.795	6882
307.819	8104
307.874	13242
307.885	13609
307.929	11901
307.975	9893
307.984	10220
308.038	12895
308.065	15809
308.093	25728
308.148	51023
308.156	55986
308.202	79692
308.246	94934
308.257	92137
308.312	58087
308.336	42548
308.366	32677
308.421	19635
308.426	18544
308.475	12354
308.517	8894
308.530	8284
308.585	6932
308.607	6741
308.639	6989
308.694	6775
308.697	6858
308.748	12207
308.787	17232
308.803	17077
308.857	13886
308.877	12088
308.912	10688
308.967	10402
308.967	10400
309.021	13497
309.058	16342
309.076	20638
309.130	35566
309.148	41521
309.185	67412
309.238	109703
309.239	110050
309.293	115346
309.328	110980
309.348	98878
309.402	56327
309.418	44825
309.457	32302
309.508	19099
309.511	18718
309.566	15103
309.598	13300
309.620	13682
309.674	16237
309.688	16900
309.729	16114
309.778	13926
309.783	13677
309.837	10495
309.868	9036
309.892	10835
309.946	15901
309.959	17537
310.001	23105
310.049	28235
310.055	27279
310.109	15951
310.139	9522
310.163	7492
310.218	4558
310.229	4026
310.272	4016
310.319	4088
310.326	3940
310.381	3172
310.409	2750
310.435	2931
310.489	3300
310.499	3370
310.543	3380
310.589	3372
310.598	3452
310.652	4059
310.679	4291
310.706	4071
310.760	3414
310.769	3362
310.814	3249
310.859	2962
310.868	2968
310.923	3056
310.948	3057
310.977	3111
311.031	3316
311.038	3336
311.085	3082
311.128	2913
311.139	2994
311.193	3107
311.218	3282
311.247	3229
311.301	3029
311.308	3004
311.356	3248
311.398	3454
311.410	3384
311.464	2935
311.488	2789
311.518	2729
311.572	2558
311.578	2537
311.626	3432
311.668	4256
311.680	4274
311.734	4263
311.758	4258
311.788	4150
311.842	3917
311.847	3892
311.896	5808
311.937	7489
311.950	7343
312.004	6609
312.027	6269
312.058	5490
312.112	4105
312.117	3964
312.165	3387
312.207	2896
312.297	5147
312.386	3594
312.476	3599
312.566	6224
312.656	3742
312.745	1762
312.835	3651
312.925	3917
313.015	2861
313.104	2856
313.194	2560
313.284	3404
313.374	4798
313.463	3790
313.553	2951
313.643	2316
313.732	3333
313.822	2331
313.912	3961
314.001	3519
314.091	4849
314.180	6276
314.270	5574
314.360	5836
314.449	4432
314.539	2959
314.628	3941
314.718	3951
314.808	5982
314.897	4353
314.987	3842
315.076	4179
315.166	4560
315.255	5121
315.345	4825
315.434	4696
315.524	5286
315.613	5090
315.703	5636
315.792	10110
315.881	31044
315.971	11214
316.060	8945
316.150	12011
316.239	12074
316.328	5299
316.418	4271
316.507	4091
316.597	4990
316.686	4467
316.775	6336
316.865	12570
316.954	3952
317.043	2873
317.133	3378
317.222	3361
317.311	3097
317.400	1648
317.490	4934
317.579	4087
317.668	3793
317.757	5804
317.847	16055
317.936	52818
318.025	19148
318.114	12399
318.203	7747
318.293	7262
318.382	11097
318.471	10293
318.560	14972
318.649	33738
318.738	7380
318.828	4848
318.917	4830
319.006	6157
319.095	14963
319.184	39993
319.273	20337
319.362	9186
319.451	4006
319.540	4026
319.629	7854
319.718	11928
319.807	6673
319.896	13299
319.985	49571
320.074	16432
320.163	5166
320.252	8110
320.341	7379
320.430	6552
320.519	7265
320.608	5191
320.697	4604
320.786	4610
320.875	6533
320.964	6513
321.053	9898
321.142	12561
321.230	14035
321.319	11857
321.408	24738
321.497	11829
321.586	10895
321.675	13008
321.764	12964
321.852	9127
321.941	14366
322.030	9355
322.119	12264
322.207	23901
322.296	20898
322.385	11942
322.474	12478
322.562	29586
322.651	15995
322.740	10997
322.829	14553
322.917	15913
323.006	10239
323.095	6912
323.183	6921
323.272	8723
323.361	15578
323.449	43708
323.538	14043
323.626	30926
323.715	18542
323.804	8308
323.892	28933
323.981	14317
324.069	5394
324.158	16035
324.246	14538
324.335	6016
324.424	8252
324.512	4276
324.601	5644
324.689	9807
324.778	17528
324.866	11084
324.954	4431
325.043	3531
325.131	7699
325.220	12882
325.308	13909
325.397	10373
325.485	6579
325.574	3086
325.662	3113
325.750	3175
325.839	3332
325.927	2797
326.015	3739
326.104	4932
326.192	7204
326.280	3390
326.369	2982
326.457	4962
326.545	7475
326.634	3001
326.722	2637
326.810	2576
326.898	3265
326.987	3485
327.075	7028
327.163	7245
327.251	5049
327.340	7488
327.428	10608
327.516	3683
327.604	4037
327.692	3368
327.781	4871
327.869	6146
327.957	4603
328.045	3672
328.133	2376
328.221	3739
328.309	3215
328.397	2460
328.485	3726
328.574	4977
328.662	13686
328.750	7751
328.838	3939
328.926	3394
329.014	3015
329.102	4750
329.190	12017
329.278	6564
329.366	2548
329.454	2950
329.542	2350
329.630	1786
329.718	2475
329.806	3533
329.893	3546
329.981	3237
330.069	3385
330.157	7152
330.245	18568
330.333	9002
330.421	2678
330.509	4658
330.597	16291
330.684	10999
330.772	5233
330.860	7674
330.948	10817
331.036	4915
331.123	2604
331.211	2797
331.299	4145
331.387	8483
331.475	15245
331.562	3956
331.650	3172
331.738	3039
331.825	4605
331.913	2752
332.001	2261
332.089	3768
332.176	7192
332.264	16367
332.352	11553
332.439	4162
332.527	4010
332.614	2897
332.702	3782
332.790	3219
332.877	7839
332.965	14426
333.052	4791
333.140	4848
333.228	7837
333.315	2659
333.403	4037
333.490	10623
333.578	7722
333.665	8056
333.753	5602
333.840	2878
333.928	4421
334.015	10605
334.103	17127
334.190	49786
334.278	15238
334.365	9982
334.452	8872
334.540	6064
334.627	6443
334.715	9259
334.802	15861
334.889	59734
334.977	59591
335.064	14899
335.151	8090
335.239	6282
335.326	8264
335.413	26696
335.501	35246
335.588	7203
335.675	6374
335.762	8262
335.850	12930
335.937	12865
336.024	24888
336.111	74465
336.199	37896
336.286	12875
336.373	7665
336.460	4716
336.547	4698
336.635	4533
336.722	4954
336.809	4363
336.896	5423
336.983	15946
337.070	38075
337.157	50573
337.245	36008
337.332	24884
337.419	4921
337.506	4123
337.593	4489
337.680	13844
337.767	41654
337.854	10413
337.941	12637
338.028	12207
338.115	4602
338.202	6781
338.289	10709
338.376	34790
338.463	11290
338.550	23634
338.637	23833
338.724	7519
338.811	11867
338.898	3098
338.984	2307
339.071	4266
339.158	3587
339.245	8641
339.332	6445
339.419	7923
339.506	8288
339.593	1823
339.679	2996
339.766	1796
339.853	3572
339.940	6009
340.027	3578
340.113	2662
340.200	3169
340.287	2722
340.374	3652
340.460	5681
340.547	2530
340.634	5093
340.720	16018
340.807	8373
340.894	2699
340.980	2877
341.067	2282
341.154	3068
341.240	3480
341.327	8028
341.414	3246
341.500	2468
341.587	2758
341.674	2054
341.760	5492
341.847	6083
341.933	2709
342.020	1088
342.106	1589
342.193	2706
342.279	5541
342.366	3886
342.452	5483
342.539	2901
342.625	6504
342.712	16497
342.798	7883
342.885	3105
342.971	2354
343.058	1783
343.144	2606
343.230	1974
343.317	3317
343.403	1028
343.490	2277
343.576	1262
343.662	2407
343.749	1963
343.835	4398
343.921	5404
344.008	24397
344.094	52037
344.180	12130
344.267	5397
344.353	17510
344.439	17812
344.525	8869
344.612	6308
344.698	5949
344.784	3749
344.870	2900
344.957	2558
345.043	3682
345.129	2026
345.215	5919
345.301	2906
345.387	2318
345.474	2025
345.560	2264
345.646	1874
345.732	2229
345.818	2547
345.904	2459
345.990	2461
346.076	2945
346.162	5140
346.249	2562
346.335	3036
346.421	2109
346.507	6912
346.593	22894
346.679	5920
346.765	4045
346.851	3587
346.937	1892
347.023	3178
347.108	3138
347.194	1944
347.280	2433
347.366	2994
347.452	9825
347.538	28616
347.624	22203
347.710	17989
347.796	4176
347.882	2900
347.967	2833
348.053	4303
348.139	2624
348.225	2287
348.311	1918
348.397	2054
348.482	3013
348.568	3633
348.654	2010
348.740	7085
348.825	6899
348.911	5551
348.997	13212
349.083	24248
349.168	4590
349.254	2800
349.340	2402
349.425	1895
349.511	3208
349.597	3692
349.682	6039
349.768	17781
349.854	8509
349.939	3107
350.025	2653
350.110	2120
350.196	1660
350.282	1096
350.367	2925
350.453	4035
350.538	3603
350.624	3506
350.709	3363
350.795	1995
350.880	2746
350.966	2849
351.051	3960
351.137	3202
351.222	2791
351.308	6739
351.393	16689
351.479	3540
351.564	1597
351.649	2409
351.735	1520
351.820	1224
351.906	1997
351.991	3151
352.076	9926
352.162	16151
352.247	3284
352.332	2093
352.418	4644
352.503	5827
352.588	22965
352.673	18178
352.759	4787
352.844	2280
352.929	2968
353.014	2760
353.100	2903
353.185	3389
353.270	5692
353.355	6387
353.441	2757
353.526	3178
353.611	5467
353.696	5547
353.781	4253
353.866	1573
353.952	2955
354.037	5060
354.122	12698
354.207	10915
354.292	4190
354.377	3137
354.462	2899
354.547	1846
354.632	3741
354.717	4107
354.802	3127
354.887	1577
354.972	2456
355.057	1725
355.142	2287
355.227	2930
355.312	4101
355.397	7756
355.482	18655
355.567	8944
355.652	7128
355.737	6834
355.822	20871
355.907	16231
355.991	5000
356.076	1624
356.161	2453
356.246	2137
356.331	2975
356.416	4024
356.501	31209
356.585	29598
356.670	4118
356.755	4726
356.840	4928
356.924	20610
357.009	72311
357.094	27884
357.179	7125
357.263	4365
357.348	5584
357.433	5885
357.517	4813
357.602	3195
357.687	3312
357.771	4439
357.856	13089
357.941	8363
358.025	16287
358.110	66303
358.195	31038
358.279	6105
358.364	4119
358.448	14767
358.533	39153
358.617	27397
358.702	27541
358.787	10058
358.871	6104
358.956	5128
359.040	1710
359.125	2028
359.209	3009
359.294	6648
359.378	11389
359.462	5315
359.547	3554
359.631	2234
359.716	1221
359.800	2571
359.885	5297
359.969	1956
360.053	3734
360.138	2838
360.222	3307
360.306	6371
360.391	4813
360.475	8262
360.559	16719
360.644	15139
360.728	9936
360.812	18367
360.896	46687
360.981	21152
361.065	12706
361.149	3934
361.233	3642
361.318	3122
361.402	4245
361.486	4559
361.570	3119
361.654	3187
361.739	7974
361.823	29841
361.907	46406
361.991	8651
362.075	6426
362.159	12395
362.243	14148
362.327	21461
362.411	31273
362.495	12896
362.580	6701
362.664	4912
362.748	6165
362.832	9164
362.916	18396
363.000	53813
363.084	90181
363.168	70394
363.252	18526
363.336	8855
363.420	10354
363.503	36252
363.587	41046
363.671	7820
363.755	6210
363.839	8587
363.923	5650
364.007	9999
364.091	11048
364.175	19031
364.258	71403
364.342	78706
364.426	113265
364.510	58717
364.594	22600
364.677	16491
364.761	40733
364.845	29610
364.929	11492
365.013	10200
365.096	7888
365.180	8876
365.264	14497
365.347	54940
365.431	24054
365.515	7230
365.598	2657
365.682	3875
365.766	6727
365.849	8701
365.933	3970
366.017	6411
366.100	5229
366.184	2490
366.267	3661
366.351	2674
366.435	1413
366.518	1882
366.602	2455
366.685	1984
366.769	2814
366.852	6587
366.936	9925
367.019	5488
367.103	4174
367.186	11410
367.270	3471
367.353	1245
367.436	2872
367.520	1807
367.603	3706
367.687	3472
367.770	7046
367.853	4848
367.937	12507
368.020	19550
368.104	4757
368.187	5685
368.270	8456
368.353	6757
368.437	9342
368.520	23305
368.603	13181
368.687	15198
368.770	28012
368.853	6800
368.936	8870
369.020	9215
369.103	2968
369.186	2021
369.269	2343
369.352	5092
369.436	7256
369.519	4512
369.602	1410
369.685	3320
369.768	2460
369.851	2346
369.934	1392
370.018	2754
370.101	4909
370.184	6670
370.267	4276
370.350	5643
370.433	8767
370.516	21866
370.599	31340
370.682	11159
370.765	16265
370.848	19737
370.931	34251
371.014	14839
371.097	2891
371.180	3566
371.263	2150
371.346	873
371.429	2215
371.511	2608
371.594	3771
371.677	7896
371.760	11269
371.843	5730
371.926	24016
372.009	53110
372.091	18879
372.174	12658
372.257	30182
372.340	11232
372.423	12184
372.505	16874
372.588	5844
372.671	11359
372.754	32153
372.836	16492
372.919	16371
373.002	34909
373.085	8526
373.167	6708
373.250	14570
373.332	28916
373.415	38411
373.498	74821
373.580	30124
373.663	44157
373.746	54031
373.828	13085
373.911	6640
373.993	7380
374.076	33917
374.159	30273
374.241	10989
374.324	29068
374.406	19139
374.489	21989
374.571	59978
374.654	25734
374.736	12803
374.819	37686
374.901	53667
374.983	55229
375.066	10738
375.148	4836
375.231	25248
375.313	51511
375.395	19053
375.478	4832
375.560	3719
375.643	4129
375.725	12440
375.807	48429
375.890	43137
375.972	20035
376.054	11232
376.136	19293
376.219	8887
376.301	15920
376.383	42815
376.465	16263
376.548	10137
376.630	13434
376.712	37044
376.794	16482
376.877	3445
376.959	1753
377.041	3836
377.123	7843
377.205	9952
377.287	1942
377.369	2999
377.452	2466
377.534	2003
377.616	1836
377.698	2113
377.780	889
377.862	2284
377.944	2502
378.026	1005
378.108	1786
378.190	2571
378.272	2814
378.354	1390
378.436	1245
378.518	3852
378.600	14109
378.682	10938
378.764	19707
378.846	16243
378.928	5038
379.010	6324
379.091	3318
379.173	2321
379.255	1040
379.337	2634
379.419	9251
379.501	27552
379.583	11810
379.664	4399
379.746	6363
379.828	20565
379.910	26268
379.991	23618
380.073	3435
380.155	3723
380.237	2356
380.318	1719
380.400	989
380.482	5192
380.564	6843
380.645	6337
380.727	5532
380.809	5534
380.890	3273
380.972	1714
381.053	1796
381.135	3461
381.217	6922
381.298	21479
381.380	9798
381.461	8773
381.543	36971
381.624	44972
381.706	8349
381.787	5492
381.869	5568
381.951	14942
382.032	55682
382.113	39235
382.195	7364
382.276	7015
382.358	10844
382.439	30071
382.521	35446
382.602	53046
382.684	25190
382.765	47199
382.846	44168
382.928	50369
383.009	27688
383.090	21420
383.172	75095
383.253	110966
383.334	43200
383.416	49159
383.497	24940
383.578	10592
383.659	19574
383.741	67480
383.822	167588
383.903	85980
383.984	34568
384.066	64488
384.147	39675
384.228	9888
384.309	6937
384.390	5151
384.471	4555
384.553	5644
384.634	6260
384.715	7286
384.796	4031
384.877	4839
384.958	18320
385.039	22205
385.120	8126
385.201	5163
385.282	5472
385.363	7289
385.444	5431
385.525	7355
385.606	24268
385.687	21635
385.768	7100
385.849	8401
385.930	27221
386.011	44901
386.092	12453
386.173	4853
386.254	4595
386.335	5544
386.416	4897
386.496	13672
386.577	21387
386.658	10476
386.739	5902
386.820	8283
386.901	4997
386.981	6026
387.062	4847
387.143	6148
387.224	21246
387.304	21286
387.385	10167
387.466	6861
387.547	9125
387.627	5914
387.708	10224
387.789	35970
387.869	40654
387.950	13719
388.031	3646
388.111	2876
388.192	12066
388.273	17274
388.353	9221
388.434	5074
388.514	8046
388.595	28489
388.676	37377
388.756	19783
388.837	19164
388.917	12604
388.998	2436
389.078	4678
389.159	3443
389.239	2286
389.320	5495
389.400	3474
389.480	9015
389.561	22056
389.641	11162
389.722	5542
389.802	6570
389.883	10271
389.963	24445
390.043	16873
390.124	5903
390.204	8045
390.284	23620
390.365	15153
390.445	22609
390.525	44884
390.605	34991
390.686	11292
390.766	6049
390.846	4941
390.927	2333
391.007	2003
391.087	4323
391.167	3948
391.247	3083
391.328	6708
391.408	9424
391.488	8000
391.568	2370
391.648	5068
391.728	6595
391.808	6368
391.888	5774
391.969	12997
392.049	19669
392.129	11995
392.209	12080
392.289	24759
392.369	15476
392.449	18788
392.529	12577
392.609	10923
392.689	11617
392.769	27391
392.849	25804
392.929	25086
393.009	47276
393.089	42896
393.169	57580
393.248	153798
393.328	395512
393.408	410667
393.488	165171
393.568	57939
393.648	29552
393.728	19109
393.807	14061
393.887	11770
393.967	10449
394.047	11613
394.127	12105
394.206	17991
394.286	53572
394.366	184666
394.446	199783
394.525	60651
394.605	18379
394.685	14666
394.764	26039
394.844	42389
394.924	32906
395.003	10031
395.083	6806
395.163	7042
395.242	5787
395.322	7434
395.402	4843
395.481	7847
395.561	17428
395.640	48165
395.720	45948
395.799	53947
395.879	40205
395.958	27959
396.038	80195
396.117	234106
396.197	258216
396.276	104560
396.356	40423
396.435	30366
396.515	22168
396.594	25571
396.673	48786
396.753	150307
396.832	361979
396.912	282471
396.991	82538
397.070	29455
397.150	15889
397.229	13347
397.308	21204
397.388	40911
397.467	20675
397.546	6920
397.625	3936
397.705	7452
397.784	5990
397.863	4006
397.942	3343
398.022	4450
398.101	13335
398.180	39419
398.259	20700
398.338	6681
398.417	3712
398.497	3464
398.576	4434
398.655	1948
398.734	3347
398.813	3199
398.892	11042
398.971	39966
399.050	19573
399.129	3739
399.208	2876
399.287	2401
399.366	1831
399.445	2232
399.524	2560
399.603	801
399.682	4213
399.761	11133
399.840	40637
399.919	32645
399.998	5138
400.077	1591
400.156	1783
400.235	4613
400.313	2143
400.392	2647
400.471	10351
400.550	18464
400.629	4740
400.708	3198
400.786	3120
400.865	10004
400.944	10360
401.023	5591
401.102	1252
401.180	1527
401.259	1495
401.338	2277
401.416	3405
401.495	2366
401.574	2590
401.652	2215
401.731	3991
401.810	2237
401.888	1446
401.967	954
402.046	1354
402.124	3149
402.203	2172
402.281	2906
402.360	3057
402.438	12740
402.517	8280
402.596	4017
402.674	2148
402.753	2080
402.831	1794
402.910	3414
402.988	5292
403.066	17872
403.145	10836
403.223	7360
403.302	14339
403.380	11465
403.459	10503
403.537	4956
403.615	2199
403.694	960
403.772	2409
403.850	1604
403.929	672
404.007	1297
404.085	3704
404.164	2735
404.242	2396
404.320	7981
404.398	23738
404.477	26099
404.555	49959
404.633	44781
404.711	20346
404.789	11245
404.868	3872
404.946	1967
405.024	621
405.102	1004
405.180	723
405.258	204
405.336	2216
405.415	2160
405.493	4209
405.571	4204
405.649	838
405.727	611
405.805	3870
405.883	2812
405.961	3693
406.039	4510
406.117	949
406.195	3122
406.273	9656
406.351	42430
406.429	25723
406.507	5391
406.585	2143
406.663	2010
406.740	1474
406.818	1573
406.896	1530
406.974	1916
407.052	2616
407.130	25330
407.208	32945
407.285	7257
407.363	1026
407.441	1817
407.519	1112
407.596	2567
407.674	10238
407.752	45275
407.830	39577
407.907	9592
407.985	2236
408.063	2142
408.141	1599
408.218	3888
408.296	3081
408.373	1776
408.451	1823
408.529	1877
408.606	1566
408.684	1659
408.762	1129
408.839	949
408.917	1717
408.994	974
409.072	430
409.149	2265
409.227	3923
409.304	6048
409.382	5743
409.459	6722
409.537	9780
409.614	8779
409.692	7093
409.769	6740
409.846	9675
409.924	13143
410.001	8983
410.079	6680
410.156	5301
410.233	4553
410.311	2862
410.388	2083
410.465	3046
410.543	2288
410.620	2058
410.697	2948
410.775	3039
410.852	1727
410.929	2691
411.006	3281
411.083	1802
411.161	3376
411.238	4696
411.315	3551
411.392	1749
411.469	2193
411.547	1920
411.624	383
411.701	693
411.778	1812
411.855	3288
411.932	1561
412.009	1494
412.086	517
412.163	2295
412.240	2001
412.317	3055
412.394	2419
412.471	909
412.548	1264
412.625	781
412.702	1977
412.779	3419
412.856	2940
412.933	781
413.010	1010
413.087	2429
413.164	9128
413.241	13843
413.318	2943
413.395	2668
413.471	3051
413.548	2097
413.625	1493
413.702	2126
413.779	1994
413.855	1134
413.932	410
414.009	-112
414.086	1377
414.162	792
414.239	1854
414.316	10166
414.393	22435
414.469	6737
414.546	-66
414.623	560
414.699	1538
414.776	1169
414.853	704
414.929	1289
415.006	1527
415.082	1604
415.159	1477
415.236	966
415.312	1284
415.389	2485
415.465	3088
415.542	1639
415.618	505
415.695	2760
415.771	1292
415.848	1466
415.924	1753
416.000	675
416.077	2116
416.153	-207
416.230	-71
416.306	727
416.383	412
416.459	1531
416.535	557
416.612	-355
416.688	433
416.764	590
416.841	425
416.917	-109
416.993	1361
417.069	974
417.146	1301
417.222	1937
417.298	1849
417.374	618
417.451	1706
417.527	1011
417.603	1734
417.679	1099
417.755	957
417.831	-32
417.908	1203
417.984	-193
418.060	-236
418.136	1968
418.212	2677
418.288	1303
418.364	1687
418.440	275
418.516	2597
418.592	2848
418.668	5748
418.744	6179
418.820	5183
418.896	1660
418.972	-172
419.048	553
419.124	3486
419.200	1610
419.276	387
419.352	259
419.428	711
419.504	928
419.579	1969
419.655	880
419.731	1441
419.807	4101
419.883	7625
419.959	5657
420.034	2482
420.110	3534
420.186	13987
420.262	11187
420.337	2492
420.413	1638
420.489	1418
420.565	1700
420.640	1092
420.716	2272
420.792	1065
420.867	2876
420.943	1255
421.019	3251
421.094	2650
421.170	2339
421.245	2577
421.321	3313
421.397	3206
421.472	10374
421.548	28934
421.623	18552
421.699	6256
421.774	5835
421.850	6657
421.925	9233
422.001	9773
422.076	10371
422.152	13710
422.227	18976
422.302	25801
422.378	38082
422.453	66326
422.529	120980
422.604	190414
422.679	182300
422.755	184723
422.830	132006
422.905	73107
422.981	42607
423.056	29462
423.131	20879
423.207	16178
423.282	12628
423.357	12467
423.432	9655
423.508	9212
423.583	11443
423.658	8905
423.733	5836
423.808	6592
423.883	5435
423.959	5485
424.034	5858
424.109	5909
424.184	3025
424.259	2581
424.334	2344
424.409	1940
424.484	1998
424.559	2400
424.634	2456
424.709	2579
424.784	2250
424.859	1752
424.934	2278
425.009	10479
425.084	15605
425.159	5687
425.234	2256
425.309	643
425.384	3824
425.459	5824
425.534	2138
425.609	1070
425.683	678
425.758	963
425.833	754
425.908	2320
425.983	4585
426.058	16448
426.132	7265
426.207	1953
426.282	3382
426.357	2164
426.431	1356
426.506	1779
426.581	1249
426.655	1050
426.730	1345
426.805	366
426.879	1201
426.954	939
427.029	3099
427.103	14823
427.178	35191
427.253	15583
427.327	2776
427.402	3278
427.476	8202
427.551	3605
427.625	1746
427.700	2147
427.774	-49
427.849	1641
427.923	638
427.998	1512
428.072	1159
428.147	5746
428.221	23545
428.296	71607
428.370	38204
428.444	5890
428.519	5017
428.593	9641
428.667	7645
428.742	10557
428.816	11652
428.890	47373
428.965	71765
429.039	21882
429.113	11769
429.188	4976
429.262	1230
429.336	2618
429.410	7750
429.485	5580
429.559	8141
429.633	6206
429.707	2082
429.781	9205
429.855	50109
429.930	73395
430.004	31912
430.078	44068
430.152	45606
430.226	89566
430.300	88097
430.374	17111
430.448	5549
430.522	14365
430.596	38954
430.670	27449
430.744	63528
430.818	81190
430.892	14664
430.966	2216
431.040	1480
431.114	205
431.188	337
431.262	895
431.336	484
431.410	4373
431.484	10659
431.557	6836
431.631	1241
431.705	2150
431.779	14909
431.853	62937
431.927	44235
432.000	5652
432.074	695
432.148	1955
432.222	969
432.295	231
432.369	499
432.443	1733
432.516	13229
432.590	35877
432.664	11584
432.737	1474
432.811	-863
432.885	174
432.958	85
433.032	-407
433.106	-732
433.179	-327
433.253	202
433.326	-246
433.400	-937
433.473	521
433.547	-205
433.620	-28
433.694	1136
433.767	1973
433.841	-1241
433.914	-135
433.988	-702
434.061	263
434.134	-534
434.208	-571
434.281	-931
434.355	-394
434.428	-58
434.501	291
434.575	-37
434.648	-37
434.721	-268
434.795	-727
434.868	-929
434.941	-1041
435.014	-1238
435.088	-14
435.161	681
435.234	926
435.307	1261
435.381	1383
435.454	1915
435.527	3582
435.600	3539
435.673	4499
435.746	2769
435.819	1684
435.892	806
435.966	657
436.039	199
436.112	801
436.185	-301
436.258	-154
436.331	-789
436.404	-495
436.477	-776
436.550	-932
436.623	111
436.696	176
436.769	244
436.842	29
436.915	-205
436.987	1265
437.060	-431
437.133	204
437.206	-806
437.279	211
437.352	-789
437.425	-568
437.498	-189
437.570	1931
437.643	507
437.716	410
437.789	-906
437.861	294
437.934	2252
438.007	419
438.080	-736
438.152	148
438.225	2926
438.298	16533
438.370	46742
438.443	17817
438.516	2915
438.588	288
438.661	-1120
438.734	336
438.806	219
438.879	761
438.951	53
439.024	1235
439.096	36
439.169	-87
439.241	-665
439.314	-302
439.386	1069
439.459	1630
439.531	1954
439.604	70
439.676	306
439.749	-879
439.821	-489
439.893	-50
439.966	-696
440.038	-520
440.110	-316
440.183	371
440.255	-31
440.327	1356
440.400	7477
440.472	31010
440.544	18533
440.617	1903
440.689	1505
440.761	401
440.833	1794
440.905	1555
440.978	-254
441.050	-70
441.122	-316
441.194	-750
441.266	-70
441.338	-230
441.411	1039
441.483	9055
441.555	13123
441.627	2446
441.699	1678
441.771	1770
441.843	653
441.915	215
441.987	-422
442.059	872
442.131	465
442.203	2301
442.275	2695
442.347	3465
442.419	7737
442.491	44367
442.563	101019
442.635	41439
442.706	14819
442.778	8661
442.850	2186
442.922	1579
442.994	1781
443.066	2668
443.137	2227
443.209	3758
443.281	4821
443.353	13562
443.425	51707
443.496	157752
443.568	162838
443.640	63976
443.711	12302
443.783	5060
443.855	3015
443.926	1961
443.998	1960
444.070	2451
444.141	714
444.213	2013
444.285	2262
444.356	1375
444.428	1287
444.499	555
444.571	814
444.642	709
444.714	1176
444.785	2074
444.857	3379
444.928	8532
445.000	4427
445.071	6436
445.143	6368
445.214	6390
445.285	11838
445.357	34079
445.428	104491
445.500	201406
445.571	149410
445.642	91585
445.714	32445
445.785	19086
445.856	5107
445.928	3442
445.999	2326
446.070	964
446.141	1797
446.213	2545
446.284	729
446.355	777
446.426	-548
446.497	499
446.569	1541
446.640	2386
446.711	1078
446.782	1138
446.853	794
446.924	744
446.995	-231
447.066	539
447.138	1945
447.209	983
447.280	-829
447.351	-89
447.422	-670
447.493	438
447.564	-294
447.635	886
447.706	-581
447.777	24
447.847	-709
447.918	-645
447.989	669
448.060	1053
448.131	4268
448.202	2817
448.273	1569
448.344	148
448.414	-1204
448.485	-393
448.556	-125
448.627	-1520
448.698	-585
448.768	333
448.839	-184
448.910	1435
448.981	1311
449.051	-218
449.122	-733
449.193	-133
449.263	-627
449.334	-91
449.405	85
449.475	1939
449.546	1435
449.616	3059
449.687	1893
449.758	379
449.828	-522
449.899	-187
449.969	-801
450.040	-1053
450.110	761
450.181	833
450.251	-536
450.322	101
450.392	-654
450.463	183
450.533	60
450.604	-207
450.674	-126
450.744	127
450.815	-181
450.885	641
450.955	-358
451.026	-267
451.096	224
451.166	705
451.237	3348
451.307	8261
451.377	2545
451.447	3
451.518	-850
451.588	290
451.658	146
451.728	1131
451.799	8163
451.869	9115
451.939	537
452.009	328
452.079	-21
452.149	-124
452.219	1279
452.289	10614
452.360	6158
452.430	556
452.500	721
452.570	1525
452.640	4953
452.710	13694
452.780	18857
452.850	10650
452.920	5246
452.990	1996
453.060	1645
453.129	1390
453.199	2205
453.269	11112
453.339	21456
453.409	31850
453.479	34954
453.549	51492
453.619	54922
453.688	18136
453.758	2617
453.828	56
453.898	756
453.968	336
454.037	87
454.087	135
454.107	137
454.168	-363
454.177	-453
454.247	489
454.249	484
454.316	-230
454.330	14
454.386	875
454.411	2199
454.456	4084
454.492	5549
454.525	6885
454.574	3007
454.595	1312
454.655	290
454.665	131
454.734	1110
454.736	1203
454.804	2954
454.817	4237
454.873	8700
454.898	9292
454.943	10188
454.979	6155
455.013	2671
455.060	1326
455.082	861
455.141	2125
455.152	2288
455.221	8032
455.222	8195
455.291	14206
455.303	14021
455.360	12588
455.384	16037
455.430	20561
455.465	15491
455.499	11079
455.546	10099
455.569	9410
455.627	5892
455.638	5343
455.707	816
455.708	838
455.777	946
455.789	923
455.846	867
455.869	946
455.916	834
455.950	883
455.985	1017
456.031	926
456.054	790
456.112	871
456.124	938
456.193	1478
456.193	1455
456.262	1354
456.274	1518
456.332	2097
456.355	2111
456.401	1896
456.436	1546
456.470	1275
456.516	1414
456.540	1438
456.597	1404
456.609	1411
456.678	1091
456.678	1070
456.747	1124
456.759	1038
456.817	886
456.840	962
456.886	947
456.920	1082
456.955	1287
457.001	1880
457.024	2173
457.082	1542
457.093	1391
457.162	2601
457.163	2626
457.232	2915
457.243	2858
457.301	2670
457.324	2380
457.370	1748
457.405	2078
457.439	2584
457.485	2694
457.508	2625
457.566	2939
457.577	3162
457.646	4459
457.647	4505
457.715	8590
457.727	9464
457.784	15390
457.808	19700
457.853	24571
457.889	28699
457.922	28576
457.969	19548
457.991	19671
458.050	24652
458.060	25690
458.129	41393
458.130	41935
458.198	40966
458.211	36774
458.267	21292
458.292	14931
458.336	9814
458.372	9397
458.405	12887
458.453	19212
458.474	23908
458.533	42612
458.543	43978
458.611	65977
458.614	66401
458.680	42179
458.694	33139
458.749	15239
458.775	11151
458.818	6898
458.855	5553
458.887	4905
458.936	4606
458.955	4339
459.016	3393
459.024	3409
459.093	4475
459.097	4476
459.162	3423
459.177	3621
459.230	4679
459.257	4687
459.299	4412
459.338	4486
459.368	4607
459.418	4830
459.437	4595
459.499	3352
459.505	3339
459.574	3362
459.579	3403
459.643	3227
459.659	3131
459.711	3309
459.740	3687
459.780	4038
459.820	4026
459.849	4109
459.900	4557
459.917	4512
459.981	4941
459.986	4968
460.054	4333
460.061	4281
460.123	4124
460.141	4300
460.191	5561
460.222	5880
460.260	5331
460.302	5576
460.328	5909
460.382	5614
460.397	5618
460.462	6398
460.465	6677
460.534	13238
460.543	14092
460.602	36881
460.623	45742
460.671	71812
460.703	94558
460.739	82216
460.783	60420
460.808	50564
460.864	13113
460.876	10090
460.944	4698
460.945	4657
461.013	5250
461.024	5313
461.081	4713
461.104	4674
461.150	4946
461.184	4867
461.218	4753
461.264	4763
461.286	4754
461.345	4601
461.355	4521
461.423	4307
461.425	4290
461.491	4737
461.505	4994
461.559	8107
461.585	9377
461.628	13073
461.665	16928
461.696	17870
461.745	20900
461.764	18933
461.825	7796
461.832	7455
461.901	4718
461.905	4669
461.969	4964
461.985	5000
462.037	4960
462.065	4921
462.105	5321
462.145	6053
462.173	7695
462.225	10345
462.241	11215
462.305	15460
462.310	15048
462.378	8889
462.385	7881
462.446	5201
462.465	4890
462.514	5020
462.545	5073
462.582	5352
462.625	5651
462.650	5463
462.705	4827
462.718	4888
462.785	5899
462.786	5930
462.854	6893
462.865	7133
462.922	8416
462.945	9031
462.990	7576
463.025	5831
463.058	5651
463.104	5911
463.126	5708
463.184	5271
463.194	5401
463.262	5643
463.264	5665
463.330	5646
463.344	5582
463.398	6235
463.424	6577
463.466	5839
463.504	5357
463.533	6041
463.583	6717
463.601	6630
463.663	6567
463.669	6711
463.737	8604
463.743	8729
463.805	11315
463.823	12171
463.873	17576
463.903	20946
463.940	21413
463.982	22210
464.008	18552
464.062	9155
464.076	8702
464.142	6875
464.144	6854
464.211	6150
464.221	6076
464.279	5802
464.301	5735
464.347	6692
464.381	7313
464.414	7261
464.461	7219
464.482	7667
464.540	9110
464.550	8864
464.617	6558
464.620	6474
464.685	8512
464.699	8948
464.753	10339
464.779	11054
464.820	12211
464.859	13384
464.888	12618
464.938	10901
464.956	11214
465.018	12567
465.023	12451
465.091	10429
465.098	10210
465.158	10278
465.177	10306
465.226	10097
465.257	9958
465.293	10316
465.336	10712
465.361	11030
465.416	11612
465.428	12234
465.495	15610
465.496	15684
465.563	23209
465.575	24528
465.631	28521
465.654	30300
465.698	20218
465.734	11141
465.765	10469
465.813	9575
465.833	9362
465.893	9084
465.900	9166
465.968	9690
465.972	9716
466.035	8801
466.052	8497
466.102	8872
466.131	9099
466.170	9243
466.210	9375
466.237	9673
466.290	10174
466.304	10136
466.369	9840
466.372	9878
466.439	10489
466.449	10549
466.506	10561
466.528	10572
466.573	14641
466.607	17614
466.641	23434
466.687	31481
466.708	34125
466.766	41454
466.775	38402
466.842	14699
466.845	13544
466.909	11695
466.925	11298
466.977	10758
467.004	10445
467.044	11535
467.083	12612
467.111	14099
467.163	16784
467.178	17252
467.242	19072
467.245	18978
467.312	16269
467.321	15878
467.379	16281
467.400	16381
467.446	16935
467.480	17275
467.559	16029
467.638	13484
467.717	14315
467.796	14176
467.875	16596
467.955	14875
468.034	22274
468.113	40120
468.192	57122
468.271	19603
468.350	18510
468.429	21810
468.508	22691
468.588	17448
468.667	15238
468.746	15041
468.825	15094
468.904	13186
468.983	15847
469.062	18597
469.141	22102
469.220	12498
469.299	13283
469.378	13318
469.456	18492
469.535	15712
469.614	15440
469.693	13939
469.772	17542
469.851	21529
469.930	16585
470.009	12958
470.088	13808
470.166	12733
470.245	14876
470.324	15339
470.403	13672
470.482	13427
470.560	14164
470.639	12349
470.718	15254
470.797	13282
470.875	15496
470.954	16660
471.033	19770
471.111	11645
471.190	12526
471.269	10796
471.347	12038
471.426	12206
471.505	15750
471.583	15726
471.662	14506
471.740	13273
471.819	13623
471.898	12031
471.976	12960
472.055	12446
472.133	15339
472.212	17698
472.290	17733
472.369	12416
472.447	12057
472.526	11409
472.604	12185
472.683	12263
472.761	12010
472.839	11946
472.918	12244
472.996	11553
473.075	13175
473.153	12859
473.231	11858
473.310	13347
473.388	13190
473.466	12340
473.545	13735
473.623	14976
473.701	14445
473.780	11916
473.858	11602
473.936	13771
474.014	12177
474.093	14000
474.171	18327
474.249	20455
474.327	15473
474.405	10253
474.484	11391
474.562	9234
474.640	11441
474.718	11890
474.796	11837
474.874	10510
474.952	11035
475.030	10201
475.108	9813
475.187	10451
475.265	11792
475.343	12561
475.421	14391
475.499	10482
475.577	12462
475.655	13363
475.733	22219
475.811	34571
475.889	31756
475.966	21477
476.044	11421
476.122	11823
476.200	12510
476.278	11252
476.356	11568
476.434	11046
476.512	12433
476.590	12202
476.667	12311
476.745	10405
476.823	10607
476.901	11341
476.979	12193
477.056	11685
477.134	11050
477.212	11915
477.290	11761
477.367	9581
477.445	10807
477.523	9312
477.601	10467
477.678	10349
477.756	11922
477.834	12274
477.911	9975
477.989	9748
478.066	10589
478.144	10585
478.222	11789
478.299	12647
478.377	14057
478.454	11575
478.532	10083
478.609	9631
478.687	9670
478.764	8835
478.842	10517
478.919	10253
478.997	10142
479.074	9508
479.152	11500
479.229	12572
479.307	9720
479.384	9533
479.461	9446
479.539	9268
479.616	11040
479.694	9749
479.771	11347
479.848	10297
479.926	11827
480.003	14469
480.080	10368
480.157	8623
480.235	10106
480.312	9279
480.389	10743
480.467	13579
480.544	16284
480.621	11388
480.698	10897
480.775	12622
480.853	12483
480.930	10341
481.007	11000
481.084	14044
481.161	19778
481.238	15117
481.315	10055
481.392	8948
481.470	8883
481.547	9990
481.624	10224
481.701	9525
481.778	10549
481.855	10311
481.932	15049
482.009	21250
482.086	16562
482.163	11442
482.240	12429
482.317	14450
482.393	12654
482.470	10017
482.547	11119
482.624	9531
482.701	10672
482.778	9672
482.855	9293
482.932	9560
483.009	9915
483.085	12287
483.162	15580
483.239	14104
483.316	10018
483.393	9955
483.469	11147
483.546	11126
483.623	12290
483.699	9012
483.776	10187
483.853	10494
483.930	14701
484.006	31275
484.083	53454
484.160	34129
484.236	51675
484.313	38510
484.389	30481
484.466	26922
484.543	27130
484.619	27631
484.696	29921
484.772	28105
484.849	29360
484.925	24466
485.002	24913
485.078	25186
485.155	25135
485.231	22615
485.308	22805
485.384	23716
485.461	26755
485.537	36445
485.614	41277
485.690	22345
485.766	22040
485.843	21525
485.919	25180
485.995	24305
486.072	21666
486.148	20676
486.224	20042
486.301	20939
486.377	23729
486.453	21414
486.530	24611
486.606	30718
486.682	32854
486.758	34907
486.835	39887
486.911	31811
486.987	44787
487.063	41714
487.139	45318
487.215	39227
487.292	30085
487.368	26121
487.444	27741
487.520	33353
487.596	38843
487.672	65462
487.748	166595
487.824	238831
487.900	84287
487.976	33448
488.052	26863
488.128	27379
488.204	23562
488.280	21792
488.356	25992
488.432	40035
488.508	54801
488.584	23650
488.660	18588
488.736	19568
488.812	20333
488.888	22593
488.964	26413
489.039	38350
489.115	53458
489.191	34855
489.267	20664
489.343	18950
489.418	18050
489.494	17107
489.570	15437
489.646	18506
489.722	16684
489.797	17571
489.873	24532
489.949	41472
490.024	36195
490.100	16692
490.176	17575
490.251	17649
490.327	20511
490.403	14514
490.478	15961
490.554	13558
490.629	15341
490.705	13286
490.781	15897
490.856	14459
490.932	17640
491.007	14821
491.083	15939
491.158	15132
491.234	19393
491.309	32089
491.385	32581
491.460	14617
491.536	16016
491.611	13589
491.686	14548
491.762	16293
491.837	26669
491.913	38047
491.988	49779
492.063	57378
492.139	25410
492.214	18258
492.289	12867
492.365	11910
492.440	14775
492.515	13111
492.590	14500
492.666	11707
492.741	16734
492.816	20115
492.891	14732
492.967	12017
493.042	12043
493.117	11535
493.192	13597
493.267	20455
493.342	55841
493.418	72162
493.493	16920
493.568	10618
493.643	11150
493.718	13010
493.793	17019
493.868	16840
493.943	13177
494.018	11893
494.093	11771
494.168	11923
494.243	10602
494.318	10019
494.393	10225
494.468	9596
494.543	9919
494.618	10840
494.693	10156
494.768	10398
494.842	10312
494.917	8269
494.992	10626
495.067	9470
495.142	10279
495.217	10258
495.292	10574
495.366	10693
495.441	13055
495.516	15267
495.591	18795
495.665	44435
495.740	94787
495.815	38549
495.890	15269
495.964	10915
496.039	15154
496.114	13599
496.188	20610
496.263	15970
496.338	12490
496.412	13490
496.487	15320
496.561	14120
496.636	15042
496.710	12965
496.785	15438
496.860	15543
496.934	13008
497.009	11413
497.083	12227
497.158	11232
497.232	14486
497.307	15681
497.381	13674
497.455	14123
497.530	19004
497.604	13261
497.679	15467
497.753	20557
497.827	24989
497.902	18207
497.976	25319
498.050	66675
498.125	241346
498.199	227617
498.273	28970
498.348	16966
498.422	16666
498.496	16168
498.570	16563
498.645	12972
498.719	14086
498.793	17199
498.867	25281
498.941	35637
499.016	102092
499.090	259012
499.164	86165
499.238	14066
499.312	13222
499.386	15060
499.460	14172
499.534	12843
499.609	15412
499.683	22493
499.757	21369
499.831	47539
499.905	176403
499.979	157381
500.053	26895
500.127	23903
500.201	15985
500.275	13813
500.349	14008
500.422	14315
500.496	18895
500.570	34116
500.644	97055
500.718	176140
500.792	39404
500.866	14539
500.940	17614
501.013	15532
501.087	13568
501.161	19826
501.235	26984
501.309	62124
501.382	163944
501.456	133416
501.530	33154
501.603	53807
501.677	23128
501.751	10287
501.825	14966
501.898	25585
501.972	67363
502.046	40179
502.119	15122
502.193	31569
502.266	70232
502.340	33620
502.413	35222
502.487	61355
502.561	34970
502.634	13603
502.708	12139
502.781	9481
502.855	10200
502.928	8851
503.002	10246
503.075	7923
503.149	10906
503.222	9410
503.295	10886
503.369	12848
503.442	17901
503.516	50486
503.589	120704
503.662	75830
503.736	28339
503.809	58709
503.882	51717
503.956	74983
504.029	76621
504.102	90168
504.175	125092
504.249	48482
504.322	23480
504.395	16356
504.468	12947
504.542	10851
504.615	8969
504.688	9170
504.761	8975
504.834	11299
504.907	10617
504.980	13169
505.053	10229
505.127	9501
505.200	13974
505.273	12634
505.346	9681
505.419	6662
505.492	9293
505.565	6385
505.638	7472
505.711	6572
505.784	7253
505.857	6818
505.930	8504
506.003	5943
506.076	9851
506.149	9656
506.221	11161
506.294	11864
506.367	28286
506.440	87871
506.513	45157
506.586	12075
506.659	8756
506.731	6747
506.804	8941
506.877	9592
506.950	9948
507.022	7365
507.095	8971
507.168	10987
507.241	8646
507.313	5504
507.386	6854
507.459	9191
507.531	6942
507.604	6411
507.677	8407
507.749	5617
507.822	10836
507.894	15362
507.967	21030
508.040	11947
508.112	12399
508.185	11318
508.257	9983
508.330	14069
508.402	10834
508.475	11151
508.547	10587
508.620	10657
508.692	15525
508.765	11288
508.837	9273
508.909	9242
508.982	9201
509.054	10082
509.127	8680
509.199	8486
509.271	8354
509.344	7880
509.416	9137
509.488	8594
509.560	9711
509.633	8624
509.705	10527
509.777	10057
509.849	13734
509.922	10353
509.994	10384
510.066	10509
510.138	11128
510.210	21090
510.283	18632
510.355	14890
510.427	14296
510.499	12264
510.571	12655
510.643	10850
510.715	16322
510.787	12104
510.859	13616
510.931	12383
511.003	15413
511.076	13765
511.148	11627
511.219	12154
511.291	17721
511.363	18205
511.435	11922
511.507	9493
511.579	11979
511.651	11366
511.723	11093
511.795	9771
511.867	10821
511.939	11897
512.010	18536
512.082	15961
512.154	10293
512.226	11043
512.298	17072
512.369	20304
512.441	15804
512.513	14036
512.585	12131
512.656	12778
512.728	13226
512.800	10628
512.871	11420
512.943	10881
513.015	9184
513.086	11637
513.158	12000
513.230	10927
513.301	13520
513.373	15077
513.444	11785
513.516	10729
513.588	10671
513.659	10755
513.731	11950
513.802	9934
513.874	17679
513.945	22442
514.016	12053
514.088	10541
514.159	10025
514.231	12951
514.302	18414
514.374	15034
514.445	13808
514.516	24012
514.588	18008
514.659	13724
514.730	21483
514.802	15374
514.873	10147
514.944	12030
515.016	12488
515.087	11784
515.158	16654
515.229	21217
515.301	10985
515.372	12362
515.443	9698
515.514	10895
515.585	9669
515.656	10833
515.728	11123
515.799	8825
515.870	10609
515.941	11546
516.012	10547
516.083	14643
516.154	13948
516.225	16005
516.296	15527
516.367	11591
516.438	14053
516.509	15162
516.580	19706
516.651	44482
516.722	130278
516.793	62266
516.864	20893
516.935	20313
517.006	20313
517.077	23519
517.148	49887
517.219	135994
517.289	200406
517.360	100609
517.431	38678
517.502	13854
517.573	14656
517.643	14677
517.714	16604
517.785	15811
517.856	15316
517.926	18068
517.997	19046
518.068	18556
518.138	24421
518.209	31070
518.280	98978
518.350	310413
518.421	117761
518.492	25542
518.562	23367
518.633	26275
518.703	32720
518.774	65944
518.845	157649
518.915	144211
518.986	46404
519.056	27463
519.127	30073
519.197	41278
519.268	97172
519.338	62560
519.408	19611
519.479	19027
519.549	15633
519.620	13267
519.690	12221
519.760	11623
519.831	11576
519.901	11661
519.971	11725
520.042	10955
520.112	13898
520.182	13123
520.253	14046
520.323	11248
520.393	13678
520.463	19168
520.534	13326
520.604	23779
520.674	15442
520.744	13561
520.814	25289
520.885	22850
520.955	36583
521.025	114022
521.095	44841
521.165	13615
521.235	11782
521.305	9913
521.375	11281
521.445	10857
521.515	11836
521.585	13296
521.655	11623
521.725	11755
521.795	12575
521.865	7905
521.935	15735
522.005	11653
522.075	8990
522.145	10928
522.215	11594
522.285	15400
522.355	18370
522.424	31195
522.494	26416
522.564	14062
522.634	22573
522.704	49813
522.774	21366
522.843	10007
522.913	10588
522.983	11904
523.053	9555
523.122	9454
523.192	12834
523.262	26972
523.331	25299
523.401	11231
523.471	9854
523.540	8843
523.610	8523
523.680	8330
523.749	10345
523.819	11207
523.888	12158
523.958	9048
524.027	8850
524.097	9753
524.166	9674
524.236	7882
524.305	10784
524.375	8197
524.444	7331
524.514	10129
524.583	9668
524.653	10257
524.722	12144
524.791	9440
524.861	11743
524.930	8104
524.999	9248
525.069	11087
525.138	11434
525.207	11621
525.277	10672
525.346	9425
525.415	10432
525.484	11264
525.554	12595
525.623	14486
525.692	16562
525.761	16325
525.830	18653
525.900	20798
525.969	31803
526.038	54630
526.107	115535
526.176	319843
526.245	248601
526.314	75547
526.383	164854
526.452	219431
526.522	349192
526.591	315245
526.660	61950
526.729	33972
526.797	40355
526.867	70796
526.935	255583
527.004	615827
527.073	342690
527.142	39897
527.211	19490
527.280	16397
527.349	14035
527.418	9823
527.487	10754
527.555	8142
527.624	8999
527.693	8037
527.762	10685
527.831	7147
527.899	9371
527.968	8211
528.037	7901
528.106	8936
528.174	13167
528.243	11641
528.312	15704
528.380	16271
528.449	8967
528.518	8609
528.586	6458
528.655	8991
528.723	8639
528.792	6626
528.861	8144
528.929	7124
528.998	9921
529.066	10420
529.135	14442
529.203	14080
529.272	19061
529.340	22987
529.409	21332
529.477	18373
529.545	19534
529.614	23098
529.682	24608
529.751	27471
529.819	30380
529.887	30485
529.956	26748
530.024	25406
530.092	24109
530.161	24749
530.229	26822
530.297	27297
530.365	27023
530.434	27320
530.502	28063
530.570	24059
530.638	21650
530.707	22012
530.775	23387
530.843	21528
530.911	23968
530.979	22629
531.047	28073
531.115	25465
531.183	25261
531.252	23230
531.320	22232
531.388	20780
531.456	25613
531.524	24225
531.592	27640
531.660	30734
531.728	26598
531.796	25473
531.864	25754
531.932	25101
532.000	26558
532.067	28561
532.135	30154
532.203	31952
532.271	34346
532.339	36579
532.407	44648
532.475	36277
532.542	32301
532.610	30492
532.678	35788
532.746	66776
532.814	118323
532.881	48772
532.949	32293
533.017	28524
533.084	28904
533.152	27028
533.220	27453
533.287	27200
533.355	28440
533.423	28778
533.490	28751
533.558	27610
533.625	27069
533.693	26211
533.761	25833
533.828	26358
533.896	26482
533.963	33958
534.031	34574
534.098	37787
534.166	30835
534.233	26992
534.300	29207
534.368	27247
534.435	25827
534.503	25520
534.570	28658
534.637	27272
534.705	30691
534.772	32559
534.840	46798
534.907	156138
534.974	183483
535.041	34491
535.109	25077
535.176	20759
535.243	21971
535.310	20642
535.378	20887
535.445	19968
535.512	20166
535.579	19164
535.646	18647
535.714	19377
535.781	22224
535.848	21129
535.915	23815
535.982	23426
536.049	23133
536.116	21698
536.183	20011
536.250	18184
536.317	18236
536.384	18988
536.451	21036
536.518	20582
536.585	18953
536.652	21783
536.719	22326
536.786	18266
536.853	18544
536.920	21404
536.987	24120
537.053	22832
537.120	61127
537.187	51392
537.254	17640
537.321	16763
537.388	17948
537.454	14563
537.521	15772
537.588	14202
537.654	17811
537.721	17774
537.788	18042
537.855	15406
537.921	16944
537.988	14839
538.055	15333
538.121	14212
538.188	14690
538.254	15550
538.321	21023
538.388	17305
538.454	15796
538.521	15723
538.587	14893
538.654	14979
538.720	14884
538.787	13981
538.853	14540
538.920	14792
538.986	15667
539.053	14151
539.119	14392
539.185	13065
539.252	16896
539.318	17130
539.385	18738
539.451	14812
539.517	17261
539.583	16917
539.650	25303
539.716	44962
539.782	19861
539.849	12716
539.915	14868
539.981	12911
540.047	14590
540.114	13642
540.180	15367
540.246	13489
540.312	15917
540.378	20777
540.444	22186
540.510	24886
540.576	48886
540.643	20275
540.709	13515
540.775	12951
540.841	13719
540.907	15917
540.973	20215
541.039	17284
541.105	17721
541.171	14190
541.237	13592
541.303	15252
541.369	15296
541.435	15525
541.500	20020
541.566	14229
541.632	12824
541.698	11066
541.764	14521
541.830	12467
541.896	12135
541.961	13860
542.027	12211
542.093	12922
542.159	14775
542.224	12998
542.290	17374
542.356	18951
542.421	20652
542.487	14396
542.553	14202
542.618	14236
542.684	13576
542.750	12756
542.815	15440
542.881	18232
542.947	43034
543.012	32050
543.078	13639
543.143	11787
543.209	13882
543.274	11766
543.340	14573
543.405	22078
543.471	27472
543.536	14336
543.602	13623
543.667	11044
543.732	14066
543.798	11851
543.863	13902
543.928	12243
543.994	12335
544.059	11525
544.124	12744
544.190	12387
544.255	13700
544.320	13505
544.386	12556
544.451	14961
544.516	17257
544.581	16598
544.646	31082
544.712	42694
544.777	18082
544.842	15345
544.907	17452
544.972	14410
545.037	15831
545.102	16747
545.168	16016
545.233	16453
545.298	18290
545.363	17700
545.428	19276
545.493	23990
545.558	37807
545.623	22559
545.688	17331
545.753	17260
545.818	17855
545.883	18284
545.947	17114
546.012	19617
546.077	19663
546.142	19834
546.207	19128
546.272	20954
546.337	22180
546.401	21137
546.466	21882
546.531	21554
546.596	22812
546.661	23151
546.725	25341
546.790	23901
546.855	26881
546.919	27123
546.984	31239
547.049	32288
547.113	38369
547.178	38912
547.243	45474
547.307	50756
547.372	56808
547.436	56679
547.501	56757
547.565	60383
547.630	57265
547.695	56612
547.759	58728
547.823	55972
547.888	56126
547.952	57337
548.017	60693
548.081	66398
548.146	67721
548.210	65362
548.274	66800
548.339	63455
548.403	59882
548.468	53666
548.532	54980
548.596	55534
548.660	57664
548.725	63330
548.789	68848
548.853	66328
548.917	64081
548.982	63460
549.046	58878
549.110	50252
549.174	52881
549.238	59070
549.303	64744
549.367	66810
549.431	62873
549.495	58493
549.559	61526
549.623	69040
549.687	76532
549.751	76961
549.815	89258
549.879	88217
549.943	85421
550.007	89321
550.071	88296
550.135	80081
550.199	76310
550.263	73959
550.327	72033
550.391	77657
550.455	82874
550.519	84692
550.582	89869
550.646	101659
550.710	103604
550.774	98848
550.838	100473
550.901	103142
550.965	110732
551.029	113278
551.093	122531
551.156	134026
551.220	158550
551.284	168740
551.347	129798
551.411	131422
551.475	129253
551.538	110247
551.602	100747
551.666	95610
551.729	89286
551.793	88054
551.856	88497
551.920	85854
551.983	86838
552.047	84190
552.110	83790
552.174	87128
552.237	88080
552.301	82077
552.364	78540
552.428	77182
552.491	79409
552.554	80203
552.618	80856
552.681	80746
552.745	77590
552.808	82371
552.871	88099
552.934	83958
552.998	80947
553.061	80864
553.124	77365
553.187	76364
553.251	80771
553.314	80393
553.377	81646
553.440	92070
553.503	132600
553.567	158565
553.630	92872
553.693	85216
553.756	85556
553.819	81513
553.882	80014
553.945	79178
554.008	81122
554.071	80312
554.134	81217
554.197	77554
554.260	75211
554.323	78599
554.386	78304
554.449	80600
554.512	80775
554.575	77154
554.638	77937
554.701	76093
554.764	76244
554.827	72570
554.889	72133
554.952	66356
555.015	66506
555.078	66513
555.141	68669
555.203	64704
555.266	66198
555.329	65921
555.391	62915
555.454	61943
555.517	60215
555.580	57311
555.642	55875
555.705	55907
555.768	55120
555.830	54138
555.893	51928
555.955	49765
556.018	50419
556.080	49957
556.143	52094
556.206	49182
556.268	49808
556.330	47509
556.393	47530
556.455	46415
556.518	50155
556.580	47213
556.643	42709
556.705	41269
556.767	40323
556.830	40346
556.892	42052
556.955	42195
557.017	40142
557.079	38015
557.142	38571
557.204	37184
557.266	42833
557.328	39190
557.391	33267
557.453	33090
557.515	33431
557.577	34014
557.639	34885
557.701	32334
557.764	33218
557.826	32364
557.888	35582
557.950	35538
558.012	39966
558.074	51421
558.136	105386
558.198	230524
558.260	85937
558.322	38751
558.384	39038
558.446	40824
558.508	44824
558.570	51555
558.632	62946
558.694	84770
558.756	129563
558.818	362792
558.880	760989
558.942	270672
559.003	242047
559.065	116564
559.127	50372
559.189	48444
559.251	56252
559.312	80589
559.374	190796
559.436	551284
559.498	260704
559.559	55493
559.621	48358
559.683	57448
559.744	96420
559.806	287724
559.868	397031
559.929	83682
559.991	54740
560.052	83711
560.114	223946
560.176	139993
560.237	131135
560.299	200214
560.360	48237
560.422	23848
560.483	22274
560.545	20696
560.606	21104
560.667	19176
560.729	19178
560.790	16519
560.852	17917
560.913	17598
560.974	18152
561.036	16991
561.097	17153
561.158	17109
561.220	17449
561.281	16867
561.342	17540
561.403	17435
561.465	19622
561.526	27492
561.587	31060
561.648	17187
561.709	16722
561.771	15730
561.832	16102
561.893	14732
561.954	16384
562.015	14949
562.076	15734
562.137	15194
562.198	15357
562.259	15377
562.320	15913
562.381	15655
562.442	18127
562.503	16076
562.564	14892
562.625	14999
562.686	15043
562.747	14353
562.808	14747
562.869	14527
562.930	17053
562.991	15536
563.051	15854
563.112	15609
563.173	14557
563.234	13359
563.294	15862
563.355	12834
563.416	14788
563.477	13771
563.537	14236
563.598	15066
563.659	15327
563.720	12867
563.780	15218
563.841	13796
563.901	14437
563.962	13275
564.023	14239
564.083	14594
564.144	14416
564.204	14869
564.265	14936
564.325	15524
564.386	22405
564.446	20611
564.507	14509
564.567	12892
564.628	13059
564.688	12744
564.749	14069
564.809	15186
564.869	16996
564.930	13153
564.990	14710
565.050	13168
565.111	12976
565.171	12600
565.231	14228
565.292	13286
565.352	12571
565.412	13284
565.472	13833
565.532	13329
565.593	14172
565.653	11993
565.713	13096
565.773	13560
565.833	15175
565.893	14850
565.953	13696
566.013	12648
566.074	14177
566.134	15294
566.194	20572
566.254	19887
566.314	16104
566.374	13021
566.434	14615
566.494	12999
566.554	13876
566.614	12935
566.673	13881
566.733	14385
566.793	13759
566.853	13745
566.913	13488
566.973	13641
567.033	15141
567.092	13865
567.152	14048
567.212	13301
567.272	15124
567.331	14484
567.391	14743
567.451	14535
567.511	18204
567.570	17113
567.630	13618
567.690	13734
567.749	13384
567.809	13686
567.868	14805
567.928	13815
567.988	16182
568.047	14158
568.107	15606
568.166	16273
568.226	19237
568.285	22071
568.345	20994
568.404	18304
568.464	17571
568.523	16597
568.582	18041
568.642	17035
568.701	19032
568.761	21888
568.820	27856
568.879	28335
568.939	26167
568.998	20315
569.057	18019
569.116	16061
569.176	16571
569.235	13940
569.294	13298
569.353	12992
569.413	14251
569.472	13030
569.531	13723
569.590	12000
569.649	13099
569.708	12546
569.767	13858
569.827	12806
569.886	13383
569.945	11847
570.004	13557
570.063	11716
570.122	13283
570.181	13174
570.240	14151
570.299	13112
570.358	14050
570.417	12669
570.475	13138
570.534	13058
570.593	13349
570.652	13930
570.711	13023
570.770	11919
570.829	13811
570.887	12166
570.946	13855
571.005	11680
571.064	13136
571.122	12636
571.181	13869
571.240	12336
571.299	12233
571.357	12878
571.416	13406
571.475	12788
571.533	13793
571.592	12960
571.650	13752
571.709	12075
571.768	13424
571.826	12787
571.885	12998
571.943	12031
572.002	12765
572.060	12061
572.119	12913
572.177	10896
572.236	11626
572.294	10836
572.352	12104
572.411	11558
572.469	11619
572.528	10897
572.586	13045
572.644	11762
572.703	12134
572.761	11456
572.819	10819
572.877	10885
572.936	11032
572.994	11051
573.052	11622
573.110	9924
573.169	10859
573.227	10424
573.285	11160
573.343	10548
573.401	11494
573.459	9690
573.517	10701
573.576	10052
573.634	11460
573.692	10571
573.750	11423
573.808	9760
573.866	11705
573.924	12540
573.982	12701
574.040	11360
574.098	11429
574.155	10424
574.213	10816
574.271	9727
574.329	11359
574.387	9691
574.445	11000
574.503	9551
574.560	9892
574.618	9748
574.676	10244
574.734	9767
574.792	11203
574.849	9449
574.907	9508
574.965	8357
575.022	9371
575.080	8555
575.138	9648
575.195	9130
575.253	9881
575.311	9220
575.368	9657
575.426	7770
575.483	9924
575.541	8841
575.598	9387
575.656	8994
575.713	9315
575.771	9239
575.828	10263
575.886	7987
575.943	11197
576.001	8644
576.058	9519
576.115	9656
576.173	10693
576.230	10979
576.287	11322
576.345	10552
576.402	10365
576.459	9826
576.517	9592
576.574	10801
576.631	10683
576.688	10412
576.746	9784
576.803	8755
576.860	9875
576.917	8349
576.974	10210
577.031	9249
577.089	10353
577.146	8909
577.203	9472
577.260	9398
577.317	9826
577.374	9964
577.431	10141
577.488	9231
577.545	9136
577.602	9784
577.659	10428
577.716	9145
577.773	11218
577.830	9841
577.886	10729
577.943	9109
578.000	9563
578.057	9633
578.114	12305
578.171	11426
578.227	15425
578.284	14447
578.341	11754
578.398	10280
578.454	11435
578.511	10692
578.568	12115
578.625	9591
578.681	10273
578.738	8544
578.794	10210
578.851	9164
578.908	9609
578.964	9872
579.021	10466
579.077	9132
579.134	9936
579.190	8364
579.247	10626
579.303	9635
579.360	8838
579.416	8472
579.473	9926
579.529	8905
579.586	10174
579.642	8782
579.698	9668
579.755	10005
579.811	11253
579.867	10009
579.924	11307
579.980	11056
580.036	12801
580.093	14966
580.149	20503
580.205	22619
580.261	17560
580.317	14632
580.374	13870
580.430	12489
580.486	12474
580.542	10506
580.598	11802
580.619	11541
580.654	11097
580.692	11873
580.710	12279
580.765	10610
580.767	10570
580.823	11277
580.838	11047
580.879	10483
580.911	11203
580.935	11742
580.984	11748
580.991	11768
581.047	12283
581.057	12212
581.103	11919
581.130	12852
581.159	13871
581.203	13912
581.215	13935
581.270	14091
581.276	13926
581.326	12493
581.349	12911
581.382	13546
581.422	11659
581.438	10885
581.494	11986
581.494	11977
581.550	11996
581.567	12186
581.606	12581
581.640	12059
581.661	11760
581.713	12740
581.717	12832
581.773	11998
581.786	11987
581.829	11926
581.859	12213
581.885	12488
581.932	12709
581.940	12756
581.996	12179
582.004	12402
582.052	13695
582.077	13010
582.107	12174
582.150	12842
582.163	13073
582.219	12821
582.223	12839
582.274	13222
582.296	13228
582.330	13157
582.368	13523
582.386	13745
582.441	13005
582.441	13008
582.497	13340
582.514	13159
582.552	12909
582.587	14505
582.608	15447
582.659	13903
582.663	13783
582.719	15143
582.732	14778
582.774	13653
582.805	14106
582.830	14503
582.877	14903
582.885	15004
582.941	15953
582.950	16243
582.996	17445
583.023	18873
583.052	20680
583.095	19974
583.107	19677
583.162	21659
583.168	21586
583.218	21052
583.240	20177
583.273	18798
583.313	17754
583.328	17385
583.384	15769
583.385	15717
583.439	14121
583.458	14228
583.494	14511
583.531	13746
583.549	13406
583.603	14074
583.605	14087
583.660	12409
583.676	12784
583.715	13831
583.748	13271
583.770	12903
583.820	13452
583.825	13500
583.881	14315
583.893	14090
583.936	13341
583.965	12972
583.991	12552
584.038	13587
584.046	13777
584.101	12865
584.110	13077
584.156	14342
584.183	13748
584.211	12936
584.255	13391
584.266	13553
584.321	13570
584.328	13701
584.376	14705
584.400	14244
584.431	13596
584.472	14102
584.486	14203
584.541	14273
584.545	14318
584.596	15029
584.617	14391
584.651	13739
584.689	15273
584.706	15755
584.761	15470
584.762	15475
584.816	15734
584.834	15836
584.871	15859
584.906	16276
584.926	16573
584.978	15771
584.980	15747
585.035	16446
585.051	16925
585.090	17888
585.123	18432
585.145	18766
585.195	18423
585.200	18456
585.254	21568
585.267	21989
585.309	23303
585.340	25069
585.364	26391
585.412	27791
585.419	28061
585.473	33680
585.484	34975
585.528	41682
585.556	50226
585.583	64566
585.628	99550
585.637	111303
585.692	221247
585.700	240604
585.747	318567
585.772	268198
585.801	169092
585.845	68100
585.856	53537
585.910	31240
585.917	29105
585.965	24032
585.989	22911
586.019	22321
586.061	20544
586.074	20133
586.128	20011
586.133	19928
586.183	18523
586.205	18365
586.237	18435
586.277	17955
586.292	17779
586.346	17760
586.349	17747
586.401	17515
586.421	17672
586.455	17819
586.493	17730
586.509	18322
586.564	21784
586.565	21924
586.618	28612
586.637	29025
586.672	26039
586.709	22064
586.727	20929
586.781	21109
586.781	21102
586.835	18261
586.853	18064
586.889	17525
586.925	16120
586.944	15617
586.996	16107
586.998	16128
587.052	16045
587.068	16238
587.106	16489
587.140	16285
587.161	16220
587.212	16694
587.215	16715
587.269	16620
587.284	16736
587.323	16917
587.356	17227
587.377	17441
587.427	17963
587.431	17997
587.485	17768
587.499	18037
587.539	18664
587.571	18660
587.593	18942
587.643	19833
587.648	19849
587.702	19649
587.715	19802
587.755	20497
587.786	20621
587.810	20863
587.858	21994
587.864	22063
587.917	22254
587.930	22469
587.971	23835
588.001	24664
588.025	25078
588.073	26067
588.079	26303
588.133	27972
588.145	28634
588.187	30035
588.217	30982
588.241	32602
588.288	35652
588.295	36007
588.348	39525
588.360	40377
588.402	44505
588.431	47512
588.456	50066
588.503	55654
588.510	56709
588.564	66969
588.575	69350
588.617	79021
588.646	86985
588.671	96827
588.718	120092
588.725	125835
588.778	177923
588.789	191321
588.832	280896
588.861	351892
588.886	437337
588.932	606484
588.939	616485
588.993	629262
589.004	625672
589.047	485141
589.075	373449
589.100	292487
589.147	171319
589.154	163582
589.207	122215
589.218	115312
589.261	109528
589.290	108113
589.314	111638
589.361	123200
589.368	128516
589.421	181546
589.433	195428
589.475	302962
589.504	389612
589.528	459826
589.576	570618
589.582	558617
589.635	394504
589.647	355626
589.689	213251
589.718	129285
589.742	105681
589.790	69180
589.795	67356
589.849	54155
589.861	51673
589.902	47701
589.932	44051
589.955	40662
590.004	34378
590.009	33966
590.062	29903
590.075	29017
590.115	27765
590.146	26880
590.168	26295
590.218	25353
590.222	25317
590.275	24617
590.289	24602
590.328	24595
590.360	24121
590.381	23691
590.431	23367
590.435	23331
590.488	22239
590.503	22085
590.541	21984
590.574	21699
590.594	21510
590.645	21532
590.647	21535
590.700	21396
590.716	21460
590.753	21284
590.787	21024
590.806	21103
590.859	21692
590.859	21684
590.912	21274
590.930	21423
590.965	22000
591.001	22191
591.018	21941
591.071	21470
591.072	21472
591.124	21614
591.143	21669
591.177	21286
591.214	21028
591.230	21254
591.283	22080
591.285	22107
591.336	21889
591.356	21913
591.389	22062
591.427	22006
591.442	21725
591.495	20963
591.498	20898
591.547	20717
591.569	20721
591.600	20846
591.640	20906
591.653	20932
591.706	21263
591.711	21291
591.759	21584
591.782	21757
591.811	22625
591.853	23916
591.864	23664
591.917	22358
591.924	22163
591.969	21823
591.995	21728
592.022	21818
592.066	21916
592.075	22256
592.127	24436
592.137	24845
592.180	25482
592.208	25901
592.233	25238
592.279	23887
592.285	23731
592.338	22570
592.350	22305
592.390	22365
592.421	22475
592.443	22604
592.491	22887
592.495	22872
592.548	22842
592.562	22842
592.600	22976
592.633	23132
592.653	23091
592.704	22896
592.705	23019
592.775	22658
592.846	24008
592.916	23520
592.987	24176
593.058	23908
593.128	24644
593.199	23309
593.270	24373
593.341	23102
593.411	24503
593.482	24870
593.553	26029
593.623	25478
593.694	26381
593.764	27322
593.835	26784
593.906	26681
593.976	27686
594.047	26804
594.117	31229
594.188	30694
594.258	28672
594.329	28128
594.399	28931
594.470	29584
594.540	30517
594.611	30288
594.681	30701
594.751	30523
594.822	31620
594.892	32484
594.963	33415
595.033	31929
595.103	34032
595.174	36479
595.244	40296
595.314	42603
595.384	37781
595.455	36766
595.525	38247
595.595	39646
595.665	38855
595.736	38088
595.806	40061
595.876	39333
595.946	39430
596.016	41598
596.087	41434
596.157	42839
596.227	41920
596.297	44522
596.367	45999
596.437	49021
596.507	53491
596.577	54563
596.647	51193
596.717	52536
596.787	53578
596.857	52349
596.927	54019
596.997	53452
597.067	55267
597.137	57221
597.207	54724
597.277	55489
597.347	53912
597.417	52552
597.487	53273
597.557	54803
597.626	55770
597.696	56849
597.766	57669
597.836	58178
597.906	52335
597.975	50905
598.045	50928
598.115	53502
598.185	56025
598.254	61557
598.324	65922
598.394	66636
598.464	66090
598.533	63992
598.603	61437
598.672	59940
598.742	60919
598.812	62946
598.881	62994
598.951	63128
599.020	63437
599.090	65435
599.159	68019
599.229	64964
599.299	64279
599.368	66140
599.437	64757
599.507	62354
599.576	61413
599.646	62833
599.715	62143
599.785	60399
599.854	59705
599.924	61411
599.993	60336
600.062	61734
600.132	62302
600.201	65654
600.270	73706
600.340	76239
600.409	76569
600.478	75349
600.547	76412
600.617	72851
600.686	64252
600.755	60679
600.824	59133
600.894	58329
600.963	59896
601.032	60191
601.101	60178
601.170	58820
601.239	58222
601.308	60060
601.378	60253
601.447	60082
601.516	61836
601.585	63887
601.654	65234
601.723	65334
601.792	67707
601.861	70175
601.930	74328
601.999	75403
602.068	74660
602.137	73606
602.206	75326
602.275	76463
602.343	78459
602.412	76343
602.481	78126
602.550	76946
602.619	78796
602.688	80518
602.756	80842
602.825	81586
602.894	82888
602.963	82558
603.032	84637
603.100	83614
603.169	82795
603.238	84846
603.307	83009
603.375	83653
603.444	87095
603.513	81972
603.581	83864
603.650	87970
603.719	76426
603.787	75375
603.856	78440
603.924	79931
603.993	81176
604.061	84109
604.130	86890
604.198	88586
604.267	88655
604.335	90734
604.404	91469
604.472	93334
604.541	93236
604.609	95604
604.678	98790
604.746	99051
604.815	104868
604.883	100612
604.951	99434
605.020	101237
605.088	98084
605.156	95917
605.225	96287
605.293	94835
605.361	96175
605.429	94557
605.498	98848
605.566	97999
605.634	103288
605.702	103920
605.771	105645
605.839	107790
605.907	101288
605.975	104703
606.043	99217
606.111	97409
606.180	104839
606.248	97063
606.316	96213
606.384	100048
606.452	90056
606.520	83027
606.588	83591
606.656	83749
606.724	84139
606.792	77977
606.860	70529
606.928	65236
606.996	62988
607.064	61784
607.132	62768
607.200	66630
607.267	68569
607.335	69894
607.403	71811
607.471	68244
607.539	67344
607.607	68995
607.674	61021
607.742	60566
607.810	59193
607.878	59795
607.946	61430
608.013	63442
608.081	63872
608.149	64769
608.216	66829
608.284	69082
608.352	67749
608.419	68187
608.487	70320
608.555	65277
608.622	67161
608.690	70264
608.757	75662
608.825	78442
608.893	75734
608.960	71965
609.028	70813
609.095	71318
609.163	67914
609.230	63444
609.298	58285
609.365	58252
609.432	64819
609.500	70039
609.567	80310
609.635	89871
609.702	94488
609.769	90588
609.837	71395
609.904	63036
609.971	66335
610.039	76042
610.106	100365
610.173	189344
610.241	414684
610.308	263663
610.375	101843
610.442	71417
610.509	66028
610.577	66904
610.644	65330
610.711	67043
610.778	68642
610.845	70842
610.912	76006
610.980	79036
611.047	82677
611.114	78330
611.181	73846
611.248	73578
611.315	79339
611.382	80290
611.449	82116
611.516	84899
611.583	82900
611.650	84283
611.717	85753
611.784	87778
611.851	92890
611.918	100119
611.984	119238
612.051	171763
612.118	322452
612.185	703267
612.252	483795
612.319	153634
612.386	115068
612.452	103464
612.519	97848
612.586	97800
612.653	98363
612.719	97585
612.786	93904
612.853	87026
612.919	85093
612.986	87188
613.053	81441
613.120	76591
613.186	73983
613.253	75052
613.319	75210
613.386	75698
613.453	76033
613.519	77523
613.586	76346
613.652	81517
613.719	78409
613.785	79248
613.852	78258
613.918	74445
613.985	79407
614.051	84148
614.118	92584
614.184	87323
614.250	78043
614.317	77873
614.383	77197
614.449	77534
614.516	78090
614.582	78792
614.648	76652
614.715	75875
614.781	74310
614.847	75759
614.914	74150
614.980	72519
615.046	72497
615.112	73920
615.179	75835
615.245	76042
615.311	76668
615.377	76758
615.443	79002
615.509	79074
615.575	82406
615.642	80728
615.708	84420
615.774	87859
615.840	94963
615.906	105139
615.972	128468
616.038	194367
616.104	379345
616.170	789583
616.236	691267
616.302	226317
616.368	156842
616.434	114487
616.500	102559
616.565	111394
616.631	138503
616.697	118869
616.763	119709
616.829	173437
616.895	300901
616.961	295306
617.026	138931
617.092	91490
617.158	84497
617.224	80995
617.289	73420
617.355	69631
617.421	69184
617.487	69920
617.552	66343
617.618	65137
617.684	63667
617.749	66972
617.815	63724
617.880	60470
617.946	62145
618.012	61694
618.077	63087
618.143	60170
618.208	61356
618.274	64982
618.339	65705
618.405	54711
618.470	56747
618.536	56333
618.601	55838
618.667	52484
618.732	49711
618.798	47948
618.863	49186
618.928	48584
618.994	50123
619.059	50295
619.124	53256
619.190	49757
619.255	47216
619.320	48919
619.386	49346
619.451	47098
619.516	46976
619.581	47791
619.647	49227
619.712	48079
619.777	46890
619.842	46955
619.907	48022
619.972	48642
620.038	47770
620.103	47205
620.168	46613
620.233	47898
620.298	47943
620.363	48205
620.428	49576
620.493	49837
620.558	51153
620.623	50734
620.688	51710
620.753	50895
620.818	51558
620.883	53000
620.948	52742
621.013	51793
621.078	50310
621.143	51009
621.207	54848
621.272	52220
621.337	49824
621.402	51604
621.467	53146
621.532	54135
621.596	51916
621.661	50720
621.726	48741
621.791	49644
621.855	50337
621.920	50492
621.985	50543
622.049	52692
622.114	52216
622.179	53472
622.243	53669
622.308	53514
622.373	57536
622.437	54233
622.502	52675
622.566	50897
622.631	51952
622.695	53960
622.760	51852
622.824	52262
622.889	51661
622.953	52453
623.018	58441
623.082	58556
623.147	55033
623.211	53130
623.276	53806
623.340	49795
623.404	50484
623.469	50339
623.533	50125
623.597	47709
623.662	50038
623.726	46258
623.790	43753
623.854	42678
623.919	44346
623.983	44127
624.047	45106
624.111	45265
624.176	45850
624.240	46820
624.304	49068
624.368	45341
624.432	46222
624.496	46399
624.560	49535
624.625	48323
624.689	48491
624.753	48700
624.817	48161
624.881	45499
624.945	43425
625.009	43777
625.073	43080
625.137	43237
625.201	47007
625.265	47414
625.329	44505
625.393	45530
625.456	44203
625.520	44757
625.584	46840
625.648	50938
625.712	57024
625.776	77471
625.839	79903
625.903	47659
625.967	38821
626.031	48379
626.095	61165
626.158	45233
626.222	33355
626.286	32164
626.349	30488
626.413	28422
626.477	31424
626.540	29360
626.604	28527
626.668	29578
626.731	28713
626.795	28625
626.858	28370
626.922	28488
626.986	27875
627.049	27203
627.113	29704
627.176	28931
627.240	27934
627.303	27175
627.366	27069
627.430	27646
627.493	28123
627.557	26156
627.620	28349
627.684	27683
627.747	28830
627.810	24653
627.874	24019
627.937	22636
628.000	25426
628.064	23746
628.127	20186
628.190	22006
628.253	20635
628.317	19599
628.380	20693
628.443	18349
628.506	17547
628.569	18728
628.632	17602
628.696	18135
628.759	18015
628.822	16532
628.885	15803
628.948	16681
629.011	16906
629.074	15180
629.137	15513
629.200	14680
629.263	16529
629.326	14780
629.389	14944
629.452	15177
629.515	15715
629.578	14672
629.641	16290
629.704	14529
629.767	14872
629.830	14804
629.892	14857
629.955	14195
630.018	16592
630.081	14610
630.144	16548
630.207	13644
630.269	16343
630.332	14668
630.395	14753
630.458	13251
630.520	12477
630.583	13708
630.646	14056
630.708	13773
630.771	13263
630.834	14178
630.896	13946
630.959	13004
631.021	13534
631.084	13446
631.146	14829
631.209	15430
631.272	14315
631.334	13969
631.397	13921
631.459	14247
631.522	14886
631.584	14686
631.646	16096
631.709	16320
631.771	17280
631.834	16220
631.896	15102
631.958	14115
632.021	15122
632.083	12484
632.145	13934
632.208	13196
632.270	14886
632.332	12257
632.395	12637
632.457	13218
632.519	12748
632.581	13934
632.643	12232
632.706	13078
632.768	11758
632.830	13122
632.892	12470
632.954	13143
633.016	13466
633.078	12730
633.141	12581
633.203	12052
633.265	12839
633.327	12873
633.389	11765
633.451	13264
633.513	13388
633.575	14758
633.637	13287
633.698	13113
633.760	14746
633.822	13574
633.884	14502
633.946	14093
634.008	13969
634.070	15780
634.132	17053
634.193	18080
634.255	19195
634.317	18089
634.379	19517
634.441	16476
634.502	16095
634.564	14494
634.626	13482
634.687	12664
634.749	12556
634.811	12823
634.873	11670
634.934	12539
634.996	12992
635.057	11641
635.119	11815
635.181	12183
635.242	13492
635.304	10981
635.365	13952
635.427	11110
635.488	13471
635.550	12491
635.611	13170
635.673	10286
635.734	13962
635.796	13993
635.857	16165
635.918	15909
635.980	18295
636.041	18359
636.102	19767
636.164	19097
636.225	19961
636.286	15031
636.348	16052
636.409	13293
636.470	12469
636.531	12433
636.593	13144
636.654	12434
636.715	12014
636.776	11042
636.838	10799
636.899	10185
636.960	10487
637.021	9903
637.082	10038
637.143	9507
637.204	9822
637.265	9567
637.326	10233
637.387	10570
637.448	8649
637.509	10784
637.570	9443
637.631	10654
637.692	7856
637.753	8346
637.814	9679
637.875	9893
637.936	9976
637.997	8841
638.058	9302
638.119	9652
638.179	9538
638.240	8481
638.301	9724
638.362	8316
638.423	8746
638.483	9926
638.544	7926
638.605	8945
638.666	7867
638.726	9450
638.787	10103
638.848	8377
638.908	8664
638.969	7949
639.030	8275
639.090	7729
639.151	8150
639.211	9483
639.272	10597
639.332	11866
639.393	10132
639.453	8448
639.514	10012
639.574	8981
639.635	7753
639.695	8478
639.756	7646
639.816	7658
639.877	8587
639.937	11085
639.997	11300
640.058	6992
640.118	7273
640.178	8242
640.239	8303
640.299	7250
640.359	8595
640.420	8507
640.480	9924
640.540	9498
640.600	10437
640.661	9764
640.721	9124
640.781	12373
640.841	10947
640.901	9171
640.961	9304
641.021	8882
641.082	8010
641.142	8817
641.202	8780
641.262	6823
641.322	9089
641.382	5895
641.442	8763
641.502	7366
641.562	8646
641.622	6729
641.682	9426
641.742	8556
641.802	9135
641.861	8307
641.921	7583
641.981	7746
642.041	8685
642.101	7306
642.161	5180
642.221	6661
642.280	7390
642.340	6481
642.400	5946
642.460	7965
642.519	7069
642.579	7295
642.639	7429
642.698	4973
642.758	9385
642.818	7421
642.877	6460
642.937	6922
642.997	8049
643.056	8546
643.116	6383
643.175	8633
643.235	7186
643.294	8191
643.354	9755
643.414	10963
643.473	11977
643.532	14338
643.592	18945
643.651	29447
643.711	52654
643.770	97591
643.830	222793
643.889	429771
643.948	126817
644.008	26680
644.067	16189
644.126	10590
644.186	9992
644.245	9495
644.304	6805
644.363	9500
644.423	6768
644.482	8486
644.541	9627
644.600	7450
644.659	11827
644.719	12965
644.778	21037
644.837	33875
644.896	70421
644.955	158282
645.014	55935
645.073	13380
645.132	10011
645.191	9235
645.250	7913
645.309	9883
645.368	9917
645.427	13881
645.486	19613
645.545	36032
645.604	11838
645.663	8204
645.722	7574
645.781	8411
645.840	10682
645.898	12154
645.957	19536
646.016	27656
646.075	50022
646.134	92696
646.192	236023
646.251	336467
646.310	63249
646.369	18497
646.427	14434
646.486	9774
646.545	9034
646.603	8394
646.662	7811
646.721	7060
646.779	7205
646.838	7405
646.896	10302
646.955	12669
647.014	22553
647.072	38551
647.131	104239
647.189	52344
647.248	9082
647.306	6974
647.365	7207
647.423	4212
647.481	7026
647.540	3883
647.598	5782
647.657	5190
647.715	5316
647.773	4013
647.832	6104
647.890	4112
647.948	4472
648.007	6392
648.065	3674
648.123	3972
648.181	5773
648.240	6126
648.298	4533
648.356	4153
648.414	4851
648.472	4535
648.531	5428
648.589	4247
648.647	3974
648.705	4554
648.763	4435
648.821	4452
648.879	5413
648.937	5172
648.995	8344
649.053	9193
649.111	14135
649.169	23364
649.227	41200
649.285	84886
649.343	229873
649.401	117304
649.459	20118
649.516	13050
649.574	8446
649.632	13704
649.690	17198
649.748	12978
649.806	16482
649.863	32248
649.921	76330
649.979	50106
650.037	8577
650.094	3900
650.152	5784
650.210	3833
650.268	5195
650.325	4436
650.383	6346
650.440	2526
650.498	3974
650.556	3429
650.613	3082
650.671	4280
650.728	3583
650.786	3861
650.843	5513
650.901	2302
650.958	2437
651.016	2602
651.073	2837
651.131	1568
651.188	2585
651.246	3306
651.303	1986
651.360	2808
651.418	2965
651.475	2996
651.532	1352
651.590	2050
651.647	1932
651.704	2631
651.762	2551
651.819	3141
651.876	2363
651.933	2320
651.990	3841
652.048	481
652.105	1638
652.162	3273
652.219	2405
652.276	2305
652.333	2986
652.390	1421
652.448	2918
652.505	2913
652.562	2511
652.619	2685
652.676	4658
652.733	4272
652.790	2171
652.847	1217
652.904	2201
652.961	1165
653.017	2572
653.074	1753
653.131	2099
653.188	951
653.245	2541
653.302	1980
653.359	1725
653.415	1160
653.472	2405
653.529	2819
653.586	1416
653.642	2230
653.699	2224
653.756	1619
653.813	2391
653.869	2527
653.926	1480
653.983	2007
654.039	1993
654.096	1099
654.152	2832
654.209	1614
654.266	2042
654.322	1096
654.379	2871
654.435	2239
654.492	2125
654.548	3079
654.605	4149
654.661	3989
654.717	1892
654.774	2662
654.830	2575
654.887	2509
654.943	3106
655.000	3495
655.056	2888
655.112	1999
655.168	1654
655.225	1800
655.281	2999
655.337	2053
655.394	3984
655.450	2777
655.506	2828
655.562	4324
655.618	4622
655.675	769
655.731	2448
655.787	1216
655.843	2965
655.899	1392
655.955	2148
656.011	2279
656.067	513
656.123	1705
656.179	1313
656.235	2976
656.291	820
656.347	2953
656.403	1712
656.459	1968
656.515	2077
656.571	1891
656.627	2711
656.683	2344
656.739	2316
656.795	2042
656.850	2272
656.906	2077
656.962	3239
657.018	850
657.074	2467
657.129	3174
657.185	5961
657.241	10398
657.297	6558
657.352	2443
657.408	1485
657.464	2289
657.519	2452
657.575	1794
657.630	1309
657.686	1128
657.742	1515
657.797	2227
657.853	1188
657.908	2217
657.964	926
658.019	1743
658.075	1723
658.130	2751
658.186	-12
658.241	1752
658.297	1335
658.352	1287
658.407	2624
658.463	433
658.518	1747
658.573	2022
658.629	992
658.684	1901
658.739	2040
658.795	917
658.850	2055
658.905	208
658.960	1354
659.016	536
659.071	1029
659.126	1588
659.181	1526
659.236	3181
659.291	3147
659.346	2699
659.401	1716
659.457	2735
659.512	2405
659.567	3101
659.622	2773
659.677	1252
659.732	111
659.787	238
659.842	1718
659.897	2090
659.952	1903
660.007	1477
660.061	2913
660.116	464
660.171	1074
660.226	853
660.281	2118
660.336	850
660.391	2309
660.445	816
660.500	1510
660.555	939
660.610	1020
660.664	1298
660.719	1683
660.774	1609
660.828	2199
660.883	1277
660.938	1925
660.992	233
661.047	1645
661.101	769
661.156	1378
661.211	751
661.265	1504
661.320	837
661.374	1682
661.429	776
661.483	1855
661.538	44
661.592	1445
661.647	1696
661.701	2679
661.755	1504
661.810	2259
661.864	432
661.919	987
661.973	1487
662.027	1240
662.081	650
662.136	1043
662.190	1026
662.244	1593
662.299	1024
662.353	1548
662.407	850
662.461	994
662.515	1325
662.569	1150
662.624	2106
662.678	1665
662.732	1926
662.786	1298
662.840	1451
662.894	2040
662.948	1229
663.002	1664
663.056	1399
663.110	164
663.164	1248
663.218	1579
663.272	1183
663.326	1687
663.380	1710
663.434	1870
663.488	1961
663.542	1123
663.595	735
663.649	549
663.703	1125
663.757	1431
663.811	560
663.864	1325
663.918	1172
663.972	1653
664.026	664
664.079	815
664.133	1069
664.187	2292
664.240	995
664.294	1108
664.348	1652
664.401	1925
664.455	467
664.508	1426
664.562	1485
664.615	1276
664.669	382
664.722	1204
664.776	299
664.829	551
664.883	1048
664.936	907
664.990	1327
665.043	1487
665.097	355
665.150	2592
665.203	539
665.257	974
665.310	1954
665.363	1039
665.417	1758
665.470	1638
665.523	1010
665.576	1751
665.630	1327
665.683	913
665.736	876
665.789	2356
665.842	918
665.895	1862
665.949	1121
666.002	1476
666.055	1206
666.108	2309
666.161	1492
666.214	1604
666.267	1928
666.320	2202
666.373	1150
666.426	1842
666.479	1520
666.532	2021
666.585	1326
666.638	2671
666.691	1951
666.744	1394
666.796	1861
666.849	1864
666.902	1729
666.955	1506
667.008	2245
667.060	749
667.113	1333
667.166	1361
667.219	1448
667.271	711
667.324	442
667.377	1421
667.430	1849
667.482	1405
667.535	998
667.587	1959
667.640	1126
667.693	1828
667.745	2136
667.798	3046
667.850	1200
667.903	1663
667.955	1594
668.008	1026
668.060	1961
668.113	2118
668.165	2349
668.218	2083
668.270	1535
668.322	1867
668.375	1459
668.427	1991
668.479	669
668.532	1798
668.584	1640
668.636	1130
668.689	1649
668.741	1799
668.793	1781
668.845	1165
668.898	1427
668.950	1827
669.002	1012
669.054	1188
669.106	898
669.158	2289
669.211	1830
669.263	1411
669.315	1801
669.367	2481
669.419	1335
669.471	2809
669.523	1836
669.575	2769
669.627	1406
669.679	1324
669.731	1581
669.783	2918
669.835	1649
669.886	2156
669.938	1603
669.990	1811
670.042	908
670.094	2095
670.146	1851
670.197	2500
670.249	3533
670.301	3600
670.353	4760
670.404	7198
670.456	10124
670.508	15460
670.560	24390
670.611	39365
670.663	67623
670.715	152463
670.766	243949
670.818	96097
670.869	17590
670.921	8965
670.972	5009
671.024	4086
671.075	3493
671.127	3013
671.178	2736
671.230	3195
671.281	2910
671.333	2339
671.384	1700
671.436	3648
671.487	5268
671.538	7022
671.590	10216
671.641	16151
671.692	26478
671.744	49596
671.795	38805
671.846	15040
671.897	6568
671.949	4979
672.000	2975
672.051	3457
672.102	2472
672.153	1795
672.204	1510
672.256	1947
672.307	1182
672.358	1915
672.409	1887
672.460	828
672.511	1353
672.562	825
672.613	407
672.664	1077
672.715	866
672.766	1094
672.817	750
672.868	1853
672.919	786
672.970	741
673.021	324
673.071	967
673.122	1267
673.173	-102
673.224	661
673.275	1277
673.326	731
673.376	986
673.427	187
673.478	650
673.528	1494
673.579	1049
673.630	426
673.680	2383
673.731	445
673.782	1151
673.832	-145
673.883	2056
673.934	543
673.984	582
674.035	796
674.085	1234
674.136	651
674.186	1488
674.237	1086
674.287	2001
674.338	1120
674.388	311
674.438	643
674.489	1646
674.539	830
674.589	1210
674.640	484
674.690	1077
674.740	480
674.791	2080
674.841	920
674.891	1528
674.942	958
674.992	1102
675.042	26
675.092	1280
675.142	-90
675.193	980
675.243	859
675.293	1251
675.343	830
675.393	1357
675.443	232
675.493	1012
675.543	694
675.593	785
675.643	-153
675.693	184
675.743	684
675.793	364
675.843	-130
675.893	1173
675.943	969
675.993	633
676.043	632
676.093	1205
676.142	396
676.192	649
676.242	328
676.292	1183
676.341	-379
676.391	330
676.441	-86
676.491	499
676.540	501
676.590	1085
676.640	611
676.689	806
676.739	-131
676.789	1167
676.838	-611
676.888	722
676.937	494
676.987	686
677.037	355
677.086	268
677.136	369
677.185	-61
677.235	-55
677.284	388
677.333	377
677.383	298
677.432	364
677.482	413
677.531	737
677.580	641
677.630	15
677.679	-238
677.728	-662
677.778	422
677.827	120
677.876	765
677.925	465
677.975	508
678.024	191
678.073	1134
678.122	187
678.171	107
678.220	-387
678.269	1513
678.319	1075
678.368	342
678.417	92
678.466	848
678.515	572
678.564	365
678.613	-751
678.662	954
678.711	-356
678.760	864
678.809	839
678.857	402
678.906	314
678.955	1194
679.004	1059
679.053	691
679.102	528
679.151	-126
679.199	427
679.248	453
679.297	325
679.346	877
679.394	-248
679.443	376
679.492	443
679.540	854
679.589	-522
679.638	64
679.686	81
679.735	331
679.784	-179
679.832	1298
679.881	83
679.929	893
679.978	-366
680.026	426
680.075	109
680.123	338
680.172	-70
680.220	372
680.268	38
680.317	-220
680.365	-407
680.414	111
680.462	-345
680.510	538
680.559	-400
680.607	439
680.655	-62
680.703	-512
680.752	81
680.800	-162
680.848	-703
680.896	-678
680.945	438
680.993	377
681.041	-824
681.089	336
681.137	-334
681.185	529
681.233	-4
681.258	234
681.281	429
681.329	615
681.377	316
681.380	336
681.425	187
681.473	967
681.502	572
681.521	231
681.569	950
681.617	72
681.624	150
681.665	457
681.713	540
681.745	1188
681.761	1445
681.809	104
681.857	885
681.867	946
681.904	1059
681.952	1324
681.989	678
682.000	447
682.048	922
682.096	156
682.111	569
682.143	1356
682.191	490
682.233	1556
682.239	1688
682.286	553
682.334	797
682.354	1204
682.382	1687
682.430	1788
682.476	1184
682.477	1145
682.525	1806
682.572	1133
682.598	1461
682.620	1731
682.667	1147
682.715	1957
682.720	1966
682.763	1694
682.810	2375
682.841	2010
682.857	1809
682.905	1899
682.952	1744
682.963	2039
683.000	2947
683.047	2099
683.085	2908
683.095	3101
683.142	2219
683.190	1920
683.206	1956
683.237	1952
683.284	2627
683.328	1458
683.332	1339
683.379	2132
683.426	2573
683.449	2782
683.473	2963
683.521	2679
683.568	3102
683.571	3100
683.615	2747
683.662	2961
683.693	2917
683.709	2865
683.757	2501
683.804	3031
683.814	3142
683.851	3472
683.898	2697
683.936	2842
683.945	2851
683.992	3062
684.039	3263
684.057	3170
684.086	3012
684.133	3098
684.179	3555
684.180	3548
684.227	3814
684.274	3635
684.300	3645
684.321	3680
684.368	3585
684.415	3885
684.422	3888
684.462	3708
684.509	3841
684.543	3582
684.556	3484
684.603	4316
684.649	3734
684.665	3959
684.696	4389
684.743	4288
684.786	4671
684.790	4692
684.837	4322
684.883	4739
684.908	4470
684.930	4164
684.977	5491
685.023	4634
685.029	4649
685.070	4608
685.117	4623
685.150	4939
685.164	5066
685.210	4879
685.257	5773
685.272	5778
685.303	5652
685.350	4969
685.393	5058
685.396	5062
685.443	5130
685.490	6031
685.514	5618
685.536	5289
685.583	5509
685.629	6602
685.636	6424
685.675	5088
685.722	5778
685.757	5472
685.768	5412
685.815	5503
685.861	5783
685.878	5834
685.908	5825
685.954	6145
686.000	6253
686.000	6252
686.047	5832
686.093	6925
686.121	7155
686.139	7104
686.185	6838
686.232	6056
686.242	6033
686.278	6087
686.324	6705
686.363	6451
686.370	6392
686.416	5711
686.463	6380
686.484	6515
686.509	6806
686.555	6648
686.601	6514
686.606	6553
686.647	6584
686.693	6861
686.727	6561
686.739	6485
686.785	6567
686.831	6485
686.848	6649
686.877	6904
686.923	6950
686.969	6572
686.969	6569
687.015	6722
687.061	6669
687.090	7024
687.107	7187
687.153	6912
687.199	6757
687.211	6624
687.245	6407
687.291	6874
687.332	7182
687.336	7220
687.382	7181
687.428	7347
687.453	7645
687.474	7778
687.520	7306
687.565	7932
687.574	7855
687.611	7888
687.657	7914
687.695	8345
687.702	8547
687.748	10024
687.794	11922
687.816	12066
687.839	11028
687.885	10120
687.931	8456
687.937	8283
687.976	8264
688.022	8637
688.058	8345
688.067	8278
688.113	8000
688.158	7829
688.179	7867
688.204	7961
688.249	7573
688.295	8292
688.300	8268
688.340	8304
688.386	8864
688.421	8630
688.431	8531
688.477	8123
688.522	8742
688.542	8671
688.567	8753
688.613	8801
688.658	8643
688.663	8739
688.703	9290
688.749	8799
688.784	8460
688.794	8344
688.839	8992
688.884	8176
688.905	8011
688.930	8042
688.975	8572
689.020	8635
689.026	8653
689.065	8856
689.110	9220
689.146	9147
689.155	9129
689.201	9657
689.246	9526
689.267	9510
689.291	9355
689.336	9157
689.381	9193
689.388	9122
689.426	8963
689.471	9252
689.509	9072
689.516	9061
689.561	8836
689.606	9330
689.630	9152
689.651	9078
689.696	8944
689.741	9780
689.750	9720
689.785	9432
689.830	9244
689.871	9391
689.875	9421
689.920	9447
689.965	9573
689.992	9342
690.010	9222
690.054	9431
690.099	9674
690.112	9734
690.144	9984
690.189	9794
690.233	9463
690.233	9475
690.278	9664
690.323	9963
690.354	9746
690.367	9834
690.412	10438
690.457	10635
690.474	10923
690.501	10955
690.546	10343
690.590	10528
690.595	10457
690.635	10725
690.680	11288
690.716	11686
690.724	11892
690.769	13080
690.813	14763
690.836	14946
690.857	16332
690.902	20035
690.946	24060
690.957	24947
690.991	32697
691.035	43352
691.077	54033
691.080	54059
691.124	50686
691.168	46773
691.198	44523
691.213	41440
691.257	32340
691.301	23094
691.318	19666
691.346	18515
691.390	16193
691.434	14036
691.439	13761
691.478	13144
691.522	12979
691.559	12189
691.567	12180
691.611	12601
691.655	12361
691.680	12322
691.699	12198
691.743	12099
691.787	11842
691.800	11636
691.831	11442
691.875	11907
691.919	12154
691.921	12129
691.964	11944
692.008	12002
692.041	11690
692.052	11705
692.096	11761
692.139	12298
692.162	12228
692.183	11931
692.227	12257
692.271	11593
692.282	11503
692.315	11571
692.359	11767
692.402	11705
692.403	11729
692.447	11578
692.490	11669
692.523	11613
692.534	11720
692.578	12155
692.622	12104
692.643	12355
692.666	12330
692.709	11928
692.753	11593
692.763	11483
692.797	11808
692.840	11896
692.884	12413
692.884	12441
692.928	12248
692.971	12528
693.004	12409
693.015	12461
693.059	12556
693.102	12777
693.124	12849
693.146	13031
693.189	13287
693.233	13365
693.245	13493
693.276	14271
693.320	15086
693.363	15580
693.365	15579
693.407	16767
693.450	17851
693.485	18490
693.493	19039
693.537	21877
693.580	24623
693.605	26382
693.624	29884
693.667	37978
693.710	46155
693.725	48907
693.753	64480
693.797	89167
693.840	114303
693.845	117034
693.883	110314
693.926	100542
693.966	92873
693.970	90995
694.013	69305
694.056	47928
694.086	32912
694.099	31397
694.142	26695
694.185	21992
694.206	19681
694.229	19218
694.272	17976
694.315	17015
694.326	16708
694.358	16104
694.401	15457
694.444	14603
694.446	14523
694.487	14553
694.530	14651
694.566	14660
694.573	14624
694.616	13991
694.659	13901
694.686	13493
694.702	13402
694.745	13149
694.787	12860
694.806	12723
694.830	12808
694.873	12878
694.916	13079
694.926	13068
694.959	12954
695.002	12552
695.044	12573
695.046	12537
695.087	12939
695.130	12924
695.166	13161
695.172	13221
695.215	13438
695.258	13749
695.286	13586
695.301	13524
695.343	13694
695.386	13698
695.406	13559
695.428	13649
695.471	14116
695.514	14618
695.526	14619
695.556	14681
695.599	15010
695.641	15097
695.646	15088
695.684	14770
695.726	14264
695.766	13856
695.769	13891
695.811	13688
695.854	13661
695.886	13500
695.896	13586
695.938	13978
695.981	14228
696.005	14334
696.023	14386
696.065	14468
696.108	14602
696.125	14578
696.150	14941
696.192	15457
696.235	16105
696.245	16183
696.277	16015
696.319	15858
696.361	15754
696.365	15686
696.404	15834
696.446	16001
696.485	16300
696.488	16332
696.530	16017
696.572	15615
696.604	15492
696.614	15585
696.656	15536
696.698	15541
696.724	15517
696.740	15545
696.783	15567
696.825	15551
696.844	15497
696.867	15530
696.909	15567
696.951	15389
696.964	15354
696.992	15334
697.034	15220
697.076	15013
697.083	14958
697.118	15557
697.160	16110
697.202	16699
697.203	16668
697.244	16129
697.286	15627
697.323	14962
697.327	15045
697.369	15495
697.411	15942
697.442	16223
697.453	16225
697.494	16059
697.536	15876
697.562	15766
697.578	15846
697.620	15884
697.661	15887
697.682	15859
697.703	16000
697.744	16160
697.786	16464
697.801	16463
697.828	16619
697.869	16837
697.911	17067
697.921	17080
697.952	16804
697.994	16329
698.035	15924
698.040	15826
698.077	15938
698.118	15987
698.160	16030
698.160	15983
698.201	16413
698.243	16731
698.279	17013
698.284	17075
698.325	17170
698.367	17299
698.399	17331
698.408	17349
698.449	17185
698.491	17074
698.518	16936
698.532	17072
698.573	17325
698.614	17615
698.638	17708
698.656	17791
698.697	17880
698.738	17975
698.757	17973
698.779	18169
698.820	18430
698.862	18693
698.877	18743
698.903	18765
698.944	18705
698.985	18647
698.996	18582
699.026	18458
699.067	18211
699.116	17869
699.235	17517
699.354	17454
699.474	17257
699.593	18119
699.713	17279
699.832	17290
699.951	17641
700.070	18256
700.190	16332
700.309	17270
700.428	16365
700.547	16093
700.667	15580
700.786	17160
700.905	15432
701.024	16234
701.143	14762
701.262	16220
701.381	16349
701.500	15912
701.619	16014
701.738	15881
701.857	16424
701.976	15882
702.095	14068
702.214	15692
702.333	14073
702.452	15527
702.571	14966
702.690	15727
702.809	14790
702.928	14913
703.047	14691
703.165	15285
703.284	14614
703.403	14357
703.522	15153
703.640	15412
703.759	15594
703.878	17840
703.997	13235
704.115	14630
704.234	13638
704.353	14524
704.471	12982
704.590	13666
704.708	12689
704.827	13500
704.946	13309
705.064	14507
705.183	13060
705.301	16530
705.420	18851
705.538	17707
705.656	16092
705.775	16333
705.893	24079
706.012	27888
706.130	15882
706.249	16152
706.367	15603
706.485	16753
706.604	15507
706.722	16966
706.840	19546
706.958	28193
707.077	19484
707.195	14782
707.313	14855
707.431	15014
707.549	14599
707.668	14756
707.786	14578
707.904	14537
708.022	14122
708.140	14773
708.258	13820
708.376	13646
708.494	13336
708.612	15282
708.730	19011
708.848	18231
708.966	17077
709.084	16549
709.202	15895
709.320	16233
709.438	16041
709.556	16946
709.674	15152
709.791	16278
709.909	15384
710.027	15662
710.145	15801
710.263	16463
710.380	15698
710.498	15236
710.616	14280
710.733	14877
710.851	14935
710.969	15002
711.086	14267
711.204	15084
711.322	14513
711.439	14367
711.557	13349
711.674	14534
711.792	14770
711.909	15634
712.027	15578
712.144	13655
712.262	14403
712.379	14903
712.497	19396
712.614	20746
712.732	16925
712.849	15623
712.966	16810
713.084	18355
713.201	16801
713.318	17663
713.436	16649
713.553	17136
713.670	16842
713.787	17329
713.905	17947
714.022	17484
714.139	17277
714.256	20369
714.373	25091
714.490	39825
714.608	97086
714.725	385169
714.842	351191
714.959	37497
715.076	20405
715.193	17503
715.310	16412
715.427	15803
715.544	14884
715.661	15352
715.778	14598
715.895	16285
716.011	15008
716.128	14671
716.245	14101
716.362	14754
716.479	14347
716.596	14202
716.713	13964
716.829	13786
716.946	13205
717.063	13418
717.180	13153
717.296	13294
717.413	12610
717.530	12947
717.646	11988
717.763	12850
717.880	12427
717.996	13122
718.113	11203
718.229	12396
718.346	12037
718.462	12343
718.579	12634
718.695	13941
718.812	14572
718.928	14770
719.045	12628
719.161	11743
719.277	11946
719.394	11851
719.510	12689
719.626	12606
719.743	15755
719.859	20945
719.975	35820
720.092	131620
720.208	270300
720.324	35666
720.440	13942
720.557	13668
720.673	14655
720.789	17837
720.905	32719
721.021	16780
721.137	11890
721.253	11354
721.369	10795
721.486	12982
721.602	13681
721.718	10785
721.834	10052
721.950	10507
722.066	10458
722.181	9480
722.297	10550
722.413	10114
722.529	9768
722.645	9371
722.761	9735
722.877	9878
722.993	10054
723.108	11872
723.224	9849
723.340	10713
723.456	8561
723.571	9555
723.687	9333
723.803	9843
723.918	8397
724.034	8952
724.150	8697
724.265	10422
724.381	14906
724.497	16914
724.612	9311
724.728	8906
724.843	8571
724.959	10032
725.074	14722
725.190	15979
725.305	9175
725.421	8402
725.536	7659
725.651	9237
725.767	8569
725.882	8159
725.997	7633
726.113	8004
726.228	7874
726.343	8632
726.459	7040
726.574	8659
726.689	7058
726.804	8403
726.920	7538
727.035	8307
727.150	8125
727.265	8580
727.380	7559
727.495	8077
727.610	7284
727.725	8020
727.841	8499
727.956	13878
728.071	11296
728.186	7964
728.301	5883
728.416	7802
728.531	6364
728.645	7371
728.760	7715
728.875	6321
728.990	7286
729.105	7351
729.220	7078
729.335	7493
729.449	6611
729.564	7491
729.679	6738
729.794	7000
729.908	6566
730.023	7370
730.138	6188
730.253	7063
730.367	6840
730.482	7386
730.596	6906
730.711	8253
730.826	9439
730.940	10940
731.055	7676
731.169	7850
731.284	7339
731.398	7181
731.513	7883
731.627	8430
731.742	9789
731.856	10813
731.970	9002
732.085	12127
732.199	15711
732.313	26851
732.428	64059
732.542	186594
732.656	99254
732.771	20431
732.885	13184
732.999	11232
733.113	10367
733.227	10691
733.342	10379
733.456	10380
733.570	9701
733.684	10033
733.798	9757
733.912	10015
734.026	8893
734.140	9115
734.254	9646
734.368	10976
734.482	12908
734.596	8782
734.710	8418
734.824	9065
734.938	7764
735.052	8973
735.166	8855
735.280	8816
735.393	8118
735.507	8272
735.621	9464
735.735	11867
735.849	7979
735.962	8233
736.076	8050
736.190	9102
736.303	8621
736.417	10834
736.531	7490
736.644	8314
736.758	6671
736.872	7271
736.985	7879
737.099	8170
737.212	6510
737.326	8435
737.439	7308
737.553	6809
737.666	6496
737.780	7120
737.893	6531
738.007	7375
738.120	6614
738.233	7425
738.347	7747
738.460	6517
738.573	7419
738.687	6797
738.800	7218
738.913	7988
739.026	7438
739.140	7307
739.253	7515
739.366	6597
739.479	6315
739.592	6499
739.705	6441
739.818	7178
739.932	5348
740.045	6861
740.158	6391
740.271	7458
740.384	6408
740.497	6035
740.610	6612
740.723	6408
740.836	6458
740.949	7019
741.062	6946
741.174	7396
741.287	6341
741.400	6559
741.513	6313
741.626	6421
741.739	6431
741.851	6173
741.964	5888
742.077	6548
742.189	5918
742.302	6289
742.415	6085
742.527	5574
742.640	5527
742.753	5910
742.865	5143
742.978	5976
743.090	5626
743.203	5692
743.316	5277
743.428	5469
743.541	5692
743.653	5502
743.766	5570
743.878	6421
743.990	7123
744.103	6864
744.215	4642
744.327	5782
744.440	7019
744.552	6695
744.664	4961
744.777	5957
744.889	5303
745.001	6164
745.113	5672
745.226	5645
745.338	5585
745.450	6201
745.562	5242
745.674	5395
745.786	5771
745.898	6053
746.010	6010
746.122	5661
746.234	5233
746.347	5881
746.459	5837
746.570	5190
746.682	5751
746.794	6867
746.906	4799
747.018	4905
747.130	5541
747.242	5348
747.354	5212
747.466	5749
747.577	5095
747.689	6394
747.801	5017
747.913	5915
748.024	4341
748.136	5992
748.248	4124
748.359	5159
748.471	5115
748.583	5000
748.694	5536
748.806	6113
748.918	5186
749.029	5449
749.141	5668
749.252	5174
749.364	5583
749.475	6524
749.587	5718
749.698	5789
749.809	4765
749.921	5306
750.032	5307
750.144	4982
750.255	4630
750.366	4804
750.478	3819
750.589	5157
750.700	4101
750.811	5550
750.923	5489
751.034	7226
751.145	6769
751.256	4586
751.367	3878
751.479	5379
751.590	3919
751.701	4878
751.812	4016
751.923	5206
752.034	5518
752.145	4548
752.256	4339
752.367	4724
752.478	5158
752.589	5253
752.700	5040
752.811	4657
752.922	4935
753.032	5535
753.143	5347
753.254	4823
753.365	6092
753.476	5677
753.586	4465
753.697	4973
753.808	4366
753.919	4796
754.029	3903
754.140	5584
754.251	4469
754.361	5063
754.472	4698
754.582	4402
754.693	5007
754.804	6200
754.914	3842
755.025	4152
755.135	4916
755.246	5797
755.356	3638
755.466	5557
755.577	4926
755.687	5630
755.798	4383
755.908	5844
756.018	5732
756.129	4651
756.239	4685
756.349	5375
756.460	4806
756.570	6464
756.680	4893
756.790	5968
756.900	5012
757.011	4485
757.121	4824
757.231	6338
757.341	5000
757.451	5379
757.561	5004
757.671	6305
757.781	3886
757.891	5929
758.001	5749
758.111	6626
758.221	5196
758.331	6692
758.441	5800
758.551	5906
758.661	6091
758.771	6991
758.880	6233
758.990	6395
759.100	6748
759.210	7556
759.320	6474
759.429	6952
759.539	6598
759.649	7732
759.758	7721
759.868	8813
759.978	7238
760.087	8527
760.197	8233
760.307	8691
760.416	8392
760.526	7246
760.635	8519
760.745	9151
760.854	8798
760.964	9512
761.073	9969
761.182	9915
761.292	9275
761.401	10472
761.511	8743
761.620	8707
761.729	9055
761.839	9406
761.948	9758
762.057	10414
762.166	11179
762.276	9537
762.385	11172
762.494	10956
762.603	11010
762.712	11465
762.822	11241
762.931	12275
763.040	12192
763.149	13419
763.258	13488
763.367	14611
763.476	14490
763.585	15813
763.694	15749
763.803	16793
763.912	18016
764.021	19210
764.130	19017
764.238	22187
764.347	22605
764.456	25761
764.565	26317
764.674	29051
764.783	29730
764.891	34495
765.000	39417
765.109	43727
765.217	49461
765.326	58171
765.435	67847
765.543	82424
765.652	100433
765.761	129989
765.869	169983
765.978	230525
766.086	322424
766.195	454073
766.303	585645
766.412	472215
766.520	477376
766.629	506649
766.737	399083
766.846	286776
766.954	210554
767.062	160106
767.171	122791
767.279	97130
767.387	77854
767.496	66677
767.604	55934
767.712	49728
767.820	44038
767.928	42011
768.037	36776
768.145	36406
768.253	35967
768.361	32296
768.469	32611
768.577	34670
768.685	35186
768.793	38895
768.901	41923
769.009	48326
769.117	57788
769.225	74274
769.333	101323
769.441	146709
769.549	225633
769.657	374738
769.765	523480
769.873	438422
769.981	441024
770.088	324414
770.196	208253
770.304	142959
770.412	104298
770.519	81352
770.627	64440
770.735	53606
770.842	44359
770.950	38549
771.058	34520
771.165	33554
771.273	27903
771.380	25912
771.488	24009
771.595	23027
771.703	21781
771.810	20945
771.918	17571
772.025	18107
772.133	18109
772.240	16613
772.348	16318
772.455	16070
772.562	13541
772.670	14209
772.777	14450
772.884	13219
772.991	12599
773.099	12958
773.206	11961
773.313	12141
773.420	12346
773.528	11207
773.635	10214
773.742	11902
773.849	10345
773.956	10274
774.063	10197
774.170	10922
774.277	10602
774.384	9628
774.491	9412
774.598	10258
774.705	8739
774.812	9249
774.919	9464
775.026	8993
775.133	8212
775.239	8758
775.346	7552
775.453	8688
775.560	7582
775.667	8180
775.773	8296
775.880	8092
775.987	7041
776.093	8516
776.200	7772
776.307	6748
776.413	7541
776.520	7223
776.627	8016
776.733	7287
776.840	6128
776.946	8872
777.053	7331
777.159	7055
777.266	5740
777.372	7780
777.478	6273
777.585	7082
777.691	6189
777.798	6356
777.904	6890
778.010	6982
778.117	6628
778.223	6638
778.329	6441
778.435	5932
778.542	6630
778.648	6427
778.754	5447
778.860	5457
778.966	5456
779.072	5632
779.178	6083
779.284	5898
779.391	5150
779.497	6333
779.603	9446
779.708	10605
779.815	21770
779.920	72872
780.026	111981
780.132	20515
780.238	6564
780.344	6409
780.450	6876
780.556	5620
780.661	4641
780.767	5446
780.873	4608
780.979	5028
781.085	4105
781.190	4833
781.296	4221
781.402	4683
781.507	4676
781.613	4822
781.719	3686
781.824	5296
781.930	4268
782.035	4681
782.141	4625
782.246	4278
782.352	4552
782.457	4173
782.563	4222
782.668	5238
782.773	4305
782.879	4276
782.984	4680
783.090	4828
783.195	4914
783.300	5371
783.405	3779
783.511	4073
783.616	4155
783.721	4562
783.826	3307
783.932	5201
784.037	3507
784.142	3914
784.247	3968
784.352	4155
784.457	3587
784.562	4242
784.667	4053
784.772	3754
784.877	2778
784.982	4202
785.087	3240
785.192	5268
785.297	3312
785.402	3915
785.507	3620
785.611	2969
785.716	3203
785.821	3793
785.926	2480
786.031	3721
786.135	3288
786.240	4112
786.345	2377
786.450	3539
786.554	3409
786.659	3442
786.763	2333
786.868	3942
786.973	4920
787.077	2637
787.182	2462
787.286	3631
787.391	2734
787.495	2806
787.600	3142
787.704	2519
787.809	3334
787.913	3451
788.017	2492
788.122	3629
788.226	3301
788.330	2400
788.435	2645
788.539	3528
788.643	2648
788.747	1979
788.852	2961
788.956	2649
789.060	3246
789.164	3421
789.268	1972
789.372	3592
789.476	2740
789.580	2761
789.684	1809
789.788	3550
789.892	2163
789.996	3147
790.100	1714
790.204	3065
790.308	2687
790.412	2769
790.516	2698
790.620	2148
790.724	3258
790.828	2635
790.931	1348
791.035	3910
791.139	2007
791.242	1581
791.346	2981
791.450	2896
791.554	1053
791.657	1726
791.761	2561
791.864	2895
791.968	2597
792.072	2496
792.175	2076
792.279	2636
792.382	2150
792.486	2270
792.589	1862
792.693	2815
792.796	855
792.899	2951
793.003	2659
793.106	1683
793.209	1682
793.313	3152
793.416	730
793.519	3863
793.623	2539
793.726	3173
793.829	2786
793.932	2897
794.035	1431
794.138	2890
794.242	2513
794.345	4443
794.448	4851
794.551	11069
794.654	40046
794.757	67916
794.860	12392
794.963	4789
795.066	1891
795.169	3463
795.272	2058
795.375	3086
795.477	835
795.580	2775
795.683	463
795.786	1781
795.889	913
795.991	3823
796.094	1883
796.197	1996
796.300	2976
796.402	1768
796.505	1520
796.608	1064
796.710	1263
796.813	2340
796.915	721
797.018	3185
797.120	2261
797.223	1081
797.326	2187
797.428	1925
797.530	1889
797.633	2725
797.735	3266
797.838	2581
797.940	2257
798.042	1504
798.145	998
798.247	1778
798.349	376
798.452	1923
798.554	947
798.656	1075
798.758	3098
798.860	1914
798.962	1333
799.065	872
799.167	745
799.269	2562
799.371	2531
799.473	1574
799.575	1856
799.677	2650
799.779	3032
799.881	778
799.983	1919
800.085	1666
800.187	1796
800.289	1028
800.390	757
800.492	2175
800.594	1410
800.696	1129
800.798	1091
800.899	1431
801.001	763
801.103	1807
801.205	988
801.306	1350
801.408	1159
801.509	1553
801.611	1025
801.713	1759
801.814	754
801.916	2273
802.017	1284
802.119	1682
802.220	1543
802.322	436
802.423	3208
802.525	1087
802.626	1753
802.727	1961
802.829	1416
802.930	-422
803.031	2756
803.133	783
803.234	578
803.335	2550
803.436	-241
803.538	1599
803.639	-514
803.740	2613
803.841	517
803.942	2096
804.043	1539
804.144	780
804.245	1517
804.346	878
804.447	270
804.548	1172
804.649	2202
804.750	1928
804.851	1137
804.952	665
805.053	1355
805.154	49
805.255	789
805.355	2171
805.456	512
805.557	1392
805.658	328
805.758	1441
805.859	492
805.960	1820
806.061	68
806.161	682
806.262	258
806.362	1177
806.463	559
806.564	2231
806.664	636
806.765	2027
806.865	344
806.966	646
807.066	869
807.166	2123
807.267	1533
807.367	656
807.468	978
807.568	24
807.668	1157
807.769	1565
807.869	251
807.969	1423
808.069	766
808.170	1002
808.270	995
808.370	1098
808.470	660
808.570	267
808.670	51
808.770	1007
808.870	493
808.970	1138
809.070	53
809.170	-122
809.271	1010
809.370	1043
809.470	653
809.570	687
809.670	559
809.770	999
809.870	527
809.970	1691
810.070	19
810.169	1846
810.269	-307
810.369	1921
810.469	896
810.568	1304
810.668	720
810.768	84
810.867	201
810.967	341
811.066	614
811.166	-457
811.265	766
811.365	627
811.464	488
811.564	1628
811.663	13
811.763	-323
811.862	986
811.962	1198
812.061	266
812.160	358
812.260	1496
812.359	1505
812.458	1142
812.557	3188
812.657	3144
812.756	1371
812.855	1393
812.954	1176
813.053	1665
813.153	1641
813.252	196
813.351	1216
813.450	33
813.549	991
813.648	469
813.747	258
813.846	736
813.945	573
814.044	316
814.143	1373
814.242	739
814.341	324
814.439	716
814.538	1291
814.637	454
814.736	904
814.835	1129
814.933	569
815.032	1841
815.131	1160
815.229	1772
815.328	3466
815.427	1108
815.525	2635
815.624	1898
815.722	1263
815.821	2813
815.919	1987
816.018	1795
816.116	3508
816.215	1446
816.313	2463
816.412	2518
816.510	3514
816.609	3521
816.707	3738
816.805	2972
816.904	2616
817.002	2822
817.100	3821
817.198	3795
817.296	3153
817.395	2323
817.493	3461
817.591	2058
817.689	3833
817.787	3356
817.885	5349
817.983	6476
818.081	13365
818.179	28640
818.277	72611
818.375	63473
818.473	18098
818.571	7120
818.669	6230
818.767	4294
818.865	4984
818.963	5684
819.061	7467
819.158	12094
819.256	27045
819.354	57003
819.452	129237
819.549	83264
819.647	22962
819.745	8819
819.842	7306
819.940	4527
820.038	3753
820.135	2779
820.233	5775
820.330	2863
820.428	3401
820.525	3618
820.623	2838
820.720	1811
820.818	2419
820.915	2044
821.012	2612
821.110	568
821.207	3049
821.304	1098
821.402	2563
821.499	2428
821.596	2613
821.693	1621
821.791	3475
821.888	1410
821.985	4274
822.082	1439
822.179	2298
822.276	1511
822.373	2428
822.470	1742
822.567	2000
822.664	991
822.761	2565
822.858	1000
822.955	2431
823.052	1518
823.149	2287
823.246	897
823.343	765
823.440	1634
823.536	2259
823.633	1763
823.730	1777
823.827	1702
823.923	2189
824.020	2485
824.117	2067
824.213	152
824.310	2046
824.407	237
824.503	2051
824.600	1646
824.696	1315
824.793	1443
824.889	2309
824.986	1738
825.082	1278
825.179	401
825.275	1829
825.371	1636
825.468	1779
825.564	-557
825.660	2364
825.757	1250
825.853	2001
825.949	25
826.045	1368
826.142	972
826.238	2157
826.334	1745
826.430	905
826.526	1092
826.622	687
826.718	1612
826.814	1832
826.910	1670
827.006	853
827.102	733
827.198	1719
827.294	692
827.390	1587
827.486	1436
827.582	258
827.678	550
827.774	2318
827.869	207
827.965	1976
828.061	435
828.157	1618
828.252	2129
828.348	804
828.444	1369
828.539	57
828.635	1279
828.731	1952
828.826	515
828.922	2082
829.017	957
829.113	2233
829.208	965
829.304	1715
829.399	2549
829.495	1134
829.590	1423
829.685	518
829.781	633
829.876	1562
829.971	69
830.066	260
830.162	453
830.257	1535
830.352	905
830.447	1685
830.543	539
830.638	266
830.733	1363
830.828	567
830.923	1460
831.018	717
831.113	813
831.208	396
831.303	791
831.398	1294
831.493	362
831.588	1907
831.683	366
831.778	1697
831.873	157
831.967	947
832.062	-99
832.157	3
832.252	1567
832.346	556
832.441	1427
832.536	1672
832.631	2614
832.725	1495
832.820	236
832.914	950
833.009	-94
833.104	578
833.198	1282
833.293	334
833.387	1124
833.482	1293
833.576	422
833.670	764
833.765	594
833.859	763
833.954	1254
834.048	309
834.142	8
834.237	-198
834.331	264
834.425	73
834.519	472
834.613	1049
834.708	-30
834.802	1354
834.896	-418
834.990	-124
835.084	589
835.178	762
835.272	970
835.366	840
835.460	1444
835.554	675
835.648	96
835.742	-240
835.836	-1
835.930	-235
836.024	1262
836.117	521
836.211	-407
836.305	1666
836.399	1405
836.493	427
836.586	526
836.680	235
836.774	-379
836.867	1186
836.961	-699
837.055	256
837.148	-553
837.242	1260
837.335	468
837.429	789
837.522	532
837.616	1287
837.709	1984
837.803	568
837.896	-82
837.989	865
838.083	780
838.176	2800
838.269	1118
838.363	674
838.456	436
838.549	1644
838.642	1362
838.735	1684
838.829	1332
838.922	722
839.015	894
839.108	-759
839.201	-91
839.294	415
839.387	604
839.480	-168
839.573	840
839.666	943
839.759	157
839.852	80
839.945	745
840.038	145
840.131	-34
840.223	216
840.316	239
840.409	418
840.502	-504
840.594	1534
840.687	-824
840.780	734
840.873	-464
840.965	1000
841.058	1880
841.150	2327
841.243	435
841.336	657
841.428	431
841.521	645
841.613	151
841.706	1049
841.798	-189
841.890	960
841.983	-80
842.075	1102
842.167	-156
842.260	573
842.352	946
842.444	1590
842.537	1798
842.629	3203
842.721	164
842.813	310
842.905	-620
842.997	1042
843.090	-240
843.182	1009
843.274	1253
843.366	5413
843.458	9188
843.550	6164
843.642	260
843.734	944
843.826	436
843.918	1213
844.009	593
844.101	287
844.193	-38
844.285	591
844.377	-56
844.469	1028
844.560	-885
844.652	429
844.744	422
844.835	72
844.927	625
845.019	752
845.110	-312
845.202	371
845.293	-31
845.385	307
845.476	9
845.568	1249
845.659	41
845.751	280
845.842	-52
845.934	123
846.025	-745
846.116	755
846.208	-239
846.299	58
846.390	-273
846.482	634
846.573	572
846.664	1037
846.755	814
846.846	1261
846.937	-384
847.029	266
847.120	-1086
847.211	702
847.302	907
847.393	-405
847.484	716
847.575	622
847.666	-378
847.757	143
847.847	343
847.938	680
848.029	-143
848.120	-519
848.211	-494
848.302	275
848.392	-1240
848.483	-39
848.574	128
848.664	-30
848.755	284
848.846	149
848.936	-237
849.027	-178
849.118	-189
849.208	-438
849.299	207
849.389	1493
849.480	2878
849.570	7241
849.661	13967
849.751	25009
849.841	7757
849.932	914
850.022	-48
850.112	520
850.203	662
850.293	386
850.383	35
850.474	-297
850.564	341
850.654	256
850.744	-137
850.834	-241
850.924	-197
851.014	282
851.104	-736
851.194	17
851.284	-645
851.374	38
851.464	94
851.554	-54
851.644	204
851.734	1425
851.824	12
851.914	479
852.004	1517
852.094	2193
852.183	-516
852.273	532
852.363	-243
852.452	327
852.542	339
852.632	-89
852.721	-90
852.811	164
852.901	559
852.990	499
853.080	115
853.169	-210
853.259	217
853.348	364
853.438	491
853.527	1805
853.617	1896
853.706	5025
853.795	8584
853.885	21759
853.974	39100
854.063	72561
854.152	105415
854.242	40207
854.331	7042
854.420	2841
854.509	1439
854.598	2074
854.687	481
854.777	1961
854.866	-280
854.955	145
855.044	-707
855.133	761
855.222	-100
855.311	1041
855.400	485
855.488	894
855.577	-272
855.666	26
855.755	289
855.844	545
855.933	163
856.021	347
856.110	140
856.199	-379
856.288	-313
856.376	522
856.465	-92
856.554	56
856.642	-500
856.731	148
856.819	334
856.908	-22
856.996	100
857.085	-247
857.173	-511
857.262	-22
857.350	-124
857.438	-70
857.527	-165
857.615	-137
857.703	-213
857.792	-111
857.880	-537
857.968	-696
858.056	-549
858.145	46
858.233	-76
858.321	-266
858.409	599
858.497	-175
858.585	-586
858.673	310
858.761	-998
858.849	-1418
858.937	-1050
859.025	-11
859.113	95
859.201	-1082
859.289	-423
859.377	-65
859.465	325
859.552	635
859.640	-263
859.728	24
859.816	-664
859.903	153
859.991	-932
860.079	311
860.166	-300
860.254	-47
860.342	-307
860.429	-323
860.517	320
860.604	73
860.692	-327
860.779	-504
860.867	-556
860.954	151
861.042	39
861.129	920
861.216	352
861.304	-258
861.391	-247
861.478	246
861.565	-210
861.653	593
861.740	-945
861.827	-872
861.914	-826
862.001	-333
862.089	-157
862.176	501
862.263	-404
862.350	161
862.437	-201
862.524	608
862.611	154
862.698	44
862.785	-475
862.871	712
862.958	-775
863.045	254
863.132	-603
863.219	357
863.306	-457
863.392	12
863.479	-404
863.566	-312
863.652	-233
863.739	234
863.826	-309
863.912	-44
863.999	-415
864.086	-17
864.172	179
864.259	616
864.345	-132
864.432	614
864.518	-677
864.604	217
864.691	-459
864.777	556
864.863	431
864.950	695
865.036	983
865.122	2846
865.209	2535
865.295	3073
865.381	2047
865.467	2503
865.553	3637
865.639	3534
865.726	6287
865.812	10555
865.898	21183
865.984	31344
866.070	56209
866.156	59385
866.242	16863
866.328	4959
866.414	2543
866.499	3157
866.585	1401
866.671	1649
866.757	1368
866.843	2156
866.928	873
867.014	1581
867.100	1642
867.186	1584
867.271	1681
867.357	2636
867.442	2158
867.528	1527
867.614	686
867.699	1620
867.785	1645
867.870	1571
867.956	272
868.041	1648
868.127	1597
868.212	1828
868.297	1522
868.383	1604
868.468	1878
868.553	1678
868.639	2953
868.724	3759
868.809	2596
868.894	2643
868.979	1306
869.065	1919
869.150	414
869.235	968
869.320	674
869.405	834
869.490	1160
869.575	1220
869.660	30
869.745	2059
869.830	564
869.915	827
870.000	460
870.085	792
870.169	26
870.254	987
870.339	-8
870.424	654
870.509	1239
870.593	595
870.678	1390
870.763	1820
870.847	1079
870.932	677
871.016	971
871.101	1162
871.186	961
871.270	1676
871.355	-196
871.439	1276
871.523	610
871.608	813
871.692	548
871.777	837
871.861	415
871.945	1456
872.030	975
872.114	1867
872.198	-142
872.282	642
872.367	594
872.451	419
872.535	378
872.619	1539
872.703	-100
872.787	1303
872.871	939
872.955	133
873.039	-340
873.123	549
873.207	958
873.291	125
873.375	-588
873.459	1189
873.543	150
873.627	1445
873.711	20
873.794	690
873.878	342
873.962	426
874.045	-32
874.129	969
874.137	951
874.213	766
874.245	811
874.296	888
874.352	231
874.380	-95
874.460	921
874.464	962
874.547	-190
874.568	139
874.631	1133
874.676	869
874.714	638
874.784	741
874.798	760
874.881	1294
874.892	1194
874.965	559
874.999	782
875.048	1061
875.107	784
875.131	670
875.215	-137
875.215	-136
875.298	126
875.323	15
875.381	-235
875.430	679
875.465	1280
875.538	211
875.548	77
875.631	-70
875.646	-6
875.714	233
875.753	241
875.798	310
875.861	706
875.881	789
875.964	1090
875.968	1052
876.047	560
876.076	477
876.130	266
876.183	433
876.213	535
876.291	964
876.296	987
876.379	413
876.398	368
876.462	310
876.506	346
876.545	380
876.613	1012
876.628	1130
876.711	29
876.721	136
876.794	1066
876.828	866
876.877	551
876.935	780
876.960	875
877.043	415
877.043	418
877.125	1206
877.150	1148
877.208	880
877.258	909
877.291	1003
877.365	660
877.374	593
877.456	719
877.472	497
877.539	-125
877.579	274
877.622	581
877.687	916
877.704	1023
877.787	1561
877.794	1530
877.869	997
877.901	695
877.952	373
878.008	617
878.034	631
878.115	44
878.117	42
878.199	599
878.222	705
878.282	821
878.329	403
878.364	51
878.437	356
878.447	406
878.529	-366
878.544	-215
878.611	604
878.651	753
878.694	841
878.758	1207
878.776	1340
878.858	544
878.865	572
878.941	685
878.972	383
879.023	34
879.078	193
879.105	299
879.185	623
879.187	630
879.269	983
879.292	988
879.351	726
879.399	243
879.433	109
879.506	442
879.516	437
879.598	423
879.613	305
879.680	108
879.720	568
879.762	1029
879.827	555
879.844	480
879.926	1185
879.933	1194
880.007	884
880.040	782
880.089	753
880.147	788
880.171	793
880.253	1424
880.254	1419
880.335	591
880.360	867
880.417	1666
880.467	1886
880.499	2186
880.574	2767
880.580	2718
880.662	1338
880.680	1140
880.744	922
880.787	667
880.825	323
880.893	580
880.907	730
880.989	886
881.000	891
881.070	699
881.106	533
881.152	385
881.213	801
881.233	819
881.315	167
881.319	161
881.396	763
881.426	832
881.478	940
881.532	1208
881.559	1296
881.639	777
881.641	748
881.722	238
881.745	30
881.803	559
881.852	1008
881.885	874
881.958	469
881.966	506
882.047	1074
882.064	1105
882.129	547
882.171	572
882.210	1093
882.277	1398
882.291	1331
882.372	802
882.383	741
882.454	820
882.489	1142
882.535	1260
882.596	949
882.616	890
882.697	528
882.702	526
882.778	921
882.808	1165
882.859	1304
882.914	1027
882.940	926
883.020	1170
883.021	1178
883.102	1232
883.127	1465
883.183	1344
883.233	858
883.264	837
883.339	1162
883.345	1114
883.426	-78
883.445	-104
883.507	821
883.551	826
883.587	537
883.657	561
883.668	667
883.749	1103
883.763	1234
883.830	917
883.869	430
883.910	530
883.975	1266
883.991	1262
884.072	585
884.081	561
884.152	1069
884.187	1166
884.233	1086
884.292	1030
884.314	965
884.394	490
884.398	475
884.475	487
884.504	462
884.555	638
884.610	917
884.636	944
884.716	671
884.716	680
884.797	1640
884.821	1867
884.877	1253
884.927	495
884.958	603
885.033	825
885.038	799
885.118	538
885.139	431
885.199	580
885.244	862
885.279	814
885.350	677
885.359	773
885.439	1334
885.456	1405
885.520	738
885.561	564
885.600	848
885.667	1003
885.680	1024
885.760	1426
885.773	1438
885.840	1132
885.878	1165
885.920	1072
885.984	546
886.000	625
886.080	1182
886.089	1232
886.160	1005
886.195	891
886.240	942
886.300	1016
886.320	946
886.400	850
886.406	818
886.480	977
886.511	1130
886.560	892
886.616	444
886.640	587
886.720	1358
886.722	1366
886.800	964
886.827	942
886.879	1342
886.932	1397
886.959	1550
887.038	2419
887.039	2419
887.119	1426
887.143	1257
887.198	1239
887.248	1077
887.278	1141
887.354	1369
887.358	1357
887.437	923
887.459	828
887.517	1389
887.564	1742
887.596	1338
887.669	598
887.676	664
887.755	1345
887.774	1500
887.835	1271
887.880	1119
887.914	1289
887.985	1659
887.994	1708
888.073	1969
888.090	2045
888.153	2245
888.195	2282
888.232	1782
888.300	989
888.311	1076
888.391	1513
888.405	1619
888.470	1223
888.510	879
888.549	1210
888.615	1898
888.628	1852
888.708	1452
888.720	1391
888.787	2132
888.825	2494
888.866	1934
888.930	1175
888.945	1282
889.024	1751
889.035	1814
889.103	1412
889.140	1169
889.182	981
889.245	697
889.261	726
889.340	905
889.349	926
889.419	1806
889.454	2224
889.498	1742
889.559	1083
889.577	1209
889.656	1758
889.664	1810
889.735	1640
889.768	1549
889.814	1774
889.873	2064
889.978	1475
890.083	1583
890.187	1106
890.292	1956
890.397	1551
890.501	2171
890.606	1582
890.710	2817
890.815	1479
890.919	2042
891.024	1664
891.128	1870
891.233	924
891.337	2725
891.442	1821
891.546	1281
891.650	820
891.755	2020
891.859	2290
891.963	1814
892.068	628
892.172	1156
892.276	395
892.380	1417
892.484	1357
892.589	1709
892.693	977
892.797	1211
892.901	795
893.005	1232
893.109	951
893.213	1608
893.317	1284
893.421	905
893.525	975
893.629	1505
893.733	1264
893.837	1737
893.941	1302
894.045	2781
894.148	788
894.252	2300
894.356	2639
894.460	2322
894.564	570
894.667	1323
894.771	964
894.875	848
894.978	1397
895.082	770
895.186	1897
895.289	2347
895.393	1257
895.496	1443
895.600	1347
895.703	1174
895.807	528
895.910	1557
896.014	1408
896.117	1278
896.221	1094
896.324	1711
896.427	998
896.531	1650
896.634	1127
896.737	1888
896.840	1055
896.944	1584
897.047	1235
897.150	980
897.253	839
897.356	1522
897.460	516
897.563	1334
897.666	952
897.769	2072
897.872	733
897.975	2033
898.078	1098
898.181	2308
898.284	417
898.387	1486
898.490	1542
898.593	1509
898.695	595
898.798	1246
898.901	903
899.004	1502
899.107	542
899.209	1799
899.312	974
899.415	1587
899.518	1256
899.620	431
899.723	339
899.826	1999
899.928	631
900.031	1314
900.133	-46
900.236	1493
900.338	191
900.441	1361
900.543	857
900.646	1144
900.748	1333
900.851	1868
900.953	972
901.055	1358
901.158	1125
901.260	1507
901.362	705
901.465	1722
901.567	925
901.669	2051
901.771	628
901.873	1395
901.976	775
902.078	1225
902.180	909
902.282	667
902.384	558
902.486	1798
902.588	1766
902.690	1823
902.792	125
902.894	547
902.996	1345
903.098	1347
903.200	1181
903.302	629
903.404	494
903.505	1765
903.607	312
903.709	1537
903.811	1439
903.913	1578
904.014	513
904.116	1172
904.218	1123
904.319	1289
904.421	1677
904.523	2258
904.624	520
904.726	1555
904.827	1312
904.929	1263
905.030	1062
905.132	2123
905.233	1599
905.335	1138
905.436	807
905.537	994
905.639	254
905.740	972
905.841	1162
905.943	1971
906.044	115
906.145	1340
906.247	769
906.348	1055
906.449	232
906.550	1162
906.651	986
906.752	1179
906.854	602
906.955	1694
907.056	1061
907.157	1667
907.258	748
907.359	423
907.460	973
907.561	1138
907.662	511
907.762	1955
907.863	1001
907.964	1755
908.065	895
908.166	1691
908.267	132
908.367	510
908.468	1139
908.569	1812
908.670	1095
908.770	1273
908.871	1054
908.971	1257
909.072	1259
909.173	902
909.273	655
909.374	1183
909.474	1079
909.575	846
909.675	841
909.776	1938
909.876	729
909.977	1244
910.077	708
910.177	1376
910.278	445
910.378	1518
910.478	672
910.579	1459
910.679	229
910.779	2242
910.879	1342
910.980	1922
911.080	1759
911.180	1160
911.280	431
911.380	1560
911.480	417
911.580	1238
911.680	886
911.780	929
911.880	1149
911.980	1283
912.080	720
912.180	933
912.280	781
912.380	1423
912.480	594
912.580	1156
912.679	1039
912.779	1770
912.879	834
912.979	1334
913.078	726
913.178	1205
913.278	1752
913.377	1066
913.477	670
913.577	1779
913.676	930
913.776	903
913.875	1437
913.975	1296
914.074	1434
914.174	1395
914.273	50
914.373	1802
914.472	1699
914.572	1603
914.671	690
914.770	1575
914.870	1029
914.969	1644
915.068	313
915.167	1649
915.267	757
915.366	1231
915.465	637
915.564	1098
915.663	908
915.763	1391
915.862	1273
915.961	1301
916.060	1241
916.159	1414
916.258	1252
916.357	1108
916.456	825
916.555	1142
916.654	869
916.752	1127
916.851	473
916.950	1118
917.049	1265
917.148	1528
917.247	965
917.345	1156
917.444	128
917.543	1050
917.642	595
917.740	1429
917.839	724
917.937	2006
918.036	1282
918.135	1433
918.233	793
918.332	1403
918.430	682
918.529	1347
918.627	678
918.726	966
918.824	848
918.923	834
919.021	1108
919.119	1121
919.218	441
919.316	1365
919.414	740
919.512	1373
919.611	661
919.709	2043
919.807	532
919.905	1751
920.003	553
920.102	1185
920.200	1160
920.298	1847
920.396	474
920.494	1555
920.592	930
920.690	1528
920.788	1098
920.886	856
920.984	932
921.082	1388
921.180	1113
921.277	1249
921.375	1174
921.473	1451
921.571	2058
921.669	2124
921.766	217
921.864	1739
921.962	1794
922.060	1908
922.157	1613
922.255	2487
922.352	1342
922.450	2160
922.548	1808
922.645	2281
922.743	2234
922.840	3582
922.938	4126
923.035	4530
923.133	2753
923.230	3928
923.327	4372
923.425	4825
923.522	4271
923.619	4186
923.717	3288
923.814	4752
923.911	3707
924.008	4037
924.106	2203
924.203	4477
924.300	3085
924.397	3163
924.494	3523
924.591	3573
924.688	3742
924.786	4291
924.883	3575
924.979	2696
925.077	3596
925.173	3754
925.270	3300
925.367	2980
925.464	2619
925.561	3744
925.658	3670
925.755	2994
925.852	3174
925.948	3929
926.045	3066
926.142	3761
926.239	3430
926.335	2904
926.432	2989
926.529	3980
926.625	4173
926.722	3432
926.818	1678
926.915	3902
927.011	3169
927.108	3430
927.204	2682
927.301	3415
927.397	3059
927.494	4150
927.590	2938
927.687	2720
927.783	4217
927.879	3875
927.976	2951
928.072	3219
928.168	3459
928.264	3245
928.361	2862
928.457	2964
928.553	2355
928.649	3440
928.745	2548
928.841	3191
928.937	3115
929.033	2879
929.129	2852
929.225	2728
929.321	3211
929.417	2574
929.513	2346
929.609	2742
929.705	2376
929.801	3215
929.897	2222
929.993	3411
930.089	2400
930.184	2716
930.280	2493
930.376	3336
930.471	2584
930.567	2837
930.663	2379
930.758	2632
930.854	2921
930.950	2540
931.045	2306
931.141	3381
931.236	2812
931.332	3489
931.427	2387
931.523	3966
931.618	2979
931.714	1855
931.809	2565
931.905	2979
932.000	2061
932.095	2099
932.191	2540
932.286	3948
932.381	2225
932.476	2480
932.572	2079
932.667	2070
932.762	1200
932.857	2442
932.952	2991
933.047	3101
933.142	2447
933.237	2686
933.332	2373
933.427	3107
933.522	2989
933.617	2292
933.712	1649
933.807	3052
933.902	2322
933.997	3800
934.092	2237
934.187	2464
934.282	2420
934.376	3077
934.471	1811
934.566	2814
934.661	1888
934.755	2079
934.850	2079
934.945	2427
935.039	772
935.134	2469
935.228	2086
935.323	3465
935.417	1679
935.512	2226
935.606	1858
935.701	2441
935.795	2335
935.890	2041
935.984	2077
936.079	1421
936.173	1862
936.267	2412
936.362	1733
936.456	3192
936.550	2566
936.644	2960
936.738	1062
936.833	1920
936.927	1472
937.021	2167
937.115	2102
937.209	1684
937.303	2574
937.397	2033
937.491	1619
937.585	2696
937.679	2058
937.773	1984
937.867	758
937.961	2041
938.055	3263
938.149	2736
938.243	1644
938.337	2429
938.430	2145
938.524	2812
938.618	1359
938.712	1611
938.805	1829
938.899	2240
938.993	1929
939.086	2449
939.180	1005
939.274	1602
939.367	2442
939.461	2719
939.554	1308
939.648	1982
939.741	984
939.835	2237
939.928	2137
940.022	2869
940.115	1192
940.208	2302
940.302	1486
940.395	3468
940.488	570
940.582	1816
940.675	873
940.768	1766
940.861	1478
940.954	2773
941.048	1115
941.141	2148
941.234	1150
941.327	2195
941.420	2486
941.513	2052
941.606	1407
941.699	2758
941.792	2178
941.885	2721
941.978	2428
942.071	1719
942.164	982
942.257	2081
942.349	1826
942.442	2460
942.535	765
942.628	1766
942.721	1646
942.813	984
942.906	1957
942.999	1854
943.091	858
943.184	2068
943.277	930
943.369	2532
943.462	1169
943.554	978
943.647	965
943.739	2126
943.832	1533
943.924	1154
944.017	1231
944.109	1177
944.201	1210
944.294	1803
944.386	924
944.478	1150
944.571	1139
944.663	1476
944.755	587
944.847	1555
944.940	1762
945.032	1408
945.124	727
945.216	3287
945.308	1099
945.400	2096
945.492	1792
945.584	2028
945.676	1810
945.768	1803
945.860	1356
945.952	1217
946.044	1720
946.136	1930
946.228	1205
946.320	1660
946.412	1274
946.503	1972
946.595	2553
946.687	1638
946.779	112
946.870	2276
946.962	865
947.054	1765
947.145	1499
947.237	1247
947.329	1568
947.420	1493
947.512	1134
947.603	1453
947.695	1195
947.786	1591
947.878	519
947.969	2193
948.061	364
948.152	1184
948.243	823
948.335	1146
948.426	1259
948.517	1483
948.609	624
948.700	1232
948.791	1457
948.882	1517
948.973	666
949.065	1175
949.156	150
949.247	798
949.338	1286
949.429	1692
949.520	572
949.611	955
949.702	1797
949.793	1727
949.884	1387
949.975	1714
950.066	204
950.157	899
950.247	747
950.338	1072
950.429	594
950.520	1740
950.611	-11
950.701	673
950.792	1215
950.883	1791
950.973	187
951.064	1772
951.155	614
951.245	1956
951.336	958
951.427	484
951.517	1863
951.608	1775
951.698	926
951.788	1659
951.879	1271
951.969	1219
952.060	1284
952.150	890
952.240	904
952.331	558
952.421	1250
952.511	897
952.602	-206
952.692	1239
952.782	808
952.872	1146
952.962	1571
953.052	967
953.143	-368
953.233	1573
953.323	1465
953.413	950
953.503	1068
953.593	1559
953.683	447
953.773	400
953.863	-139
953.953	449
954.042	430
954.132	859
954.222	1674
954.312	928
954.402	733
954.492	2225
954.581	809
954.671	1295
954.761	-198
954.850	2010
954.940	69
955.030	843
955.119	-461
955.209	890
955.298	33
955.388	1652
955.477	1210
955.567	1474
955.656	878
955.746	1476
955.835	307
955.925	428
956.014	677
956.103	1604
956.193	1184
956.282	1222
956.371	317
956.461	859
956.550	492
956.639	1794
956.728	466
956.817	1307
956.906	533
956.995	1641
957.085	286
957.174	1917
957.263	875
957.352	1233
957.441	881
957.530	1295
957.619	1981
957.708	1982
957.796	1062
957.885	1780
957.974	348
958.063	1475
958.152	-111
958.241	1693
958.329	412
958.418	795
958.507	1347
958.596	2093
958.684	0
958.773	2231
958.861	1072
958.950	1455
959.039	1066
959.127	884
959.216	775
959.304	1881
959.393	1419
959.481	1848
959.570	761
959.658	1295
959.746	1220
959.835	1481
959.923	1793
960.011	2201
960.100	854
960.188	2089
960.276	350
960.365	1506
960.453	1015
960.541	471
960.629	1840
960.717	1266
960.805	28
960.893	1441
960.981	278
961.069	2428
961.158	521
961.245	1565
961.333	402
961.421	659
961.509	1021
961.597	1432
961.685	669
961.773	924
961.861	173
961.949	1499
962.036	114
962.124	632
962.212	430
962.299	878
962.387	255
962.475	653
962.562	-275
962.650	1893
962.738	1218
962.825	69
962.913	91
963.000	1668
963.088	1241
963.175	375
963.263	19
963.350	224
963.438	675
963.525	1240
963.612	957
963.700	2213
963.787	5034
963.874	2840
963.962	1165
964.049	1209
964.136	74
964.223	278
964.310	290
964.398	523
964.485	390
964.572	766
964.659	1474
964.746	1528
964.833	-115
964.920	304
965.007	365
965.094	946
965.181	286
965.268	597
965.355	381
965.441	453
965.528	-366
965.615	1962
965.702	701
965.789	-159
965.875	713
965.962	421
966.049	-839
966.136	1449
966.222	250
966.309	51
966.395	161
966.482	926
966.569	896
966.655	882
966.742	478
966.828	1602
966.915	34
967.001	853
967.087	-621
967.174	1376
967.260	954
967.347	1441
967.433	1228
967.519	4599
967.605	1953
967.692	29
967.778	-444
967.864	-44
967.950	333
968.036	226
968.123	500
968.209	416
968.295	-1201
968.381	2210
968.467	550
968.553	-1033
968.639	459
968.725	504
968.811	891
968.897	935
968.983	116
969.069	174
969.154	-80
969.240	854
969.326	-621
969.412	397
969.497	-205
969.583	-123
969.669	452
969.755	679
969.840	-213
969.926	966
970.012	211
970.097	1553
970.183	592
970.268	128
970.354	359
970.439	990
970.525	1946
970.610	816
970.696	911
970.781	446
970.866	-259
970.952	1033
971.037	-716
971.122	768
971.208	198
971.293	305
971.378	-892
971.463	814
971.549	354
971.634	428
971.719	1371
971.804	384
971.889	865
971.974	-72
972.059	-261
972.144	237
972.229	539
972.314	198
972.399	531
972.484	49
972.569	244
972.654	-384
972.739	256
972.824	980
972.908	239
972.993	-665
973.078	366
973.163	209
973.247	-87
973.332	-772
973.417	752
973.501	-420
973.586	-108
973.671	132
973.755	100
973.840	1345
973.924	892
974.009	562
974.093	-484
974.178	1859
974.262	-299
974.346	1110
974.431	193
974.515	459
974.600	-530
974.684	788
974.768	-406
974.852	1361
974.937	-235
975.021	544
975.105	-111
975.189	622
975.273	816
975.358	235
975.442	-713
975.526	862
975.610	-1399
975.694	-125
975.778	209
975.862	-120
975.946	-2142
976.030	1755
976.114	-754
976.198	540
976.281	-321
976.365	1054
976.449	-21
976.533	181
976.617	-42
976.700	-61
976.784	12
976.868	500
976.951	639
977.035	425
977.119	379
977.202	610
977.286	50
977.369	386
977.453	553
977.536	526
977.620	-306
977.703	613
977.787	-728
977.870	1048
977.953	693
978.037	-676
978.120	725
978.203	506
978.287	1500
978.370	572
978.453	427
978.536	-482
978.620	956
978.703	1236
978.786	-537
978.869	33
978.952	-808
979.035	827
979.118	-472
979.201	349
979.284	648
979.367	-606
979.450	-471
979.533	-470
979.616	57
979.699	2
979.782	295
979.865	392
979.948	-578
980.030	263
980.113	391
980.196	-491
980.279	646
980.361	920
980.444	-861
980.526	947
980.609	212
980.692	549
980.774	271
980.857	-28
980.939	788
981.022	709
981.104	-376
981.187	354
981.269	839
981.352	812
981.434	-268
981.516	559
981.599	598
981.681	599
981.763	-369
981.846	378
981.928	-294
982.010	-125
982.092	-120
982.174	875
982.256	-645
982.339	-169
982.421	-681
982.503	416
982.585	-459
982.667	226
982.749	-232
982.831	1062
982.913	-1251
982.995	832
983.077	-563
983.158	1148
983.240	-1245
983.322	862
983.404	1125
983.486	647
983.568	495
983.649	278
983.731	344
983.813	382
983.894	211
983.976	-3
984.058	-179
984.139	1023
984.221	-927
984.302	2003
984.384	-495
984.465	-171
984.547	-25
984.628	399
984.710	680
984.791	378
984.872	-530
984.954	117
985.035	62
985.116	653
985.198	-624
985.279	1476
985.360	-950
985.441	81
985.522	554
985.604	-87
985.685	-2168
985.766	1271
985.847	1732
985.928	288
986.009	557
986.090	346
986.171	-285
986.252	106
986.333	505
986.414	-86
986.495	-480
986.576	287
986.656	-252
986.737	533
986.818	-403
986.899	-361
986.980	-1072
987.060	1390
987.141	-720
987.222	1871
987.302	-287
987.383	1187
987.464	4
987.544	343
987.625	-140
987.705	1448
987.786	1113
987.866	154
987.947	340
988.027	467
988.108	22
988.188	723
988.268	715
988.349	994
988.429	-157
988.509	1127
988.589	-749
988.670	-135
988.750	1088
988.830	149
988.910	614
988.990	595
989.070	286
989.151	709
989.231	-344
989.311	252
989.391	226
989.471	584
989.551	247
989.631	380
989.711	669
989.791	412
989.870	-311
989.950	1721
990.030	319
990.110	760
990.190	-293
990.269	298
990.349	612
990.429	574
990.509	154
990.588	-222
990.668	-164
990.747	747
990.827	454
990.907	411
990.986	-574
991.066	784
991.145	-1116
991.225	1620
991.304	-164
991.383	912
991.463	-456
991.542	109
991.622	-714
991.701	86
991.780	-240
991.859	849
991.939	-685
992.018	235
992.097	415
992.176	365
992.256	-621
992.335	-98
992.414	171
992.493	-165
992.572	-401
992.651	1313
992.730	276
992.809	674
992.888	-362
992.967	586
993.046	-143
993.125	-1108
993.203	-453
993.282	41
993.361	475
993.440	554
993.519	-1462
993.597	299
993.676	-1074
993.755	807
993.834	-177
993.912	68
993.991	1467
994.069	-745
994.148	-527
994.226	-224
994.305	-256
994.384	-142
994.462	-108
994.540	127
994.619	-800
994.697	-308
994.776	-956
994.854	1180
994.932	-306
995.011	754
995.089	-202
995.167	-215
995.245	-954
995.324	-802
995.402	-921
995.480	409
995.558	125
995.636	-550
995.714	-547
995.792	1610
995.870	-1262
995.948	153
996.026	-278
996.104	-803
996.182	399
996.260	-13
996.338	-255
996.416	-1128
996.494	-894
996.572	972
996.649	-1159
996.727	-1188
996.805	-517
996.883	-273
996.960	-735
997.038	-348
997.116	-995
997.193	-685
997.271	138
997.348	-269
997.426	-181
997.504	-745
997.581	531
997.658	532
997.736	-1437
997.813	-631
997.891	-783
997.968	-881
998.046	-659
998.123	-229
998.200	-926
998.277	-953
998.355	-414
998.432	-1298
998.509	-1268
998.586	-260
998.663	-578
998.741	-443
998.818	-527
998.895	-588
998.972	-371
999.049	88
999.126	-1273
999.203	-145
999.280	-89
999.357	-535
999.434	-1017
999.511	-176
999.587	246
999.664	-428
999.741	-1427
999.818	864
999.895	-662
999.971	-644
1000.048	-862
1000.125	1160
1000.202	-1244
1000.278	-932
1000.355	-813
1000.431	-217
1000.508	-1170
1000.584	650
1000.661	-905
1000.738	-731
1000.814	-666
1000.890	90
1000.967	-1556
1001.043	640
1001.120	-1583
1001.196	-117
1001.272	-204
1001.349	-315
1001.425	-224
1001.501	10
1001.577	-1521
1001.654	-523
1001.730	-1697
1001.806	266
1001.882	-1579
1001.958	162
1002.034	-552
1002.110	-541
1002.186	-1203
1002.262	-751
1002.338	-2017
1002.414	-617
1002.490	-815
1002.566	-377
1002.642	-1046
1002.718	-592
1002.794	-440
1002.870	-1017
1002.945	-991
1003.021	-918
1003.097	-1156
1003.173	-280
1003.248	-1501
1003.324	-969
1003.400	-884
1003.475	-561
1003.551	-1361
1003.626	-681
1003.702	-983
1003.777	-584
1003.853	-1256
1003.928	-801
1004.004	-1605
1004.079	330
1004.155	-971
1004.230	-1720
1004.305	-412
1004.381	-1043
1004.456	-962
1004.531	-751
1004.607	-788
1004.682	-412
1004.757	-896
1004.832	-137
1004.907	-706
1004.982	-387
1005.057	-341
1005.133	-622
1005.208	-1195
1005.283	-965
1005.358	-585
1005.433	-145
1005.508	-1748
1005.583	-1360
1005.657	-1102
1005.732	-476
1005.807	-1197
1005.882	-465
1005.957	-1065
1006.032	-250
1006.106	-1547
1006.181	-779
1006.256	-26
1006.331	-860
1006.405	-1518
1006.480	-271
1006.554	-1827
1006.629	-803
1006.704	-1145
1006.778	-486
1006.853	-173
1006.927	-296
1007.002	-1454
1007.076	-1002
1007.150	-1430
1007.225	3
1007.299	-478
1007.373	-1130
1007.448	-1100
1007.522	-37
1007.596	-590
1007.671	-1185
1007.745	-561
1007.819	-1326
1007.893	-1265
1007.967	-705
1008.041	-2208
1008.115	353
1008.190	-2224
1008.264	175
1008.338	-2187
1008.412	-1099
1008.486	-1155
1008.560	-1017
1008.633	-1165
1008.707	-773
1008.781	-545
1008.855	-703
1008.929	-1197
1009.003	-576
1009.076	-1142
1009.150	-401
1009.224	-1059
1009.298	-469
1009.371	-2089
1009.445	-172
1009.519	-1255
1009.592	-772
1009.666	-955
1009.739	-180
1009.813	-2078
1009.886	355
1009.960	-2103
1010.033	-209
1010.107	-773
1010.180	-722
1010.253	-1021
1010.327	-1632
1010.400	-899
1010.473	-856
1010.547	-431
1010.620	-1211
1010.693	-1054
1010.766	-390
1010.840	-616
1010.913	-461
1010.986	-1971
1011.059	-1437
1011.132	-2511
1011.205	-933
1011.278	-1166
1011.351	-1359
1011.424	-929
1011.497	-998
1011.570	-700
1011.643	-895
1011.716	-2673
1011.789	-1025
1011.862	-745
1011.934	-343
1012.007	-2500
1012.080	-555
1012.153	-1816
1012.225	80
1012.298	-1907
1012.371	-921
1012.443	-982
1012.516	-1425
1012.588	-998
1012.661	-443
1012.733	-1893
1012.806	-436
1012.879	-1778
1012.951	-914
1013.023	-1521
1013.096	-1152
1013.168	-2676
1013.241	-142
1013.313	-1566
1013.385	-1493
1013.458	-1647
1013.530	-794
1013.602	-2372
1013.674	-782
1013.746	-1426
1013.819	-1560
1013.891	-583
1013.963	-2055
1014.035	-1481
1014.107	-992
1014.179	-1430
1014.251	-885
1014.323	-1663
1014.395	-996
1014.467	-2032
1014.539	-1415
1014.611	-1150
1014.683	-358
1014.754	-741
1014.826	-1209
1014.898	-917
1014.970	-1757
1015.042	-1050
1015.113	-778
1015.185	-2038
1015.257	-1329
1015.328	-819
1015.400	-804
1015.471	-1128
1015.543	-1911
1015.615	-1870
1015.686	-1269
1015.757	-862
1015.829	-506
1015.901	-1796
1015.972	-1304
1016.043	-806
1016.115	-726
1016.186	-1735
1016.257	-1980
1016.328	-1249
1016.400	-769
1016.471	-2100
1016.542	-996
1016.613	-1654
1016.685	-651
1016.756	-1218
1016.827	-1467
1016.898	-2434
1016.969	-596
1017.040	-1408
1017.111	-2384
1017.182	-1699
1017.253	-895
1017.324	-1786
1017.395	-646
1017.466	-1192
1017.537	-750
1017.608	-1357
1017.678	-1526
1017.749	-1314
1017.820	-1172
1017.891	-1926
1017.961	-1396
1018.032	-1373
1018.103	-511
1018.173	-1436
1018.244	-1045
1018.315	-915
1018.385	-883
1018.456	-1196
1018.526	-1386
1018.597	-2272
1018.667	-1168
1018.738	-1992
1018.808	-1561
1018.878	-2167
1018.949	-415
1019.019	-1160
1019.089	-1514
1019.160	-1020
1019.230	-2140
1019.300	-1385
1019.371	-1383
1019.441	-1113
1019.511	-1112
1019.581	-1344
1019.651	-987
1019.721	-1841
1019.791	-1438
1019.861	-1715
1019.931	-865
1020.001	-2084
1020.071	-1889
1020.141	-1792
1020.211	-1398
1020.281	-1887
1020.351	-1503
1020.421	-1678
1020.491	-519
1020.560	-1760
1020.630	-791
1020.700	-1570
1020.770	-1764
1020.839	-1898
1020.909	-1259
1020.979	-1802
1021.048	-1281
1021.118	-1724
1021.187	-1794
1021.257	-1646
1021.326	-990
1021.396	-1361
1021.465	-406
1021.535	-1993
1021.604	-1796
1021.674	-1984
1021.743	-664
1021.812	-2015
1021.882	-579
1021.951	-1681
1022.020	-1132
1022.089	-1562
1022.159	-2175
1022.228	-1058
1022.297	-1836
1022.366	-2310
1022.435	-1565
1022.504	-1741
1022.573	-1609
1022.642	-1954
1022.711	-1370
1022.781	-1594
1022.849	-642
1022.918	-2098
1022.987	-1486
1023.056	-1784
1023.125	-1297
1023.194	-2115
1023.263	-811
1023.331	-1338
1023.400	-1439
1023.469	-1778
1023.538	-1591
1023.606	-2070
1023.675	-1366
1023.744	-2685
1023.812	-1158
1023.881	-1536
1023.949	-1451
1024.018	-1778
1024.086	-1485
1024.155	-2778
1024.223	-1139
1024.292	-1424
1024.360	-1200
1024.429	-2391
1024.497	-1300
1024.565	-1475
1024.634	-1259
1024.702	-1722
1024.770	-1097
1024.838	-2716
1024.907	-1140
1024.975	-1412
1025.043	-1113
1025.111	-2038
1025.179	-2300
1025.247	-2119
1025.315	-1752
1025.383	-1445
1025.451	-1466
1025.519	-2373
1025.587	-1775
1025.655	-850
1025.723	-1591
1025.791	-1264
1025.859	-1222
1025.927	-1835
1025.995	-1000
1026.062	-1882
1026.130	-1310
1026.198	-2695
1026.266	-2194
1026.333	-1786
1026.401	-968
1026.469	-1928
1026.536	-1367
1026.604	-1625
1026.671	-1320
1026.739	-2351
1026.806	-1346
1026.874	-2478
1026.941	-2099
1027.009	-1350
1027.076	-1614
1027.144	-1519
1027.211	-1154
1027.278	-2240
1027.345	-1060
1027.413	-2031
1027.480	-1196
1027.547	-2485
1027.614	-1867
1027.682	-1628
1027.749	-1500
1027.816	-1533
1027.883	-1355
1027.950	-1969
1028.017	-2071
1028.084	-1574
1028.151	-1972
1028.218	-2397
1028.285	-1831
1028.352	-2853
1028.419	-2204
1028.486	-1627
1028.553	-1668
1028.619	-2387
1028.686	-1246
1028.753	-1959
1028.820	-1843
1028.886	-946
1028.953	-1260
1029.020	-2258
1029.086	-1520
1029.153	-1147
1029.220	-2281
1029.286	-2315
1029.353	-1699
1029.419	-1936
1029.486	-1808
1029.552	-2192
1029.619	-1649
1029.685	-1867
1029.751	-1699
1029.818	-1408
1029.884	-1549
1029.951	-1077
1030.017	-1553
1030.083	-2562
1030.149	-703
1030.216	-2514
1030.282	-962
1030.348	-2495
1030.414	-2087
1030.480	-2748
1030.546	-1870
1030.612	-2384
1030.678	-1889
1030.744	-2436
1030.810	-1316
1030.876	-1298
1030.942	-1589
1031.008	-1212
1031.074	-1135
1031.140	-1884
1031.206	-605
1031.272	-3088
1031.337	-1864
1031.403	-1733
1031.469	-1653
1031.534	-2358
1031.600	-1330
1031.666	-2792
1031.731	-2422
1031.797	-2129
1031.863	-1659
1031.928	-2099
1031.994	-1225
1032.059	-1782
1032.125	-1095
1032.190	-2523
1032.256	-1260
1032.321	-1992
1032.386	-1821
1032.452	-1619
1032.517	-1617
1032.582	-2062
1032.647	-1573
1032.713	-1090
1032.778	-1790
1032.843	-1877
1032.908	-2389
1032.974	-1307
1033.039	-1859
1033.104	-1696
1033.169	-1874
1033.234	-2358
1033.299	-1105
1033.364	-2618
1033.429	-1832
1033.494	-1950
1033.559	-2072
1033.624	-1607
1033.688	-1294
1033.753	-3122
1033.818	-438
1033.883	-2080
1033.948	-1297
1034.013	-1658
1034.077	-1226
1034.142	-1756
1034.207	-712
1034.271	-1033
1034.336	625
1034.400	-734
1034.465	-904
1034.530	-1544
1034.594	-1481
1034.658	-1906
1034.723	-1225
1034.787	-2237
1034.852	-1616
1034.916	-2044
1034.981	-1600
1035.045	-2442
1035.109	-2112
1035.173	-1565
1035.238	-1417
1035.302	-1311
1035.366	-1143
1035.430	-2483
1035.495	-1462
1035.559	-2054
1035.623	-1828
1035.687	-2644
1035.751	-1049
1035.815	-2059
1035.879	-1599
1035.943	-1836
1036.007	-1851
1036.071	-2361
1036.135	-1489
1036.198	-2531
1036.262	-1574
1036.326	-1708
1036.390	-981
1036.454	-1727
1036.517	-1558
1036.581	-1860
1036.645	-1457
1036.709	-1930
1036.772	-1566
1036.836	-1903
1036.900	-2001
1036.963	-2386
1037.026	-1103
1037.090	-2739
1037.154	-2053
1037.217	-2464
1037.280	-1095
1037.344	-1666
1037.407	-2256
1037.471	-2229
1037.534	-1023
1037.597	-2463
1037.661	-1595
1037.724	-1656
1037.787	-1884
1037.850	-2746
1037.913	-2084
1037.977	-1496
1038.040	-1734
1038.103	-2185
1038.166	-2006
1038.229	-2631
1038.292	-1695
1038.355	-2343
1038.418	-1706
1038.481	-1167
1038.544	-1425
1038.607	-2298
1038.670	-1476
1038.732	-2092
1038.795	-2554
1038.858	-2527
1038.921	-1533
1038.984	-1436
1039.046	-1418
1039.109	-2942
1039.172	-1297
1039.234	-1888
1039.297	-1860
1039.360	-1845
1039.422	-1300
1039.485	-1834
1039.547	-2078
1039.610	-1892
1039.672	-1940
1039.734	-2296
1039.797	-1743
1039.859	-2133
1039.922	-1178
1039.984	-2149
1040.046	-2193
1040.109	-1774
1040.171	-1748
1040.233	-1974
1040.295	-1947
1040.358	-2095
1040.420	-2279
1040.482	-2786
1040.544	-1873
1040.606	-1861
1040.668	-1200
1040.730	-2239
1040.792	-1090
1040.854	-2739
1040.916	-1691
1040.978	-2565
1041.040	-1350
1041.102	-2289
1041.164	-1479
1041.225	-2154
1041.287	-1934
1041.349	-2799
1041.411	-2040
1041.472	-2087
1041.534	-1317
1041.596	-2206
1041.657	-1439
1041.719	-1712
1041.781	-1157
1041.842	-3022
1041.904	-2528
1041.965	-2527
1042.027	-1900
1042.088	-2915
1042.150	-1803
1042.211	-1896
1042.272	-1400
1042.334	-2176
1042.395	-1341
1042.456	-2653
1042.518	-1882
1042.579	-2071
1042.640	-1773
1042.701	-1997
1042.763	-1242
1042.824	-1990
1042.885	-2162
1042.946	-2333
1043.007	-1318
1043.068	-1960
1043.129	-1993
1043.190	-1970
1043.251	-1672
1043.312	-1851
1043.373	-1234
1043.434	-1106
1043.495	-1308
1043.556	-1997
1043.616	-2055
1043.677	-2318
1043.738	-1215
1043.799	-2442
1043.859	-2462
1043.920	-2249
1043.981	-1314
1044.041	-2536
1044.102	-1989
1044.162	-2508
1044.223	-1533
1044.284	-2478
1044.344	-2058
1044.405	-2575
1044.465	-624
1044.525	-1745
1044.586	-1782
1044.646	-2185
1044.707	-800
1044.767	-2263
1044.827	-1961
1044.887	-2172
1044.948	-1635
1045.008	-2323
1045.068	-1658
1045.128	-2238
1045.188	-1374
1045.249	-2211
1045.309	-1708
1045.369	-1287
1045.429	-1710
1045.489	-2145
1045.549	-1237
1045.609	-2650
1045.669	-1548
1045.729	-1529
1045.789	-1500
1045.848	-2526
1045.908	-1313
1045.968	-1932
1046.028	-823
1046.088	-356
1046.147	-438
1046.207	-2137
1046.267	-1398
1046.326	-2251
1046.386	-960
1046.446	-504
1046.505	-619
1046.565	-1944
1046.624	-1102
1046.684	-994
1046.743	-1027
1046.803	-1184
1046.862	14
1046.922	0
