'Start Wavelength	183.907
'End Wavelength	1046.922
'Gate Delay	5.000
'Gate Width (ms)	1.050
'Laser Output Level	0.000
'X Position	0.000
'Y Position	0.000
'Z Position	0.000
'Grid Point Number	1.000
'Shot Number	100.000
183.907	400.000
183.977	106.000
184.047	351
184.116	-78
184.186	526
184.256	-416
184.325	-156
184.395	-419
184.465	724
184.534	40
184.604	-47
184.674	178
184.743	-813
184.813	-66
184.883	623
184.952	272
185.022	-64
185.092	-425
185.161	133
185.231	-266
185.301	-445
185.370	284
185.440	-224
185.509	-197
185.579	192
185.649	-51
185.718	390
185.788	-330
185.857	-552
185.927	-156
185.996	154
186.066	-627
186.136	-324
186.205	-319
186.275	-421
186.344	-442
186.414	-37
186.483	-1166
186.553	-62
186.622	81
186.692	-87
186.761	-609
186.831	-398
186.900	-488
186.970	198
187.039	621
187.109	360
187.178	-348
187.248	755
187.317	171
187.387	-105
187.456	-187
187.526	226
187.595	-238
187.664	-204
187.734	-220
187.803	-136
187.873	211
187.942	556
188.012	-428
188.081	-914
188.150	-659
188.220	277
188.289	246
188.358	-59
188.428	-406
188.497	-189
188.567	-18
188.636	-602
188.705	-93
188.775	-276
188.844	-954
188.913	575
188.983	-321
189.052	-491
189.121	-246
189.191	-87
189.260	223
189.329	378
189.399	22
189.468	914
189.537	-193
189.606	195
189.676	452
189.745	579
189.814	37
189.883	248
189.953	146
190.022	281
190.091	330
190.161	786
190.230	701
190.299	-626
190.368	299
190.437	-114
190.507	-568
190.576	-195
190.645	-18
190.714	-86
190.783	-247
190.853	158
190.922	-150
190.991	-25
191.060	184
191.129	-239
191.198	461
191.268	58
191.337	219
191.406	704
191.475	54
191.544	86
191.613	-361
191.682	-96
191.752	35
191.821	166
191.890	-170
191.959	-573
192.028	-163
192.097	378
192.166	-19
192.235	-1460
192.304	627
192.373	-260
192.442	-671
192.511	310
192.580	-173
192.650	-295
192.719	-179
192.788	1284
192.857	-255
192.926	-185
192.995	43
193.064	429
193.133	236
193.202	1748
193.271	1366
193.340	-9
193.409	599
193.478	958
193.547	128
193.615	542
193.684	1305
193.753	767
193.822	566
193.891	-75
193.960	84
194.029	-247
194.098	-244
194.167	132
194.236	1136
194.305	-387
194.374	-29
194.443	672
194.512	-148
194.580	748
194.649	728
194.718	337
194.787	536
194.856	-179
194.925	-134
194.994	-274
195.062	356
195.131	-305
195.200	-502
195.269	349
195.338	85
195.407	848
195.475	8
195.544	103
195.613	960
195.682	112
195.751	-464
195.819	257
195.888	738
195.957	866
196.026	-42
196.094	393
196.163	189
196.232	613
196.301	469
196.369	49
196.438	298
196.507	298
196.576	114
196.644	321
196.713	417
196.782	29
196.850	543
196.919	1302
196.988	228
197.056	386
197.125	485
197.194	146
197.262	6
197.331	543
197.400	353
197.468	262
197.537	-30
197.606	-117
197.674	440
197.743	291
197.812	59
197.880	630
197.949	76
198.017	757
198.086	284
198.155	-165
198.223	708
198.292	765
198.360	397
198.429	711
198.497	-746
198.566	479
198.635	940
198.703	1196
198.772	-233
198.840	494
198.909	668
198.977	38
199.046	180
199.114	216
199.183	533
199.251	969
199.320	425
199.388	428
199.457	98
199.525	364
199.594	-257
199.662	-265
199.731	50
199.799	-337
199.867	-197
199.936	-299
200.004	-86
200.073	282
200.141	378
200.210	-160
200.278	-99
200.346	476
200.415	1095
200.483	609
200.552	549
200.620	222
200.688	682
200.757	193
200.825	-296
200.893	467
200.962	158
201.030	327
201.098	254
201.167	391
201.235	275
201.303	204
201.372	207
201.440	339
201.508	388
201.577	-9
201.645	398
201.713	298
201.781	278
201.850	300
201.918	194
201.986	-14
202.055	-456
202.123	351
202.191	84
202.259	-56
202.327	-105
202.396	75
202.464	578
202.532	429
202.600	514
202.669	883
202.737	211
202.805	210
202.873	-67
202.941	520
203.009	325
203.078	610
203.146	430
203.214	-286
203.282	-612
203.350	762
203.418	263
203.487	774
203.555	337
203.623	321
203.691	1063
203.759	-472
203.827	-21
203.895	273
203.963	371
204.031	176
204.099	-166
204.168	727
204.236	235
204.304	218
204.372	63
204.440	121
204.508	390
204.576	597
204.644	47
204.712	-181
204.780	467
204.848	-10
204.916	208
204.984	656
205.052	104
205.120	172
205.188	262
205.256	-549
205.324	-783
205.392	286
205.460	744
205.528	-179
205.596	862
205.664	574
205.732	170
205.799	1154
205.867	1251
205.935	14
206.003	947
206.071	166
206.139	-215
206.207	615
206.275	903
206.343	441
206.411	688
206.478	755
206.546	-249
206.614	622
206.682	141
206.750	403
206.818	-244
206.885	480
206.953	-230
207.021	1028
207.089	587
207.157	764
207.225	346
207.292	772
207.360	992
207.428	-118
207.496	-470
207.563	837
207.631	-164
207.699	674
207.767	454
207.834	454
207.902	668
207.970	820
208.038	289
208.105	1146
208.173	695
208.241	22
208.309	75
208.376	1225
208.444	1620
208.512	790
208.579	142
208.647	596
208.715	675
208.782	-95
208.850	327
208.918	602
208.985	413
209.053	295
209.120	1065
209.188	300
209.256	1054
209.323	358
209.391	335
209.459	1726
209.526	808
209.594	406
209.661	496
209.729	533
209.796	706
209.864	748
209.932	-93
209.999	1023
210.067	294
210.134	506
210.202	682
210.269	1411
210.337	846
210.404	-75
210.472	569
210.539	1172
210.607	180
210.674	373
210.742	796
210.809	125
210.877	284
210.944	1258
211.012	-105
211.079	1893
211.146	615
211.214	307
211.281	261
211.349	996
211.416	931
211.484	1399
211.551	519
211.618	661
211.686	46
211.753	215
211.821	633
211.888	499
211.955	583
212.023	990
212.090	208
212.157	806
212.225	553
212.292	1337
212.359	1746
212.427	4490
212.494	1681
212.561	1245
212.629	394
212.696	724
212.763	87
212.831	785
212.898	871
212.965	778
213.032	286
213.100	946
213.167	862
213.234	1308
213.301	1051
213.369	1303
213.436	71
213.503	805
213.570	1460
213.638	671
213.705	204
213.772	433
213.839	487
213.906	1735
213.973	311
214.041	895
214.108	753
214.175	509
214.242	427
214.309	305
214.376	662
214.444	559
214.511	1132
214.578	1521
214.645	1399
214.712	302
214.779	734
214.846	-3
214.913	1732
214.980	1048
215.048	1324
215.115	1650
215.182	532
215.249	735
215.316	889
215.383	913
215.450	749
215.517	944
215.584	131
215.651	232
215.718	433
215.785	1904
215.852	322
215.919	1104
215.986	1014
216.053	1243
216.120	-121
216.187	350
216.254	914
216.321	664
216.388	-163
216.455	356
216.522	640
216.589	768
216.656	1475
216.722	1333
216.789	1476
216.856	2005
216.923	1525
216.990	1533
217.057	1011
217.124	1321
217.191	900
217.258	2203
217.324	2439
217.391	3493
217.458	1893
217.525	1807
217.592	720
217.659	964
217.725	2088
217.792	433
217.859	1318
217.926	1288
217.993	-49
218.059	1169
218.126	600
218.193	279
218.260	273
218.327	632
218.393	719
218.460	957
218.527	461
218.594	152
218.660	786
218.727	1414
218.794	201
218.860	599
218.927	349
218.994	106
219.061	354
219.127	53
219.194	1172
219.261	153
219.327	861
219.394	788
219.461	-199
219.527	523
219.594	803
219.661	464
219.727	-361
219.794	594
219.860	-759
219.927	650
219.994	544
220.060	975
220.127	1078
220.193	969
220.260	1030
220.326	1943
220.393	2838
220.460	4903
220.526	2662
220.593	1300
220.659	3077
220.726	1275
220.792	3653
220.859	3248
220.925	4741
220.992	8266
221.058	6264
221.125	5049
221.191	4171
221.258	933
221.324	242
221.391	769
221.457	1163
221.524	1038
221.590	1237
221.657	2669
221.723	1558
221.789	2197
221.856	1794
221.922	865
221.989	1154
222.055	900
222.121	453
222.188	1899
222.254	608
222.321	1003
222.387	-107
222.453	945
222.520	479
222.586	582
222.652	780
222.719	625
222.785	1286
222.851	-126
222.918	551
222.984	-122
223.050	575
223.116	-1152
223.183	1189
223.249	374
223.315	202
223.382	759
223.448	104
223.514	-232
223.580	367
223.647	823
223.713	-413
223.779	296
223.845	-355
223.911	-45
223.978	-261
224.044	409
224.110	-340
224.176	790
224.242	447
224.309	130
224.375	113
224.441	556
224.507	-384
224.573	-365
224.639	960
224.705	-385
224.772	-185
224.838	-550
224.904	497
224.970	770
225.036	5
225.102	-247
225.168	30
225.234	793
225.300	-79
225.366	970
225.432	792
225.499	-572
225.565	246
225.631	351
225.697	371
225.763	642
225.829	1156
225.895	1175
225.961	1023
226.027	920
226.093	507
226.159	2113
226.225	1983
226.291	5540
226.357	9079
226.423	4513
226.489	1844
226.554	1738
226.620	1427
226.686	1814
226.752	2929
226.818	4942
226.884	10502
226.950	10217
227.016	4181
227.082	2989
227.148	1716
227.214	1276
227.279	1000
227.345	96
227.411	822
227.477	564
227.543	1259
227.609	952
227.674	1104
227.740	-169
227.806	529
227.872	1184
227.938	71
228.003	765
228.069	211
228.135	-86
228.201	254
228.267	-97
228.332	621
228.398	464
228.464	270
228.530	-137
228.595	418
228.661	-149
228.727	380
228.792	1686
228.858	-49
228.924	-1062
228.990	1690
229.055	-128
229.121	157
229.187	-102
229.252	-492
229.318	-482
229.384	503
229.449	6
229.515	-1168
229.581	-1209
229.646	1314
229.712	624
229.777	792
229.843	262
229.909	1430
229.974	1654
230.040	689
230.105	-13
230.171	826
230.236	1930
230.302	1583
230.368	1028
230.433	179
230.499	929
230.564	1556
230.630	-248
230.695	647
230.761	1009
230.826	-1066
230.892	970
230.957	173
231.023	494
231.088	559
231.154	268
231.219	274
231.284	82
231.350	1179
231.415	150
231.481	248
231.546	37
231.612	-87
231.677	3
231.742	-899
231.808	434
231.873	-468
231.939	-990
232.004	1767
232.069	1173
232.135	803
232.200	-623
232.265	-33
232.331	41
232.396	25
232.461	-936
232.527	128
232.592	-789
232.657	399
232.723	495
232.788	136
232.853	812
232.918	143
232.984	-440
233.049	-336
233.114	-371
233.179	-283
233.245	795
233.310	1526
233.375	-845
233.440	554
233.506	-357
233.571	-400
233.636	356
233.701	-199
233.766	-64
233.832	1025
233.897	307
233.962	-954
234.027	1316
234.092	624
234.157	-111
234.222	-624
234.288	489
234.353	2379
234.418	2184
234.483	847
234.548	568
234.613	-194
234.678	777
234.743	78
234.808	2764
234.873	712
234.938	1265
235.004	406
235.069	356
235.134	93
235.199	224
235.264	524
235.329	-416
235.394	477
235.459	1599
235.524	-84
235.589	293
235.654	-287
235.719	-869
235.784	1405
235.849	24
235.913	1521
235.978	865
236.043	1169
236.108	576
236.173	-375
236.238	1572
236.303	360
236.368	309
236.433	1737
236.498	1872
236.563	1565
236.627	3388
236.692	12833
236.757	11189
236.822	4606
236.887	1941
236.952	2353
237.017	906
237.081	3109
237.146	1947
237.211	6473
237.276	14275
237.341	19389
237.405	9324
237.470	3630
237.535	2299
237.600	2027
237.664	1519
237.729	-315
237.794	576
237.859	6100
237.923	1996
237.988	659
238.053	1633
238.118	1574
238.182	3170
238.247	4327
238.312	306
238.376	1673
238.441	-664
238.506	1245
238.570	-116
238.635	1964
238.700	542
238.764	75
238.829	1335
238.893	1866
238.958	1338
239.023	18
239.087	219
239.152	943
239.216	-77
239.281	652
239.346	299
239.410	-26
239.475	597
239.539	2577
239.604	1631
239.668	721
239.733	822
239.797	510
239.862	1267
239.926	2614
239.991	1049
240.055	279
240.120	-723
240.184	382
240.249	-71
240.313	85
240.378	287
240.442	1452
240.507	3547
240.571	526
240.635	1075
240.700	1200
240.764	410
240.829	166
240.893	-825
240.957	293
241.022	977
241.086	3239
241.151	113
241.215	-702
241.279	1402
241.344	695
241.408	451
241.472	-169
241.537	1361
241.601	1354
241.665	-636
241.730	67
241.794	903
241.858	-38
241.922	818
241.987	808
242.051	227
242.115	-312
242.179	470
242.244	-996
242.308	1153
242.372	-242
242.436	239
242.501	675
242.565	128
242.629	70
242.693	511
242.757	-995
242.822	-79
242.886	860
242.950	842
243.014	136
243.078	-181
243.142	765
243.206	-259
243.271	927
243.335	121
243.399	1428
243.463	3959
243.527	16561
243.591	5144
243.655	1196
243.719	773
243.783	1347
243.847	2205
243.911	2249
243.975	698
244.040	314
244.104	2512
244.168	262
244.232	597
244.296	1314
244.360	2329
244.424	190
244.488	699
244.552	420
244.615	-771
244.679	813
244.743	-242
244.807	316
244.871	1006
244.935	719
244.999	-398
245.063	-50
245.127	532
245.191	1560
245.255	705
245.319	895
245.383	-491
245.446	992
245.510	-419
245.574	55
245.638	407
245.702	-437
245.766	2411
245.829	1564
245.893	-527
245.957	-92
246.021	37
246.085	401
246.149	86
246.212	2910
246.276	1965
246.340	1012
246.404	786
246.467	1297
246.531	179
246.595	1641
246.659	1965
246.722	-714
246.786	781
246.850	422
246.913	1954
246.977	-369
247.041	321
247.104	991
247.168	388
247.232	2006
247.295	5696
247.359	2250
247.423	603
247.486	1257
247.550	1660
247.614	332
247.677	1054
247.741	-175
247.804	120
247.868	1271
247.932	869
247.995	4512
248.059	584
248.122	-736
248.186	1650
248.249	1480
248.313	7158
248.376	9051
248.440	4931
248.503	284
248.567	1803
248.630	1704
248.694	2465
248.757	4033
248.821	8367
248.884	6258
248.948	4474
249.011	6964
249.075	10215
249.138	8664
249.202	3436
249.265	526
249.328	3278
249.392	989
249.455	1751
249.519	610
249.582	1526
249.645	3431
249.709	2878
249.772	2136
249.835	1081
249.899	1347
249.962	912
250.025	68
250.089	2939
250.152	4649
250.215	1057
250.279	916
250.342	1669
250.405	1232
250.468	1353
250.532	1491
250.595	3494
250.658	12514
250.721	25826
250.785	7456
250.848	4509
250.911	2413
250.974	2707
251.038	1385
251.101	5698
251.164	1921
251.227	2656
251.290	2824
251.354	4572
251.417	19762
251.480	21522
251.543	13262
251.606	38221
251.669	29374
251.732	11214
251.795	8958
251.859	9155
251.922	23011
251.985	14332
252.048	5380
252.111	3207
252.174	2183
252.237	4979
252.300	10934
252.363	12407
252.426	30587
252.489	11841
252.552	5379
252.615	2377
252.678	3867
252.741	8605
252.804	11747
252.867	30702
252.930	16863
252.993	7981
253.056	4647
253.119	2966
253.182	1892
253.245	4315
253.308	3790
253.371	1246
253.434	2174
253.497	2382
253.559	4904
253.622	3007
253.685	2896
253.748	4416
253.811	1633
253.874	1917
253.937	465
254.000	962
254.062	2303
254.125	3972
254.188	5733
254.251	3697
254.314	1391
254.376	2598
254.439	3740
254.502	2953
254.565	2572
254.628	5374
254.690	2149
254.753	1020
254.816	424
254.878	538
254.941	2963
255.004	3133
255.067	987
255.129	242
255.192	385
255.255	-181
255.317	914
255.380	595
255.443	-159
255.505	-71
255.568	-394
255.631	-188
255.693	402
255.756	-629
255.819	504
255.881	-338
255.944	-561
256.006	480
256.069	-459
256.132	-456
256.194	-7
256.257	2431
256.319	1736
256.382	577
256.444	678
256.507	477
256.569	851
256.632	986
256.694	1421
256.757	7118
256.819	23997
256.882	8547
256.944	2732
257.007	2403
257.069	1212
257.132	1339
257.194	761
257.257	868
257.319	561
257.381	622
257.444	5832
257.506	24737
257.569	29006
257.631	9102
257.693	5093
257.756	2082
257.818	1220
257.880	-447
257.943	1107
258.005	542
258.067	89
258.130	715
258.192	710
258.254	1412
258.317	293
258.379	642
258.441	2480
258.503	3003
258.566	2709
258.628	5164
258.690	897
258.753	1403
258.815	1391
258.877	318
258.939	25
259.001	880
259.064	-339
259.126	-42
259.188	505
259.250	206
259.312	488
259.375	1774
259.437	-353
259.499	0
259.561	-59
259.623	819
259.685	35
259.747	1466
259.809	2423
259.872	7032
259.934	10340
259.996	11046
260.058	2679
260.120	-138
260.182	-150
260.244	527
260.306	193
260.368	1259
260.430	-330
260.492	1265
260.554	4026
260.616	389
260.678	4297
260.740	6529
260.802	1366
260.864	1464
260.926	-244
260.988	642
261.050	-142
261.112	2805
261.174	8975
261.236	6281
261.298	1179
261.359	2109
261.421	4416
261.483	628
261.545	581
261.607	-368
261.669	344
261.731	1349
261.793	4102
261.854	756
261.916	804
261.978	59
262.040	453
262.102	647
262.164	928
262.225	361
262.287	184
262.349	1368
262.411	1145
262.472	225
262.534	890
262.596	3515
262.658	-199
262.719	-596
262.781	824
262.843	2471
262.904	1601
262.966	-418
263.028	2053
263.090	7598
263.151	25285
263.213	7744
263.275	2532
263.336	949
263.398	824
263.459	-115
263.521	126
263.583	1538
263.644	1102
263.706	-108
263.767	-1121
263.829	937
263.891	-781
263.952	-498
264.014	-833
264.075	726
264.137	4322
264.198	2018
264.260	-590
264.321	-802
264.383	777
264.444	7449
264.506	1800
264.567	937
264.629	1873
264.690	4766
264.752	1565
264.813	293
264.875	-438
264.936	418
264.998	-914
265.059	-440
265.120	-48
265.182	1173
265.243	12696
265.305	14789
265.366	2535
265.427	1173
265.489	859
265.550	-569
265.611	459
265.673	-280
265.734	-298
265.795	-535
265.857	-253
265.918	236
265.979	2683
266.040	19338
266.102	17693
266.163	3628
266.224	1777
266.286	287
266.347	-330
266.408	380
266.469	369
266.530	209
266.592	-1047
266.653	675
266.714	1793
266.775	-147
266.836	-125
266.898	-160
266.959	199
267.020	395
267.081	444
267.142	-548
267.203	-1250
267.264	-498
267.326	811
267.387	-615
267.448	-826
267.509	-465
267.570	-366
267.631	-1386
267.692	-1371
267.753	215
267.814	-259
267.875	1125
267.936	2996
267.997	992
268.058	537
268.119	-238
268.180	-955
268.241	-121
268.302	-743
268.363	-414
268.424	-457
268.485	275
268.546	-1340
268.607	-268
268.668	286
268.729	-1143
268.790	-567
268.851	244
268.912	1360
268.972	988
269.033	-185
269.094	-317
269.155	-350
269.216	-352
269.277	-296
269.338	-229
269.398	-493
269.459	-1112
269.520	722
269.581	674
269.642	588
269.702	215
269.763	-359
269.824	-742
269.885	-209
269.945	479
270.006	52
270.067	-1507
270.128	-414
270.188	-968
270.249	-488
270.310	-1389
270.370	18
270.431	-1039
270.492	-1065
270.553	-57
270.613	140
270.674	2189
270.734	-360
270.795	-194
270.856	568
270.916	-183
270.977	-667
271.038	769
271.098	-90
271.159	-32
271.219	571
271.280	-1052
271.340	521
271.401	-914
271.462	918
271.522	-194
271.583	-844
271.643	263
271.704	-253
271.764	75
271.825	7
271.885	6511
271.946	9664
272.006	2372
272.066	4152
272.127	7664
272.187	2162
272.248	815
272.308	510
272.369	5951
272.429	2408
272.489	1099
272.550	1249
272.610	2116
272.671	354
272.731	149
272.791	1183
272.852	101
272.912	-53
272.972	69
273.033	-2
273.093	-53
273.153	39
273.214	254
273.274	-608
273.334	3635
273.394	10346
273.455	2540
273.515	2465
273.575	7169
273.635	2347
273.696	2957
273.756	7584
273.816	3791
273.876	385
273.936	2432
273.997	6072
274.057	-184
274.117	746
274.177	1095
274.237	9417
274.297	8786
274.358	4174
274.418	5326
274.478	4171
274.538	672
274.598	-844
274.658	3464
274.718	5475
274.778	2412
274.838	-693
274.898	1499
274.958	7732
275.018	7916
275.078	4578
275.138	936
275.198	-799
275.258	-506
275.318	138
275.378	1367
275.438	1591
275.498	723
275.558	3094
275.618	9120
275.678	5416
275.738	2743
275.798	1078
275.858	904
275.918	-461
275.978	247
276.038	106
276.098	-612
276.157	266
276.217	4582
276.277	1861
276.337	-119
276.397	-178
276.457	102
276.517	-378
276.576	156
276.636	-795
276.696	-272
276.756	2036
276.815	2049
276.875	288
276.935	-125
276.995	80
277.055	409
277.114	-787
277.174	-442
277.234	3917
277.293	849
277.353	-361
277.413	17
277.472	-90
277.532	-414
277.592	554
277.651	3181
277.711	9299
277.771	2461
277.830	9628
277.890	8388
277.950	4092
278.009	19670
278.069	6587
278.128	5642
278.188	9279
278.248	1989
278.307	8552
278.367	6201
278.426	617
278.486	138
278.545	-295
278.605	-42
278.664	-186
278.724	478
278.783	2102
278.843	9623
278.902	2064
278.962	433
279.021	1062
279.081	1483
279.140	520
279.199	589
279.259	412
279.318	812
279.378	1562
279.437	2226
279.496	11036
279.556	47756
279.615	43625
279.675	9230
279.734	4073
279.793	5130
279.853	7681
279.912	2463
279.971	1521
280.031	999
280.090	2263
280.149	5399
280.208	4185
280.268	33879
280.327	40918
280.386	6991
280.445	4292
280.505	3687
280.564	712
280.623	742
280.682	1542
280.742	4388
280.801	601
280.860	234
280.919	-230
280.978	-468
281.037	-568
281.097	-791
281.156	-248
281.215	-184
281.274	-606
281.333	5488
281.392	5099
281.451	246
281.510	-163
281.569	-958
281.628	-590
281.688	-142
281.747	-856
281.806	-839
281.865	-956
281.924	-1354
281.983	-886
282.042	-772
282.101	-414
282.160	26
282.219	-251
282.278	-749
282.337	1505
282.396	1113
282.454	-1067
282.513	-762
282.572	3112
282.631	2326
282.690	124
282.749	-1460
282.808	-194
282.867	135
282.926	-799
282.985	-35
283.043	-429
283.102	-737
283.161	-237
283.220	1240
283.279	5606
283.338	1128
283.396	-783
283.455	-866
283.514	-28
283.573	193
283.631	-226
283.690	-104
283.749	-753
283.808	439
283.866	1356
283.925	-451
283.984	-927
284.043	-612
284.101	-437
284.160	-961
284.219	1292
284.277	377
284.336	285
284.395	5962
284.453	5529
284.512	861
284.570	1504
284.629	633
284.688	-98
284.746	432
284.805	1049
284.863	2000
284.922	3561
284.981	3650
285.039	5055
285.098	10403
285.156	26369
285.215	56718
285.273	56393
285.332	33228
285.390	14961
285.449	7920
285.507	5405
285.566	3496
285.624	2305
285.683	1992
285.741	1515
285.799	598
285.858	573
285.916	160
285.975	894
286.033	-582
286.091	145
286.150	56
286.208	-98
286.267	-799
286.325	-536
286.383	188
286.442	480
286.500	-613
286.558	51
286.616	-285
286.675	-352
286.733	-439
286.791	-334
286.850	-441
286.908	-178
286.966	1719
287.024	-326
287.083	-95
287.141	-866
287.199	-323
287.257	5
287.315	399
287.374	-436
287.432	1372
287.490	1423
287.548	-160
287.606	-169
287.664	-32
287.723	-80
287.781	461
287.839	76
287.897	455
287.955	1074
288.013	2494
288.071	6794
288.129	28205
288.187	93236
288.245	41717
288.303	11794
288.361	5841
288.419	3248
288.477	2509
288.535	697
288.593	339
288.651	218
288.709	-355
288.767	141
288.825	-680
288.883	-60
288.941	-805
288.999	-423
289.057	-188
289.115	-707
289.173	-617
289.231	-900
289.289	-582
289.346	-118
289.404	-343
289.462	-351
289.520	703
289.578	-114
289.636	-1623
289.694	-684
289.751	-1093
289.809	-619
289.867	-1167
289.925	-140
289.983	-532
290.040	-559
290.098	-716
290.156	-1164
290.214	214
290.271	-1470
290.329	530
290.387	-1427
290.444	-150
290.502	-973
290.560	-395
290.617	-758
290.675	-941
290.733	-790
290.790	-549
290.848	-1046
290.906	-740
290.963	-1268
291.021	-27
291.078	-707
291.136	-669
291.194	1374
291.251	7255
291.309	1149
291.366	-312
291.424	-497
291.481	-767
291.539	-797
291.596	-362
291.654	-1416
291.711	-1192
291.769	-428
291.826	72
291.884	-197
291.941	-982
291.999	-816
292.056	149
292.114	184
292.171	-872
292.228	-1260
292.286	-811
292.343	-208
292.401	1137
292.458	158
292.515	-376
292.573	469
292.630	44
292.687	-345
292.745	-614
292.802	-478
292.859	2645
292.917	5544
292.974	2241
293.031	127
293.089	-972
293.146	-1094
293.203	-1880
293.260	-1005
293.318	-642
293.375	229
293.432	86
293.489	-314
293.546	-1065
293.604	-177
293.661	2209
293.718	9446
293.775	4248
293.832	667
293.889	190
293.947	-378
294.004	-573
294.061	153
294.118	718
294.175	5387
294.232	10727
294.289	3233
294.346	880
294.403	688
294.460	847
294.517	-530
294.574	-448
294.631	-850
294.688	-671
294.745	1149
294.802	11834
294.859	16958
294.916	4365
294.973	270
295.030	699
295.087	-389
295.144	78
295.201	805
295.258	-770
295.315	-30
295.372	3620
295.429	8017
295.486	2188
295.542	546
295.599	6661
295.656	13190
295.713	6706
295.770	8777
295.827	2506
295.883	710
295.940	185
295.997	1294
296.054	600
296.111	-362
296.167	-412
296.224	-349
296.281	-29
296.338	-547
296.394	-928
296.451	-577
296.508	2721
296.564	6131
296.621	4303
296.678	7148
296.734	12640
296.791	4583
296.848	1382
296.904	409
296.961	4182
297.018	8665
297.074	6976
297.131	2287
297.187	1326
297.244	631
297.301	8140
297.357	16854
297.414	4870
297.470	818
297.527	655
297.583	-30
297.640	-177
297.696	-131
297.753	-506
297.809	-906
297.866	-1298
297.922	-786
297.979	-105
298.035	-525
298.092	202
298.148	4034
298.204	5027
298.261	734
298.317	3049
298.374	11474
298.430	5513
298.486	1492
298.543	401
298.599	169
298.656	-59
298.712	2443
298.768	9655
298.824	8613
298.881	1461
298.937	589
298.993	428
299.050	-156
299.106	19
299.162	-1163
299.218	571
299.275	-852
299.331	196
299.387	1274
299.443	7804
299.500	8153
299.556	2997
299.612	948
299.668	689
299.724	1014
299.780	391
299.837	-481
299.893	211
299.949	7597
300.005	9064
300.061	6289
300.117	13656
300.173	6639
300.229	1205
300.285	1562
300.341	3238
300.397	616
300.453	103
300.510	-268
300.566	-49
300.622	-348
300.678	1946
300.734	6028
300.790	7349
300.845	9003
300.901	5352
300.957	6520
301.013	5783
301.069	897
301.125	1053
301.181	793
301.237	949
301.293	-257
301.349	-359
301.405	-34
301.461	-412
301.516	127
301.572	679
301.628	200
301.684	1051
301.740	1811
301.796	4643
301.851	2616
301.907	5318
301.963	4500
302.019	7503
302.074	26452
302.130	27456
302.186	11438
302.242	4604
302.297	2122
302.353	1963
302.409	4759
302.464	4226
302.520	2913
302.576	9098
302.631	12040
302.687	5843
302.743	1961
302.798	51
302.854	7
302.910	598
302.965	791
303.021	2789
303.076	1650
303.132	2689
303.187	2846
303.243	2343
303.299	189
303.354	-216
303.410	384
303.465	-1204
303.521	-177
303.576	55
303.632	-364
303.687	1570
303.743	8011
303.798	7861
303.853	1791
303.909	828
303.964	232
304.020	469
304.075	2229
304.130	1449
304.186	4343
304.241	5412
304.297	3323
304.352	1042
304.358	986
304.407	527
304.449	810
304.463	907
304.518	531
304.539	253
304.573	-193
304.629	291
304.630	307
304.684	1141
304.720	3655
304.739	4881
304.794	9507
304.811	8348
304.850	5510
304.902	2021
304.905	1801
304.960	1316
304.992	1365
305.015	1373
305.071	786
305.083	779
305.126	779
305.173	203
305.181	109
305.236	-18
305.264	-211
305.292	-366
305.347	243
305.354	370
305.402	1185
305.445	1659
305.457	1767
305.512	1430
305.535	1579
305.567	1842
305.622	1341
305.626	1459
305.678	4500
305.716	10062
305.733	11888
305.788	12590
305.807	10775
305.843	7786
305.897	9681
305.898	9694
305.953	9651
305.988	6522
306.008	4936
306.063	2635
306.078	2172
306.118	1067
306.168	1002
306.173	1008
306.228	406
306.259	398
306.283	417
306.338	573
306.349	638
306.393	976
306.440	1379
306.448	1439
306.503	1482
306.530	1493
306.558	2222
306.613	6325
306.620	6917
306.668	10299
306.711	12010
306.723	11835
306.778	9095
306.801	6481
306.833	3713
306.888	1548
306.892	1438
306.943	798
306.982	1144
306.997	1317
307.052	833
307.072	867
307.107	1048
307.162	1864
307.163	1879
307.217	4416
307.253	5770
307.272	5970
307.327	6376
307.343	5738
307.381	4258
307.434	3543
307.436	3687
307.491	7792
307.524	12481
307.546	13472
307.600	11215
307.614	9866
307.655	5979
307.704	2795
307.710	2739
307.765	3633
307.795	4927
307.819	6780
307.874	13085
307.885	13502
307.929	10872
307.975	7343
307.984	7450
308.038	9870
308.065	12280
308.093	21774
308.148	45897
308.156	51436
308.202	81175
308.246	100586
308.257	97467
308.312	54386
308.336	36527
308.366	26843
308.421	15926
308.426	15025
308.475	9367
308.517	6763
308.530	6420
308.585	5425
308.607	5079
308.639	4935
308.694	5256
308.697	5333
308.748	11932
308.787	18333
308.803	18031
308.857	13276
308.877	10990
308.912	9218
308.967	7948
308.967	7935
309.021	10953
309.058	13554
309.076	17153
309.130	30106
309.148	35276
309.185	64642
309.238	115622
309.239	116040
309.293	125646
309.328	118311
309.348	102526
309.402	50880
309.418	37533
309.457	26272
309.508	14933
309.511	14607
309.566	12124
309.598	11380
309.620	13068
309.674	18530
309.688	19948
309.729	18243
309.778	14459
309.783	14102
309.837	9441
309.868	7049
309.892	8151
309.946	11810
309.959	13036
310.001	17682
310.049	21825
310.055	21060
310.109	12586
310.139	7565
310.163	5987
310.218	3611
310.229	3168
310.272	2780
310.319	2603
310.326	2522
310.381	1860
310.409	1583
310.435	1775
310.489	2256
310.499	2317
310.543	2292
310.589	2188
310.598	2139
310.652	2113
310.679	1964
310.706	1977
310.760	1949
310.769	1933
310.814	1237
310.859	646
310.868	739
310.923	1241
310.948	1449
310.977	1722
311.031	2398
311.038	2459
311.085	1957
311.128	1391
311.139	1412
311.193	1719
311.218	1803
311.247	1629
311.301	1286
311.308	1231
311.356	1523
311.398	1818
311.410	1806
311.464	1711
311.488	1637
311.518	1468
311.572	1236
311.578	1193
311.626	2077
311.668	2927
311.680	2981
311.734	3143
311.758	3197
311.788	3118
311.842	2936
311.847	2910
311.896	3702
311.937	4380
311.950	4410
312.004	4499
312.027	4507
312.058	3876
312.112	2753
312.117	2637
312.165	2248
312.207	1913
312.297	2886
312.386	2639
312.476	2316
312.566	3918
312.656	1896
312.745	1155
312.835	1988
312.925	2657
313.015	1757
313.104	2668
313.194	2269
313.284	1757
313.374	2323
313.463	1774
313.553	1649
313.643	991
313.732	1696
313.822	891
313.912	2144
314.001	1531
314.091	2209
314.180	2789
314.270	3081
314.360	3652
314.449	2840
314.539	1143
314.628	878
314.718	1810
314.808	2821
314.897	1712
314.987	2175
315.076	2717
315.166	3159
315.255	3353
315.345	3114
315.434	2544
315.524	3067
315.613	3439
315.703	3299
315.792	3793
315.881	8700
315.971	3550
316.060	5807
316.150	9588
316.239	11005
316.328	3632
316.418	1350
316.507	1855
316.597	2739
316.686	2129
316.775	4827
316.865	11981
316.954	1874
317.043	951
317.133	1772
317.222	1345
317.311	1842
317.400	920
317.490	3031
317.579	2146
317.668	2172
317.757	1991
317.847	5202
317.936	14608
318.025	6957
318.114	3769
318.203	3226
318.293	4682
318.382	8139
318.471	6491
318.560	10908
318.649	27164
318.738	5029
318.828	2377
318.917	2976
319.006	3943
319.095	13034
319.184	31656
319.273	15126
319.362	6039
319.451	2425
319.540	2701
319.629	4329
319.718	8067
319.807	4313
319.896	9095
319.985	39979
320.074	12352
320.163	3691
320.252	5996
320.341	4197
320.430	3550
320.519	4291
320.608	2208
320.697	1995
320.786	2428
320.875	2513
320.964	3495
321.053	5306
321.142	6765
321.230	7620
321.319	6236
321.408	14196
321.497	5742
321.586	5937
321.675	10003
321.764	9419
321.852	5601
321.941	8557
322.030	5346
322.119	5239
322.207	16416
322.296	15466
322.385	6056
322.474	6522
322.562	17872
322.651	9034
322.740	5998
322.829	10872
322.917	13989
323.006	6167
323.095	4163
323.183	4378
323.272	6221
323.361	14434
323.449	50901
323.538	14848
323.626	32720
323.715	20184
323.804	7727
323.892	30243
323.981	13862
324.069	5257
324.158	17332
324.246	15833
324.335	4098
324.424	5503
324.512	2961
324.601	2525
324.689	4755
324.778	10031
324.866	9296
324.954	2198
325.043	1514
325.131	5862
325.220	12341
325.308	14454
325.397	9274
325.485	5860
325.574	899
325.662	1472
325.750	1660
325.839	1310
325.927	1495
326.015	1631
326.104	4204
326.192	6510
326.280	924
326.369	1332
326.457	2035
326.545	4470
326.634	1507
326.722	1831
326.810	962
326.898	1512
326.987	1364
327.075	3189
327.163	5324
327.251	2991
327.340	3743
327.428	4412
327.516	1408
327.604	1207
327.692	1127
327.781	2520
327.869	5096
327.957	3306
328.045	2099
328.133	2318
328.221	1566
328.309	1739
328.397	1174
328.485	2065
328.574	2216
328.662	9367
328.750	5691
328.838	3026
328.926	1572
329.014	1216
329.102	2173
329.190	6004
329.278	3979
329.366	1973
329.454	1400
329.542	983
329.630	790
329.718	1587
329.806	1314
329.893	1736
329.981	810
330.069	1055
330.157	1657
330.245	5269
330.333	3275
330.421	1952
330.509	1752
330.597	11378
330.684	6863
330.772	3941
330.860	4612
330.948	6140
331.036	1902
331.123	1673
331.211	1286
331.299	937
331.387	4961
331.475	9051
331.562	3078
331.650	1794
331.738	1852
331.825	3219
331.913	550
332.001	1510
332.089	1312
332.176	4684
332.264	14763
332.352	10670
332.439	2188
332.527	1812
332.614	1428
332.702	2652
332.790	1477
332.877	5416
332.965	14308
333.052	3394
333.140	2423
333.228	7792
333.315	1619
333.403	2018
333.490	7494
333.578	7012
333.665	8228
333.753	3620
333.840	1819
333.928	3201
334.015	8880
334.103	13451
334.190	44314
334.278	9987
334.365	3437
334.452	2074
334.540	1269
334.627	2397
334.715	4356
334.802	8371
334.889	57419
334.977	58078
335.064	5260
335.151	1961
335.239	2230
335.326	4036
335.413	20951
335.501	28538
335.588	3185
335.675	2023
335.762	2896
335.850	5106
335.937	3585
336.024	10939
336.111	59464
336.199	20842
336.286	2747
336.373	1919
336.460	701
336.547	841
336.635	2383
336.722	1651
336.809	1861
336.896	3503
336.983	10546
337.070	28805
337.157	45023
337.245	38695
337.332	27471
337.419	3041
337.506	1754
337.593	2583
337.680	7967
337.767	29446
337.854	6985
337.941	8066
338.028	11533
338.115	3578
338.202	3691
338.289	8798
338.376	37894
338.463	10331
338.550	16031
338.637	18775
338.724	6771
338.811	11455
338.898	2452
338.984	1327
339.071	1441
339.158	2648
339.245	5829
339.332	3585
339.419	7282
339.506	7151
339.593	417
339.679	1775
339.766	-289
339.853	2216
339.940	3924
340.027	1088
340.113	1366
340.200	1886
340.287	1427
340.374	1745
340.460	4356
340.547	942
340.634	2815
340.720	10959
340.807	6408
340.894	1589
340.980	1387
341.067	791
341.154	1849
341.240	2607
341.327	5037
341.414	2557
341.500	2161
341.587	1746
341.674	1301
341.760	3884
341.847	3386
341.933	1498
342.020	-149
342.106	1027
342.193	658
342.279	3588
342.366	1691
342.452	3284
342.539	1815
342.625	4014
342.712	11589
342.798	4667
342.885	1521
342.971	196
343.058	469
343.144	337
343.230	545
343.317	1287
343.403	997
343.490	734
343.576	51
343.662	1274
343.749	1381
343.835	2216
343.921	3346
344.008	22022
344.094	54915
344.180	11338
344.267	3221
344.353	15421
344.439	17184
344.525	6832
344.612	4248
344.698	4333
344.784	2140
344.870	1214
344.957	895
345.043	2919
345.129	904
345.215	3151
345.301	1935
345.387	1522
345.474	483
345.560	954
345.646	2030
345.732	1320
345.818	1351
345.904	1120
345.990	1662
346.076	1763
346.162	4666
346.249	2099
346.335	919
346.421	1364
346.507	5192
346.593	22894
346.679	4465
346.765	1499
346.851	783
346.937	916
347.023	1981
347.108	1655
347.194	1649
347.280	1101
347.366	1981
347.452	4996
347.538	25293
347.624	18508
347.710	15320
347.796	2607
347.882	1451
347.967	931
348.053	1801
348.139	1976
348.225	407
348.311	887
348.397	348
348.482	2000
348.568	962
348.654	732
348.740	728
348.825	82
348.911	2927
348.997	10581
349.083	25176
349.168	3459
349.254	1507
349.340	1186
349.425	371
349.511	1542
349.597	969
349.682	3141
349.768	14336
349.854	6164
349.939	1381
350.025	1394
350.110	1507
350.196	1241
350.282	25
350.367	1420
350.453	3648
350.538	2693
350.624	1105
350.709	1923
350.795	394
350.880	714
350.966	1665
351.051	3195
351.137	1741
351.222	1917
351.308	3141
351.393	11112
351.479	2232
351.564	709
351.649	607
351.735	970
351.820	547
351.906	655
351.991	1556
352.076	7317
352.162	11798
352.247	1742
352.332	1550
352.418	2871
352.503	3618
352.588	15794
352.673	12640
352.759	2928
352.844	487
352.929	1842
353.014	1520
353.100	1333
353.185	1019
353.270	2830
353.355	4122
353.441	1351
353.526	1244
353.611	3863
353.696	3515
353.781	3049
353.866	253
353.952	1529
354.037	2496
354.122	7967
354.207	6634
354.292	2922
354.377	293
354.462	1069
354.547	1588
354.632	2085
354.717	1684
354.802	1521
354.887	835
354.972	353
355.057	548
355.142	-73
355.227	1354
355.312	1925
355.397	3949
355.482	12154
355.567	4955
355.652	5200
355.737	4063
355.822	16861
355.907	13964
355.991	2333
356.076	162
356.161	1597
356.246	-327
356.331	1240
356.416	2863
356.501	30681
356.585	31748
356.670	2872
356.755	3207
356.840	2462
356.924	14730
357.009	69815
357.094	24844
357.179	3676
357.263	2491
357.348	3809
357.433	2689
357.517	2300
357.602	1758
357.687	2045
357.771	2821
357.856	10677
357.941	6162
358.025	12316
358.110	64171
358.195	28969
358.279	2979
358.364	2103
358.448	9311
358.533	30084
358.617	19845
358.702	21223
358.787	7233
358.871	2507
358.956	3137
359.040	353
359.125	801
359.209	1514
359.294	5214
359.378	8414
359.462	2730
359.547	1911
359.631	1338
359.716	404
359.800	656
359.885	2866
359.969	537
360.053	1618
360.138	1344
360.222	1277
360.306	3299
360.391	2700
360.475	5099
360.559	12391
360.644	9986
360.728	7081
360.812	14341
360.896	46269
360.981	16299
361.065	7888
361.149	2738
361.233	1964
361.318	893
361.402	1900
361.486	1933
361.570	787
361.654	680
361.739	3899
361.823	26672
361.907	46855
361.991	7207
362.075	2601
362.159	5588
362.243	5607
362.327	2491
362.411	6307
362.495	2931
362.580	1845
362.664	589
362.748	784
362.832	1631
362.916	830
363.000	7850
363.084	28290
363.168	52294
363.252	11229
363.336	3020
363.420	5695
363.503	26847
363.587	34567
363.671	4414
363.755	1978
363.839	4729
363.923	1526
364.007	3574
364.091	4869
364.175	7221
364.258	46068
364.342	24353
364.426	15565
364.510	7273
364.594	5214
364.677	7233
364.761	37772
364.845	28237
364.929	6180
365.013	4683
365.096	4088
365.180	5337
365.264	10864
365.347	48917
365.431	19940
365.515	2940
365.598	888
365.682	2027
365.766	2973
365.849	4387
365.933	1691
366.017	4044
366.100	2479
366.184	735
366.267	1709
366.351	752
366.435	72
366.518	287
366.602	806
366.685	1242
366.769	618
366.852	2640
366.936	5332
367.019	1852
367.103	1466
367.186	5656
367.270	906
367.353	-209
367.436	1522
367.520	100
367.603	1450
367.687	1208
367.770	3405
367.853	2714
367.937	9743
368.020	17487
368.104	2972
368.187	3494
368.270	4500
368.353	3205
368.437	7093
368.520	24263
368.603	11756
368.687	10593
368.770	23295
368.853	4735
368.936	5093
369.020	5767
369.103	1609
369.186	158
369.269	471
369.352	2051
369.436	4026
369.519	2623
369.602	-624
369.685	1433
369.768	688
369.851	915
369.934	3
370.018	106
370.101	1830
370.184	4500
370.267	1874
370.350	2974
370.433	5710
370.516	16877
370.599	22589
370.682	3672
370.765	10249
370.848	12923
370.931	29157
371.014	11616
371.097	1231
371.180	1765
371.263	1079
371.346	-953
371.429	890
371.511	154
371.594	1428
371.677	4306
371.760	5305
371.843	2663
371.926	18688
372.009	46396
372.091	15685
372.174	9591
372.257	28485
372.340	9478
372.423	6812
372.505	9971
372.588	3341
372.671	7419
372.754	27080
372.836	13884
372.919	11351
373.002	26007
373.085	6090
373.167	2835
373.250	9062
373.332	24584
373.415	32204
373.498	72959
373.580	25040
373.663	28050
373.746	41333
373.828	7976
373.911	4253
373.993	4388
374.076	24318
374.159	23720
374.241	7540
374.324	22099
374.406	14956
374.489	17282
374.571	58980
374.654	23410
374.736	9291
374.819	35714
374.901	53777
374.983	56149
375.066	8956
375.148	2747
375.231	18776
375.313	40240
375.395	11413
375.478	1419
375.560	1483
375.643	1437
375.725	8850
375.807	49410
375.890	44837
375.972	20340
376.054	10181
376.136	19504
376.219	7361
376.301	12139
376.383	43702
376.465	15659
376.548	6796
376.630	9441
376.712	34464
376.794	16311
376.877	881
376.959	347
377.041	1866
377.123	3407
377.205	5555
377.287	624
377.369	964
377.452	467
377.534	-88
377.616	902
377.698	163
377.780	-203
377.862	390
377.944	890
378.026	-6
378.108	485
378.190	43
378.272	935
378.354	278
378.436	-180
378.518	1310
378.600	7918
378.682	7105
378.764	14102
378.846	11356
378.928	2123
379.010	2819
379.091	2519
379.173	1082
379.255	-199
379.337	827
379.419	5649
379.501	22751
379.583	9632
379.664	1617
379.746	3410
379.828	13966
379.910	18854
379.991	18900
380.073	2008
380.155	1078
380.237	656
380.318	854
380.400	657
380.482	2356
380.564	4017
380.645	3069
380.727	3337
380.809	2458
380.890	694
380.972	844
381.053	675
381.135	2225
381.217	3958
381.298	14695
381.380	6720
381.461	6055
381.543	33152
381.624	44259
381.706	6370
381.787	3209
381.869	3573
381.951	11873
382.032	54477
382.113	36049
382.195	4616
382.276	4985
382.358	8064
382.439	28159
382.521	33220
382.602	56254
382.684	22520
382.765	42624
382.846	43440
382.928	62078
383.009	32677
383.090	19263
383.172	85920
383.253	143904
383.334	46288
383.416	48732
383.497	26454
383.578	8086
383.659	16469
383.741	72128
383.822	212911
383.903	108519
383.984	30650
384.066	57395
384.147	35246
384.228	7306
384.309	3468
384.390	2037
384.471	1654
384.553	2551
384.634	3563
384.715	3687
384.796	1460
384.877	2908
384.958	13477
385.039	15954
385.120	4242
385.201	3185
385.282	3217
385.363	4053
385.444	2338
385.525	5313
385.606	21412
385.687	21165
385.768	4139
385.849	3661
385.930	22096
386.011	41293
386.092	9630
386.173	1928
386.254	2073
386.335	2704
386.416	1833
386.496	7590
386.577	14660
386.658	5366
386.739	1849
386.820	3525
386.901	1819
386.981	2265
387.062	982
387.143	2444
387.224	13410
387.304	14077
387.385	4674
387.466	2148
387.547	4025
387.627	384
387.708	4578
387.789	26013
387.869	33706
387.950	9495
388.031	827
388.111	-255
388.192	6080
388.273	9914
388.353	4263
388.434	2858
388.514	3580
388.595	25492
388.676	33292
388.756	14867
388.837	12890
388.917	7700
388.998	-76
389.078	2328
389.159	1323
389.239	267
389.320	3069
389.400	999
389.480	4859
389.561	15927
389.641	8323
389.722	2864
389.802	2983
389.883	6056
389.963	20706
390.043	13504
390.124	3053
390.204	5047
390.284	16957
390.365	10186
390.445	16881
390.525	51204
390.605	43165
390.686	8717
390.766	2966
390.846	2005
390.927	-24
391.007	448
391.087	1594
391.167	1891
391.247	-261
391.328	3303
391.408	5263
391.488	3646
391.568	-899
391.648	1402
391.728	2279
391.808	2420
391.888	2846
391.969	7808
392.049	12938
392.129	6110
392.209	6111
392.289	18860
392.369	9712
392.449	9509
392.529	5135
392.609	3433
392.689	4056
392.769	17185
392.849	15664
392.929	10428
393.009	24814
393.089	18330
393.169	9749
393.248	37238
393.328	201959
393.408	237168
393.488	47744
393.568	10656
393.648	4857
393.728	3164
393.807	1879
393.887	3421
393.967	2060
394.047	4763
394.127	5529
394.206	10435
394.286	41308
394.366	183838
394.446	204248
394.525	50279
394.605	11688
394.685	7709
394.764	15410
394.844	25753
394.924	17978
395.003	4205
395.083	3142
395.163	2590
395.242	1689
395.322	2486
395.402	1310
395.481	4699
395.561	8762
395.640	27229
395.720	20189
395.799	33067
395.879	29009
395.958	17566
396.038	64412
396.117	241130
396.197	267850
396.276	84802
396.356	24821
396.435	14966
396.515	8614
396.594	7182
396.673	12462
396.753	49030
396.832	197406
396.912	147099
396.991	27747
397.070	6843
397.150	1965
397.229	3317
397.308	2603
397.388	4188
397.467	3157
397.546	878
397.625	-289
397.705	2646
397.784	2380
397.863	462
397.942	675
398.022	1009
398.101	7454
398.180	28249
398.259	13737
398.338	2836
398.417	1095
398.497	-37
398.576	693
398.655	-492
398.734	690
398.813	1304
398.892	7131
398.971	31199
399.050	14495
399.129	174
399.208	251
399.287	1322
399.366	-636
399.445	938
399.524	231
399.603	-478
399.682	1402
399.761	6450
399.840	32391
399.919	27003
399.998	3169
400.077	-701
400.156	-1213
400.235	2675
400.313	-66
400.392	602
400.471	6700
400.550	12244
400.629	2082
400.708	1192
400.786	840
400.865	4588
400.944	4749
401.023	3306
401.102	-475
401.180	-204
401.259	-198
401.338	167
401.416	1309
401.495	246
401.574	1062
401.652	184
401.731	1594
401.810	485
401.888	-637
401.967	-503
402.046	-106
402.124	368
402.203	-70
402.281	503
402.360	855
402.438	6237
402.517	3707
402.596	661
402.674	304
402.753	137
402.831	574
402.910	680
402.988	521
403.066	6387
403.145	4270
403.223	2675
403.302	3816
403.380	3508
403.459	3167
403.537	1200
403.615	402
403.694	-1110
403.772	-140
403.850	-866
403.929	-802
404.007	6
404.085	830
404.164	392
404.242	527
404.320	5623
404.398	18682
404.477	20725
404.555	46522
404.633	43041
404.711	16801
404.789	9426
404.868	1179
404.946	-749
405.024	-234
405.102	-259
405.180	-661
405.258	-1325
405.336	-171
405.415	-842
405.493	1219
405.571	1063
405.649	-173
405.727	-857
405.805	723
405.883	-83
405.961	470
406.039	814
406.117	-1485
406.195	909
406.273	7262
406.351	36516
406.429	22941
406.507	2253
406.585	-295
406.663	-205
406.740	789
406.818	825
406.896	-751
406.974	532
407.052	395
407.130	19146
407.208	29583
407.285	5309
407.363	-554
407.441	-175
407.519	-329
407.596	159
407.674	1174
407.752	10610
407.830	10841
407.907	3388
407.985	-1209
408.063	-78
408.141	-1099
408.218	1708
408.296	92
408.373	-253
408.451	-51
408.529	179
408.606	-291
408.684	-492
408.762	-847
408.839	-988
408.917	-632
408.994	-299
409.072	-799
409.149	-371
409.227	213
409.304	250
409.382	284
409.459	-1046
409.537	-85
409.614	199
409.692	-580
409.769	-156
409.846	-194
409.924	1282
410.001	-1267
410.079	187
410.156	672
410.233	4
410.311	-545
410.388	-448
410.465	-349
410.543	-704
410.620	-143
410.697	73
410.775	-870
410.852	-1308
410.929	349
411.006	782
411.083	-934
411.161	402
411.238	1988
411.315	70
411.392	-253
411.469	358
411.547	742
411.624	-1659
411.701	-1218
411.778	338
411.855	1031
411.932	-696
412.009	-645
412.086	307
412.163	344
412.240	498
412.317	500
412.394	-41
412.471	-1193
412.548	-260
412.625	-1119
412.702	619
412.779	1731
412.856	330
412.933	-1003
413.010	-87
413.087	662
413.164	5585
413.241	8535
413.318	461
413.395	625
413.471	639
413.548	255
413.625	229
413.702	-440
413.779	-37
413.855	-1035
413.932	-1002
414.009	-1366
414.086	-666
414.162	-124
414.239	1033
414.316	4623
414.393	14615
414.469	3236
414.546	-326
414.623	-957
414.699	-833
414.776	-655
414.853	-483
414.929	-1139
415.006	-744
415.082	19
415.159	-779
415.236	-147
415.312	237
415.389	468
415.465	687
415.542	-473
415.618	-1579
415.695	500
415.771	-844
415.848	-321
415.924	-358
416.000	-1044
416.077	168
416.153	-1652
416.230	-1710
416.306	-1137
416.383	-1122
416.459	-338
416.535	-1115
416.612	-673
416.688	-1546
416.764	-1067
416.841	-939
416.917	-1066
416.993	-721
417.069	-382
417.146	531
417.222	723
417.298	146
417.374	-1250
417.451	-240
417.527	-485
417.603	-159
417.679	-997
417.755	-202
417.831	-2003
417.908	-561
417.984	-1316
418.060	-1177
418.136	747
418.212	1075
418.288	-130
418.364	-127
418.440	-1519
418.516	63
418.592	-33
418.668	1715
418.744	2910
418.820	3156
418.896	63
418.972	-1479
419.048	-922
419.124	1494
419.200	-846
419.276	70
419.352	-994
419.428	-750
419.504	-1147
419.579	-385
419.655	-807
419.731	-559
419.807	1487
419.883	3066
419.959	2462
420.034	145
420.110	1407
420.186	7668
420.262	6601
420.337	391
420.413	-474
420.489	-334
420.565	51
420.640	-1140
420.716	-667
420.792	-1780
420.867	-150
420.943	-759
421.019	-803
421.094	-521
421.170	-1104
421.245	-1122
421.321	-454
421.397	-539
421.472	335
421.548	3858
421.623	2148
421.699	393
421.774	98
421.850	-1167
421.925	-25
422.001	-353
422.076	295
422.152	-888
422.227	231
422.302	1755
422.378	1768
422.453	4524
422.529	15755
422.604	64373
422.679	135878
422.755	77488
422.830	18122
422.905	6250
422.981	2512
423.056	932
423.131	364
423.207	961
423.282	542
423.357	1021
423.432	735
423.508	750
423.583	2889
423.658	2208
423.733	-215
423.808	-472
423.883	385
423.959	153
424.034	-1201
424.109	164
424.184	-545
424.259	-560
424.334	97
424.409	-1692
424.484	-1310
424.559	81
424.634	-1263
424.709	-255
424.784	-107
424.859	-1092
424.934	-285
425.009	4852
425.084	8673
425.159	2377
425.234	-187
425.309	-1270
425.384	1054
425.459	2642
425.534	568
425.609	-723
425.683	-874
425.758	-446
425.833	-917
425.908	162
425.983	1364
426.058	9810
426.132	3055
426.207	155
426.282	1722
426.357	386
426.431	-791
426.506	56
426.581	-697
426.655	120
426.730	-1562
426.805	-1265
426.879	218
426.954	-874
427.029	514
427.103	9902
427.178	29029
427.253	12698
427.327	543
427.402	253
427.476	4923
427.551	1053
427.625	147
427.700	252
427.774	-836
427.849	-158
427.923	-1753
427.998	-1082
428.072	-1575
428.147	1187
428.221	4900
428.296	19392
428.370	9621
428.444	1187
428.519	969
428.593	3695
428.667	3092
428.742	4955
428.816	3516
428.890	12809
428.965	22354
429.039	7203
429.113	5312
429.188	1517
429.262	-635
429.336	788
429.410	3538
429.485	2802
429.559	3950
429.633	3159
429.707	6
429.781	2003
429.855	15499
429.930	23562
430.004	14403
430.078	26228
430.152	22054
430.226	29577
430.300	32148
430.374	4059
430.448	878
430.522	8040
430.596	26822
430.670	15502
430.744	24684
430.818	41152
430.892	7857
430.966	-155
431.040	-640
431.114	-1752
431.188	-1083
431.262	-630
431.336	-777
431.410	2384
431.484	5375
431.557	3759
431.631	-297
431.705	-482
431.779	1059
431.853	15631
431.927	11139
432.000	516
432.074	-558
432.148	111
432.222	-282
432.295	263
432.369	-945
432.443	273
432.516	9992
432.590	30374
432.664	11535
432.737	-68
432.811	-667
432.885	-769
432.958	686
433.032	-1028
433.106	-830
433.179	-653
433.253	-744
433.326	-1656
433.400	-1075
433.473	-607
433.547	-1710
433.620	-364
433.694	-70
433.767	379
433.841	-1433
433.914	-1164
433.988	-1561
434.061	-598
434.134	-958
434.208	-1064
434.281	-1437
434.355	-677
434.428	-298
434.501	-913
434.575	-865
434.648	-766
434.721	-858
434.795	-1018
434.868	-1275
434.941	-1539
435.014	-1585
435.088	-920
435.161	-673
435.234	368
435.307	276
435.381	-758
435.454	-996
435.527	187
435.600	-1025
435.673	-352
435.746	-705
435.819	-752
435.892	-970
435.966	-770
436.039	-1347
436.112	-285
436.185	-1571
436.258	-1061
436.331	-1396
436.404	-1048
436.477	-1136
436.550	-264
436.623	-1124
436.696	-1134
436.769	-1405
436.842	-592
436.915	-209
436.987	-558
437.060	-705
437.133	-974
437.206	-762
437.279	-191
437.352	-1145
437.425	-630
437.498	-639
437.570	762
437.643	86
437.716	44
437.789	-302
437.861	-505
437.934	2024
438.007	834
438.080	-1324
438.152	-1109
438.225	633
438.298	13949
438.370	45804
438.443	18253
438.516	2144
438.588	-746
438.661	-1536
438.734	-576
438.806	-735
438.879	-175
438.951	-212
439.024	553
439.096	-1257
439.169	-168
439.241	-989
439.314	-432
439.386	-763
439.459	392
439.531	1191
439.604	-673
439.676	-476
439.749	-1304
439.821	-1226
439.893	-648
439.966	-526
440.038	-343
440.110	-2
440.183	-537
440.255	-948
440.327	195
440.400	4044
440.472	26092
440.544	17023
440.617	903
440.689	487
440.761	1369
440.833	1525
440.905	576
440.978	-1316
441.050	-146
441.122	404
441.194	-1783
441.266	-1195
441.338	-934
441.411	-52
441.483	6061
441.555	9533
441.627	1260
441.699	1269
441.771	722
441.843	-1126
441.915	-642
441.987	-1562
442.059	-827
442.131	-597
442.203	-186
442.275	-382
442.347	83
442.419	321
442.491	5164
442.563	15254
442.635	6732
442.706	5661
442.778	4648
442.850	248
442.922	-93
442.994	-674
443.066	407
443.137	-350
443.209	-1011
443.281	-387
443.353	1616
443.425	8273
443.496	31458
443.568	30033
443.640	9226
443.711	1310
443.783	-7
443.855	-670
443.926	-1497
443.998	-638
444.070	267
444.141	470
444.213	302
444.285	570
444.356	-281
444.428	1619
444.499	-97
444.571	-813
444.642	-1138
444.714	-676
444.785	496
444.857	369
444.928	4147
445.000	2181
445.071	3104
445.143	2894
445.214	542
445.285	1591
445.357	8931
445.428	23371
445.500	59024
445.571	35730
445.642	15028
445.714	6230
445.785	7933
445.856	226
445.928	650
445.999	272
446.070	458
446.141	-179
446.213	394
446.284	-392
446.355	616
446.426	-938
446.497	-136
446.569	1218
446.640	1422
446.711	628
446.782	-396
446.853	332
446.924	234
446.995	-994
447.066	36
447.138	982
447.209	374
447.280	-807
447.351	-194
447.422	-35
447.493	145
447.564	-590
447.635	37
447.706	-628
447.777	-795
447.847	-351
447.918	-1218
447.989	-295
448.060	351
448.131	3165
448.202	2355
448.273	659
448.344	571
448.414	289
448.485	-987
448.556	-195
448.627	-681
448.698	31
448.768	-1079
448.839	-1158
448.910	691
448.981	630
449.051	-355
449.122	-999
449.193	-969
449.263	-1010
449.334	-520
449.405	-469
449.475	1805
449.546	959
449.616	1111
449.687	1528
449.758	107
449.828	-817
449.899	-821
449.969	-1501
450.040	-1321
450.110	-387
450.181	81
450.251	-745
450.322	-311
450.392	8
450.463	43
450.533	-918
450.604	-382
450.674	-473
450.744	-796
450.815	-330
450.885	128
450.955	107
451.026	-384
451.096	-1216
451.166	459
451.237	1018
451.307	5179
451.377	1897
451.447	-756
451.518	17
451.588	-821
451.658	217
451.728	875
451.799	5569
451.869	7551
451.939	1200
452.009	-63
452.079	-602
452.149	-9
452.219	951
452.289	7777
452.360	5329
452.430	206
452.500	420
452.570	791
452.640	1699
452.710	3403
452.780	7287
452.850	3358
452.920	2597
452.990	1095
453.060	301
453.129	625
453.199	1100
453.269	7427
453.339	18430
453.409	29487
453.479	27114
453.549	41883
453.619	44808
453.688	18218
453.758	1821
453.828	576
453.898	163
453.968	326
454.037	-52
454.087	211
454.107	311
454.168	-643
454.177	-797
454.247	209
454.249	153
454.316	-1508
454.330	-1059
454.386	607
454.411	1336
454.456	2379
454.492	3756
454.525	4996
454.574	2174
454.595	949
454.655	-68
454.665	-224
454.734	231
454.736	269
454.804	724
454.817	1878
454.873	6214
454.898	6854
454.943	7918
454.979	5228
455.013	2864
455.060	1824
455.082	1467
455.141	1387
455.152	1371
455.221	5488
455.222	5610
455.291	11395
455.303	11752
455.360	12448
455.384	17455
455.430	24908
455.465	18759
455.499	13263
455.546	8700
455.569	6599
455.627	4606
455.638	4295
455.707	256
455.708	265
455.777	-319
455.789	-211
455.846	129
455.869	160
455.916	372
455.950	435
455.985	347
456.031	427
456.054	518
456.112	747
456.124	784
456.193	617
456.193	607
456.262	515
456.274	673
456.332	1412
456.355	1291
456.401	928
456.436	927
456.470	843
456.516	131
456.540	-108
456.597	-348
456.609	-454
456.678	-115
456.678	-119
456.747	-392
456.759	-321
456.817	117
456.840	97
456.886	-137
456.920	-2
456.955	238
457.001	185
457.024	185
457.082	545
457.093	593
457.162	871
457.163	887
457.232	1299
457.243	1237
457.301	983
457.324	525
457.370	-254
457.405	258
457.439	751
457.485	558
457.508	482
457.566	975
457.577	1086
457.646	1274
457.647	1287
457.715	1891
457.727	1879
457.784	1970
457.808	2303
457.853	2599
457.889	2900
457.922	3025
457.969	2360
457.991	2286
458.050	2342
458.060	2366
458.129	3449
458.130	3514
458.198	4453
458.211	4056
458.267	2393
458.292	1654
458.336	914
458.372	1081
458.405	1507
458.453	1678
458.474	1976
458.533	4164
458.543	4390
458.611	7057
458.614	7106
458.680	4794
458.694	3832
458.749	1950
458.775	1515
458.818	822
458.855	815
458.887	902
458.936	1323
458.955	1436
459.016	513
459.024	399
459.093	1030
459.097	1029
459.162	1016
459.177	1110
459.230	1357
459.257	1181
459.299	1044
459.338	1330
459.368	1368
459.418	1339
459.437	1432
459.499	1948
459.505	1926
459.574	1407
459.579	1366
459.643	1235
459.659	1163
459.711	818
459.740	832
459.780	1128
459.820	1239
459.849	1151
459.900	1471
459.917	1651
459.981	1610
459.986	1548
460.054	1679
460.061	1620
460.123	1727
460.141	1864
460.191	2121
460.222	2064
460.260	2288
460.302	2851
460.328	2644
460.382	2086
460.397	2129
460.462	2181
460.465	2206
460.534	3085
460.543	3223
460.602	8262
460.623	10278
460.671	15932
460.703	21336
460.739	19758
460.783	15892
460.808	13987
460.864	4492
460.876	3559
460.944	1634
460.945	1611
461.013	1761
461.024	1710
461.081	1425
461.104	1562
461.150	1886
461.184	1658
461.218	1403
461.264	1412
461.286	1381
461.345	829
461.355	848
461.423	2039
461.425	2047
461.491	1937
461.505	1974
461.559	3704
461.585	4488
461.628	6692
461.665	9272
461.696	10298
461.745	12723
461.764	11319
461.825	3675
461.832	3580
461.901	2484
461.905	2497
461.969	1585
461.985	1424
462.037	2025
462.065	2276
462.105	2046
462.145	2115
462.173	3356
462.225	5322
462.241	5666
462.305	7929
462.310	7746
462.378	4698
462.385	4128
462.446	2130
462.465	1824
462.514	1846
462.545	2041
462.582	2064
462.625	1962
462.650	1890
462.705	1830
462.718	1909
462.785	2075
462.786	2089
462.854	3094
462.865	3215
462.922	3327
462.945	3679
462.990	3267
463.025	2370
463.058	2325
463.104	2365
463.126	2072
463.184	1209
463.194	1274
463.262	1920
463.264	1946
463.330	2383
463.344	2437
463.398	2687
463.424	2839
463.466	2363
463.504	1932
463.533	2230
463.583	2776
463.601	2817
463.663	2600
463.669	2624
463.737	3245
463.743	3299
463.805	5604
463.823	6236
463.873	9757
463.903	12205
463.940	12561
463.982	13031
464.008	10728
464.062	4742
464.076	4433
464.142	2716
464.144	2690
464.211	2206
464.221	2161
464.279	1923
464.301	1800
464.347	2137
464.381	2431
464.414	3041
464.461	3998
464.482	3982
464.540	3864
464.550	3794
464.617	3047
464.620	3028
464.685	3747
464.699	3825
464.753	4812
464.779	5381
464.820	5886
464.859	6471
464.888	6477
464.938	6229
464.956	6357
465.018	6705
465.023	6624
465.091	5558
465.098	5446
465.158	4663
465.177	4385
465.226	4454
465.257	4549
465.293	4797
465.336	5025
465.361	5235
465.416	5566
465.428	5789
465.495	7325
465.496	7372
465.563	12941
465.575	13957
465.631	15911
465.654	16870
465.698	11456
465.734	6345
465.765	5466
465.813	4101
465.833	4164
465.893	4866
465.900	4777
465.968	3890
465.972	3819
466.035	3876
466.052	3876
466.102	3400
466.131	3153
466.170	3554
466.210	3977
466.237	4142
466.290	4425
466.304	4433
466.369	4419
466.372	4437
466.439	4859
466.449	4885
466.506	4889
466.528	4903
466.573	6953
466.607	8476
466.641	12345
466.687	17766
466.708	19444
466.766	24059
466.775	22168
466.842	7577
466.845	6870
466.909	4640
466.925	4151
466.977	5174
467.004	5727
467.044	5683
467.083	5645
467.111	6877
467.163	9156
467.178	9247
467.242	9562
467.245	9505
467.312	8023
467.321	7816
467.379	7583
467.400	7482
467.446	8518
467.480	9247
467.559	8673
467.638	6630
467.717	6130
467.796	7677
467.875	7367
467.955	7833
468.034	11055
468.113	23153
468.192	32108
468.271	8885
468.350	6572
468.429	6482
468.508	6048
468.588	6790
468.667	6376
468.746	7907
468.825	5618
468.904	5428
468.983	6861
469.062	9780
469.141	11609
469.220	6277
469.299	6516
469.378	6054
469.456	9543
469.535	8248
469.614	6769
469.693	7221
469.772	9188
469.851	11490
469.930	8039
470.009	6766
470.088	5023
470.166	6744
470.245	7869
470.324	8796
470.403	7366
470.482	6477
470.560	5552
470.639	5202
470.718	6854
470.797	5986
470.875	6271
470.954	9592
471.033	10746
471.111	5659
471.190	5032
471.269	5914
471.347	5791
471.426	5186
471.505	7778
471.583	8217
471.662	6834
471.740	6508
471.819	5469
471.898	6651
471.976	6301
472.055	5183
472.133	6428
472.212	8992
472.290	8036
472.369	6312
472.447	5397
472.526	5486
472.604	5735
472.683	5674
472.761	5140
472.839	4876
472.918	5720
472.996	5948
473.075	6154
473.153	6430
473.231	3984
473.310	5816
473.388	5620
473.466	5578
473.545	6528
473.623	6747
473.701	5323
473.780	5582
473.858	4365
473.936	6843
474.014	6503
474.093	6844
474.171	8105
474.249	11080
474.327	6833
474.405	4355
474.484	5222
474.562	4309
474.640	4942
474.718	5006
474.796	4756
474.874	4560
474.952	3804
475.030	4416
475.108	3816
475.187	4836
475.265	4418
475.343	4475
475.421	5713
475.499	5104
475.577	6060
475.655	7070
475.733	10779
475.811	19217
475.889	17430
475.966	11413
476.044	5423
476.122	5002
476.200	4868
476.278	5346
476.356	4541
476.434	5186
476.512	4381
476.590	4942
476.667	5786
476.745	4162
476.823	4596
476.901	4080
476.979	4724
477.056	4971
477.134	5535
477.212	5426
477.290	4631
477.367	4063
477.445	5275
477.523	3935
477.601	3926
477.678	4360
477.756	4822
477.834	5992
477.911	3279
477.989	4005
478.066	4137
478.144	4412
478.222	3809
478.299	4513
478.377	4638
478.454	3585
478.532	3748
478.609	3764
478.687	4542
478.764	3961
478.842	3971
478.919	3958
478.997	4428
479.074	3682
479.152	3883
479.229	5636
479.307	3567
479.384	3943
479.461	3763
479.539	4172
479.616	5319
479.694	3549
479.771	4941
479.848	4361
479.926	5000
480.003	7148
480.080	3986
480.157	4106
480.235	3461
480.312	4214
480.389	3653
480.467	7051
480.544	7649
480.621	4670
480.698	3491
480.775	4785
480.853	4729
480.930	3662
481.007	4001
481.084	5214
481.161	5215
481.238	4987
481.315	3140
481.392	3640
481.470	3589
481.547	4406
481.624	3503
481.701	2831
481.778	3271
481.855	4308
481.932	6177
482.009	10952
482.086	6153
482.163	3980
482.240	3287
482.317	4895
482.393	4412
482.470	4010
482.547	2913
482.624	3629
482.701	2316
482.778	3387
482.855	2111
482.932	3120
483.009	2994
483.085	3709
483.162	3934
483.239	4214
483.316	2787
483.393	3462
483.469	2873
483.546	4027
483.623	3986
483.699	3097
483.776	3721
483.853	4353
483.930	5853
484.006	15724
484.083	28966
484.160	18971
484.236	31012
484.313	22581
484.389	16050
484.466	15706
484.543	12788
484.619	12658
484.696	14941
484.772	14274
484.849	15044
484.925	13036
485.002	12496
485.078	13528
485.155	12723
485.231	12284
485.308	11738
485.384	12322
485.461	13372
485.537	20531
485.614	23284
485.690	12049
485.766	11557
485.843	11814
485.919	11738
485.995	12499
486.072	10579
486.148	9946
486.224	10111
486.301	11566
486.377	10879
486.453	12116
486.530	13324
486.606	18537
486.682	17988
486.758	19326
486.835	20873
486.911	16370
486.987	25214
487.063	20861
487.139	21076
487.215	17059
487.292	11886
487.368	12051
487.444	11334
487.520	12816
487.596	11157
487.672	16088
487.748	22183
487.824	28728
487.900	13692
487.976	11225
488.052	11501
488.128	13215
488.204	11100
488.280	9906
488.356	11852
488.432	21356
488.508	31246
488.584	11686
488.660	9050
488.736	9436
488.812	9864
488.888	11639
488.964	12901
489.039	18805
489.115	25093
489.191	16676
489.267	9480
489.343	9750
489.418	8383
489.494	9605
489.570	7206
489.646	9326
489.722	9419
489.797	8611
489.873	11895
489.949	23845
490.024	18975
490.100	7736
490.176	7580
490.251	7320
490.327	10004
490.403	6798
490.478	8056
490.554	7141
490.629	6757
490.705	6099
490.781	8122
490.856	6107
490.932	8247
491.007	7673
491.083	7925
491.158	6437
491.234	8978
491.309	19007
491.385	16310
491.460	6655
491.536	7717
491.611	6824
491.686	6666
491.762	8341
491.837	11515
491.913	18233
491.988	24188
492.063	26618
492.139	11680
492.214	9481
492.289	5235
492.365	4771
492.440	6921
492.515	5834
492.590	6380
492.666	4777
492.741	7412
492.816	10974
492.891	6147
492.967	6042
493.042	5793
493.117	5797
493.192	6122
493.267	14806
493.342	48987
493.418	67748
493.493	10017
493.568	5289
493.643	4329
493.718	6115
493.793	6937
493.868	7897
493.943	4009
494.018	5431
494.093	4568
494.168	5429
494.243	4187
494.318	3598
494.393	4776
494.468	3678
494.543	3830
494.618	4776
494.693	3381
494.768	4432
494.842	3502
494.917	3569
494.992	4348
495.067	4012
495.142	3241
495.217	3988
495.292	4201
495.366	5064
495.441	4252
495.516	6246
495.591	7844
495.665	19636
495.740	41837
495.815	18658
495.890	5040
495.964	3726
496.039	6391
496.114	4593
496.188	4978
496.263	4978
496.338	4509
496.412	4994
496.487	7546
496.561	5080
496.636	6632
496.710	4258
496.785	5642
496.860	7556
496.934	4469
497.009	5123
497.083	4240
497.158	5423
497.232	6690
497.307	7392
497.381	5801
497.455	6712
497.530	9664
497.604	6445
497.679	5589
497.753	10755
497.827	10786
497.902	8599
497.976	12868
498.050	40884
498.125	161804
498.199	149469
498.273	13434
498.348	7402
498.422	6230
498.496	6910
498.570	6457
498.645	6171
498.719	5680
498.793	8168
498.867	13543
498.941	19796
499.016	63334
499.090	174230
499.164	53516
499.238	6682
499.312	5055
499.386	6179
499.460	5599
499.534	6008
499.609	7333
499.683	10414
499.757	11509
499.831	28119
499.905	112798
499.979	98204
500.053	13161
500.127	12534
500.201	6221
500.275	5919
500.349	4764
500.422	6591
500.496	7806
500.570	16638
500.644	57170
500.718	110293
500.792	21988
500.866	7296
500.940	7751
501.013	6343
501.087	5277
501.161	8521
501.235	12054
501.309	35487
501.382	98207
501.456	78532
501.530	16432
501.603	29253
501.677	10510
501.751	4164
501.825	6781
501.898	12860
501.972	37532
502.046	22096
502.119	5791
502.193	16162
502.266	39503
502.340	17269
502.413	17682
502.487	33282
502.561	17436
502.634	4785
502.708	4197
502.781	2932
502.855	4495
502.928	2412
503.002	3352
503.075	2698
503.149	3441
503.222	4082
503.295	3786
503.369	5882
503.442	7414
503.516	27830
503.589	66722
503.662	39951
503.736	12601
503.809	31688
503.882	23933
503.956	38648
504.029	30498
504.102	10877
504.175	12855
504.249	5089
504.322	4775
504.395	4840
504.468	2672
504.542	2811
504.615	1690
504.688	3127
504.761	1467
504.834	4500
504.907	2910
504.980	4945
505.053	2730
505.127	2712
505.200	6838
505.273	5575
505.346	3551
505.419	2382
505.492	3350
505.565	1157
505.638	2486
505.711	1882
505.784	1125
505.857	2455
505.930	3400
506.003	1507
506.076	4211
506.149	3842
506.221	3700
506.294	5697
506.367	14232
506.440	51666
506.513	24277
506.586	5450
506.659	1914
506.731	2292
506.804	2549
506.877	3197
506.950	3803
507.022	2768
507.095	2249
507.168	5028
507.241	3010
507.313	1806
507.386	1356
507.459	4249
507.531	1826
507.604	1784
507.677	2198
507.749	594
507.822	3935
507.894	6982
507.967	10888
508.040	5930
508.112	5760
508.185	4324
508.257	2984
508.330	5305
508.402	4543
508.475	3967
508.547	5693
508.620	4687
508.692	7424
508.765	5699
508.837	2788
508.909	4819
508.982	3686
509.054	4505
509.127	3054
509.199	3034
509.271	3617
509.344	3954
509.416	3183
509.488	3294
509.560	3806
509.633	3833
509.705	4500
509.777	3842
509.849	5956
509.922	4193
509.994	4079
510.066	4925
510.138	3454
510.210	12628
510.283	9037
510.355	7392
510.427	6767
510.499	5625
510.571	5129
510.643	5089
510.715	7983
510.787	4366
510.859	6142
510.931	6284
511.003	6239
511.076	7197
511.148	4368
511.219	5600
511.291	8666
511.363	10072
511.435	4735
511.507	4331
511.579	5033
511.651	4867
511.723	3891
511.795	3957
511.867	4100
511.939	6288
512.010	10019
512.082	8464
512.154	2957
512.226	4388
512.298	7088
512.369	10979
512.441	8471
512.513	7129
512.585	5569
512.656	6917
512.728	5674
512.800	4741
512.871	5931
512.943	4812
513.015	4135
513.086	5103
513.158	5207
513.230	4072
513.301	5594
513.373	6946
513.444	4239
513.516	4845
513.588	4722
513.659	5306
513.731	4743
513.802	3473
513.874	7784
513.945	10118
514.016	4731
514.088	4811
514.159	3496
514.231	6514
514.302	8897
514.374	7508
514.445	5922
514.516	12250
514.588	8230
514.659	6284
514.730	10107
514.802	7589
514.873	2447
514.944	5917
515.016	4965
515.087	4663
515.158	7442
515.229	11025
515.301	3968
515.372	5425
515.443	3786
515.514	4689
515.585	2746
515.656	4503
515.728	4130
515.799	3343
515.870	4342
515.941	4984
516.012	4298
516.083	7151
516.154	6952
516.225	7976
516.296	8359
516.367	5635
516.438	5757
516.509	7318
516.580	10256
516.651	28592
516.722	87569
516.793	37264
516.864	9775
516.935	9735
517.006	11787
517.077	14313
517.148	30763
517.219	110455
517.289	163091
517.360	62109
517.431	20125
517.502	5588
517.573	6641
517.643	6795
517.714	8750
517.785	8532
517.856	6440
517.926	10145
517.997	9193
518.068	10537
518.138	13419
518.209	19751
518.280	75711
518.350	268476
518.421	89067
518.492	11586
518.562	7867
518.633	7978
518.703	5442
518.774	10222
518.845	16116
518.915	16022
518.986	7242
519.056	7547
519.127	11654
519.197	19414
519.268	52416
519.338	32171
519.408	7565
519.479	7751
519.549	5823
519.620	5711
519.690	4942
519.760	4562
519.831	4024
519.901	3711
519.971	3558
520.042	4067
520.112	4391
520.182	6139
520.253	5460
520.323	4411
520.393	5414
520.463	9362
520.534	4038
520.604	13145
520.674	6424
520.744	5716
520.814	12283
520.885	11649
520.955	18527
521.025	66171
521.095	22992
521.165	5372
521.235	3735
521.305	3845
521.375	3897
521.445	3541
521.515	3352
521.585	5677
521.655	2422
521.725	5261
521.795	5279
521.865	1464
521.935	7423
522.005	4134
522.075	2627
522.145	4995
522.215	3058
522.285	6382
522.355	6888
522.424	15821
522.494	10071
522.564	6050
522.634	7427
522.704	21387
522.774	8016
522.843	4299
522.913	2949
522.983	3670
523.053	2955
523.122	3878
523.192	2739
523.262	9741
523.331	9540
523.401	4022
523.471	2610
523.540	3377
523.610	911
523.680	2350
523.749	1668
523.819	3749
523.888	3627
523.958	2035
524.027	2597
524.097	2834
524.166	2378
524.236	2216
524.305	4368
524.375	1804
524.444	1118
524.514	4016
524.583	1934
524.653	3545
524.722	4451
524.791	898
524.861	3608
524.930	1547
524.999	1475
525.069	4343
525.138	2713
525.207	3520
525.277	2403
525.346	2032
525.415	2395
525.484	2163
525.554	2702
525.623	3287
525.692	2791
525.761	2245
525.830	2686
525.900	3282
525.969	4634
526.038	6176
526.107	7922
526.176	26069
526.245	19369
526.314	8904
526.383	16069
526.452	16628
526.522	33551
526.591	34035
526.660	10224
526.729	6263
526.797	8246
526.867	14591
526.935	65331
527.004	88708
527.073	40260
527.142	4820
527.211	3230
527.280	2887
527.349	3069
527.418	1127
527.487	2733
527.555	1614
527.624	1270
527.693	65
527.762	2515
527.831	674
527.899	2458
527.968	1795
528.037	-49
528.106	2958
528.174	3126
528.243	4214
528.312	5105
528.380	6077
528.449	1108
528.518	2886
528.586	51
528.655	2673
528.723	1324
528.792	1301
528.861	1049
528.929	685
528.998	2128
529.066	1175
529.135	1413
529.203	814
529.272	385
529.340	1862
529.409	3159
529.477	1108
529.545	1413
529.614	4228
529.682	2319
529.751	3791
529.819	5909
529.887	2827
529.956	1742
530.024	2759
530.092	810
530.161	2599
530.229	3020
530.297	1710
530.365	1912
530.434	1855
530.502	489
530.570	1906
530.638	112
530.707	2670
530.775	2464
530.843	1831
530.911	901
530.979	2471
531.047	637
531.115	2573
531.183	1563
531.252	2436
531.320	1577
531.388	912
531.456	1745
531.524	944
531.592	2289
531.660	3849
531.728	1347
531.796	1418
531.864	2385
531.932	2637
532.000	1597
532.067	1946
532.135	2567
532.203	4245
532.271	1232
532.339	4911
532.407	9463
532.475	5879
532.542	3056
532.610	3914
532.678	3618
532.746	19145
532.814	41546
532.881	10079
532.949	3481
533.017	2817
533.084	2073
533.152	2146
533.220	1657
533.287	1559
533.355	1902
533.423	2190
533.490	1621
533.558	2541
533.625	2736
533.693	1722
533.761	3190
533.828	3380
533.896	1240
533.963	5401
534.031	7181
534.098	8313
534.166	3205
534.233	2387
534.300	3590
534.368	3693
534.435	1992
534.503	2985
534.570	3078
534.637	2241
534.705	1710
534.772	2270
534.840	2832
534.907	13651
534.974	14086
535.041	3099
535.109	3288
535.176	1073
535.243	2129
535.310	1740
535.378	1582
535.445	2153
535.512	1029
535.579	2519
535.646	574
535.714	1936
535.781	3797
535.848	3962
535.915	5127
535.982	4009
536.049	3317
536.116	4753
536.183	2845
536.250	3330
536.317	2079
536.384	2903
536.451	2880
536.518	3391
536.585	1407
536.652	4501
536.719	5026
536.786	1526
536.853	2377
536.920	4236
536.987	5357
537.053	4699
537.120	20321
537.187	16635
537.254	1940
537.321	1452
537.388	2601
537.454	434
537.521	1265
537.588	1300
537.654	2424
537.721	2821
537.788	3430
537.855	1830
537.921	2414
537.988	1624
538.055	2962
538.121	1437
538.188	1925
538.254	2899
538.321	5384
538.388	3720
538.454	2061
538.521	1928
538.587	1157
538.654	1300
538.720	1137
538.787	1551
538.853	2150
538.920	2668
538.986	2779
539.053	1821
539.119	2242
539.185	1392
539.252	3396
539.318	3392
539.385	4351
539.451	2364
539.517	2614
539.583	4011
539.650	6243
539.716	14751
539.782	4865
539.849	803
539.915	2612
539.981	1296
540.047	2063
540.114	2115
540.180	3473
540.246	876
540.312	2776
540.378	5075
540.444	6274
540.510	6345
540.576	16364
540.643	5547
540.709	87
540.775	1948
540.841	1323
540.907	3782
540.973	6204
541.039	4158
541.105	4435
541.171	2931
541.237	1052
541.303	2788
541.369	4529
541.435	3229
541.500	4518
541.566	2787
541.632	1339
541.698	1663
541.764	2397
541.830	1430
541.896	856
541.961	2797
542.027	589
542.093	1555
542.159	2006
542.224	1910
542.290	3838
542.356	5037
542.421	6330
542.487	4137
542.553	2403
542.618	3011
542.684	2406
542.750	2489
542.815	3062
542.881	4267
542.947	13896
543.012	10578
543.078	2260
543.143	2161
543.209	2240
543.274	1471
543.340	3229
543.405	5902
543.471	7261
543.536	2879
543.602	1573
543.667	897
543.732	2709
543.798	1705
543.863	2810
543.928	2007
543.994	1504
544.059	3023
544.124	2465
544.190	2346
544.255	1887
544.320	3093
544.386	1549
544.451	2580
544.516	3211
544.581	3769
544.646	9288
544.712	14589
544.777	3710
544.842	2932
544.907	2806
544.972	2694
545.037	2573
545.102	3644
545.168	2740
545.233	3548
545.298	3939
545.363	4188
545.428	4607
545.493	6363
545.558	10536
545.623	6168
545.688	2614
545.753	3284
545.818	2779
545.883	4027
545.947	3230
546.012	3240
546.077	2748
546.142	3426
546.207	2203
546.272	4032
546.337	3801
546.401	3964
546.466	3371
546.531	1980
546.596	3378
546.661	3505
546.725	3989
546.790	3000
546.855	3809
546.919	2512
546.984	3222
547.049	3927
547.113	3413
547.178	3232
547.243	4869
547.307	5079
547.372	5076
547.436	5611
547.501	4163
547.565	5278
547.630	5159
547.695	5828
547.759	6575
547.823	5491
547.888	4993
547.952	4075
548.017	5170
548.081	4496
548.146	6287
548.210	6008
548.274	4618
548.339	5325
548.403	4160
548.468	3618
548.532	3275
548.596	4456
548.660	4338
548.725	5088
548.789	4320
548.853	7058
548.917	5596
548.982	6944
549.046	6330
549.110	3333
549.174	4345
549.238	3636
549.303	3539
549.367	6196
549.431	4525
549.495	4249
549.559	3478
549.623	4432
549.687	5710
549.751	7972
549.815	5486
549.879	6966
549.943	4300
550.007	6674
550.071	6368
550.135	6473
550.199	4888
550.263	5746
550.327	6200
550.391	7190
550.455	5002
550.519	4773
550.582	6733
550.646	7260
550.710	7888
550.774	6405
550.838	6325
550.901	6298
550.965	7692
551.029	6845
551.093	8023
551.156	10330
551.220	18224
551.284	18856
551.347	11112
551.411	20426
551.475	20732
551.538	7865
551.602	6434
551.666	6292
551.729	4957
551.793	6224
551.856	5220
551.920	5983
551.983	5503
552.047	5128
552.110	6185
552.174	5094
552.237	5197
552.301	5958
552.364	4999
552.428	5252
552.491	4815
552.554	5612
552.618	5573
552.681	5291
552.745	5172
552.808	9252
552.871	10376
552.934	7349
552.998	5236
553.061	6418
553.124	6080
553.187	5500
553.251	7086
553.314	7746
553.377	7865
553.440	14188
553.503	38724
553.567	58431
553.630	12223
553.693	5967
553.756	6081
553.819	6271
553.882	4997
553.945	5729
554.008	4733
554.071	4092
554.134	5302
554.197	4467
554.260	5007
554.323	6311
554.386	5888
554.449	5012
554.512	5521
554.575	4814
554.638	5168
554.701	5082
554.764	5133
554.827	5472
554.889	4508
554.952	4586
555.015	3997
555.078	3409
555.141	4444
555.203	3654
555.266	4028
555.329	4116
555.391	3994
555.454	4149
555.517	4025
555.580	3572
555.642	3959
555.705	3345
555.768	4023
555.830	4295
555.893	3546
555.955	3356
556.018	3580
556.080	3745
556.143	4189
556.206	3574
556.268	3770
556.330	4289
556.393	4277
556.455	4183
556.518	5528
556.580	5239
556.643	2683
556.705	3846
556.767	2524
556.830	4127
556.892	3631
556.955	4624
557.017	4902
557.079	2760
557.142	2959
557.204	3462
557.266	6369
557.328	5619
557.391	2069
557.453	2723
557.515	2799
557.577	3904
557.639	3447
557.701	3154
557.764	2587
557.826	3289
557.888	3547
557.950	3552
558.012	3760
558.074	4764
558.136	8527
558.198	19008
558.260	7429
558.322	3790
558.384	3779
558.446	4745
558.508	4969
558.570	7110
558.632	9599
558.694	13804
558.756	16857
558.818	48388
558.880	110788
558.942	30697
559.003	20150
559.065	10453
559.127	5297
559.189	5112
559.251	6273
559.312	9025
559.374	20777
559.436	65363
559.498	31145
559.559	6152
559.621	5383
559.683	7439
559.744	12061
559.806	31404
559.868	44241
559.929	8259
559.991	5812
560.052	8597
560.114	19999
560.176	12795
560.237	12666
560.299	17748
560.360	4508
560.422	3383
560.483	3294
560.545	4004
560.606	2670
560.667	3372
560.729	2753
560.790	2946
560.852	2674
560.913	3579
560.974	2848
561.036	2950
561.097	3611
561.158	3875
561.220	3850
561.281	3752
561.342	2682
561.403	3730
561.465	4408
561.526	8147
561.587	10789
561.648	4153
561.709	3079
561.771	3039
561.832	2932
561.893	3432
561.954	3621
562.015	3994
562.076	2773
562.137	2334
562.198	2576
562.259	3992
562.320	3140
562.381	3126
562.442	4918
562.503	4299
562.564	2984
562.625	2819
562.686	3197
562.747	3672
562.808	3240
562.869	2849
562.930	4561
562.991	5207
563.051	3704
563.112	2774
563.173	3331
563.234	3059
563.294	3332
563.355	2620
563.416	3357
563.477	3111
563.537	3456
563.598	3809
563.659	3296
563.720	3746
563.780	3932
563.841	3719
563.901	3590
563.962	4019
564.023	2140
564.083	4142
564.144	4465
564.204	3622
564.265	3049
564.325	3995
564.386	8769
564.446	7473
564.507	3276
564.567	3821
564.628	3402
564.688	3089
564.749	2790
564.809	4153
564.869	4594
564.930	3408
564.990	3923
565.050	3042
565.111	2719
565.171	4039
565.231	3182
565.292	4075
565.352	2267
565.412	3280
565.472	3578
565.532	3486
565.593	2715
565.653	2974
565.713	2857
565.773	3810
565.833	3089
565.893	5326
565.953	3195
566.013	3881
566.074	4427
566.134	6089
566.194	7461
566.254	7544
566.314	5482
566.374	3604
566.434	4213
566.494	4100
566.554	3272
566.614	3570
566.673	3278
566.733	4274
566.793	3305
566.853	4183
566.913	3559
566.973	3622
567.033	4019
567.092	4155
567.152	4101
567.212	3657
567.272	4499
567.331	4864
567.391	4567
567.451	5106
567.511	5450
567.570	6457
567.630	3481
567.690	3503
567.749	3653
567.809	3136
567.868	5062
567.928	4371
567.988	3646
568.047	4432
568.107	4045
568.166	4789
568.226	4745
568.285	5397
568.345	5412
568.404	5912
568.464	4431
568.523	4564
568.582	4344
568.642	5139
568.701	5610
568.761	6123
568.820	7124
568.879	7232
568.939	8069
568.998	5007
569.057	4400
569.116	4509
569.176	3811
569.235	4014
569.294	4324
569.353	3776
569.413	4060
569.472	4109
569.531	3359
569.590	3582
569.649	3827
569.708	4197
569.767	4638
569.827	3970
569.886	4096
569.945	4190
570.004	3946
570.063	4601
570.122	4163
570.181	3430
570.240	4568
570.299	4157
570.358	4484
570.417	3750
570.475	3560
570.534	4320
570.593	4269
570.652	4523
570.711	3726
570.770	3549
570.829	4745
570.887	4738
570.946	3986
571.005	3854
571.064	3618
571.122	3827
571.181	4895
571.240	4170
571.299	3510
571.357	4205
571.416	4645
571.475	4844
571.533	5059
571.592	4098
571.650	3940
571.709	3866
571.768	2945
571.826	4444
571.885	3407
571.943	4069
572.002	2874
572.060	3918
572.119	3390
572.177	4090
572.236	2741
572.294	3103
572.352	3918
572.411	4179
572.469	3995
572.528	4976
572.586	3389
572.644	4330
572.703	5053
572.761	4092
572.819	3756
572.877	3011
572.936	3014
572.994	2677
573.052	2915
573.110	3870
573.169	3447
573.227	3588
573.285	3532
573.343	4041
573.401	3099
573.459	4286
573.517	3567
573.576	3497
573.634	3468
573.692	3380
573.750	3380
573.808	3540
573.866	4032
573.924	4341
573.982	4721
574.040	3181
574.098	3390
574.155	3060
574.213	3332
574.271	2855
574.329	3068
574.387	3188
574.445	3242
574.503	2691
574.560	2430
574.618	2428
574.676	2349
574.734	3166
574.792	3538
574.849	3614
574.907	2130
574.965	2955
575.022	2747
575.080	3212
575.138	4160
575.195	3361
575.253	3027
575.311	3219
575.368	4137
575.426	3343
575.483	3783
575.541	4735
575.598	3060
575.656	3078
575.713	2439
575.771	3231
575.828	3734
575.886	3212
575.943	3996
576.001	3178
576.058	3610
576.115	3983
576.173	3956
576.230	5301
576.287	4611
576.345	4246
576.402	4113
576.459	4406
576.517	2983
576.574	5427
576.631	4490
576.688	3146
576.746	3364
576.803	3846
576.860	3635
576.917	4139
576.974	3788
577.031	4163
577.089	4160
577.146	3823
577.203	3661
577.260	5132
577.317	4828
577.374	4557
577.431	4710
577.488	4445
577.545	4006
577.602	4398
577.659	4932
577.716	5171
577.773	5819
577.830	4556
577.886	5666
577.943	4139
578.000	4629
578.057	6460
578.114	7245
578.171	8197
578.227	11718
578.284	12072
578.341	9235
578.398	7291
578.454	6704
578.511	6074
578.568	6701
578.625	5018
578.681	4458
578.738	4023
578.794	3363
578.851	4790
578.908	4637
578.964	5245
579.021	4419
579.077	3932
579.134	4583
579.190	4402
579.247	3755
579.303	3876
579.360	3460
579.416	3598
579.473	3996
579.529	3815
579.586	4532
579.642	5041
579.698	4988
579.755	4879
579.811	4784
579.867	5660
579.924	5570
579.980	6530
580.036	9403
580.093	11590
580.149	18276
580.205	21316
580.261	16343
580.317	13111
580.374	9288
580.430	9057
580.486	7151
580.542	6635
580.598	5504
580.619	5819
580.654	6370
580.692	5501
580.710	5077
580.765	5878
580.767	5909
580.823	4945
580.838	4864
580.879	4655
580.911	4694
580.935	4745
580.984	5484
580.991	5587
581.047	5995
581.057	6146
581.103	6891
581.130	7074
581.159	7239
581.203	7749
581.215	7894
581.270	8868
581.276	8741
581.326	7574
581.349	7035
581.382	6216
581.422	6506
581.438	6637
581.494	5138
581.494	5149
581.550	6617
581.567	6433
581.606	6031
581.640	5936
581.661	5870
581.713	5811
581.717	5813
581.773	5353
581.786	5245
581.829	4878
581.859	5549
581.885	6149
581.932	5515
581.940	5390
581.996	5585
582.004	5635
582.052	5906
582.077	5443
582.107	4960
582.150	5728
582.163	5926
582.219	5001
582.223	5030
582.274	5576
582.296	5826
582.330	6137
582.368	5714
582.386	5584
582.441	5804
582.441	5804
582.497	5644
582.514	5783
582.552	6293
582.587	6405
582.608	6352
582.659	6542
582.663	6561
582.719	6277
582.732	6186
582.774	5920
582.805	5652
582.830	5437
582.877	6408
582.885	6603
582.941	6346
582.950	6618
582.996	7992
583.023	8529
583.052	9102
583.095	9860
583.107	10147
583.162	12986
583.168	13144
583.218	13820
583.240	13224
583.273	12282
583.313	10774
583.328	10295
583.384	8952
583.385	8931
583.439	8044
583.458	7541
583.494	6618
583.531	6783
583.549	7003
583.603	6222
583.605	6187
583.660	5795
583.676	5766
583.715	5967
583.748	6868
583.770	7428
583.820	6779
583.825	6690
583.881	6218
583.893	6181
583.936	6362
583.965	6274
583.991	6162
584.038	6358
584.046	6373
584.101	7098
584.110	6963
584.156	6420
584.183	6626
584.211	6688
584.255	6219
584.266	6181
584.321	6200
584.328	6243
584.376	6243
584.400	6390
584.431	6743
584.472	6069
584.486	5821
584.541	6245
584.545	6236
584.596	6150
584.617	6527
584.651	7285
584.689	6791
584.706	6502
584.761	7657
584.762	7645
584.816	6500
584.834	6943
584.871	7765
584.906	7614
584.926	7455
584.978	6516
584.980	6510
585.035	7183
585.051	7564
585.090	8374
585.123	8311
585.145	8149
585.195	8369
585.200	8465
585.254	9092
585.267	9420
585.309	10340
585.340	11207
585.364	11577
585.412	10825
585.419	10645
585.473	10039
585.484	10028
585.528	11378
585.556	12706
585.583	15490
585.628	21437
585.637	23956
585.692	43226
585.700	46669
585.747	59472
585.772	55040
585.801	37540
585.845	16781
585.856	14792
585.910	10454
585.917	10036
585.965	9488
585.989	9181
586.019	9082
586.061	8939
586.074	8858
586.128	8725
586.133	8737
586.183	9266
586.205	9267
586.237	9170
586.277	9411
586.292	9476
586.346	9241
586.349	9226
586.401	8793
586.421	8736
586.455	9381
586.493	10207
586.509	10993
586.564	13649
586.565	13758
586.618	21024
586.637	21880
586.672	17822
586.709	12881
586.727	11452
586.781	10455
586.781	10462
586.835	9141
586.853	8949
586.889	8962
586.925	9004
586.944	9005
586.996	9076
586.998	9091
587.052	9619
587.068	9633
587.106	9537
587.140	9547
587.161	9633
587.212	9615
587.215	9632
587.269	9894
587.284	9996
587.323	9992
587.356	10127
587.377	10258
587.427	10370
587.431	10377
587.485	10205
587.499	10108
587.539	10157
587.571	10564
587.593	10937
587.643	11378
587.648	11399
587.702	11337
587.715	11407
587.755	11898
587.786	12105
587.810	12031
587.858	11649
587.864	11698
587.917	12785
587.930	12995
587.971	14187
588.001	15136
588.025	15622
588.073	16006
588.079	16068
588.133	16714
588.145	16964
588.187	18297
588.217	19107
588.241	20157
588.288	22381
588.295	22678
588.348	25302
588.360	25869
588.402	28570
588.431	30684
588.456	33090
588.503	37443
588.510	37986
588.564	43660
588.575	44832
588.617	51657
588.646	57195
588.671	63015
588.718	76075
588.725	79895
588.778	114454
588.789	123198
588.832	203053
588.861	263162
588.886	366402
588.932	579366
588.939	598360
588.993	706725
589.004	711797
589.047	464185
589.075	300292
589.100	224500
589.147	107611
589.154	102951
589.207	76931
589.218	72261
589.261	68819
589.290	67687
589.314	71328
589.361	81448
589.368	85843
589.421	126487
589.433	136656
589.475	248132
589.504	334158
589.528	433429
589.576	627538
589.582	611733
589.635	385512
589.647	335998
589.689	179077
589.718	82438
589.742	67272
589.790	42349
589.795	41492
589.849	34957
589.861	33795
589.902	33189
589.932	32112
589.955	28628
590.004	20908
590.009	20675
590.062	18995
590.075	18479
590.115	17112
590.146	16345
590.168	16325
590.218	15981
590.222	15955
590.275	15424
590.289	15283
590.328	15864
590.360	16174
590.381	15643
590.431	14496
590.435	14512
590.488	14359
590.503	14294
590.541	13906
590.574	13592
590.594	13709
590.645	14049
590.647	14055
590.700	13549
590.716	13329
590.753	13393
590.787	13516
590.806	13304
590.859	12872
590.859	12895
590.912	13098
590.930	13176
590.965	13308
591.001	13444
591.018	13249
591.071	12586
591.072	12562
591.124	13260
591.143	13497
591.177	13355
591.214	13192
591.230	13609
591.283	14806
591.285	14822
591.336	14268
591.356	14093
591.389	14285
591.427	14133
591.442	13850
591.495	13008
591.498	12915
591.547	13165
591.569	13302
591.600	12998
591.640	12393
591.653	12565
591.706	13245
591.711	13303
591.759	14188
591.782	14599
591.811	15388
591.853	16478
591.864	16098
591.917	13912
591.924	13577
591.969	13579
591.995	13522
592.022	13772
592.066	14199
592.075	14357
592.127	15124
592.137	15250
592.180	17740
592.208	19285
592.233	17764
592.279	14745
592.285	14680
592.338	13924
592.350	13745
592.390	13643
592.421	13507
592.443	13638
592.491	13862
592.495	13825
592.548	13010
592.562	12765
592.600	12963
592.633	13110
592.653	13061
592.704	12823
592.705	12920
592.775	14186
592.846	13773
592.916	14338
592.987	14312
593.058	14942
593.128	12784
593.199	12828
593.270	12822
593.341	12680
593.411	13253
593.482	13614
593.553	14441
593.623	13247
593.694	13246
593.764	15021
593.835	13385
593.906	13073
593.976	13757
594.047	14033
594.117	16879
594.188	17232
594.258	12757
594.329	12879
594.399	13803
594.470	13520
594.540	13642
594.611	13961
594.681	12988
594.751	14700
594.822	15046
594.892	15318
594.963	15587
595.033	15666
595.103	15083
595.174	17094
595.244	22930
595.314	28382
595.384	15934
595.455	14743
595.525	17190
595.595	16434
595.665	15870
595.736	16217
595.806	15490
595.876	15698
595.946	15549
596.016	15843
596.087	15907
596.157	16510
596.227	15330
596.297	17474
596.367	17691
596.437	19458
596.507	23653
596.577	29644
596.647	20341
596.717	18025
596.787	18986
596.857	18659
596.927	18076
596.997	19697
597.067	19908
597.137	22196
597.207	19961
597.277	19283
597.347	18840
597.417	18562
597.487	18784
597.557	19669
597.626	19519
597.696	20737
597.766	23081
597.836	28791
597.906	19697
597.975	19046
598.045	17661
598.115	18943
598.185	19101
598.254	21152
598.324	21918
598.394	21778
598.464	21641
598.533	22041
598.603	20283
598.672	20944
598.742	20508
598.812	20941
598.881	21152
598.951	21657
599.020	19923
599.090	21281
599.159	21819
599.229	21487
599.299	20462
599.368	21580
599.437	21150
599.507	21675
599.576	21612
599.646	22756
599.715	23413
599.785	22021
599.854	21491
599.924	23153
599.993	22351
600.062	21677
600.132	21973
600.201	21881
600.270	25349
600.340	24852
600.409	24126
600.478	23803
600.547	25420
600.617	24915
600.686	22758
600.755	21988
600.824	21833
600.894	22639
600.963	21263
601.032	22043
601.101	21588
601.170	21170
601.239	22220
601.308	22621
601.378	21993
601.447	22420
601.516	21922
601.585	23402
601.654	24576
601.723	25370
601.792	25482
601.861	27067
601.930	30131
601.999	28758
602.068	26534
602.137	28497
602.206	27171
602.275	27346
602.343	28404
602.412	29231
602.481	27163
602.550	27084
602.619	28005
602.688	27661
602.756	28453
602.825	28595
602.894	28403
602.963	28808
603.032	28261
603.100	30121
603.169	28162
603.238	29558
603.307	29154
603.375	28865
603.444	29217
603.513	28658
603.581	29381
603.650	30256
603.719	26061
603.787	24390
603.856	25709
603.924	26000
603.993	26599
604.061	26278
604.130	28312
604.198	28284
604.267	28367
604.335	29352
604.404	28446
604.472	29973
604.541	29770
604.609	31380
604.678	31462
604.746	31789
604.815	33219
604.883	31827
604.951	32801
605.020	32628
605.088	31474
605.156	28559
605.225	28857
605.293	29451
605.361	29233
605.429	29305
605.498	30221
605.566	29929
605.634	31138
605.702	30893
605.771	32189
605.839	33658
605.907	29274
605.975	31238
606.043	30144
606.111	29006
606.180	32905
606.248	33217
606.316	34215
606.384	31791
606.452	29986
606.520	25649
606.588	24093
606.656	23512
606.724	22561
606.792	22203
606.860	20492
606.928	19754
606.996	18288
607.064	18460
607.132	18687
607.200	20016
607.267	19774
607.335	19304
607.403	20257
607.471	20137
607.539	20144
607.607	19572
607.674	17311
607.742	17511
607.810	18203
607.878	18278
607.946	17745
608.013	17816
608.081	18694
608.149	19112
608.216	19446
608.284	20874
608.352	19760
608.419	19425
608.487	24623
608.555	20456
608.622	19831
608.690	19454
608.757	20754
608.825	22303
608.893	21323
608.960	21799
609.028	23344
609.095	25941
609.163	20602
609.230	18213
609.298	17589
609.365	17183
609.432	18608
609.500	19877
609.567	22676
609.635	24511
609.702	25792
609.769	26444
609.837	23044
609.904	19445
609.971	19477
610.039	25014
610.106	32578
610.173	63195
610.241	151774
610.308	142386
610.375	75693
610.442	28575
610.509	21171
610.577	20640
610.644	19545
610.711	19625
610.778	20878
610.845	21421
610.912	22181
610.980	25730
611.047	31257
611.114	25013
611.181	21343
611.248	19484
611.315	22365
611.382	20899
611.449	23301
611.516	23392
611.583	23157
611.650	22486
611.717	23882
611.784	23306
611.851	25040
611.918	27749
611.984	33257
612.051	51171
612.118	110544
612.185	291182
612.252	204742
612.319	43876
612.386	31664
612.452	27566
612.519	26856
612.586	32064
612.653	28327
612.719	26831
612.786	25060
612.853	23416
612.919	22125
612.986	23655
613.053	21914
613.120	20009
613.186	20288
613.253	22237
613.319	21230
613.386	21267
613.453	20527
613.519	22355
613.586	23397
613.652	28669
613.719	24893
613.785	23990
613.852	21810
613.918	21704
613.985	24100
614.051	33108
614.118	58403
614.184	59813
614.250	25142
614.317	22339
614.383	21220
614.449	20747
614.516	20990
614.582	22674
614.648	21071
614.715	20967
614.781	20289
614.847	20761
614.914	21144
614.980	21447
615.046	20518
615.112	20996
615.179	21120
615.245	21309
615.311	20575
615.377	22303
615.443	21360
615.509	21676
615.575	22839
615.642	22577
615.708	23920
615.774	24790
615.840	27499
615.906	30629
615.972	39603
616.038	62324
616.104	144700
616.170	380205
616.236	364523
616.302	71592
616.368	44227
616.434	31942
616.500	29653
616.565	30876
616.631	36445
616.697	32477
616.763	32147
616.829	45267
616.895	78359
616.961	81535
617.026	37348
617.092	25423
617.158	24626
617.224	22627
617.289	21262
617.355	21373
617.421	21339
617.487	21287
617.552	20269
617.618	19962
617.684	18929
617.749	21964
617.815	19044
617.880	19505
617.946	18551
618.012	19847
618.077	18473
618.143	19178
618.208	19105
618.274	20664
618.339	21574
618.405	17904
618.470	19447
618.536	18934
618.601	20763
618.667	18289
618.732	17255
618.798	17501
618.863	16764
618.928	16221
618.994	17934
619.059	19549
619.124	22236
619.190	19211
619.255	17472
619.320	17998
619.386	17503
619.451	16469
619.516	16962
619.581	16467
619.647	17060
619.712	17487
619.777	16938
619.842	17067
619.907	17893
619.972	17482
620.038	17437
620.103	16898
620.168	17731
620.233	17626
620.298	16121
620.363	16486
620.428	17453
620.493	17677
620.558	17339
620.623	18227
620.688	17609
620.753	17602
620.818	17344
620.883	17217
620.948	18140
621.013	17272
621.078	17251
621.143	16239
621.207	20047
621.272	18557
621.337	18350
621.402	19214
621.467	23158
621.532	23471
621.596	20619
621.661	20049
621.726	19053
621.791	19069
621.855	19073
621.920	19224
621.985	19737
622.049	23446
622.114	20730
622.179	20487
622.243	20003
622.308	19724
622.373	22556
622.437	20952
622.502	19708
622.566	19009
622.631	18743
622.695	21056
622.760	19243
622.824	19825
622.889	19697
622.953	20289
623.018	25389
623.082	24871
623.147	21212
623.211	20230
623.276	20350
623.340	19369
623.404	19766
623.469	18293
623.533	18860
623.597	18812
623.662	18653
623.726	17732
623.790	16795
623.854	17337
623.919	17912
623.983	16599
624.047	17559
624.111	17626
624.176	17754
624.240	18534
624.304	20051
624.368	18124
624.432	17872
624.496	18520
624.560	19563
624.625	19489
624.689	19195
624.753	17983
624.817	17104
624.881	17441
624.945	17193
625.009	17086
625.073	17052
625.137	17434
625.201	20683
625.265	19600
625.329	17560
625.393	17822
625.456	16914
625.520	18792
625.584	19687
625.648	22779
625.712	29855
625.776	61468
625.839	69196
625.903	31471
625.967	17799
626.031	28135
626.095	42231
626.158	19884
626.222	14199
626.286	14816
626.349	13818
626.413	12282
626.477	14955
626.540	13019
626.604	12249
626.668	13958
626.731	12390
626.795	12617
626.858	13102
626.922	11818
626.986	12345
627.049	10425
627.113	12783
627.176	12505
627.240	12059
627.303	12168
627.366	12029
627.430	12319
627.493	12488
627.557	12053
627.620	13364
627.684	12297
627.747	12030
627.810	10847
627.874	11833
627.937	9815
628.000	13377
628.064	12037
628.127	9019
628.190	10564
628.253	11188
628.317	10374
628.380	9878
628.443	10071
628.506	9557
628.569	9542
628.632	8070
628.696	9621
628.759	8924
628.822	8688
628.885	7798
628.948	9732
629.011	10005
629.074	9121
629.137	8597
629.200	8229
629.263	10394
629.326	8335
629.389	8286
629.452	8842
629.515	9364
629.578	8673
629.641	10053
629.704	8451
629.767	9776
629.830	9121
629.892	7845
629.955	8626
630.018	9383
630.081	8378
630.144	10212
630.207	8358
630.269	10687
630.332	9782
630.395	9591
630.458	8071
630.520	6717
630.583	9308
630.646	8021
630.708	7314
630.771	7175
630.834	8046
630.896	8785
630.959	7651
631.021	7103
631.084	8175
631.146	8151
631.209	10110
631.272	7732
631.334	7618
631.397	7458
631.459	6665
631.522	7828
631.584	7795
631.646	7827
631.709	8046
631.771	9289
631.834	9020
631.896	8751
631.958	6311
632.021	7992
632.083	6347
632.145	7625
632.208	6579
632.270	8151
632.332	6240
632.395	6303
632.457	7652
632.519	6220
632.581	7509
632.643	5937
632.706	7159
632.768	6616
632.830	7359
632.892	7078
632.954	6603
633.016	7084
633.078	7066
633.141	6606
633.203	5823
633.265	7053
633.327	7094
633.389	5980
633.451	8078
633.513	7444
633.575	8591
633.637	8028
633.698	7679
633.760	7340
633.822	7537
633.884	7590
633.946	6406
634.008	7319
634.070	7775
634.132	9779
634.193	7860
634.255	8271
634.317	8207
634.379	8677
634.441	7072
634.502	7441
634.564	6557
634.626	5429
634.687	7092
634.749	5537
634.811	7065
634.873	5762
634.934	5659
634.996	6924
635.057	5929
635.119	5897
635.181	5991
635.242	6811
635.304	4752
635.365	8422
635.427	5655
635.488	5813
635.550	5507
635.611	6076
635.673	4882
635.734	8021
635.796	6165
635.857	8792
635.918	5956
635.980	8565
636.041	7245
636.102	8514
636.164	8068
636.225	7808
636.286	6116
636.348	6795
636.409	6271
636.470	6292
636.531	6071
636.593	7390
636.654	6431
636.715	5881
636.776	5252
636.838	4987
636.899	6431
636.960	5463
637.021	5329
637.082	5214
637.143	6007
637.204	4720
637.265	4721
637.326	5002
637.387	5895
637.448	3930
637.509	5769
637.570	5665
637.631	6222
637.692	3983
637.753	3761
637.814	4324
637.875	5542
637.936	4643
637.997	4809
638.058	4612
638.119	5556
638.179	4130
638.240	4908
638.301	4699
638.362	4412
638.423	4035
638.483	6440
638.544	3813
638.605	5007
638.666	4219
638.726	4787
638.787	5463
638.848	5455
638.908	5308
638.969	4862
639.030	4206
639.090	3242
639.151	4026
639.211	5817
639.272	5958
639.332	9559
639.393	7164
639.453	4581
639.514	4921
639.574	5080
639.635	4223
639.695	5200
639.756	4027
639.816	4701
639.877	5711
639.937	7564
639.997	9913
640.058	4154
640.118	3248
640.178	5186
640.239	3759
640.299	4237
640.359	4227
640.420	5154
640.480	4790
640.540	5309
640.600	4564
640.661	5465
640.721	3739
640.781	6769
640.841	4296
640.901	5096
640.961	4564
641.021	4769
641.082	4541
641.142	6778
641.202	5875
641.262	2165
641.322	4452
641.382	3151
641.442	4830
641.502	4393
641.562	4175
641.622	3271
641.682	4243
641.742	4297
641.802	4803
641.861	4964
641.921	4356
641.981	5385
642.041	4976
642.101	5209
642.161	3949
642.221	3043
642.280	3733
642.340	3495
642.400	2449
642.460	4380
642.519	4318
642.579	3230
642.639	4666
642.698	2072
642.758	5459
642.818	4687
642.877	3518
642.937	3925
642.997	4478
643.056	5312
643.116	3112
643.175	5191
643.235	4011
643.294	3128
643.354	4954
643.414	4567
643.473	5112
643.532	5563
643.592	7592
643.651	14288
643.711	24184
643.770	48251
643.830	115303
643.889	271931
643.948	65296
644.008	10390
644.067	5707
644.126	4315
644.186	4354
644.245	5988
644.304	2537
644.363	5408
644.423	3041
644.482	4283
644.541	4279
644.600	2278
644.659	5551
644.719	3810
644.778	6504
644.837	11025
644.896	21949
644.955	50948
645.014	19733
645.073	6925
645.132	3925
645.191	4195
645.250	3307
645.309	5219
645.368	4034
645.427	5015
645.486	4730
645.545	11373
645.604	4106
645.663	4126
645.722	3967
645.781	4294
645.840	4419
645.898	5091
645.957	7990
646.016	9879
646.075	21038
646.134	43090
646.192	111703
646.251	183954
646.310	25452
646.369	7756
646.427	5105
646.486	3802
646.545	3690
646.603	3716
646.662	4459
646.721	3784
646.779	3121
646.838	2785
646.896	5163
646.955	4760
647.014	7190
647.072	10954
647.131	30891
647.189	16604
647.248	3336
647.306	4360
647.365	3159
647.423	1664
647.481	3842
647.540	2024
647.598	2746
647.657	2399
647.715	2663
647.773	2096
647.832	4086
647.890	1207
647.948	2431
648.007	3246
648.065	1973
648.123	2506
648.181	4407
648.240	5147
648.298	3505
648.356	2797
648.414	3005
648.472	2768
648.531	2810
648.589	3069
648.647	1929
648.705	2524
648.763	2964
648.821	2753
648.879	2060
648.937	3863
648.995	4095
649.053	3004
649.111	5717
649.169	8610
649.227	15031
649.285	31376
649.343	94202
649.401	50387
649.459	13611
649.516	11294
649.574	7213
649.632	19058
649.690	24774
649.748	8741
649.806	9931
649.863	17692
649.921	23369
649.979	14810
650.037	3413
650.094	1442
650.152	2756
650.210	1443
650.268	2834
650.325	3120
650.383	2806
650.440	1417
650.498	3069
650.556	2061
650.613	1524
650.671	2894
650.728	2013
650.786	2836
650.843	2840
650.901	803
650.958	1944
651.016	2534
651.073	1817
651.131	1930
651.188	1160
651.246	1519
651.303	1455
651.360	3717
651.418	1368
651.475	2340
651.532	1492
651.590	2258
651.647	1001
651.704	1761
651.762	2147
651.819	2159
651.876	1587
651.933	1435
651.990	1716
652.048	780
652.105	1170
652.162	2446
652.219	1696
652.276	2696
652.333	2530
652.390	1284
652.448	2172
652.505	1522
652.562	1619
652.619	2573
652.676	6105
652.733	6009
652.790	1325
652.847	1474
652.904	1831
652.961	913
653.017	717
653.074	2216
653.131	1696
653.188	824
653.245	1165
653.302	1827
653.359	1573
653.415	1964
653.472	1832
653.529	1054
653.586	1282
653.642	1660
653.699	1864
653.756	642
653.813	517
653.869	1879
653.926	1335
653.983	1166
654.039	1814
654.096	869
654.152	1934
654.209	710
654.266	2669
654.322	609
654.379	1853
654.435	2631
654.492	2033
654.548	2701
654.605	4259
654.661	3125
654.717	1901
654.774	1661
654.830	1551
654.887	1460
654.943	1906
655.000	1956
655.056	2113
655.112	1891
655.168	171
655.225	2035
655.281	2257
655.337	2586
655.394	4794
655.450	4270
655.506	2862
655.562	4463
655.618	4563
655.675	1088
655.731	2100
655.787	922
655.843	2692
655.899	986
655.955	1500
656.011	1302
656.067	25
656.123	1581
656.179	797
656.235	2630
656.291	263
656.347	2619
656.403	1561
656.459	1792
656.515	2352
656.571	2151
656.627	1265
656.683	809
656.739	2398
656.795	717
656.850	2305
656.906	2164
656.962	2077
657.018	885
657.074	1274
657.129	1608
657.185	2068
657.241	3122
657.297	1955
657.352	1709
657.408	673
657.464	3127
657.519	1214
657.575	828
657.630	1179
657.686	961
657.742	319
657.797	1918
657.853	1011
657.908	2511
657.964	487
658.019	1568
658.075	1118
658.130	1904
658.186	678
658.241	1482
658.297	166
658.352	1031
658.407	1523
658.463	544
658.518	453
658.573	1287
658.629	695
658.684	864
658.739	2229
658.795	959
658.850	890
658.905	-231
658.960	837
659.016	333
659.071	1064
659.126	1570
659.181	1287
659.236	3693
659.291	3601
659.346	1479
659.401	2264
659.457	2754
659.512	4066
659.567	2753
659.622	777
659.677	1478
659.732	118
659.787	1828
659.842	1003
659.897	2629
659.952	1762
660.007	1812
660.061	1792
660.116	832
660.171	428
660.226	1119
660.281	2101
660.336	939
660.391	1382
660.445	809
660.500	1827
660.555	1252
660.610	845
660.664	1221
660.719	509
660.774	925
660.828	1561
660.883	1354
660.938	1319
660.992	479
661.047	669
661.101	345
661.156	1134
661.211	471
661.265	455
661.320	1050
661.374	1258
661.429	703
661.483	2113
661.538	1201
661.592	737
661.647	802
661.701	1080
661.755	1262
661.810	1050
661.864	86
661.919	845
661.973	1652
662.027	860
662.081	675
662.136	526
662.190	1428
662.244	1711
662.299	932
662.353	1583
662.407	1118
662.461	620
662.515	2698
662.569	851
662.624	2536
662.678	797
662.732	785
662.786	210
662.840	709
662.894	457
662.948	1411
663.002	658
663.056	2028
663.110	489
663.164	224
663.218	1476
663.272	920
663.326	1672
663.380	802
663.434	860
663.488	762
663.542	1273
663.595	1127
663.649	804
663.703	1251
663.757	1549
663.811	14
663.864	1175
663.918	1804
663.972	678
664.026	802
664.079	192
664.133	1995
664.187	667
664.240	1175
664.294	984
664.348	1562
664.401	1446
664.455	949
664.508	686
664.562	472
664.615	1732
664.669	164
664.722	1087
664.776	643
664.829	668
664.883	1264
664.936	388
664.990	882
665.043	458
665.097	1279
665.150	1846
665.203	1511
665.257	1288
665.310	1527
665.363	1711
665.417	1495
665.470	2101
665.523	1329
665.576	839
665.630	1337
665.683	326
665.736	1588
665.789	1045
665.842	240
665.895	689
665.949	1129
666.002	770
666.055	1009
666.108	2109
666.161	906
666.214	1024
666.267	1551
666.320	1730
666.373	1761
666.426	1119
666.479	883
666.532	1218
666.585	807
666.638	2058
666.691	1804
666.744	1524
666.796	1360
666.849	1557
666.902	903
666.955	1096
667.008	752
667.060	691
667.113	436
667.166	1010
667.219	1820
667.271	532
667.324	688
667.377	1425
667.430	1492
667.482	1978
667.535	1885
667.587	1312
667.640	1405
667.693	2171
667.745	2278
667.798	3093
667.850	998
667.903	1589
667.955	1698
668.008	1093
668.060	1529
668.113	1516
668.165	1051
668.218	1586
668.270	1162
668.322	1380
668.375	677
668.427	1526
668.479	2098
668.532	1247
668.584	2334
668.636	932
668.689	1642
668.741	1072
668.793	1291
668.845	1190
668.898	1526
668.950	1528
669.002	993
669.054	1575
669.106	907
669.158	2301
669.211	1864
669.263	1784
669.315	2290
669.367	2777
669.419	1700
669.471	2753
669.523	2285
669.575	4364
669.627	3312
669.679	1830
669.731	1620
669.783	1652
669.835	2517
669.886	2810
669.938	2423
669.990	2064
670.042	1438
670.094	1531
670.146	2347
670.197	2727
670.249	3485
670.301	4012
670.353	6647
670.404	8717
670.456	14149
670.508	22389
670.560	39316
670.611	68153
670.663	122478
670.715	279562
670.766	434467
670.818	150385
670.869	28516
670.921	13488
670.972	9139
671.024	5844
671.075	4779
671.127	4043
671.178	2572
671.230	3258
671.281	2931
671.333	1477
671.384	2240
671.436	2475
671.487	2780
671.538	3150
671.590	3599
671.641	5478
671.692	7331
671.744	11944
671.795	8987
671.846	3860
671.897	2126
671.949	1223
672.000	966
672.051	899
672.102	2300
672.153	498
672.204	1587
672.256	1302
672.307	1268
672.358	1431
672.409	1226
672.460	1595
672.511	1268
672.562	1244
672.613	1461
672.664	1030
672.715	970
672.766	642
672.817	1085
672.868	827
672.919	1355
672.970	465
673.021	950
673.071	410
673.122	1808
673.173	1177
673.224	583
673.275	822
673.326	488
673.376	1210
673.427	544
673.478	288
673.528	914
673.579	193
673.630	1297
673.680	1746
673.731	906
673.782	78
673.832	1232
673.883	983
673.934	995
673.984	613
674.035	741
674.085	834
674.136	737
674.186	359
674.237	1379
674.287	2337
674.338	1091
674.388	764
674.438	289
674.489	1069
674.539	836
674.589	1250
674.640	1946
674.690	1637
674.740	995
674.791	800
674.841	1513
674.891	827
674.942	1450
674.992	165
675.042	1293
675.092	235
675.142	296
675.193	71
675.243	-196
675.293	-18
675.343	11
675.393	178
675.443	1016
675.493	819
675.543	902
675.593	462
675.643	774
675.693	207
675.743	767
675.793	997
675.843	637
675.893	188
675.943	754
675.993	664
676.043	782
676.093	758
676.142	134
676.192	1053
676.242	319
676.292	236
676.341	455
676.391	728
676.441	-702
676.491	608
676.540	134
676.590	1026
676.640	394
676.689	248
676.739	503
676.789	165
676.838	439
676.888	969
676.937	506
676.987	-147
677.037	69
677.086	289
677.136	1272
677.185	-326
677.235	-146
677.284	267
677.333	-31
677.383	-178
677.432	542
677.482	649
677.531	210
677.580	23
677.630	302
677.679	74
677.728	222
677.778	160
677.827	705
677.876	-103
677.925	439
677.975	-488
678.024	853
678.073	220
678.122	402
678.171	381
678.220	333
678.269	371
678.319	997
678.368	91
678.417	241
678.466	1006
678.515	305
678.564	-28
678.613	1150
678.662	577
678.711	631
678.760	80
678.809	31
678.857	418
678.906	371
678.955	-449
679.004	625
679.053	629
679.102	-104
679.151	369
679.199	128
679.248	222
679.297	-439
679.346	801
679.394	256
679.443	180
679.492	32
679.540	229
679.589	346
679.638	311
679.686	738
679.735	-146
679.784	661
679.832	114
679.881	-326
679.929	-99
679.978	61
680.026	-434
680.075	425
680.123	142
680.172	-267
680.220	30
680.268	-419
680.317	-584
680.365	-804
680.414	-97
680.462	-616
680.510	333
680.559	-683
680.607	-493
680.655	-290
680.703	-147
680.752	803
680.800	-120
680.848	248
680.896	-150
680.945	-252
680.993	-416
681.041	-7
681.089	174
681.137	-854
681.185	-41
681.233	-123
681.258	-73
681.281	-82
681.329	-131
681.377	-102
681.380	-13
681.425	539
681.473	1076
681.502	873
681.521	624
681.569	741
681.617	1278
681.624	1277
681.665	813
681.713	1423
681.745	948
681.761	640
681.809	941
681.857	2259
681.867	2064
681.904	1150
681.952	1782
681.989	1217
682.000	983
682.048	1493
682.096	2071
682.111	2168
682.143	2161
682.191	1834
682.233	2522
682.239	2577
682.286	2455
682.334	2155
682.354	2059
682.382	1807
682.430	3873
682.476	2800
682.477	2726
682.525	2574
682.572	2979
682.598	2975
682.620	2888
682.667	3098
682.715	3363
682.720	3456
682.763	3838
682.810	4000
682.841	4056
682.857	4019
682.905	3699
682.952	4242
682.963	4346
683.000	4524
683.047	3853
683.085	5150
683.095	5429
683.142	4722
683.190	4385
683.206	4277
683.237	4018
683.284	4697
683.328	4635
683.332	4580
683.379	4812
683.426	5497
683.449	5508
683.473	5455
683.521	5310
683.568	5418
683.571	5479
683.615	5759
683.662	6042
683.693	5812
683.709	5602
683.757	5269
683.804	6243
683.814	6206
683.851	5971
683.898	6446
683.936	6307
683.945	6240
683.992	6126
684.039	6568
684.057	6833
684.086	7106
684.133	7312
684.179	6800
684.180	6751
684.227	6960
684.274	7303
684.300	7453
684.321	7515
684.368	7252
684.415	7718
684.422	7755
684.462	7733
684.509	7251
684.543	7878
684.556	8078
684.603	7606
684.649	7681
684.665	7672
684.696	7599
684.743	8878
684.786	9006
684.790	8994
684.837	9157
684.883	9042
684.908	9285
684.930	9554
684.977	9994
685.023	9905
685.029	10011
685.070	10069
685.117	9831
685.150	9397
685.164	9343
685.210	10168
685.257	10739
685.272	10898
685.303	10962
685.350	10835
685.393	11001
685.396	10998
685.443	11218
685.490	11103
685.514	11235
685.536	11282
685.583	11356
685.629	11169
685.636	11279
685.675	11834
685.722	11203
685.757	11388
685.768	11422
685.815	11268
685.861	11616
685.878	11720
685.908	11927
685.954	11661
686.000	11970
686.000	11962
686.047	12287
686.093	12755
686.121	13162
686.139	13283
686.185	13104
686.232	12936
686.242	12831
686.278	12407
686.324	13152
686.363	12433
686.370	12325
686.416	12532
686.463	12855
686.484	12697
686.509	12452
686.555	12557
686.601	12024
686.606	12100
686.647	12719
686.693	12983
686.727	12915
686.739	12911
686.785	12798
686.831	13495
686.848	13604
686.877	13662
686.923	13224
686.969	13066
686.969	13064
687.015	13053
687.061	13757
687.090	13943
687.107	13926
687.153	14020
687.199	13732
687.211	13651
687.245	13621
687.291	13776
687.332	14020
687.336	14054
687.382	14836
687.428	14384
687.453	14574
687.474	14485
687.520	14343
687.565	14465
687.574	14273
687.611	13928
687.657	14628
687.695	14957
687.702	15083
687.748	15429
687.794	16822
687.816	16826
687.839	16287
687.885	15464
687.931	15386
687.937	15268
687.976	15107
688.022	14992
688.058	15782
688.067	15989
688.113	15786
688.158	15916
688.179	15838
688.204	15862
688.249	16239
688.295	16235
688.300	16292
688.340	16821
688.386	16809
688.421	17313
688.431	17344
688.477	16882
688.522	16825
688.542	16655
688.567	16649
688.613	16584
688.658	16583
688.663	16611
688.703	17120
688.749	17509
688.784	17431
688.794	17403
688.839	17391
688.884	17712
688.905	17559
688.930	17338
688.975	17877
689.020	17616
689.026	17607
689.065	17849
689.110	17760
689.146	17687
689.155	17644
689.201	17537
689.246	17832
689.267	17889
689.291	18131
689.336	18041
689.381	18305
689.388	18321
689.426	18549
689.471	18913
689.509	18828
689.516	18795
689.561	18807
689.606	18966
689.630	18701
689.651	18648
689.696	18440
689.741	19255
689.750	19240
689.785	19252
689.830	19629
689.871	19492
689.875	19488
689.920	19887
689.965	19510
689.992	19464
690.010	19681
690.054	19716
690.099	20694
690.112	20669
690.144	20509
690.189	21084
690.233	20980
690.233	21010
690.278	21454
690.323	21856
690.354	21989
690.367	22232
690.412	22794
690.457	23403
690.474	23749
690.501	24629
690.546	25521
690.590	26952
690.595	27015
690.635	28822
690.680	30866
690.716	32651
690.724	33824
690.769	39798
690.813	45944
690.836	49029
690.857	56192
690.902	71224
690.946	86638
690.957	90291
690.991	127222
691.035	176129
691.077	222914
691.080	223478
691.124	222716
691.168	222727
691.198	223101
691.213	206986
691.257	158049
691.301	108340
691.318	88987
691.346	79638
691.390	64125
691.434	48071
691.439	46262
691.478	42321
691.522	37722
691.559	33815
691.567	33612
691.611	32000
691.655	30111
691.680	29038
691.699	28739
691.743	28199
691.787	27770
691.800	27375
691.831	26951
691.875	26707
691.919	26464
691.921	26400
691.964	26139
692.008	26784
692.041	26358
692.052	26216
692.096	25916
692.139	25375
692.162	25175
692.183	25305
692.227	25346
692.271	25316
692.282	25242
692.315	25384
692.359	25545
692.402	26173
692.403	26228
692.447	26115
692.490	26123
692.523	25917
692.534	26068
692.578	26533
692.622	27268
692.643	27400
692.666	27280
692.709	26982
692.753	26864
692.763	26759
692.797	27000
692.840	27600
692.884	27444
692.884	27507
692.928	28506
692.971	29381
693.004	30094
693.015	30313
693.059	30469
693.102	31415
693.124	31577
693.146	32191
693.189	33484
693.233	34548
693.245	34875
693.276	37127
693.320	39891
693.363	42487
693.365	42507
693.407	48073
693.450	53434
693.485	57730
693.493	60581
693.537	74755
693.580	89301
693.605	97287
693.624	112747
693.667	148991
693.710	186042
693.725	198688
693.753	267809
693.797	375388
693.840	483841
693.845	495876
693.883	495187
693.926	492426
693.966	490558
693.970	481120
694.013	372197
694.056	262500
694.086	186647
694.099	175821
694.142	139856
694.185	103923
694.206	86639
694.229	80973
694.272	69711
694.315	58744
694.326	55730
694.358	52762
694.401	48334
694.444	44177
694.446	43867
694.487	41678
694.530	39113
694.566	37022
694.573	36912
694.616	35636
694.659	34101
694.686	33274
694.702	33033
694.745	31946
694.787	30825
694.806	30295
694.830	30523
694.873	30782
694.916	31093
694.926	31064
694.959	30397
695.002	29473
695.044	28490
695.046	28380
695.087	28427
695.130	28564
695.166	28504
695.172	28578
695.215	28576
695.258	28730
695.286	28606
695.301	28567
695.343	28373
695.386	28209
695.406	27973
695.428	27778
695.471	27452
695.514	27098
695.526	26899
695.556	27391
695.599	28188
695.641	28683
695.646	28703
695.684	28532
695.726	28067
695.766	27545
695.769	27613
695.811	27665
695.854	27803
695.886	27528
695.896	27525
695.938	27596
695.981	27515
696.005	27443
696.023	27568
696.065	27625
696.108	27726
696.125	27683
696.150	27851
696.192	27986
696.235	28324
696.245	28271
696.277	28837
696.319	29618
696.361	30432
696.365	30418
696.404	31719
696.446	33080
696.485	34293
696.488	34305
696.530	33122
696.572	32118
696.604	31217
696.614	31064
696.656	29970
696.698	29077
696.724	28383
696.740	28428
696.783	28371
696.825	28197
696.844	28132
696.867	28229
696.909	28134
696.951	28067
696.964	27935
696.992	27639
697.034	27269
697.076	26794
697.083	26658
697.118	27102
697.160	27444
697.202	27920
697.203	27856
697.244	27625
697.286	27299
697.323	26920
697.327	26976
697.369	26882
697.411	26756
697.442	26615
697.453	26724
697.494	26774
697.536	26888
697.562	26950
697.578	27075
697.620	27020
697.661	27079
697.682	26997
697.703	27171
697.744	27438
697.786	27733
697.801	27743
697.828	27964
697.869	28178
697.911	28428
697.921	28412
697.952	28358
697.994	28130
698.035	27924
698.040	27826
698.077	27657
698.118	27308
698.160	26975
698.160	26897
698.201	27225
698.243	27444
698.279	27586
698.284	27688
698.325	27917
698.367	28105
698.399	28202
698.408	28222
698.449	27944
698.491	27689
698.518	27419
698.532	27587
698.573	27889
698.614	28170
698.638	28267
698.656	28383
698.697	28443
698.738	28520
698.757	28475
698.779	28553
698.820	28564
698.862	28552
698.877	28472
698.903	28851
698.944	29326
698.985	29806
698.996	29858
699.026	29658
699.067	29267
699.116	28721
699.235	28590
699.354	28617
699.474	28183
699.593	28158
699.713	27962
699.832	28199
699.951	28151
700.070	27763
700.190	27084
700.309	27270
700.428	26546
700.547	27473
700.667	26437
700.786	26661
700.905	26665
701.024	26390
701.143	25696
701.262	25605
701.381	25240
701.500	26182
701.619	26341
701.738	25649
701.857	25835
701.976	24792
702.095	24441
702.214	25814
702.333	25928
702.452	25058
702.571	25018
702.690	24377
702.809	24970
702.928	24555
703.047	24562
703.165	23909
703.284	23484
703.403	23381
703.522	25959
703.640	23527
703.759	25414
703.878	28182
703.997	23655
704.115	22988
704.234	23013
704.353	23773
704.471	23150
704.590	23425
704.708	22841
704.827	22877
704.946	22461
705.064	23511
705.183	23981
705.301	27313
705.420	36749
705.538	34967
705.656	31030
705.775	30861
705.893	46600
706.012	57075
706.130	29811
706.249	30039
706.367	28502
706.485	29679
706.604	29537
706.722	30554
706.840	31146
706.958	31612
707.077	30831
707.195	28076
707.313	26963
707.431	27727
707.549	27339
707.668	26434
707.786	27391
707.904	25572
708.022	26901
708.140	26126
708.258	25648
708.376	26606
708.494	26662
708.612	28473
708.730	38219
708.848	36859
708.966	33004
709.084	30902
709.202	31265
709.320	32108
709.438	32876
709.556	32821
709.674	31260
709.791	32598
709.909	30260
710.027	30868
710.145	30016
710.263	30221
710.380	29129
710.498	29483
710.616	29976
710.733	29603
710.851	28633
710.969	29645
711.086	29811
711.204	29005
711.322	28222
711.439	27489
711.557	28596
711.674	27359
711.792	28379
711.909	29394
712.027	31081
712.144	27550
712.262	28099
712.379	29204
712.497	39426
712.614	41018
712.732	35871
712.849	31791
712.966	32994
713.084	34789
713.201	34130
713.318	35220
713.436	33611
713.553	34147
713.670	33035
713.787	35432
713.905	34544
714.022	33254
714.139	32514
714.256	32641
714.373	33221
714.490	39224
714.608	51351
714.725	137095
714.842	160160
714.959	37055
715.076	31699
715.193	30127
715.310	29430
715.427	29423
715.544	28217
715.661	29894
715.778	29520
715.895	31906
716.011	29993
716.128	29657
716.245	28696
716.362	29683
716.479	28284
716.596	28891
716.713	29131
716.829	27643
716.946	27906
717.063	27264
717.180	26477
717.296	27288
717.413	27789
717.530	26006
717.646	26307
717.763	26153
717.880	25972
717.996	25400
718.113	25913
718.229	25496
718.346	24940
718.462	25083
718.579	25828
718.695	27377
718.812	28419
718.928	26616
719.045	24822
719.161	24437
719.277	23719
719.394	24563
719.510	25254
719.626	24503
719.743	28807
719.859	27022
719.975	30442
720.092	49035
720.208	90818
720.324	31410
720.440	25033
720.557	25495
720.673	26911
720.789	30518
720.905	45131
721.021	29482
721.137	23385
721.253	24261
721.369	22799
721.486	23500
721.602	26678
721.718	23274
721.834	22462
721.950	22837
722.066	21080
722.181	21144
722.297	21783
722.413	22214
722.529	22006
722.645	21434
722.761	20897
722.877	21648
722.993	20871
723.108	22723
723.224	20454
723.340	21309
723.456	20573
723.571	20419
723.687	19130
723.803	20432
723.918	19916
724.034	20051
724.150	20634
724.265	20441
724.381	25853
724.497	29145
724.612	19641
724.728	18896
724.843	19057
724.959	20078
725.074	24173
725.190	26333
725.305	20204
725.421	19750
725.536	18702
725.651	18194
725.767	18417
725.882	17736
725.997	17483
726.113	18511
726.228	17764
726.343	18299
726.459	17146
726.574	17317
726.689	17533
726.804	16503
726.920	17717
727.035	18069
727.150	17927
727.265	17167
727.380	17463
727.495	17171
727.610	16622
727.725	17132
727.841	19383
727.956	27233
728.071	26758
728.186	17256
728.301	16404
728.416	17232
728.531	16680
728.645	16252
728.760	16649
728.875	17030
728.990	16276
729.105	15871
729.220	16079
729.335	16101
729.449	15305
729.564	15372
729.679	15111
729.794	14842
729.908	16767
730.023	15808
730.138	14650
730.253	15491
730.367	15169
730.482	15227
730.596	15355
730.711	16351
730.826	14984
730.940	15406
731.055	15205
731.169	14884
731.284	14682
731.398	14796
731.513	15773
731.627	15062
731.742	15964
731.856	16637
731.970	14797
732.085	15369
732.199	16289
732.313	17169
732.428	23104
732.542	42347
732.656	31005
732.771	16466
732.885	15076
732.999	15321
733.113	15621
733.227	15874
733.342	15190
733.456	15021
733.570	14241
733.684	13792
733.798	14713
733.912	14155
734.026	14514
734.140	14480
734.254	15747
734.368	16714
734.482	19394
734.596	14747
734.710	13665
734.824	13406
734.938	13836
735.052	13320
735.166	14269
735.280	14652
735.393	13974
735.507	13338
735.621	14774
735.735	18530
735.849	14254
735.962	13928
736.076	13562
736.190	14170
736.303	15377
736.417	16754
736.531	13051
736.644	13505
736.758	13231
736.872	12862
736.985	13541
737.099	13458
737.212	13184
737.326	13646
737.439	13730
737.553	13209
737.666	13646
737.780	14020
737.893	13373
738.007	12701
738.120	13109
738.233	13384
738.347	12851
738.460	13206
738.573	13639
738.687	13064
738.800	12984
738.913	13014
739.026	13190
739.140	13346
739.253	13168
739.366	13557
739.479	13027
739.592	12747
739.705	12301
739.818	12571
739.932	13019
740.045	13003
740.158	13649
740.271	12464
740.384	12709
740.497	12283
740.610	12376
740.723	13659
740.836	13909
740.949	13205
741.062	13452
741.174	12903
741.287	13711
741.400	12301
741.513	12107
741.626	13342
741.739	13487
741.851	11859
741.964	13012
742.077	12359
742.189	13325
742.302	12630
742.415	12435
742.527	12702
742.640	12881
742.753	13135
742.865	12293
742.978	12434
743.090	13381
743.203	13380
743.316	12857
743.428	12819
743.541	13324
743.653	13232
743.766	12675
743.878	13327
743.990	13399
744.103	14297
744.215	12795
744.327	12432
744.440	14103
744.552	14462
744.664	13005
744.777	12016
744.889	12461
745.001	13087
745.113	12408
745.226	11654
745.338	12898
745.450	12631
745.562	13007
745.674	12915
745.786	12760
745.898	13022
746.010	13159
746.122	13221
746.234	12195
746.347	13219
746.459	12562
746.570	12974
746.682	12807
746.794	12663
746.906	12807
747.018	13893
747.130	13844
747.242	12721
747.354	13210
747.466	14130
747.577	13041
747.689	13779
747.801	13470
747.913	12629
748.024	12910
748.136	13565
748.248	13474
748.359	13241
748.471	13807
748.583	14469
748.694	14260
748.806	15764
748.918	13806
749.029	14411
749.141	14155
749.252	14435
749.364	13944
749.475	14762
749.587	15268
749.698	13888
749.809	15364
749.921	14352
750.032	13707
750.144	13433
750.255	14097
750.366	14260
750.478	13946
750.589	13977
750.700	13978
750.811	13879
750.923	15547
751.034	15657
751.145	16884
751.256	14223
751.367	14152
751.479	14183
751.590	14404
751.701	14167
751.812	14512
751.923	15049
752.034	13762
752.145	14576
752.256	15323
752.367	15370
752.478	15492
752.589	15325
752.700	15304
752.811	15649
752.922	14938
753.032	14908
753.143	15679
753.254	16009
753.365	16503
753.476	15499
753.586	15642
753.697	16232
753.808	16000
753.919	15743
754.029	16808
754.140	16149
754.251	16804
754.361	16079
754.472	17214
754.582	16700
754.693	17013
754.804	16838
754.914	16789
755.025	17058
755.135	17707
755.246	16963
755.356	16628
755.466	18024
755.577	19005
755.687	18807
755.798	18702
755.908	18228
756.018	17344
756.129	18709
756.239	18798
756.349	20113
756.460	19409
756.570	19887
756.680	19642
756.790	20479
756.900	20570
757.011	20522
757.121	20723
757.231	20916
757.341	21740
757.451	22561
757.561	21212
757.671	21836
757.781	21995
757.891	23309
758.001	23337
758.111	23651
758.221	24181
758.331	25125
758.441	24528
758.551	24757
758.661	26103
758.771	26779
758.880	26163
758.990	27137
759.100	27954
759.210	29154
759.320	28782
759.429	27674
759.539	29817
759.649	31372
759.758	30851
759.868	31684
759.978	31757
760.087	32454
760.197	33365
760.307	33747
760.416	34642
760.526	34856
760.635	36331
760.745	37328
760.854	39670
760.964	39154
761.073	40285
761.182	41391
761.292	42545
761.401	44264
761.511	44786
761.620	47069
761.729	47724
761.839	49074
761.948	51634
762.057	51292
762.166	52794
762.276	55041
762.385	59018
762.494	59023
762.603	61582
762.712	65200
762.822	67649
762.931	70785
763.040	73057
763.149	76098
763.258	79805
763.367	85941
763.476	88518
763.585	92195
763.694	97732
763.803	103123
763.912	108842
764.021	115628
764.130	122369
764.238	130846
764.347	139406
764.456	151946
764.565	162973
764.674	177333
764.783	193775
764.891	212043
765.000	233306
765.109	259868
765.217	290999
765.326	326743
765.435	372666
765.543	426161
765.652	491577
765.761	571422
765.869	659241
765.978	752428
766.086	833074
766.195	868375
766.303	816846
766.412	598012
766.520	557169
766.629	777882
766.737	858981
766.846	839833
766.954	759004
767.062	661339
767.171	564142
767.279	477324
767.387	403188
767.496	350177
767.604	306595
767.712	272753
767.820	244903
767.928	228156
768.037	209565
768.145	199314
768.253	192291
768.361	187207
768.469	186855
768.577	189734
768.685	197949
768.793	210326
768.901	227741
769.009	258582
769.117	298432
769.225	358510
769.333	440445
769.441	556744
769.549	698666
769.657	814444
769.765	786436
769.873	559595
769.981	693724
770.088	799949
770.196	729211
770.304	609889
770.412	505161
770.519	413737
770.627	348182
770.735	297936
770.842	255396
770.950	223601
771.058	199805
771.165	178663
771.273	160576
771.380	147443
771.488	135557
771.595	122877
771.703	113620
771.810	106836
771.918	98173
772.025	92129
772.133	86843
772.240	81371
772.348	79627
772.455	74721
772.562	71489
772.670	68517
772.777	64141
772.884	62148
772.991	60256
773.099	57315
773.206	54012
773.313	53495
773.420	51100
773.528	47833
773.635	46526
773.742	46058
773.849	44607
773.956	43053
774.063	41540
774.170	40191
774.277	40921
774.384	39199
774.491	37294
774.598	37624
774.705	35417
774.812	34688
774.919	34607
775.026	34122
775.133	32383
775.239	32509
775.346	31170
775.453	30108
775.560	29249
775.667	29949
775.773	29374
775.880	29977
775.987	29222
776.093	27028
776.200	26653
776.307	25685
776.413	26189
776.520	25612
776.627	24425
776.733	24533
776.840	22878
776.946	23835
777.053	23779
777.159	22154
777.266	21200
777.372	22469
777.478	20954
777.585	21588
777.691	20061
777.798	21319
777.904	20407
778.010	21411
778.117	20627
778.223	19902
778.329	18816
778.435	17894
778.542	18879
778.648	18205
778.754	17354
778.860	17383
778.966	17587
779.072	17656
779.178	17891
779.284	18132
779.391	18349
779.497	19266
779.603	25164
779.708	31778
779.815	59803
779.920	172814
780.026	340461
780.132	104121
780.238	32110
780.344	22456
780.450	20761
780.556	16795
780.661	16400
780.767	15389
780.873	14928
780.979	15265
781.085	14049
781.190	14372
781.296	13349
781.402	13072
781.507	11855
781.613	13353
781.719	12264
781.824	12987
781.930	13053
782.035	12169
782.141	12012
782.246	11862
782.352	12308
782.457	12308
782.563	11487
782.668	12465
782.773	12337
782.879	11563
782.984	11721
783.090	11842
783.195	12060
783.300	11083
783.405	11391
783.511	11418
783.616	10845
783.721	10969
783.826	10196
783.932	10976
784.037	10923
784.142	10236
784.247	10195
784.352	11069
784.457	9586
784.562	10871
784.667	9928
784.772	10228
784.877	8754
784.982	9493
785.087	9636
785.192	9894
785.297	8823
785.402	9229
785.507	9222
785.611	9368
785.716	8926
785.821	9274
785.926	8803
786.031	8704
786.135	8749
786.240	8495
786.345	8109
786.450	8730
786.554	8054
786.659	8744
786.763	7605
786.868	9210
786.973	9074
787.077	8412
787.182	8548
787.286	8179
787.391	8819
787.495	8136
787.600	7203
787.704	7687
787.809	7563
787.913	8069
788.017	7192
788.122	8162
788.226	6980
788.330	7846
788.435	7408
788.539	7152
788.643	7328
788.747	7893
788.852	7784
788.956	6861
789.060	7996
789.164	7476
789.268	6359
789.372	7253
789.476	7347
789.580	6899
789.684	6188
789.788	7116
789.892	6373
789.996	7660
790.100	6688
790.204	7288
790.308	7760
790.412	7555
790.516	7272
790.620	6778
790.724	6919
790.828	7470
790.931	6451
791.035	8099
791.139	7205
791.242	7143
791.346	7816
791.450	6608
791.554	6295
791.657	6061
791.761	7470
791.864	7088
791.968	6132
792.072	6197
792.175	6505
792.279	5780
792.382	5785
792.486	7193
792.589	6251
792.693	7127
792.796	5543
792.899	6862
793.003	6567
793.106	5174
793.209	6318
793.313	7348
793.416	4738
793.519	6692
793.623	7120
793.726	6907
793.829	7021
793.932	6331
794.035	6235
794.138	7535
794.242	8240
794.345	9947
794.448	14680
794.551	30064
794.654	94573
794.757	217840
794.860	63338
794.963	14504
795.066	9485
795.169	8385
795.272	7355
795.375	7235
795.477	6175
795.580	6281
795.683	4903
795.786	5804
795.889	4913
795.991	6435
796.094	5898
796.197	4631
796.300	6755
796.402	4784
796.505	4980
796.608	4248
796.710	5578
796.813	5712
796.915	4221
797.018	5504
797.120	4761
797.223	4575
797.326	6026
797.428	4343
797.530	4472
797.633	4804
797.735	6389
797.838	5084
797.940	6131
798.042	5297
798.145	4395
798.247	5616
798.349	3875
798.452	4720
798.554	4949
798.656	4778
798.758	5722
798.860	4107
798.962	4817
799.065	4364
799.167	3672
799.269	5512
799.371	5368
799.473	4664
799.575	3961
799.677	4690
799.779	6224
799.881	4196
799.983	5251
800.085	4638
800.187	4682
800.289	3344
800.390	4350
800.492	4099
800.594	5369
800.696	4115
800.798	3530
800.899	4181
801.001	4343
801.103	4122
801.205	4722
801.306	3704
801.408	3658
801.509	3571
801.611	4141
801.713	5188
801.814	3332
801.916	4898
802.017	3815
802.119	4295
802.220	4868
802.322	2030
802.423	5673
802.525	3015
802.626	3903
802.727	4165
802.829	4188
802.930	2921
803.031	5514
803.133	4336
803.234	3733
803.335	3558
803.436	2834
803.538	3617
803.639	2919
803.740	4479
803.841	2970
803.942	3568
804.043	4102
804.144	3385
804.245	3484
804.346	3637
804.447	3853
804.548	4611
804.649	4817
804.750	3353
804.851	3972
804.952	2968
805.053	4102
805.154	3668
805.255	5068
805.355	3612
805.456	3469
805.557	2408
805.658	2897
805.758	4582
805.859	3310
805.960	3785
806.061	2764
806.161	3641
806.262	3980
806.362	2741
806.463	3341
806.564	3927
806.664	2941
806.765	3509
806.865	4153
806.966	3296
807.066	2634
807.166	3739
807.267	3292
807.367	3068
807.468	3735
807.568	2166
807.668	3640
807.769	4316
807.869	2570
807.969	3817
808.069	3255
808.170	3944
808.270	2941
808.370	3241
808.470	3346
808.570	1645
808.670	2753
808.770	3527
808.870	2315
808.970	3202
809.070	3473
809.170	2287
809.271	3370
809.370	3122
809.470	2871
809.570	2240
809.670	2761
809.770	3552
809.870	3689
809.970	2907
810.070	3259
810.169	3969
810.269	1638
810.369	3906
810.469	2885
810.568	2838
810.668	3039
810.768	2908
810.867	3179
810.967	2777
811.066	3289
811.166	2025
811.265	3343
811.365	2186
811.464	3935
811.564	3503
811.663	2807
811.763	1826
811.862	3160
811.962	2717
812.061	2708
812.160	2164
812.260	2482
812.359	3512
812.458	3658
812.557	8893
812.657	11513
812.756	5956
812.855	3058
812.954	3051
813.053	3300
813.153	2664
813.252	2410
813.351	3074
813.450	3455
813.549	2957
813.648	2745
813.747	2752
813.846	3158
813.945	2675
814.044	2478
814.143	3236
814.242	2857
814.341	1818
814.439	2824
814.538	3132
814.637	2401
814.736	2391
814.835	4056
814.933	1834
815.032	3116
815.131	3674
815.229	2439
815.328	3252
815.427	2864
815.525	3470
815.624	3046
815.722	2619
815.821	2880
815.919	2855
816.018	2724
816.116	4384
816.215	2683
816.313	2152
816.412	2275
816.510	3128
816.609	5209
816.707	3139
816.805	2224
816.904	1751
817.002	2567
817.100	3155
817.198	3634
817.296	2800
817.395	3484
817.493	3858
817.591	2649
817.689	3421
817.787	3911
817.885	5413
817.983	6519
818.081	11027
818.179	23024
818.277	58694
818.375	64679
818.473	19192
818.571	9278
818.669	5811
818.767	5358
818.865	4952
818.963	5943
819.061	6686
819.158	10879
819.256	22071
819.354	46530
819.452	118443
819.549	95610
819.647	25274
819.745	10360
819.842	6937
819.940	6152
820.038	3958
820.135	3883
820.233	4342
820.330	3088
820.428	2421
820.525	3657
820.623	2980
820.720	1963
820.818	3216
820.915	4133
821.012	3752
821.110	1653
821.207	3458
821.304	2720
821.402	3004
821.499	4075
821.596	3000
821.693	3182
821.791	2940
821.888	3464
821.985	3611
822.082	2177
822.179	3324
822.276	3143
822.373	2912
822.470	3029
822.567	2528
822.664	2178
822.761	3652
822.858	2201
822.955	2833
823.052	2988
823.149	2687
823.246	2464
823.343	2395
823.440	3103
823.536	2183
823.633	2538
823.730	3052
823.827	3307
823.923	3167
824.020	3715
824.117	2593
824.213	1660
824.310	2948
824.407	2287
824.503	2835
824.600	2374
824.696	1451
824.793	3513
824.889	2217
824.986	2974
825.082	2561
825.179	2231
825.275	2600
825.371	2380
825.468	2479
825.564	1835
825.660	2671
825.757	2238
825.853	3585
825.949	1325
826.045	2289
826.142	1586
826.238	1726
826.334	2632
826.430	1861
826.526	3249
826.622	1933
826.718	2081
826.814	1478
826.910	3175
827.006	1909
827.102	1714
827.198	3394
827.294	1697
827.390	2524
827.486	2656
827.582	846
827.678	1948
827.774	2201
827.869	1486
827.965	2828
828.061	1585
828.157	1925
828.252	2248
828.348	961
828.444	3104
828.539	1349
828.635	1598
828.731	2475
828.826	1217
828.922	2171
829.017	1927
829.113	2944
829.208	1139
829.304	693
829.399	3705
829.495	1814
829.590	2777
829.685	1153
829.781	2373
829.876	2037
829.971	2543
830.066	2046
830.162	1639
830.257	2225
830.352	1905
830.447	2728
830.543	1960
830.638	1739
830.733	2478
830.828	1769
830.923	2603
831.018	2057
831.113	2009
831.208	1373
831.303	2113
831.398	2060
831.493	1608
831.588	2401
831.683	1003
831.778	2184
831.873	1880
831.967	2704
832.062	1525
832.157	1825
832.252	2561
832.346	1848
832.441	2184
832.536	1873
832.631	3662
832.725	4048
832.820	1919
832.914	1185
833.009	1905
833.104	2565
833.198	2105
833.293	1708
833.387	2097
833.482	1573
833.576	1144
833.670	3118
833.765	788
833.859	824
833.954	2162
834.048	2679
834.142	1812
834.237	1235
834.331	2098
834.425	1953
834.519	1542
834.613	2066
834.708	1349
834.802	2230
834.896	1733
834.990	1991
835.084	2262
835.178	2200
835.272	1379
835.366	925
835.460	3071
835.554	1858
835.648	1607
835.742	1433
835.836	2354
835.930	1394
836.024	2129
836.117	1945
836.211	1469
836.305	2299
836.399	2304
836.493	1763
836.586	1968
836.680	1112
836.774	1307
836.867	2622
836.961	1196
837.055	1512
837.148	1247
837.242	1905
837.335	1635
837.429	2205
837.522	2078
837.616	1917
837.709	3325
837.803	2186
837.896	2435
837.989	1391
838.083	2843
838.176	3937
838.269	3580
838.363	2878
838.456	1202
838.549	2224
838.642	2310
838.735	4738
838.829	2963
838.922	1280
839.015	1903
839.108	1211
839.201	1600
839.294	2289
839.387	2714
839.480	1508
839.573	1782
839.666	2918
839.759	1827
839.852	1568
839.945	1497
840.038	1908
840.131	1408
840.223	2386
840.316	1788
840.409	1827
840.502	1724
840.594	2936
840.687	737
840.780	1996
840.873	1430
840.965	1668
841.058	2250
841.150	3046
841.243	1953
841.336	2526
841.428	1734
841.521	1378
841.613	2046
841.706	1912
841.798	1156
841.890	1802
841.983	1220
842.075	2245
842.167	2063
842.260	2247
842.352	2499
842.444	2093
842.537	3987
842.629	4072
842.721	2437
842.813	1462
842.905	1797
842.997	1919
843.090	1863
843.182	2556
843.274	3292
843.366	6512
843.458	10065
843.550	8883
843.642	3169
843.734	1932
843.826	1695
843.918	2274
844.009	1765
844.101	1787
844.193	1704
844.285	1645
844.377	1929
844.469	2294
844.560	1273
844.652	1647
844.744	1223
844.835	1737
844.927	1232
845.019	2292
845.110	1872
845.202	2233
845.293	1952
845.385	1601
845.476	1490
845.568	2509
845.659	1976
845.751	2565
845.842	1009
845.934	1029
846.025	1800
846.116	1994
846.208	1395
846.299	2420
846.390	2309
846.482	1774
846.573	2335
846.664	2152
846.755	1940
846.846	3548
846.937	868
847.029	1119
847.120	1478
847.211	1757
847.302	2633
847.393	1515
847.484	2122
847.575	1301
847.666	936
847.757	1411
847.847	2343
847.938	1897
848.029	1054
848.120	1771
848.211	1823
848.302	1608
848.392	1880
848.483	2113
848.574	1740
848.664	1729
848.755	1893
848.846	1875
848.936	857
849.027	1779
849.118	1303
849.208	1205
849.299	1813
849.389	2613
849.480	2606
849.570	2768
849.661	3512
849.751	4623
849.841	2777
849.932	2517
850.022	1258
850.112	1930
850.203	1071
850.293	1614
850.383	1940
850.474	1672
850.564	1601
850.654	1611
850.744	1947
850.834	1621
850.924	2703
851.014	2378
851.104	1947
851.194	2128
851.284	1675
851.374	1790
851.464	1818
851.554	1739
851.644	1534
851.734	3365
851.824	4474
851.914	5371
852.004	11106
852.094	14177
852.183	3759
852.273	2776
852.363	1731
852.452	1543
852.542	1462
852.632	1213
852.721	2154
852.811	1512
852.901	2107
852.990	951
853.080	1853
853.169	833
853.259	810
853.348	2189
853.438	2035
853.527	1982
853.617	1297
853.706	1979
853.795	2610
853.885	5527
853.974	9530
854.063	17249
854.152	27549
854.242	12284
854.331	3443
854.420	1436
854.509	1633
854.598	2034
854.687	1914
854.777	2242
854.866	983
854.955	1183
855.044	926
855.133	1434
855.222	1130
855.311	1070
855.400	2091
855.488	1256
855.577	1247
855.666	1934
855.755	2107
855.844	2184
855.933	2060
856.021	1733
856.110	1581
856.199	1046
856.288	1551
856.376	1047
856.465	690
856.554	2235
856.642	985
856.731	1035
856.819	1474
856.908	577
856.996	1131
857.085	1293
857.173	1376
857.262	366
857.350	1752
857.438	1326
857.527	1798
857.615	769
857.703	2300
857.792	1323
857.880	1059
857.968	788
858.056	1024
858.145	744
858.233	695
858.321	1316
858.409	1581
858.497	874
858.585	605
858.673	1173
858.761	730
858.849	1014
858.937	1259
859.025	1027
859.113	1076
859.201	1101
859.289	1670
859.377	1058
859.465	1431
859.552	1365
859.640	883
859.728	1159
859.816	1371
859.903	1802
859.991	858
860.079	1551
860.166	1552
860.254	1262
860.342	888
860.429	323
860.517	1208
860.604	998
860.692	1507
860.779	1045
860.867	885
860.954	-203
861.042	1003
861.129	858
861.216	1110
861.304	672
861.391	1603
861.478	1419
861.565	1440
861.653	1716
861.740	719
861.827	1331
861.914	2190
862.001	984
862.089	873
862.176	856
862.263	-146
862.350	871
862.437	637
862.524	582
862.611	753
862.698	1237
862.785	1242
862.871	660
862.958	619
863.045	965
863.132	1514
863.219	901
863.306	542
863.392	1061
863.479	605
863.566	917
863.652	901
863.739	1343
863.826	1265
863.912	601
863.999	-297
864.086	1006
864.172	877
864.259	1096
864.345	424
864.432	344
864.518	1117
864.604	382
864.691	1025
864.777	881
864.863	1295
864.950	1587
865.036	1241
865.122	1846
865.209	1736
865.295	1423
865.381	827
865.467	997
865.553	1641
865.639	922
865.726	2151
865.812	3288
865.898	5143
865.984	7123
866.070	11953
866.156	14187
866.242	4459
866.328	1413
866.414	886
866.499	954
866.585	1264
866.671	1334
866.757	1538
866.843	1436
866.928	1317
867.014	1615
867.100	1814
867.186	1270
867.271	1496
867.357	1539
867.442	1675
867.528	1235
867.614	1213
867.699	1361
867.785	1452
867.870	1282
867.956	816
868.041	1102
868.127	1231
868.212	1436
868.297	1444
868.383	351
868.468	1202
868.553	1612
868.639	1427
868.724	3066
868.809	3722
868.894	1787
868.979	1279
869.065	1093
869.150	-352
869.235	791
869.320	272
869.405	87
869.490	997
869.575	128
869.660	454
869.745	1727
869.830	710
869.915	898
870.000	28
870.085	1296
870.169	1121
870.254	1180
870.339	91
870.424	434
870.509	109
870.593	728
870.678	833
870.763	1410
870.847	954
870.932	155
871.016	670
871.101	1142
871.186	1248
871.270	285
871.355	207
871.439	812
871.523	318
871.608	234
871.692	861
871.777	1492
871.861	1060
871.945	628
872.030	630
872.114	982
872.198	522
872.282	933
872.367	522
872.451	787
872.535	494
872.619	987
872.703	933
872.787	490
872.871	299
872.955	860
873.039	-136
873.123	-221
873.207	1266
873.291	1108
873.375	402
873.459	955
873.543	568
873.627	816
873.711	429
873.794	-179
873.878	373
873.962	236
874.045	601
874.129	397
874.137	344
874.213	-191
874.245	27
874.296	379
874.352	341
874.380	320
874.460	648
874.464	662
874.547	709
874.568	716
874.631	721
874.676	722
874.714	731
874.784	1004
874.798	1055
874.881	1422
874.892	1254
874.965	145
874.999	365
875.048	630
875.107	-60
875.131	-345
875.215	690
875.215	690
875.298	357
875.323	591
875.381	1097
875.430	644
875.465	349
875.538	529
875.548	557
875.631	4
875.646	72
875.714	278
875.753	109
875.798	-1
875.861	318
875.881	389
875.964	604
875.968	588
876.047	419
876.076	570
876.130	806
876.183	391
876.213	155
876.291	251
876.296	253
876.379	-190
876.398	-19
876.462	659
876.506	663
876.545	638
876.613	628
876.628	653
876.711	1055
876.721	992
876.794	252
876.828	-3
876.877	-186
876.935	449
876.960	626
877.043	1042
877.043	1044
877.125	1537
877.150	1423
877.208	1158
877.258	825
877.291	605
877.365	825
877.374	853
877.456	878
877.472	785
877.539	405
877.579	328
877.622	181
877.687	332
877.704	369
877.787	787
877.794	706
877.869	105
877.901	265
877.952	396
878.008	651
878.034	719
878.115	309
878.117	305
878.199	79
878.222	101
878.282	152
878.329	-75
878.364	-319
878.437	57
878.447	146
878.529	238
878.544	352
878.611	712
878.651	453
878.694	208
878.758	674
878.776	835
878.858	374
878.865	381
878.941	165
878.972	-31
879.023	-197
879.078	-177
879.105	-183
879.185	306
879.187	314
879.269	188
879.292	331
879.351	722
879.399	196
879.433	-69
879.506	208
879.516	204
879.598	-457
879.613	-397
879.680	14
879.720	74
879.762	162
879.827	147
879.844	121
879.926	480
879.933	476
880.007	517
880.040	261
880.089	26
880.147	472
880.171	454
880.253	652
880.254	651
880.335	710
880.360	884
880.417	1517
880.467	2011
880.499	2316
880.574	2878
880.580	2824
880.662	971
880.680	567
880.744	105
880.787	348
880.825	292
880.893	-49
880.907	-76
880.989	801
881.000	715
881.070	101
881.106	135
881.152	239
881.213	195
881.233	205
881.315	244
881.319	256
881.396	532
881.426	666
881.478	653
881.532	538
881.559	538
881.639	-28
881.641	-43
881.722	326
881.745	211
881.803	26
881.852	-13
881.885	-31
881.958	280
881.966	313
882.047	311
882.064	310
882.129	348
882.171	428
882.210	489
882.277	634
882.291	643
882.372	514
882.383	422
882.454	-47
882.489	103
882.535	71
882.596	-154
882.616	-53
882.697	539
882.702	548
882.778	376
882.808	472
882.859	595
882.914	547
882.940	438
883.020	226
883.021	228
883.102	521
883.127	545
883.183	-7
883.233	-402
883.264	-243
883.339	-26
883.345	-58
883.426	-324
883.445	-352
883.507	31
883.551	246
883.587	224
883.657	-180
883.668	-198
883.749	454
883.763	464
883.830	8
883.869	74
883.910	425
883.975	440
883.991	431
884.072	349
884.081	377
884.152	649
884.187	618
884.233	274
884.292	97
884.314	133
884.394	-8
884.398	-3
884.475	-227
884.504	-379
884.555	-251
884.610	-179
884.636	-169
884.716	47
884.716	49
884.797	154
884.821	219
884.877	205
884.927	153
884.958	269
885.033	-43
885.038	-66
885.118	322
885.139	309
885.199	28
885.244	-26
885.279	78
885.350	272
885.359	311
885.439	538
885.456	562
885.520	326
885.561	221
885.600	261
885.667	490
885.680	469
885.760	225
885.773	173
885.840	645
885.878	879
885.920	618
885.984	258
886.000	233
886.080	383
886.089	344
886.160	27
886.195	40
886.240	97
886.300	184
886.320	172
886.400	57
886.406	64
886.480	445
886.511	358
886.560	10
886.616	-55
886.640	92
886.720	614
886.722	621
886.800	-231
886.827	-408
886.879	231
886.932	647
886.959	543
887.038	329
887.039	328
887.119	251
887.143	253
887.198	604
887.248	868
887.278	731
887.354	493
887.358	486
887.437	228
887.459	179
887.517	493
887.564	611
887.596	471
887.669	380
887.676	387
887.755	421
887.774	401
887.835	-226
887.880	-564
887.914	-396
887.985	-193
887.994	-188
888.073	-51
888.090	-36
888.153	-60
888.195	-6
888.232	62
888.300	97
888.311	113
888.391	300
888.405	320
888.470	416
888.510	520
888.549	540
888.615	581
888.628	545
888.708	256
888.720	230
888.787	193
888.825	124
888.866	-155
888.930	-582
888.945	-434
889.024	419
889.035	532
889.103	-44
889.140	-363
889.182	84
889.245	758
889.261	686
889.340	361
889.349	326
889.419	60
889.454	-81
889.498	295
889.559	838
889.577	791
889.656	593
889.664	578
889.735	430
889.768	359
889.814	416
889.873	499
889.978	676
890.083	781
890.187	777
890.292	241
890.397	329
890.501	324
890.606	-19
890.710	183
890.815	-123
890.919	302
891.024	185
891.128	272
891.233	143
891.337	270
891.442	183
891.546	-41
891.650	-249
891.755	375
891.859	775
891.963	-365
892.068	706
892.172	-238
892.276	-502
892.380	111
892.484	-812
892.589	682
892.693	590
892.797	316
892.901	92
893.005	19
893.109	-431
893.213	1164
893.317	-240
893.421	282
893.525	-693
893.629	482
893.733	-391
893.837	383
893.941	551
894.045	885
894.148	-152
894.252	489
894.356	-93
894.460	46
894.564	329
894.667	466
894.771	-126
894.875	-227
894.978	-241
895.082	13
895.186	-354
895.289	276
895.393	389
895.496	169
895.600	-1207
895.703	342
895.807	-651
895.910	-161
896.014	29
896.117	211
896.221	-485
896.324	-601
896.427	307
896.531	33
896.634	466
896.737	451
896.840	-974
896.944	262
897.047	-678
897.150	593
897.253	-1099
897.356	392
897.460	159
897.563	50
897.666	246
897.769	-316
897.872	-187
897.975	568
898.078	382
898.181	415
898.284	-581
898.387	779
898.490	-164
898.593	753
898.695	-706
898.798	303
898.901	-67
899.004	-49
899.107	-525
899.209	213
899.312	-191
899.415	-140
899.518	-347
899.620	-73
899.723	-186
899.826	-186
899.928	-218
900.031	-38
900.133	199
900.236	-143
900.338	-762
900.441	325
900.543	-325
900.646	-580
900.748	-637
900.851	-297
900.953	249
901.055	368
901.158	-726
901.260	6
901.362	-472
901.465	-149
901.567	-736
901.669	-630
901.771	-628
901.873	-189
901.976	-170
902.078	-146
902.180	-45
902.282	-685
902.384	-145
902.486	-370
902.588	-208
902.690	-195
902.792	-474
902.894	-35
902.996	-464
903.098	-315
903.200	-179
903.302	-240
903.404	-85
903.505	-248
903.607	-152
903.709	444
903.811	-688
903.913	-83
904.014	-855
904.116	-306
904.218	-44
904.319	-167
904.421	-228
904.523	-58
904.624	33
904.726	50
904.827	-397
904.929	-739
905.030	-1194
905.132	752
905.233	-151
905.335	-202
905.436	-124
905.537	19
905.639	406
905.740	-84
905.841	-1314
905.943	-526
906.044	-1012
906.145	334
906.247	-353
906.348	-213
906.449	-719
906.550	-247
906.651	-50
906.752	-541
906.854	-1444
906.955	-547
907.056	-427
907.157	-29
907.258	-1196
907.359	-198
907.460	-1982
907.561	-241
907.662	-374
907.762	-181
907.863	-1012
907.964	-1137
908.065	1
908.166	-717
908.267	-1040
908.367	-943
908.468	-895
908.569	388
908.670	-833
908.770	91
908.871	-987
908.971	23
909.072	-21
909.173	56
909.273	-830
909.374	-1136
909.474	-1317
909.575	256
909.675	139
909.776	-78
909.876	-572
909.977	294
910.077	-63
910.177	-26
910.278	-338
910.378	-748
910.478	-543
910.579	-61
910.679	-650
910.779	61
910.879	-1436
910.980	-547
911.080	-787
911.180	-843
911.280	-224
911.380	-138
911.480	449
911.580	-1208
911.680	-913
911.780	-875
911.880	-601
911.980	-118
912.080	-438
912.180	-358
912.280	-167
912.380	-621
912.480	-792
912.580	-210
912.679	-697
912.779	-834
912.879	-228
912.979	-209
913.078	-751
913.178	-670
913.278	-294
913.377	-836
913.477	-255
913.577	-28
913.676	-810
913.776	5
913.875	-667
913.975	301
914.074	-741
914.174	-456
914.273	-1173
914.373	308
914.472	-1489
914.572	-1240
914.671	-942
914.770	-280
914.870	-1496
914.969	-651
915.068	-736
915.167	-271
915.267	-1059
915.366	129
915.465	-393
915.564	-826
915.663	-657
915.763	-569
915.862	-902
915.961	-577
916.060	-787
916.159	-132
916.258	-238
916.357	-680
916.456	-470
916.555	-1026
916.654	-795
916.752	-722
916.851	-488
916.950	-682
917.049	-524
917.148	-892
917.247	-172
917.345	-1230
917.444	-968
917.543	-244
917.642	-1204
917.740	-480
917.839	-686
917.937	-719
918.036	-610
918.135	-521
918.233	-1246
918.332	-679
918.430	-885
918.529	-566
918.627	-570
918.726	7
918.824	-1001
918.923	-453
919.021	-1496
919.119	-386
919.218	-1078
919.316	541
919.414	-920
919.512	-481
919.611	-724
919.709	-569
919.807	-572
919.905	-705
920.003	-994
920.102	-1602
920.200	-1118
920.298	-796
920.396	-1041
920.494	-558
920.592	-1048
920.690	-967
920.788	-357
920.886	-1309
920.984	-275
921.082	-718
921.180	-243
921.277	-1188
921.375	-591
921.473	-800
921.571	-774
921.669	-1158
921.766	-1837
921.864	-846
921.962	-305
922.060	-548
922.157	7
922.255	-623
922.352	-881
922.450	613
922.548	-1369
922.645	-469
922.743	-1356
922.840	-237
922.938	-777
923.035	-420
923.133	-1134
923.230	-858
923.327	-8
923.425	90
923.522	-453
923.619	-236
923.717	-1084
923.814	-692
923.911	-217
924.008	223
924.106	-579
924.203	-652
924.300	-783
924.397	-339
924.494	-877
924.591	-435
924.688	-130
924.786	-313
924.883	-471
924.979	-1193
925.077	-298
925.173	543
925.270	-95
925.367	-544
925.464	-1026
925.561	-431
925.658	-847
925.755	-383
925.852	-1990
925.948	74
926.045	-523
926.142	-258
926.239	-1005
926.335	-316
926.432	-884
926.529	-165
926.625	-663
926.722	-747
926.818	-443
926.915	-405
927.011	-1312
927.108	-940
927.204	-793
927.301	-657
927.397	-1160
927.494	-165
927.590	-497
927.687	-487
927.783	-835
927.879	-796
927.976	-399
928.072	-160
928.168	-1020
928.264	-139
928.361	-895
928.457	-586
928.553	-742
928.649	323
928.745	-461
928.841	8
928.937	-446
929.033	-547
929.129	-1231
929.225	-454
929.321	-1240
929.417	-758
929.513	-1612
929.609	-63
929.705	-896
929.801	-214
929.897	-1394
929.993	-508
930.089	-1136
930.184	36
930.280	-228
930.376	-489
930.471	-1105
930.567	-899
930.663	-899
930.758	-801
930.854	-985
930.950	-139
931.045	-741
931.141	-133
931.236	-695
931.332	-1187
931.427	-603
931.523	-698
931.618	-916
931.714	-702
931.809	-200
931.905	-1149
932.000	-1099
932.095	-975
932.191	-224
932.286	-755
932.381	-1142
932.476	-774
932.572	-1239
932.667	-714
932.762	-1212
932.857	-733
932.952	-914
933.047	-481
933.142	-1294
933.237	-873
933.332	-370
933.427	-423
933.522	-1270
933.617	-954
933.712	-599
933.807	-366
933.902	-1338
933.997	-886
934.092	-731
934.187	-620
934.282	-705
934.376	-901
934.471	-1071
934.566	-757
934.661	-1086
934.755	-571
934.850	-708
934.945	-361
935.039	-1434
935.134	-190
935.228	-1013
935.323	-48
935.417	-809
935.512	-738
935.606	-1089
935.701	-493
935.795	-592
935.890	-605
935.984	-328
936.079	-894
936.173	-277
936.267	-761
936.362	-1739
936.456	-1485
936.550	-669
936.644	-627
936.738	-841
936.833	-1601
936.927	-719
937.021	-602
937.115	-1163
937.209	-1451
937.303	-874
937.397	-637
937.491	-511
937.585	-718
937.679	-1119
937.773	-875
937.867	-746
937.961	-1293
938.055	-1341
938.149	-861
938.243	-770
938.337	-230
938.430	-1557
938.524	-501
938.618	-718
938.712	-771
938.805	-1188
938.899	-1301
938.993	-398
939.086	-402
939.180	-1268
939.274	-521
939.367	-1358
939.461	-579
939.554	-1572
939.648	-595
939.741	-1028
939.835	-521
939.928	-854
940.022	-429
940.115	-1140
940.208	-490
940.302	-1007
940.395	-950
940.488	-1656
940.582	-18
940.675	-1926
940.768	-651
940.861	-767
940.954	-1204
941.048	-1137
941.141	-945
941.234	-1601
941.327	-690
941.420	-1030
941.513	392
941.606	-1371
941.699	-546
941.792	-1645
941.885	-1734
941.978	-557
942.071	-978
942.164	-865
942.257	-621
942.349	-1338
942.442	-331
942.535	-974
942.628	-774
942.721	-1886
942.813	-2076
942.906	-287
942.999	-455
943.091	-1124
943.184	-375
943.277	-1669
943.369	-1386
943.462	-1611
943.554	-928
943.647	-1009
943.739	-431
943.832	-1691
943.924	-1638
944.017	-707
944.109	-944
944.201	-1067
944.294	-301
944.386	-842
944.478	-1221
944.571	-1039
944.663	-621
944.755	-1759
944.847	-549
944.940	-903
945.032	-1510
945.124	-1162
945.216	-331
945.308	-1022
945.400	-957
945.492	-970
945.584	-1618
945.676	-989
945.768	-1191
945.860	-267
945.952	-932
946.044	-1600
946.136	-1010
946.228	-1019
946.320	-1119
946.412	-1094
946.503	-1005
946.595	-982
946.687	-490
946.779	-1308
946.870	-1743
946.962	-2320
947.054	-602
947.145	-1225
947.237	-505
947.329	-1470
947.420	-1878
947.512	-1301
947.603	-511
947.695	-1004
947.786	-1560
947.878	-1653
947.969	-704
948.061	-1803
948.152	-1442
948.243	-1645
948.335	-638
948.426	-1802
948.517	-1293
948.609	-801
948.700	-1249
948.791	-1155
948.882	-812
948.973	-1046
949.065	-1127
949.156	-1802
949.247	-1714
949.338	-928
949.429	-1864
949.520	-580
949.611	-1594
949.702	-1758
949.793	-638
949.884	-1262
949.975	-1669
950.066	-1329
950.157	-1490
950.247	-1201
950.338	-1524
950.429	-1948
950.520	-1035
950.611	-2027
950.701	-574
950.792	-1670
950.883	-978
950.973	-1337
951.064	-575
951.155	-732
951.245	-883
951.336	-2323
951.427	-1625
951.517	-64
951.608	-807
951.698	-1866
951.788	-593
951.879	-1666
951.969	-1398
952.060	-1199
952.150	-1441
952.240	-1216
952.331	-2932
952.421	-234
952.511	-1425
952.602	-1019
952.692	-1695
952.782	-1241
952.872	-480
952.962	-1851
953.052	-1264
953.143	-2248
953.233	-1231
953.323	-1338
953.413	-1914
953.503	-1087
953.593	-1423
953.683	-1525
953.773	-1914
953.863	-1539
953.953	-1987
954.042	-948
954.132	-1048
954.222	-622
954.312	-1544
954.402	-1217
954.492	-1344
954.581	-1143
954.671	-440
954.761	-2146
954.850	14
954.940	-1420
955.030	-1352
955.119	-1826
955.209	-2083
955.298	-1718
955.388	-651
955.477	-394
955.567	-1880
955.656	-2075
955.746	-1034
955.835	-1124
955.925	-1855
956.014	-1548
956.103	-1382
956.193	-833
956.282	-1555
956.371	-1775
956.461	-1585
956.550	-1541
956.639	-1192
956.728	-1550
956.817	-1704
956.906	-2312
956.995	247
957.085	-1460
957.174	-1360
957.263	-1452
957.352	-1062
957.441	-1285
957.530	-547
957.619	-1130
957.708	-1467
957.796	-1856
957.885	-853
957.974	-1906
958.063	-959
958.152	-1586
958.241	-706
958.329	-919
958.418	-1371
958.507	-1478
958.596	-342
958.684	-2053
958.773	-174
958.861	-1208
958.950	-1190
959.039	-1306
959.127	-1157
959.216	-919
959.304	-1317
959.393	-1009
959.481	-1676
959.570	-838
959.658	-1785
959.746	-1549
959.835	114
959.923	-717
960.011	-1420
960.100	-1249
960.188	-873
960.276	-2194
960.365	-770
960.453	-2378
960.541	-1994
960.629	-1974
960.717	-1193
960.805	-2376
960.893	-808
960.981	-1676
961.069	-362
961.158	-1375
961.245	-366
961.333	-764
961.421	-1930
961.509	-1215
961.597	-1153
961.685	-1857
961.773	-1571
961.861	-1920
961.949	-1166
962.036	-2081
962.124	-445
962.212	-1022
962.299	-1332
962.387	-1369
962.475	-1131
962.562	-1932
962.650	-1226
962.738	-1040
962.825	-1269
962.913	-1429
963.000	-1921
963.088	-1319
963.175	-501
963.263	-1268
963.350	-1806
963.438	-1357
963.525	-1982
963.612	-1309
963.700	-469
963.787	1381
963.874	164
963.962	-1182
964.049	-802
964.136	-1252
964.223	-1194
964.310	-1832
964.398	-1106
964.485	-1538
964.572	-1506
964.659	-1099
964.746	-410
964.833	-1047
964.920	-986
965.007	-1070
965.094	-449
965.181	-1759
965.268	-1098
965.355	-816
965.441	-2067
965.528	-1367
965.615	-513
965.702	-1331
965.789	-1534
965.875	-1601
965.962	-1258
966.049	-1582
966.136	-431
966.222	-2246
966.309	-1123
966.395	-1422
966.482	-1109
966.569	-1529
966.655	-559
966.742	-1089
966.828	-1164
966.915	-2244
967.001	-1151
967.087	-2321
967.174	-1289
967.260	-1381
967.347	-1557
967.433	-1191
967.519	184
967.605	-1450
967.692	-1040
967.778	-1778
967.864	-1346
967.950	-1476
968.036	-937
968.123	-1406
968.209	-1582
968.295	-1865
968.381	-316
968.467	-1820
968.553	-1738
968.639	-1104
968.725	-1478
968.811	-991
968.897	-1059
968.983	-1253
969.069	-2452
969.154	-616
969.240	-677
969.326	-2080
969.412	-1582
969.497	-1823
969.583	-1200
969.669	-426
969.755	-859
969.840	-2572
969.926	-1284
970.012	-1496
970.097	-759
970.183	-1808
970.268	-1303
970.354	-1742
970.439	-1938
970.525	218
970.610	-1281
970.696	-1261
970.781	-1430
970.866	-2377
970.952	-932
971.037	-1901
971.122	-1129
971.208	-1540
971.293	-783
971.378	-2054
971.463	-1455
971.549	-1090
971.634	-873
971.719	-1154
971.804	-1657
971.889	-1385
971.974	-1758
972.059	-1040
972.144	-870
972.229	-1099
972.314	-775
972.399	-1573
972.484	-1256
972.569	-437
972.654	-2289
972.739	-214
972.824	-1040
972.908	-1645
972.993	-1409
973.078	-1608
973.163	-1003
973.247	-2007
973.332	-2402
973.417	-603
973.501	-1754
973.586	-2151
973.671	-910
973.755	-1088
973.840	-711
973.924	-1547
974.009	-1280
974.093	-2005
974.178	-184
974.262	-815
974.346	-1354
974.431	-924
974.515	-1377
974.600	-2028
974.684	-1100
974.768	-1308
974.852	-288
974.937	-2484
975.021	-287
975.105	-1158
975.189	-965
975.273	-1210
975.358	-1968
975.442	-2021
975.526	-798
975.610	-2138
975.694	-1243
975.778	-779
975.862	-1649
975.946	-3150
976.030	492
976.114	-1625
976.198	-610
976.281	-2270
976.365	-1137
976.449	-1500
976.533	-1023
976.617	-1675
976.700	-1011
976.784	-1322
976.868	-1726
976.951	-1112
977.035	-1084
977.119	-1441
977.202	-1851
977.286	-1496
977.369	-1213
977.453	-1254
977.536	-963
977.620	-2073
977.703	-1984
977.787	-2417
977.870	-572
977.953	-362
978.037	-2371
978.120	-1186
978.203	-947
978.287	-1278
978.370	-1222
978.453	-850
978.536	-1426
978.620	-1227
978.703	-792
978.786	-2013
978.869	-2121
978.952	-2219
979.035	476
979.118	-1996
979.201	-1581
979.284	-1703
979.367	-1420
979.450	-1814
979.533	-1407
979.616	-2316
979.699	-1918
979.782	-1864
979.865	-1317
979.948	-1318
980.030	-1492
980.113	-1237
980.196	-1533
980.279	-1181
980.361	-1957
980.444	-1373
980.526	-321
980.609	-1239
980.692	-2495
980.774	-1615
980.857	-2146
980.939	-1459
981.022	-2033
981.104	-1773
981.187	-1461
981.269	-745
981.352	-2199
981.434	-2064
981.516	-2313
981.599	-1445
981.681	-1282
981.763	-1412
981.846	-1473
981.928	-1686
982.010	-882
982.092	-2069
982.174	-445
982.256	-1904
982.339	-1569
982.421	-1518
982.503	-891
982.585	-2244
982.667	-1376
982.749	-1768
982.831	-1827
982.913	-2327
982.995	-879
983.077	-1986
983.158	-35
983.240	-2807
983.322	-2001
983.404	-884
983.486	-1713
983.568	-1479
983.649	-1437
983.731	-1082
983.813	-1337
983.894	-1236
983.976	-2108
984.058	-2358
984.139	115
984.221	-2255
984.302	-346
984.384	-1633
984.465	-2421
984.547	-1399
984.628	-1520
984.710	-1413
984.791	-2538
984.872	-1235
984.954	-985
985.035	-1856
985.116	-1216
985.198	-2267
985.279	-405
985.360	-1694
985.441	-1464
985.522	-1715
985.604	-2205
985.685	-3613
985.766	17
985.847	-1515
985.928	-2130
986.009	-2321
986.090	-1669
986.171	-1142
986.252	-2477
986.333	-2671
986.414	-1522
986.495	-1440
986.576	-1424
986.656	-1949
986.737	-1429
986.818	-2052
986.899	-2290
986.980	-1626
987.060	-1292
987.141	-2402
987.222	-1444
987.302	-1950
987.383	-1272
987.464	-1839
987.544	-1311
987.625	-1988
987.705	-760
987.786	-1190
987.866	-1813
987.947	-2158
988.027	-1181
988.108	-2424
988.188	-813
988.268	-1741
988.349	-1194
988.429	-1213
988.509	-434
988.589	-2452
988.670	-2940
988.750	-801
988.830	-2359
988.910	-2032
988.990	-1859
989.070	-2142
989.151	-2179
989.231	-1755
989.311	-238
989.391	-2308
989.471	-1992
989.551	-2107
989.631	-1876
989.711	-894
989.791	-2042
989.870	-1951
989.950	-824
990.030	-1548
990.110	-1511
990.190	-2914
990.269	-1752
990.349	-2532
990.429	-1854
990.509	-1813
990.588	-1884
990.668	-2236
990.747	-2019
990.827	-2293
990.907	-2004
990.986	-2164
991.066	-1647
991.145	-2179
991.225	-1012
991.304	-1809
991.383	-1817
991.463	-2014
991.542	-1502
991.622	-1797
991.701	-2369
991.780	-2202
991.859	-1447
991.939	-1334
992.018	-1573
992.097	-2395
992.176	-1997
992.256	-1455
992.335	-2657
992.414	-1732
992.493	-2475
992.572	-2451
992.651	-1219
992.730	-1599
992.809	-949
992.888	-2993
992.967	-2015
993.046	-1270
993.125	-2599
993.203	-1708
993.282	-1580
993.361	-1518
993.440	-2006
993.519	-2416
993.597	-1357
993.676	-2803
993.755	-876
993.834	-2196
993.912	-2242
993.991	-908
994.069	-1873
994.148	-2721
994.226	-2311
994.305	-2132
994.384	-2194
994.462	-288
994.540	-2845
994.619	-1728
994.697	-1041
994.776	-2135
994.854	-953
994.932	-2419
995.011	-1295
995.089	-2765
995.167	-1891
995.245	-2652
995.324	-1820
995.402	-1993
995.480	-2423
995.558	-1367
995.636	-1814
995.714	-2452
995.792	-318
995.870	-2409
995.948	-2122
996.026	-1457
996.104	-2594
996.182	-967
996.260	-2090
996.338	-1862
996.416	-2448
996.494	-2432
996.572	-1162
996.649	-2230
996.727	-2955
996.805	-2318
996.883	-1789
996.960	-2441
997.038	-1356
997.116	-1614
997.193	-2456
997.271	-963
997.348	-550
997.426	-1983
997.504	-2858
997.581	-1375
997.658	-1581
997.736	-2215
997.813	-1842
997.891	-1655
997.968	-1740
998.046	-1640
998.123	-2496
998.200	-2074
998.277	-2391
998.355	-1516
998.432	-2904
998.509	-2812
998.586	-1560
998.663	-2034
998.741	-1561
998.818	-1699
998.895	-1944
998.972	-1869
999.049	-1435
999.126	-2851
999.203	-860
999.280	-2295
999.357	-2641
999.434	-1575
999.511	-792
999.587	-1708
999.664	-1906
999.741	-1870
999.818	-970
999.895	-1942
999.971	-2430
1000.048	-2082
1000.125	-1399
1000.202	-3191
1000.278	-1573
1000.355	-2000
1000.431	-1386
1000.508	-2011
1000.584	-1249
1000.661	-1508
1000.738	-2441
1000.814	-1919
1000.890	-1230
1000.967	-2886
1001.043	-1799
1001.120	-2449
1001.196	-1512
1001.272	-2451
1001.349	-1300
1001.425	-1476
1001.501	-1287
1001.577	-2204
1001.654	-1931
1001.730	-1388
1001.806	-2384
1001.882	-3203
1001.958	-1498
1002.034	-2209
1002.110	-1226
1002.186	-2266
1002.262	-1530
1002.338	-2748
1002.414	-755
1002.490	-1518
1002.566	-2067
1002.642	-2933
1002.718	-757
1002.794	-1433
1002.870	-2089
1002.945	-1762
1003.021	-1112
1003.097	-2278
1003.173	-1693
1003.248	-1468
1003.324	-1642
1003.400	-2077
1003.475	-2059
1003.551	-1934
1003.626	5
1003.702	-1991
1003.777	-1346
1003.853	-2580
1003.928	-1812
1004.004	-1546
1004.079	-1470
1004.155	-1222
1004.230	-2470
1004.305	-1328
1004.381	-2758
1004.456	-2090
1004.531	-1819
1004.607	-1535
1004.682	-2008
1004.757	-1677
1004.832	-1952
1004.907	-1778
1004.982	-1051
1005.057	-934
1005.133	-2178
1005.208	-1266
1005.283	-1571
1005.358	-1920
1005.433	-2315
1005.508	-2063
1005.583	-1786
1005.657	-2264
1005.732	-1403
1005.807	-1872
1005.882	-1729
1005.957	-2096
1006.032	-1425
1006.106	-1906
1006.181	-1690
1006.256	-1871
1006.331	-1909
1006.405	-1604
1006.480	-1568
1006.554	-1852
1006.629	-1183
1006.704	-2142
1006.778	-1345
1006.853	-1123
1006.927	-946
1007.002	-1686
1007.076	-1728
1007.150	-1662
1007.225	-1801
1007.299	-1029
1007.373	-2447
1007.448	-2216
1007.522	-480
1007.596	-1371
1007.671	-2124
1007.745	-1699
1007.819	-2123
1007.893	-1374
1007.967	-1136
1008.041	-2080
1008.115	-884
1008.190	-1451
1008.264	-930
1008.338	-3684
1008.412	-2268
1008.486	-1666
1008.560	-1421
1008.633	-2245
1008.707	-1838
1008.781	-1232
1008.855	-1360
1008.929	-2155
1009.003	-2102
1009.076	-2053
1009.150	-892
1009.224	-1872
1009.298	-1213
1009.371	-1983
1009.445	-1447
1009.519	-960
1009.592	-1784
1009.666	-2287
1009.739	-407
1009.813	-1783
1009.886	-1405
1009.960	-1762
1010.033	-1786
1010.107	-1502
1010.180	-2224
1010.253	-1647
1010.327	-1595
1010.400	-1075
1010.473	-1492
1010.547	-1083
1010.620	-1045
1010.693	-1633
1010.766	-1160
1010.840	-1898
1010.913	-973
1010.986	-2579
1011.059	-618
1011.132	-1619
1011.205	-884
1011.278	-2018
1011.351	-1304
1011.424	-1731
1011.497	-1473
1011.570	-1183
1011.643	-1868
1011.716	-1721
1011.789	-1557
1011.862	-1153
1011.934	-1454
1012.007	-2323
1012.080	-1130
1012.153	-1876
1012.225	-875
1012.298	-2389
1012.371	-1564
1012.443	-1253
1012.516	-2033
1012.588	-1407
1012.661	-983
1012.733	-2528
1012.806	-1362
1012.879	-1960
1012.951	-1690
1013.023	-2363
1013.096	-964
1013.168	-2689
1013.241	-984
1013.313	-1664
1013.385	-2271
1013.458	-1623
1013.530	-1202
1013.602	-2152
1013.674	-1046
1013.746	-2190
1013.819	-1709
1013.891	-911
1013.963	-1889
1014.035	-1768
1014.107	-1443
1014.179	-1315
1014.251	-1205
1014.323	-1269
1014.395	-1398
1014.467	-1545
1014.539	-1349
1014.611	-1537
1014.683	-891
1014.754	-971
1014.826	-1810
1014.898	-1326
1014.970	-1877
1015.042	-1353
1015.113	-1761
1015.185	-2007
1015.257	-1738
1015.328	-1978
1015.400	-1764
1015.471	-953
1015.543	-1690
1015.615	-1425
1015.686	-2105
1015.757	-1566
1015.829	-658
1015.901	-1496
1015.972	-170
1016.043	-2038
1016.115	-865
1016.186	-1899
1016.257	-2337
1016.328	-1866
1016.400	-476
1016.471	-2005
1016.542	-2021
1016.613	-1155
1016.685	-1640
1016.756	-1250
1016.827	-2010
1016.898	-2173
1016.969	-72
1017.040	-1745
1017.111	-1537
1017.182	-1779
1017.253	-1191
1017.324	-2224
1017.395	-1840
1017.466	-1393
1017.537	-1813
1017.608	-1652
1017.678	-1846
1017.749	-2363
1017.820	-772
1017.891	-2261
1017.961	-1520
1018.032	-2034
1018.103	-1042
1018.173	-2025
1018.244	-1448
1018.315	-1623
1018.385	-902
1018.456	-1697
1018.526	-1815
1018.597	-1235
1018.667	-1397
1018.738	-2351
1018.808	-1683
1018.878	-2565
1018.949	-1636
1019.019	-1162
1019.089	-1232
1019.160	-1704
1019.230	-2106
1019.300	-1890
1019.371	-1591
1019.441	-1227
1019.511	-1262
1019.581	-1216
1019.651	-1464
1019.721	-713
1019.791	-1691
1019.861	-1443
1019.931	-1652
1020.001	-1855
1020.071	-1317
1020.141	-1435
1020.211	-1401
1020.281	-2300
1020.351	-725
1020.421	-1594
1020.491	-1458
1020.560	-2177
1020.630	-1296
1020.700	-1852
1020.770	-1687
1020.839	-1582
1020.909	-1712
1020.979	-1539
1021.048	-2049
1021.118	-1991
1021.187	-2414
1021.257	-1423
1021.326	-1480
1021.396	-1959
1021.465	-714
1021.535	-1774
1021.604	-2673
1021.674	-899
1021.743	-2047
1021.812	-2133
1021.882	-1093
1021.951	-2243
1022.020	-1615
1022.089	-2112
1022.159	-1089
1022.228	-1706
1022.297	-1717
1022.366	-1754
1022.435	-1881
1022.504	-1592
1022.573	-1680
1022.642	-1683
1022.711	-2296
1022.781	-1972
1022.849	-1002
1022.918	-1301
1022.987	-1406
1023.056	-2162
1023.125	-1759
1023.194	-1765
1023.263	-1480
1023.331	-2254
1023.400	-2109
1023.469	-1764
1023.538	-1019
1023.606	-2089
1023.675	-1463
1023.744	-3023
1023.812	-2722
1023.881	-2277
1023.949	-2044
1024.018	-2133
1024.086	-1887
1024.155	-2340
1024.223	-2109
1024.292	-2222
1024.360	-1682
1024.429	-2235
1024.497	-2197
1024.565	-1920
1024.634	-2291
1024.702	-2097
1024.770	-893
1024.838	-1635
1024.907	-1353
1024.975	-1656
1025.043	-948
1025.111	-2346
1025.179	-1774
1025.247	-1860
1025.315	-2284
1025.383	-1456
1025.451	-1082
1025.519	-2213
1025.587	-2603
1025.655	-1408
1025.723	-1885
1025.791	-1927
1025.859	-2133
1025.927	-1548
1025.995	-1728
1026.062	-1740
1026.130	-1807
1026.198	-2202
1026.266	-1434
1026.333	-1730
1026.401	-1197
1026.469	-2569
1026.536	-2002
1026.604	-1747
1026.671	-1553
1026.739	-2356
1026.806	-1467
1026.874	-2210
1026.941	-1985
1027.009	-2453
1027.076	-2400
1027.144	-1648
1027.211	-1727
1027.278	-2522
1027.345	-2382
1027.413	-2023
1027.480	-2164
1027.547	-2181
1027.614	-1860
1027.682	-1822
1027.749	-1957
1027.816	-2273
1027.883	-2526
1027.950	-1733
1028.017	-2797
1028.084	-1882
1028.151	-2745
1028.218	-2062
1028.285	-2257
1028.352	-2649
1028.419	-2354
1028.486	-2482
1028.553	-2049
1028.619	-2339
1028.686	-1325
1028.753	-2398
1028.820	-1507
1028.886	-2554
1028.953	-2381
1029.020	-2485
1029.086	-1116
1029.153	-2670
1029.220	-2915
1029.286	-2165
1029.353	-1253
1029.419	-2176
1029.486	-1777
1029.552	-2888
1029.619	-1637
1029.685	-2235
1029.751	-2568
1029.818	-1084
1029.884	-2897
1029.951	-1767
1030.017	-1737
1030.083	-2145
1030.149	-2492
1030.216	-2379
1030.282	-2885
1030.348	-2139
1030.414	-2188
1030.480	-2024
1030.546	-2363
1030.612	-1893
1030.678	-1579
1030.744	-2119
1030.810	-1256
1030.876	-2395
1030.942	-2811
1031.008	-3213
1031.074	-2160
1031.140	-2134
1031.206	-741
1031.272	-3909
1031.337	-2573
1031.403	-2437
1031.469	-2032
1031.534	-2392
1031.600	-1976
1031.666	-2434
1031.731	-2301
1031.797	-1815
1031.863	-2532
1031.928	-2289
1031.994	-2153
1032.059	-1805
1032.125	-2160
1032.190	-2644
1032.256	-2574
1032.321	-2610
1032.386	-1483
1032.452	-2207
1032.517	-1894
1032.582	-2359
1032.647	-2879
1032.713	-2507
1032.778	-1142
1032.843	-2888
1032.908	-1374
1032.974	-2231
1033.039	-2242
1033.104	-2676
1033.169	-1994
1033.234	-2071
1033.299	-1941
1033.364	-1742
1033.429	-2085
1033.494	-2013
1033.559	-1826
1033.624	-3033
1033.688	-1790
1033.753	-3150
1033.818	-2126
1033.883	-2689
1033.948	-1779
1034.013	-2850
1034.077	-1941
1034.142	-2493
1034.207	-2508
1034.271	-1359
1034.336	-1672
1034.400	-2247
1034.465	-1801
1034.530	-2470
1034.594	-2270
1034.658	-2327
1034.723	-2104
1034.787	-2244
1034.852	-2907
1034.916	-2430
1034.981	-1593
1035.045	-2516
1035.109	-2114
1035.173	-1914
1035.238	-1988
1035.302	-2269
1035.366	-1892
1035.430	-1780
1035.495	-2329
1035.559	-2158
1035.623	-1893
1035.687	-2982
1035.751	-2006
1035.815	-2523
1035.879	-2291
1035.943	-2668
1036.007	-2478
1036.071	-2546
1036.135	-2251
1036.198	-2606
1036.262	-2155
1036.326	-2932
1036.390	-2502
1036.454	-2603
1036.517	-1879
1036.581	-1939
1036.645	-2049
1036.709	-2589
1036.772	-2795
1036.836	-2512
1036.900	-2555
1036.963	-2250
1037.026	-2038
1037.090	-2893
1037.154	-1651
1037.217	-2266
1037.280	-2088
1037.344	-3050
1037.407	-2416
1037.471	-2495
1037.534	-3104
1037.597	-2398
1037.661	-2322
1037.724	-2643
1037.787	-2285
1037.850	-2406
1037.913	-2426
1037.977	-1905
1038.040	-1527
1038.103	-3628
1038.166	-2093
1038.229	-2437
1038.292	-2533
1038.355	-1669
1038.418	-1945
1038.481	-2498
1038.544	-2408
1038.607	-1802
1038.670	-1884
1038.732	-2501
1038.795	-2203
1038.858	-2161
1038.921	-1811
1038.984	-1888
1039.046	-2872
1039.109	-2503
1039.172	-1320
1039.234	-2142
1039.297	-2242
1039.360	-2556
1039.422	-1846
1039.485	-2068
1039.547	-2169
1039.610	-1876
1039.672	-1686
1039.734	-2130
1039.797	-2243
1039.859	-2395
1039.922	-2076
1039.984	-2121
1040.046	-2087
1040.109	-2069
1040.171	-2226
1040.233	-2591
1040.295	-2251
1040.358	-2479
1040.420	-1978
1040.482	-1960
1040.544	-2009
1040.606	-1688
1040.668	-1372
1040.730	-2570
1040.792	-2051
1040.854	-2438
1040.916	-1916
1040.978	-2400
1041.040	-2069
1041.102	-3269
1041.164	-2642
1041.225	-2955
1041.287	-2499
1041.349	-2530
1041.411	-2265
1041.472	-1947
1041.534	-1896
1041.596	-1876
1041.657	-2087
1041.719	-2535
1041.781	-2168
1041.842	-2341
1041.904	-2379
1041.965	-2796
1042.027	-2049
1042.088	-1669
1042.150	-2136
1042.211	-1826
1042.272	-1867
1042.334	-2257
1042.395	-2500
1042.456	-2157
1042.518	-2145
1042.579	-1534
1042.640	-2611
1042.701	-2818
1042.763	-1845
1042.824	-2992
1042.885	-1873
1042.946	-2535
1043.007	-2305
1043.068	-2531
1043.129	-1821
1043.190	-2634
1043.251	-1645
1043.312	-3032
1043.373	-1307
1043.434	-2710
1043.495	-1701
1043.556	-2013
1043.616	-1773
1043.677	-2637
1043.738	-2175
1043.799	-2334
1043.859	-2475
1043.920	-3048
1043.981	-2289
1044.041	-2427
1044.102	-2556
1044.162	-1847
1044.223	-1898
1044.284	-1942
1044.344	-2008
1044.405	-2406
1044.465	-1639
1044.525	-1771
1044.586	-2275
1044.646	-2337
1044.707	-2306
1044.767	-2047
1044.827	-1722
1044.887	-1438
1044.948	-1006
1045.008	-2776
1045.068	-1759
1045.128	-2291
1045.188	-2453
1045.249	-2399
1045.309	-1812
1045.369	-1590
1045.429	-2587
1045.489	-1498
1045.549	-1962
1045.609	-2872
1045.669	-1918
1045.729	-2540
1045.789	-2054
1045.848	-2449
1045.908	-1992
1045.968	-2538
1046.028	-946
1046.088	-2000
1046.147	-1264
1046.207	-1756
1046.267	-1296
1046.326	-1636
1046.386	-902
1046.446	-877
1046.505	-1184
1046.565	-1666
1046.624	-1410
1046.684	-787
1046.743	-851
1046.803	-1034
1046.862	-237
1046.922	0
