'Start Wavelength	183.907
'End Wavelength	1046.922
'Gate Delay	5.000
'Gate Width (ms)	1.050
'Laser Output Level	0.000
'X Position	0.000
'Y Position	0.000
'Z Position	0.000
'Grid Point Number	1.000
'Shot Number	100.000
183.907	-193.000
183.977	-412.000
184.047	-118
184.116	262
184.186	-573
184.256	-89
184.325	-703
184.395	-1076
184.465	73
184.534	-321
184.604	-134
184.674	611
184.743	-1013
184.813	-42
184.883	-743
184.952	-742
185.022	-3
185.092	-494
185.161	-940
185.231	-1022
185.301	-234
185.370	595
185.440	-173
185.509	-429
185.579	-135
185.649	774
185.718	-723
185.788	238
185.857	-407
185.927	-30
185.996	-394
186.066	-203
186.136	-382
186.205	-601
186.275	-216
186.344	353
186.414	-554
186.483	-432
186.553	135
186.622	-188
186.692	-10
186.761	132
186.831	-532
186.900	-824
186.970	-719
187.039	-26
187.109	-40
187.178	352
187.248	76
187.317	70
187.387	-839
187.456	646
187.526	-312
187.595	101
187.664	-808
187.734	-184
187.803	-845
187.873	-262
187.942	141
188.012	429
188.081	-744
188.150	-15
188.220	-744
188.289	274
188.358	-588
188.428	-171
188.497	-583
188.567	155
188.636	-500
188.705	660
188.775	358
188.844	-863
188.913	149
188.983	-535
189.052	-808
189.121	67
189.191	-654
189.260	-157
189.329	-804
189.399	-695
189.468	-889
189.537	-199
189.606	-388
189.676	-73
189.745	-631
189.814	-239
189.883	-839
189.953	-414
190.022	-603
190.091	-976
190.161	-1291
190.230	184
190.299	-863
190.368	-248
190.437	-701
190.507	2
190.576	-679
190.645	-557
190.714	-631
190.783	-54
190.853	-381
190.922	-88
190.991	-990
191.060	-306
191.129	-603
191.198	751
191.268	-992
191.337	142
191.406	-266
191.475	-22
191.544	-530
191.613	-222
191.682	-1441
191.752	152
191.821	-851
191.890	-358
191.959	-27
192.028	12
192.097	-617
192.166	-171
192.235	-731
192.304	260
192.373	-988
192.442	190
192.511	-852
192.580	-110
192.650	-143
192.719	228
192.788	-306
192.857	484
192.926	-857
192.995	399
193.064	-550
193.133	-479
193.202	-537
193.271	231
193.340	-283
193.409	-258
193.478	169
193.547	-390
193.615	-1221
193.684	-503
193.753	-187
193.822	-24
193.891	-963
193.960	336
194.029	-538
194.098	83
194.167	-321
194.236	-155
194.305	-462
194.374	-162
194.443	-1479
194.512	152
194.580	-590
194.649	119
194.718	-388
194.787	438
194.856	-942
194.925	294
194.994	-1032
195.062	630
195.131	-807
195.200	-217
195.269	-763
195.338	50
195.407	-186
195.475	-1360
195.544	92
195.613	-533
195.682	-407
195.751	52
195.819	-989
195.888	-1010
195.957	-648
196.026	371
196.094	-358
196.163	-95
196.232	-558
196.301	379
196.369	-761
196.438	-1045
196.507	-692
196.576	-155
196.644	-851
196.713	194
196.782	-1045
196.850	218
196.919	-503
196.988	-244
197.056	208
197.125	-214
197.194	-355
197.262	649
197.331	-880
197.400	-928
197.468	-772
197.537	-293
197.606	-652
197.674	116
197.743	-1285
197.812	-538
197.880	-854
197.949	-580
198.017	-491
198.086	-639
198.155	-754
198.223	-241
198.292	-1002
198.360	-438
198.429	-1247
198.497	-192
198.566	-456
198.635	22
198.703	465
198.772	-300
198.840	-812
198.909	-934
198.977	-325
199.046	-38
199.114	-808
199.183	755
199.251	-622
199.320	-143
199.388	-666
199.457	-1116
199.525	-445
199.594	-786
199.662	-528
199.731	-101
199.799	-989
199.867	89
199.936	-940
200.004	-127
200.073	-82
200.141	206
200.210	-523
200.278	-599
200.346	-1290
200.415	630
200.483	-985
200.552	209
200.620	-930
200.688	-333
200.757	-366
200.825	-926
200.893	-911
200.962	-373
201.030	-604
201.098	-553
201.167	-1472
201.235	-711
201.303	-389
201.372	-504
201.440	-1001
201.508	-187
201.577	-511
201.645	255
201.713	-572
201.781	388
201.850	-838
201.918	-8
201.986	-1240
202.055	710
202.123	-902
202.191	-461
202.259	-267
202.327	-379
202.396	-1714
202.464	-712
202.532	-974
202.600	175
202.669	-1123
202.737	-626
202.805	-550
202.873	-457
202.941	-382
203.009	-535
203.078	-685
203.146	-843
203.214	-1383
203.282	-1074
203.350	-801
203.418	-867
203.487	-656
203.555	-873
203.623	-500
203.691	182
203.759	-797
203.827	-880
203.895	-1163
203.963	-456
204.031	-331
204.099	-96
204.168	-1301
204.236	-467
204.304	-415
204.372	63
204.440	-1196
204.508	-1124
204.576	-1242
204.644	490
204.712	-1420
204.780	-172
204.848	-994
204.916	-1235
204.984	-854
205.052	183
205.120	-255
205.188	-283
205.256	-584
205.324	-211
205.392	-1349
205.460	30
205.528	-983
205.596	-306
205.664	-481
205.732	-501
205.799	-893
205.867	-177
205.935	-1293
206.003	-246
206.071	-625
206.139	-617
206.207	-864
206.275	-963
206.343	-1130
206.411	-460
206.478	-992
206.546	-268
206.614	-1158
206.682	588
206.750	-235
206.818	-1029
206.885	-296
206.953	-1531
207.021	-98
207.089	-646
207.157	-1887
207.225	-353
207.292	-891
207.360	-819
207.428	-928
207.496	-670
207.563	-598
207.631	-285
207.699	-468
207.767	-883
207.834	-1459
207.902	-257
207.970	-1207
208.038	-823
208.105	-382
208.173	-451
208.241	-765
208.309	-492
208.376	-670
208.444	19
208.512	-1835
208.579	-837
208.647	-638
208.715	74
208.782	343
208.850	97
208.918	-773
208.985	-806
209.053	-597
209.120	-408
209.188	-1204
209.256	-334
209.323	-1210
209.391	-580
209.459	60
209.526	-1269
209.594	-749
209.661	-61
209.729	-326
209.796	-539
209.864	-1113
209.932	-2131
209.999	-1175
210.067	-616
210.134	-969
210.202	-814
210.269	-406
210.337	-18
210.404	-1075
210.472	-434
210.539	-604
210.607	-242
210.674	-848
210.742	-882
210.809	-676
210.877	-633
210.944	-148
211.012	-810
211.079	899
211.146	-742
211.214	-519
211.281	-783
211.349	-348
211.416	230
211.484	-1218
211.551	-950
211.618	-936
211.686	-342
211.753	-1574
211.821	-354
211.888	-1289
211.955	-593
212.023	-764
212.090	-340
212.157	-1098
212.225	-719
212.292	-514
212.359	-246
212.427	594
212.494	95
212.561	-338
212.629	-425
212.696	-839
212.763	-669
212.831	-1108
212.898	558
212.965	-1595
213.032	-53
213.100	2
213.167	-653
213.234	-1142
213.301	141
213.369	-483
213.436	-574
213.503	-1360
213.570	534
213.638	-577
213.705	-168
213.772	-736
213.839	-295
213.906	-1389
213.973	108
214.041	-394
214.108	-444
214.175	-536
214.242	-376
214.309	-1093
214.376	-816
214.444	-1106
214.511	124
214.578	-1106
214.645	-205
214.712	-1149
214.779	-308
214.846	-896
214.913	281
214.980	-791
215.048	-200
215.115	-595
215.182	-173
215.249	-460
215.316	-915
215.383	-825
215.450	245
215.517	-837
215.584	-568
215.651	-728
215.718	49
215.785	-363
215.852	-1301
215.919	-844
215.986	10
216.053	-816
216.120	-1314
216.187	-879
216.254	-1007
216.321	-1123
216.388	-707
216.455	-1165
216.522	-105
216.589	-580
216.656	-121
216.722	-548
216.789	-207
216.856	-940
216.923	-174
216.990	-330
217.057	-548
217.124	-1235
217.191	-621
217.258	-427
217.324	-1084
217.391	-267
217.458	122
217.525	-411
217.592	-1095
217.659	-1317
217.725	-62
217.792	-1319
217.859	-451
217.926	-1584
217.993	-617
218.059	-453
218.126	-293
218.193	-855
218.260	-592
218.327	-537
218.393	-515
218.460	-1431
218.527	-1925
218.594	-469
218.660	-792
218.727	-39
218.794	-1102
218.860	-658
218.927	-862
218.994	-1241
219.061	-55
219.127	-625
219.194	-214
219.261	-240
219.327	-1075
219.394	-326
219.461	-1289
219.527	-892
219.594	42
219.661	-962
219.727	-1352
219.794	-674
219.860	-595
219.927	-533
219.994	-553
220.060	-600
220.127	-260
220.193	204
220.260	-450
220.326	-808
220.393	-396
220.460	321
220.526	-412
220.593	-1255
220.659	490
220.726	-557
220.792	305
220.859	-512
220.925	-182
220.992	207
221.058	653
221.125	311
221.191	-979
221.258	-826
221.324	134
221.391	-957
221.457	-854
221.524	-1307
221.590	-316
221.657	-877
221.723	-519
221.789	-844
221.856	-35
221.922	-2313
221.989	283
222.055	-865
222.121	-1210
222.188	-189
222.254	-1117
222.321	-894
222.387	-912
222.453	-1182
222.520	-730
222.586	-1153
222.652	-299
222.719	-1853
222.785	340
222.851	-1242
222.918	-227
222.984	-929
223.050	-880
223.116	-1993
223.183	-483
223.249	-720
223.315	-827
223.382	-748
223.448	162
223.514	-1716
223.580	276
223.647	-1080
223.713	-793
223.779	-634
223.845	-80
223.911	-793
223.978	-983
224.044	-813
224.110	-874
224.176	-49
224.242	224
224.309	-1595
224.375	281
224.441	-891
224.507	-843
224.573	-1912
224.639	21
224.705	-1094
224.772	53
224.838	-1355
224.904	127
224.970	-475
225.036	-549
225.102	-1698
225.168	-70
225.234	-1210
225.300	-553
225.366	-724
225.432	-16
225.499	-419
225.565	-1152
225.631	-914
225.697	-450
225.763	-1065
225.829	-1111
225.895	-647
225.961	-309
226.027	-893
226.093	-1343
226.159	-1065
226.225	-174
226.291	-576
226.357	1042
226.423	-766
226.489	-839
226.554	-1243
226.620	-154
226.686	-843
226.752	-100
226.818	-110
226.884	1821
226.950	1384
227.016	-825
227.082	-858
227.148	-742
227.214	-741
227.279	-150
227.345	-1181
227.411	-309
227.477	-1166
227.543	-351
227.609	-690
227.674	302
227.740	-1717
227.806	-140
227.872	-1884
227.938	-988
228.003	-1087
228.069	-89
228.135	-1794
228.201	-338
228.267	-886
228.332	-593
228.398	-2720
228.464	-144
228.530	-1605
228.595	65
228.661	-1710
228.727	-993
228.792	-605
228.858	-621
228.924	-2880
228.990	619
229.055	-1927
229.121	-505
229.187	-890
229.252	-1259
229.318	-908
229.384	-762
229.449	-1181
229.515	-2738
229.581	-1706
229.646	632
229.712	-1287
229.777	-942
229.843	-1984
229.909	-645
229.974	-590
230.040	-900
230.105	-902
230.171	-1515
230.236	-582
230.302	-252
230.368	-915
230.433	-1137
230.499	-816
230.564	-290
230.630	-1303
230.695	-755
230.761	-55
230.826	-2719
230.892	58
230.957	-1345
231.023	-856
231.088	100
231.154	-1001
231.219	-149
231.284	-1812
231.350	-337
231.415	-2138
231.481	-265
231.546	-1217
231.612	220
231.677	-1766
231.742	-1471
231.808	340
231.873	-1536
231.939	-2978
232.004	-374
232.069	-444
232.135	-1550
232.200	-1715
232.265	-65
232.331	-855
232.396	-1233
232.461	-1693
232.527	-1537
232.592	-704
232.657	-1064
232.723	-1240
232.788	-323
232.853	-1031
232.918	-192
232.984	-968
233.049	-1019
233.114	-1765
233.179	131
233.245	-832
233.310	189
233.375	-2279
233.440	-315
233.506	-1222
233.571	-1041
233.636	-445
233.701	-1182
233.766	-1095
233.832	-473
233.897	-1334
233.962	-1899
234.027	-209
234.092	-342
234.157	-801
234.222	-1256
234.288	-867
234.353	-1161
234.418	-961
234.483	207
234.548	-765
234.613	-836
234.678	-797
234.743	-987
234.808	170
234.873	-1708
234.938	-913
235.004	-781
235.069	-1646
235.134	-1087
235.199	-700
235.264	-467
235.329	-2248
235.394	-601
235.459	-346
235.524	-1905
235.589	-468
235.654	-862
235.719	-1419
235.784	-523
235.849	-1517
235.913	-981
235.978	-1464
236.043	-832
236.108	-1508
236.173	-877
236.238	-814
236.303	-1064
236.368	-1598
236.433	-262
236.498	-1902
236.563	-367
236.627	-343
236.692	1916
236.757	1089
236.822	256
236.887	-1513
236.952	136
237.017	-2223
237.081	91
237.146	-1644
237.211	566
237.276	993
237.341	3403
237.405	-331
237.470	68
237.535	-755
237.600	-644
237.664	-376
237.729	-1563
237.794	-1361
237.859	489
237.923	-1094
237.988	-350
238.053	157
238.118	-533
238.182	-992
238.247	622
238.312	-1845
238.376	-240
238.441	-2535
238.506	1325
238.570	-1640
238.635	520
238.700	-470
238.764	-1158
238.829	-849
238.893	-760
238.958	-240
239.023	-1152
239.087	-1268
239.152	-793
239.216	-1729
239.281	-626
239.346	-1009
239.410	-1008
239.475	-1254
239.539	234
239.604	-1356
239.668	-512
239.733	-1692
239.797	-653
239.862	-861
239.926	-365
239.991	-1222
240.055	-1240
240.120	-1155
240.184	-343
240.249	-1601
240.313	-1303
240.378	-1014
240.442	-898
240.507	-868
240.571	-922
240.635	-1485
240.700	-1787
240.764	-790
240.829	-128
240.893	-2610
240.957	134
241.022	-1362
241.086	289
241.151	-1734
241.215	-1482
241.279	169
241.344	-1306
241.408	-1147
241.472	-1682
241.537	-870
241.601	-1016
241.665	-2019
241.730	-1855
241.794	-819
241.858	-978
241.922	-1449
241.987	-1075
242.051	-1857
242.115	-1540
242.179	-558
242.244	-1138
242.308	-275
242.372	-863
242.436	-1738
242.501	-198
242.565	-1672
242.629	-523
242.693	-346
242.757	-1367
242.822	-1165
242.886	-1032
242.950	-304
243.014	-1132
243.078	-949
243.142	-1044
243.206	-1425
243.271	-848
243.335	-2230
243.399	-639
243.463	-977
243.527	1320
243.591	-1131
243.655	-652
243.719	-1353
243.783	292
243.847	-712
243.911	-314
243.975	-2125
244.040	-2590
244.104	92
244.168	-750
244.232	-1886
244.296	-597
244.360	-929
244.424	-1704
244.488	-1025
244.552	-477
244.615	-2341
244.679	-700
244.743	-1658
244.807	-1569
244.871	-365
244.935	81
244.999	-2332
245.063	-904
245.127	-713
245.191	-528
245.255	-606
245.319	-906
245.383	-2417
245.446	257
245.510	-1578
245.574	-60
245.638	-908
245.702	-1784
245.766	-781
245.829	-47
245.893	-2558
245.957	-1679
246.021	-267
246.085	-876
246.149	-715
246.212	-723
246.276	-1701
246.340	-1728
246.404	-1811
246.467	-130
246.531	-2838
246.595	71
246.659	-724
246.722	-1986
246.786	-1205
246.850	-678
246.913	-608
246.977	-2326
247.041	-899
247.104	-789
247.168	-1375
247.232	-520
247.295	-818
247.359	-545
247.423	-1482
247.486	-845
247.550	-1200
247.614	-1241
247.677	-1365
247.741	-534
247.804	-1064
247.868	-504
247.932	-1768
247.995	401
248.059	-1606
248.122	-1667
248.186	-158
248.249	-963
248.313	-484
248.376	1074
248.440	-1153
248.503	-1844
248.567	217
248.630	-1122
248.694	-1257
248.757	539
248.821	1022
248.884	984
248.948	-1481
249.011	-570
249.075	-208
249.138	1039
249.202	-427
249.265	-914
249.328	-460
249.392	-1524
249.455	-1546
249.519	-1604
249.582	-1065
249.645	-160
249.709	-1307
249.772	-971
249.835	-1108
249.899	-1275
249.962	-937
250.025	-1324
250.089	-211
250.152	703
250.215	-1064
250.279	-702
250.342	-914
250.405	-299
250.468	-964
250.532	-485
250.595	-439
250.658	353
250.721	3735
250.785	-90
250.848	462
250.911	-1185
250.974	-937
251.038	-889
251.101	-959
251.164	-285
251.227	-734
251.290	-331
251.354	-274
251.417	2135
251.480	2200
251.543	1129
251.606	5118
251.669	4424
251.732	245
251.795	348
251.859	762
251.922	3156
251.985	1564
252.048	136
252.111	-790
252.174	-1220
252.237	-61
252.300	735
252.363	389
252.426	5554
252.489	-414
252.552	579
252.615	-1561
252.678	303
252.741	641
252.804	592
252.867	4307
252.930	1886
252.993	-111
253.056	-171
253.119	-1258
253.182	-859
253.245	-1562
253.308	164
253.371	-1598
253.434	-329
253.497	-546
253.559	79
253.622	-711
253.685	-1034
253.748	-1229
253.811	-1056
253.874	-789
253.937	-1575
254.000	-579
254.062	-880
254.125	-448
254.188	916
254.251	-366
254.314	-926
254.376	-1263
254.439	-261
254.502	-1476
254.565	-1025
254.628	87
254.690	-1393
254.753	-1985
254.816	-940
254.878	-936
254.941	-548
255.004	-426
255.067	-683
255.129	-1650
255.192	-630
255.255	-1703
255.317	-995
255.380	-987
255.443	-1062
255.505	-1679
255.568	-1844
255.631	-1146
255.693	-1103
255.756	-2097
255.819	746
255.881	-1410
255.944	-1275
256.006	-658
256.069	-1824
256.132	-1502
256.194	-1260
256.257	-705
256.319	-1312
256.382	-1452
256.444	194
256.507	-1200
256.569	-1607
256.632	-1750
256.694	-1888
256.757	-119
256.819	3398
256.882	-886
256.944	-928
257.007	-796
257.069	-1609
257.132	-1267
257.194	-489
257.257	-1771
257.319	-1355
257.381	-1574
257.444	683
257.506	3041
257.569	4165
257.631	371
257.693	-323
257.756	-1992
257.818	-466
257.880	-1764
257.943	-618
258.005	-1500
258.067	-1319
258.130	-918
258.192	-1523
258.254	-1694
258.317	-1694
258.379	-1268
258.441	-1130
258.503	-927
258.566	-1290
258.628	-480
258.690	-2237
258.753	-733
258.815	-913
258.877	-1808
258.939	-602
259.001	-502
259.064	-1635
259.126	-1835
259.188	-1028
259.250	-1053
259.312	-877
259.375	-1744
259.437	-1490
259.499	-736
259.561	-262
259.623	-1403
259.685	-1785
259.747	-1867
259.809	-607
259.872	-367
259.934	981
259.996	640
260.058	-307
260.120	-2073
260.182	-1312
260.244	-1585
260.306	-1456
260.368	-1183
260.430	-1444
260.492	-1117
260.554	249
260.616	-1710
260.678	-943
260.740	-1192
260.802	-1746
260.864	-1093
260.926	-1871
260.988	-311
261.050	-1104
261.112	-1729
261.174	617
261.236	-1088
261.298	-1341
261.359	-1397
261.421	-507
261.483	-1868
261.545	-453
261.607	-3208
261.669	-538
261.731	-1673
261.793	-1176
261.854	-3547
261.916	-547
261.978	-2064
262.040	-887
262.102	-1121
262.164	-1231
262.225	-798
262.287	-1140
262.349	-2105
262.411	-386
262.472	-570
262.534	-1283
262.596	-1910
262.658	-627
262.719	-2384
262.781	-1050
262.843	-1815
262.904	-967
262.966	-985
263.028	-1369
263.090	24
263.151	2557
263.213	-173
263.275	-1097
263.336	-1848
263.398	-503
263.459	-1806
263.521	-884
263.583	-811
263.644	-1480
263.706	-2446
263.767	-2357
263.829	-858
263.891	-1319
263.952	-2938
264.014	-1392
264.075	-1451
264.137	-115
264.198	-276
264.260	-1094
264.321	-951
264.383	-87
264.444	593
264.506	-867
264.567	-1646
264.629	-144
264.690	-1305
264.752	-1021
264.813	-1643
264.875	-1367
264.936	-786
264.998	-1911
265.059	-2008
265.120	-1507
265.182	-1360
265.243	886
265.305	1131
265.366	-519
265.427	-1536
265.489	-366
265.550	-2228
265.611	-974
265.673	-2060
265.734	-1130
265.795	-1329
265.857	-1667
265.918	-1633
265.979	-526
266.040	2122
266.102	1598
266.163	-673
266.224	-1371
266.286	-1225
266.347	-1415
266.408	-1493
266.469	-800
266.530	-1379
266.592	-1117
266.653	-2176
266.714	-1474
266.775	-1468
266.836	-1072
266.898	-1767
266.959	-1093
267.020	-1986
267.081	-87
267.142	-1515
267.203	-1940
267.264	-2029
267.326	-1218
267.387	-1925
267.448	-1668
267.509	-1637
267.570	-798
267.631	-1983
267.692	-2163
267.753	-2094
267.814	-1872
267.875	-1390
267.936	-1595
267.997	-1610
268.058	-1806
268.119	-1209
268.180	-1897
268.241	-1477
268.302	-1142
268.363	-2146
268.424	-1401
268.485	-1378
268.546	-1311
268.607	-1390
268.668	-1290
268.729	-1675
268.790	-1504
268.851	-1391
268.912	-882
268.972	-2255
269.033	-845
269.094	-2108
269.155	-900
269.216	-2229
269.277	-1592
269.338	-1388
269.398	-1767
269.459	-2016
269.520	-1690
269.581	-1943
269.642	-1358
269.702	-1707
269.763	-1401
269.824	-1258
269.885	-1172
269.945	-1353
270.006	-1419
270.067	-2036
270.128	-1389
270.188	-1561
270.249	-1396
270.310	-1877
270.370	-301
270.431	-1920
270.492	-1086
270.553	-1422
270.613	-1227
270.674	-1118
270.734	-1965
270.795	-2198
270.856	-1071
270.916	-2032
270.977	-1415
271.038	-1527
271.098	-1445
271.159	-1614
271.219	-1670
271.280	-1554
271.340	-1392
271.401	-1662
271.462	-1401
271.522	-1082
271.583	-1747
271.643	-1642
271.704	-1863
271.764	-1842
271.825	-776
271.885	-327
271.946	280
272.006	-1028
272.066	-328
272.127	143
272.187	-606
272.248	-1185
272.308	-1738
272.369	-638
272.429	-450
272.489	-1751
272.550	-1536
272.610	-1187
272.671	-1381
272.731	-1384
272.791	-1294
272.852	-2360
272.912	-1084
272.972	-1603
273.033	-1414
273.093	-1333
273.153	-1197
273.214	-1576
273.274	-1407
273.334	-1374
273.394	266
273.455	-1611
273.515	-35
273.575	-605
273.635	-476
273.696	-1050
273.756	456
273.816	-619
273.876	-909
273.936	-1609
273.997	-203
274.057	-1718
274.117	-1256
274.177	-1795
274.237	61
274.297	705
274.358	-525
274.418	39
274.478	-1171
274.538	-1386
274.598	-1587
274.658	-415
274.718	-885
274.778	-1136
274.838	-1254
274.898	-1929
274.958	-374
275.018	-195
275.078	-758
275.138	-915
275.198	-1174
275.258	-1785
275.318	-1161
275.378	-1977
275.438	-740
275.498	-1806
275.558	-960
275.618	-677
275.678	-627
275.738	-890
275.798	-1735
275.858	-1483
275.918	-953
275.978	-1734
276.038	-1564
276.098	-1303
276.157	-1410
276.217	-910
276.277	-629
276.337	-1875
276.397	-1354
276.457	-1947
276.517	-1542
276.576	-1851
276.636	-1945
276.696	-1901
276.756	-1114
276.815	-907
276.875	-1266
276.935	-2583
276.995	-1112
277.055	-1040
277.114	-1845
277.174	-1698
277.234	-1026
277.293	-1805
277.353	-976
277.413	-1626
277.472	-1627
277.532	-882
277.592	-601
277.651	-1317
277.711	-119
277.771	-1364
277.830	1308
277.890	207
277.950	-671
278.009	3081
278.069	88
278.128	-62
278.188	874
278.248	-1069
278.307	36
278.367	-86
278.426	-851
278.486	-1280
278.545	-1457
278.605	-1560
278.664	-1573
278.724	-1764
278.783	-415
278.843	56
278.902	-1188
278.962	-1862
279.021	-1134
279.081	-935
279.140	-504
279.199	-1954
279.259	-1222
279.318	-1683
279.378	-972
279.437	-1127
279.496	1332
279.556	10391
279.615	8809
279.675	998
279.734	517
279.793	-892
279.853	430
279.912	-979
279.971	-684
280.031	-983
280.090	-272
280.149	53
280.208	-121
280.268	6325
280.327	8357
280.386	611
280.445	-393
280.505	-1222
280.564	-896
280.623	-1551
280.682	-975
280.742	-1333
280.801	-1276
280.860	-2165
280.919	-1675
280.978	-1720
281.037	-1319
281.097	-2087
281.156	-1103
281.215	-1446
281.274	-1813
281.333	-413
281.392	-1252
281.451	-1481
281.510	-971
281.569	-2447
281.628	-985
281.688	-1282
281.747	-879
281.806	-1547
281.865	-2464
281.924	-2448
281.983	-1360
282.042	-2639
282.101	-1330
282.160	-1234
282.219	-1241
282.278	-1394
282.337	-281
282.396	-1804
282.454	-1142
282.513	-1575
282.572	-703
282.631	-1358
282.690	-1657
282.749	-1610
282.808	-2103
282.867	-1895
282.926	-1131
282.985	-1711
283.043	-1615
283.102	-1412
283.161	-1369
283.220	-1601
283.279	-514
283.338	-1971
283.396	-1983
283.455	-2098
283.514	-947
283.573	-1236
283.631	-1312
283.690	-1377
283.749	-1373
283.808	-1962
283.866	-740
283.925	-2022
283.984	-1043
284.043	-2241
284.101	-680
284.160	-956
284.219	-1122
284.277	-1462
284.336	-951
284.395	-1085
284.453	-641
284.512	-1694
284.570	-821
284.629	-764
284.688	-1031
284.746	-1404
284.805	-895
284.863	-1381
284.922	-221
284.981	-820
285.039	442
285.098	450
285.156	5342
285.215	18145
285.273	17882
285.332	7527
285.390	3583
285.449	579
285.507	694
285.566	-1040
285.624	-520
285.683	-1125
285.741	-1090
285.799	-1671
285.858	-967
285.916	-947
285.975	-976
286.033	-1241
286.091	-1170
286.150	-1372
286.208	-734
286.267	-1339
286.325	-786
286.383	-1189
286.442	-1039
286.500	-875
286.558	-1173
286.616	-1925
286.675	-803
286.733	-1439
286.791	-1838
286.850	-1319
286.908	-1656
286.966	-1631
287.024	-1421
287.083	-1043
287.141	-789
287.199	-1985
287.257	-130
287.315	-1242
287.374	-1406
287.432	-1858
287.490	-1468
287.548	-2301
287.606	-1725
287.664	-895
287.723	-689
287.781	-1683
287.839	-1461
287.897	-1594
287.955	-675
288.013	-578
288.071	-910
288.129	3994
288.187	19404
288.245	7863
288.303	1685
288.361	-277
288.419	-675
288.477	-1184
288.535	-400
288.593	-1459
288.651	-1242
288.709	-2202
288.767	-995
288.825	-1601
288.883	-1398
288.941	-2129
288.999	-1753
289.057	-1514
289.115	-1971
289.173	-2245
289.231	-727
289.289	-1577
289.346	-1629
289.404	-1787
289.462	-1191
289.520	-1853
289.578	-1264
289.636	-1869
289.694	-1291
289.751	-2101
289.809	-1910
289.867	-2160
289.925	-1287
289.983	-2322
290.040	-2239
290.098	-1663
290.156	-1835
290.214	-1342
290.271	-2219
290.329	-1898
290.387	-1745
290.444	-1694
290.502	-882
290.560	-1666
290.617	-1197
290.675	-2038
290.733	-1841
290.790	-1574
290.848	-1348
290.906	-1856
290.963	-2259
291.021	-1633
291.078	-1880
291.136	-1121
291.194	-1055
291.251	-690
291.309	-1238
291.366	-1368
291.424	-1058
291.481	-1517
291.539	-1909
291.596	-1727
291.654	-1976
291.711	-1571
291.769	-1239
291.826	-2215
291.884	-1474
291.941	-1522
291.999	-1752
292.056	-2221
292.114	-1863
292.171	-2153
292.228	-1516
292.286	-1677
292.343	-2193
292.401	-1680
292.458	-1063
292.515	-2222
292.573	-1336
292.630	-2437
292.687	-949
292.745	-2549
292.802	-1688
292.859	-1569
292.917	-70
292.974	-910
293.031	-1529
293.089	-2345
293.146	-916
293.203	-1777
293.260	-1878
293.318	-1401
293.375	-810
293.432	-1599
293.489	-1682
293.546	-2068
293.604	-1415
293.661	-924
293.718	1817
293.775	-341
293.832	-901
293.889	-1544
293.947	-1240
294.004	-2015
294.061	-1172
294.118	-1250
294.175	182
294.232	1332
294.289	-713
294.346	-1251
294.403	-535
294.460	-1052
294.517	-1272
294.574	-1881
294.631	-1228
294.688	-2021
294.745	-742
294.802	1524
294.859	3247
294.916	-628
294.973	-666
295.030	-1730
295.087	-1526
295.144	-1663
295.201	-972
295.258	-1242
295.315	-1109
295.372	-700
295.429	888
295.486	-1276
295.542	-1150
295.599	95
295.656	1830
295.713	195
295.770	762
295.827	-972
295.883	-119
295.940	-1969
295.997	-1058
296.054	-1408
296.111	-1077
296.167	-1074
296.224	-1199
296.281	-1557
296.338	-1149
296.394	-2555
296.451	-743
296.508	-1132
296.564	195
296.621	-522
296.678	993
296.734	2451
296.791	-57
296.848	-1295
296.904	-1103
296.961	-1077
297.018	1018
297.074	-274
297.131	-601
297.187	-1073
297.244	-931
297.301	439
297.357	3299
297.414	702
297.470	-660
297.527	-1518
297.583	-1954
297.640	-1446
297.696	-1611
297.753	-1453
297.809	-1505
297.866	-2021
297.922	-676
297.979	-1778
298.035	-2100
298.092	-1070
298.148	-83
298.204	-1286
298.261	-964
298.317	-267
298.374	2761
298.430	1263
298.486	-638
298.543	-784
298.599	-1651
298.656	-1293
298.712	-964
298.768	-233
298.824	573
298.881	-1494
298.937	-1032
298.993	-803
299.050	-1862
299.106	-828
299.162	-1684
299.218	-1559
299.275	-876
299.331	-1992
299.387	-282
299.443	1308
299.500	3345
299.556	-254
299.612	-892
299.668	-1125
299.724	-186
299.780	-409
299.837	-1337
299.893	-1979
299.949	683
300.005	1154
300.061	1113
300.117	3692
300.173	770
300.229	-510
300.285	-405
300.341	-888
300.397	-626
300.453	-1595
300.510	-1649
300.566	-2266
300.622	-782
300.678	470
300.734	2526
300.790	764
300.845	2207
300.901	518
300.957	689
301.013	341
301.069	-777
301.125	-1469
301.181	-477
301.237	-1345
301.293	-829
301.349	-1467
301.405	-515
301.461	-1883
301.516	-1108
301.572	-1718
301.628	-723
301.684	-1798
301.740	-398
301.796	-196
301.851	-1032
301.907	-523
301.963	5
302.019	706
302.074	7796
302.130	8236
302.186	3852
302.242	-90
302.297	-718
302.353	-992
302.409	-659
302.464	-434
302.520	-737
302.576	872
302.631	1833
302.687	-338
302.743	-420
302.798	-987
302.854	-1255
302.910	-1788
302.965	-1149
303.021	-747
303.076	-555
303.132	-1157
303.187	-384
303.243	-2018
303.299	-880
303.354	-1343
303.410	-1215
303.465	-2040
303.521	-1455
303.576	-1330
303.632	-746
303.687	-1516
303.743	1490
303.798	2065
303.853	268
303.909	-1143
303.964	-433
304.020	-762
304.075	-806
304.130	-1602
304.186	-91
304.241	366
304.297	-318
304.352	-1544
304.358	-1473
304.407	-899
304.449	-1537
304.463	-1750
304.518	-895
304.539	-1075
304.573	-1386
304.629	-973
304.630	-967
304.684	-665
304.720	437
304.739	969
304.794	2169
304.811	1769
304.850	800
304.902	-228
304.905	-291
304.960	-465
304.992	-734
305.015	-956
305.071	-343
305.083	-394
305.126	-574
305.173	-1336
305.181	-1456
305.236	-1305
305.264	-1499
305.292	-1725
305.347	-1427
305.354	-1290
305.402	-356
305.445	-437
305.457	-465
305.512	-436
305.535	-295
305.567	-136
305.622	-737
305.626	-742
305.678	-464
305.716	1409
305.733	2072
305.788	2509
305.807	2396
305.843	2284
305.897	1894
305.898	1884
305.953	2438
305.988	1679
306.008	1307
306.063	392
306.078	192
306.118	-234
306.168	-265
306.173	-283
306.228	-1457
306.259	-754
306.283	-98
306.338	-332
306.349	-337
306.393	-419
306.440	-677
306.448	-723
306.503	-352
306.530	-464
306.558	-268
306.613	843
306.620	998
306.668	1532
306.711	2038
306.723	2074
306.778	1310
306.801	1129
306.833	984
306.888	-702
306.892	-678
306.943	15
306.982	-83
306.997	-114
307.052	-98
307.072	23
307.107	299
307.162	86
307.163	85
307.217	575
307.253	1216
307.272	1388
307.327	790
307.343	739
307.381	633
307.434	626
307.436	689
307.491	1596
307.524	3009
307.546	3268
307.600	2929
307.614	2614
307.655	1634
307.704	471
307.710	477
307.765	519
307.795	1054
307.819	1490
307.874	2954
307.885	3094
307.929	2607
307.975	1608
307.984	1689
308.038	2728
308.065	3409
308.093	6151
308.148	13011
308.156	14789
308.202	24200
308.246	31031
308.257	30317
308.312	16420
308.336	10877
308.366	7815
308.421	3508
308.426	3253
308.475	2120
308.517	1414
308.530	1296
308.585	1303
308.607	1185
308.639	1056
308.694	1380
308.697	1390
308.748	3181
308.787	4932
308.803	4810
308.857	3284
308.877	2792
308.912	2621
308.967	2193
308.967	2186
309.021	3420
309.058	4245
309.076	5145
309.130	8802
309.148	10086
309.185	19257
309.238	36251
309.239	36395
309.293	41430
309.328	38928
309.348	33876
309.402	16125
309.418	11709
309.457	7846
309.508	4250
309.511	4166
309.566	3504
309.598	3596
309.620	4144
309.674	5968
309.688	6438
309.729	5883
309.778	4542
309.783	4442
309.837	2622
309.868	2044
309.892	2568
309.946	3687
309.959	4104
310.001	4989
310.049	5414
310.055	5223
310.109	3622
310.139	2366
310.163	1749
310.218	893
310.229	655
310.272	914
310.319	1561
310.326	1501
310.381	809
310.409	622
310.435	845
310.489	1008
310.499	1026
310.543	1109
310.589	1249
310.598	1230
310.652	1166
310.679	1059
310.706	770
310.760	147
310.769	34
310.814	330
310.859	770
310.868	710
310.923	124
310.948	-43
310.977	308
311.031	801
311.038	884
311.085	652
311.128	214
311.139	275
311.193	780
311.218	947
311.247	874
311.301	757
311.308	725
311.356	795
311.398	933
311.410	930
311.464	807
311.488	765
311.518	682
311.572	470
311.578	447
311.626	607
311.668	661
311.680	778
311.734	1360
311.758	1576
311.788	1206
311.842	581
311.847	504
311.896	1749
311.937	2887
311.950	2850
312.004	2590
312.027	2469
312.058	1926
312.112	935
312.117	834
312.165	886
312.207	927
312.297	1842
312.386	1672
312.476	1589
312.566	1783
312.656	1452
312.745	984
312.835	2110
312.925	781
313.015	74
313.104	1163
313.194	1176
313.284	1299
313.374	574
313.463	388
313.553	1572
313.643	1009
313.732	763
313.822	170
313.912	1444
314.001	1314
314.091	1735
314.180	2004
314.270	2708
314.360	659
314.449	1279
314.539	226
314.628	1011
314.718	610
314.808	1776
314.897	508
314.987	1369
315.076	460
315.166	1280
315.255	1256
315.345	1482
315.434	883
315.524	1322
315.613	1080
315.703	1586
315.792	2309
315.881	4654
315.971	1276
316.060	2588
316.150	3923
316.239	3873
316.328	1683
316.418	1822
316.507	591
316.597	2221
316.686	670
316.775	1951
316.865	4354
316.954	1658
317.043	513
317.133	265
317.222	184
317.311	1439
317.400	-406
317.490	1529
317.579	855
317.668	1150
317.757	1438
317.847	3071
317.936	7663
318.025	3390
318.114	2290
318.203	1618
318.293	2016
318.382	3216
318.471	2977
318.560	5777
318.649	13343
318.738	2411
318.828	606
318.917	1089
319.006	1479
319.095	5000
319.184	14863
319.273	7021
319.362	1760
319.451	986
319.540	1399
319.629	1787
319.718	2874
319.807	1609
319.896	4332
319.985	18367
320.074	4578
320.163	1628
320.252	1893
320.341	2745
320.430	1368
320.519	2228
320.608	830
320.697	1975
320.786	696
320.875	1693
320.964	1003
321.053	1269
321.142	2057
321.230	1997
321.319	2879
321.408	5842
321.497	2965
321.586	2178
321.675	3439
321.764	4179
321.852	2540
321.941	3216
322.030	1290
322.119	2381
322.207	6001
322.296	7036
322.385	3441
322.474	3252
322.562	6008
322.651	3864
322.740	1533
322.829	3564
322.917	5077
323.006	2400
323.095	1597
323.183	1597
323.272	3059
323.361	4674
323.449	15811
323.538	5210
323.626	10528
323.715	6803
323.804	2925
323.892	10024
323.981	3742
324.069	2964
324.158	5834
324.246	5621
324.335	1385
324.424	2272
324.512	1283
324.601	1426
324.689	1882
324.778	4907
324.866	2378
324.954	1626
325.043	238
325.131	1571
325.220	5330
325.308	4740
325.397	3975
325.485	2958
325.574	989
325.662	543
325.750	68
325.839	1055
325.927	112
326.015	660
326.104	2065
326.192	2182
326.280	312
326.369	625
326.457	389
326.545	1126
326.634	413
326.722	915
326.810	457
326.898	1439
326.987	360
327.075	868
327.163	1931
327.251	543
327.340	965
327.428	2429
327.516	-28
327.604	1061
327.692	683
327.781	1987
327.869	1522
327.957	1619
328.045	-101
328.133	579
328.221	371
328.309	689
328.397	232
328.485	1239
328.574	63
328.662	3029
328.750	1306
328.838	243
328.926	802
329.014	412
329.102	1261
329.190	3642
329.278	1004
329.366	313
329.454	382
329.542	919
329.630	405
329.718	1004
329.806	-220
329.893	1247
329.981	-211
330.069	214
330.157	1191
330.245	4311
330.333	1160
330.421	1087
330.509	731
330.597	3030
330.684	1534
330.772	1347
330.860	1572
330.948	4361
331.036	1131
331.123	563
331.211	51
331.299	1333
331.387	3335
331.475	5072
331.562	1093
331.650	249
331.738	306
331.825	1733
331.913	118
332.001	645
332.089	825
332.176	2553
332.264	4807
332.352	4019
332.439	1777
332.527	675
332.614	464
332.702	2043
332.790	401
332.877	2074
332.965	5075
333.052	1384
333.140	851
333.228	2695
333.315	813
333.403	1754
333.490	2817
333.578	2509
333.665	2353
333.753	1649
333.840	130
333.928	1838
334.015	3989
334.103	6160
334.190	19231
334.278	4745
334.365	2089
334.452	2245
334.540	1244
334.627	1103
334.715	2027
334.802	4297
334.889	19301
334.977	20270
335.064	3466
335.151	735
335.239	1356
335.326	1912
335.413	9507
335.501	12969
335.588	1194
335.675	979
335.762	1046
335.850	3880
335.937	2073
336.024	5921
336.111	24190
336.199	11359
336.286	1922
336.373	1203
336.460	6
336.547	881
336.635	935
336.722	1270
336.809	1629
336.896	2400
336.983	5694
337.070	14579
337.157	20021
337.245	13043
337.332	8985
337.419	1066
337.506	149
337.593	1061
337.680	4794
337.767	17253
337.854	2791
337.941	5136
338.028	4351
338.115	909
338.202	1988
338.289	3748
338.376	12450
338.463	3904
338.550	9373
338.637	9389
338.724	1683
338.811	4344
338.898	275
338.984	1089
339.071	-82
339.158	454
339.245	1289
339.332	1122
339.419	2257
339.506	2831
339.593	-169
339.679	1147
339.766	-431
339.853	341
339.940	1293
340.027	143
340.113	317
340.200	1088
340.287	170
340.374	287
340.460	1758
340.547	-140
340.634	878
340.720	3420
340.807	911
340.894	487
340.980	-207
341.067	-242
341.154	1265
341.240	261
341.327	596
341.414	933
341.500	364
341.587	1347
341.674	35
341.760	1113
341.847	743
341.933	255
342.020	-607
342.106	-138
342.193	356
342.279	423
342.366	55
342.452	983
342.539	-328
342.625	907
342.712	2220
342.798	1042
342.885	-278
342.971	-478
343.058	173
343.144	-125
343.230	231
343.317	325
343.403	-850
343.490	258
343.576	-531
343.662	570
343.749	261
343.835	171
343.921	469
344.008	7240
344.094	16964
344.180	3407
344.267	1102
344.353	4976
344.439	4960
344.525	1105
344.612	2092
344.698	951
344.784	474
344.870	241
344.957	-150
345.043	388
345.129	-818
345.215	221
345.301	260
345.387	690
345.474	-599
345.560	-61
345.646	174
345.732	381
345.818	280
345.904	342
345.990	-16
346.076	1095
346.162	1707
346.249	227
346.335	-462
346.421	1094
346.507	1073
346.593	6618
346.679	66
346.765	872
346.851	-196
346.937	-415
347.023	376
347.108	738
347.194	-71
347.280	-259
347.366	159
347.452	1964
347.538	6867
347.624	6987
347.710	4752
347.796	403
347.882	-94
347.967	46
348.053	814
348.139	86
348.225	164
348.311	-434
348.397	111
348.482	679
348.568	-161
348.654	-32
348.740	415
348.825	-668
348.911	1191
348.997	3563
349.083	7565
349.168	1604
349.254	-590
349.340	768
349.425	-137
349.511	873
349.597	187
349.682	739
349.768	3834
349.854	1393
349.939	238
350.025	357
350.110	-325
350.196	689
350.282	-508
350.367	240
350.453	424
350.538	-156
350.624	-629
350.709	868
350.795	126
350.880	-411
350.966	1170
351.051	1176
351.137	422
351.222	904
351.308	856
351.393	3174
351.479	88
351.564	-197
351.649	-76
351.735	933
351.820	-72
351.906	-706
351.991	-761
352.076	1946
352.162	2942
352.247	218
352.332	-388
352.418	-79
352.503	450
352.588	4865
352.673	2611
352.759	841
352.844	-265
352.929	17
353.014	-1296
353.100	357
353.185	723
353.270	205
353.355	947
353.441	230
353.526	1
353.611	60
353.696	60
353.781	821
353.866	-375
353.952	407
354.037	-225
354.122	1882
354.207	1357
354.292	1150
354.377	-175
354.462	112
354.547	-587
354.632	140
354.717	1013
354.802	-683
354.887	-308
354.972	547
355.057	503
355.142	-180
355.227	81
355.312	-126
355.397	751
355.482	2458
355.567	635
355.652	1597
355.737	594
355.822	4658
355.907	2455
355.991	998
356.076	-347
356.161	238
356.246	-472
356.331	238
356.416	-604
356.501	9156
356.585	8420
356.670	37
356.755	1531
356.840	1169
356.924	5141
357.009	18499
357.094	6735
357.179	696
357.263	-30
357.348	-324
357.433	1102
357.517	637
357.602	-281
357.687	422
357.771	773
357.856	3605
357.941	1850
358.025	3408
358.110	20131
358.195	8190
358.279	111
358.364	423
358.448	2045
358.533	8040
358.617	4530
358.702	6180
358.787	1377
358.871	1045
358.956	257
359.040	-732
359.125	-630
359.209	-48
359.294	621
359.378	2788
359.462	150
359.547	817
359.631	-143
359.716	-669
359.800	-335
359.885	1582
359.969	-737
360.053	301
360.138	-382
360.222	597
360.306	182
360.391	1194
360.475	746
360.559	3540
360.644	2768
360.728	976
360.812	4274
360.896	13512
360.981	5008
361.065	2062
361.149	150
361.233	1359
361.318	175
361.402	197
361.486	522
361.570	-48
361.654	39
361.739	632
361.823	6665
361.907	13559
361.991	1405
362.075	31
362.159	260
362.243	2057
362.327	1552
362.411	5965
362.495	2001
362.580	409
362.664	155
362.748	-171
362.832	231
362.916	565
363.000	9113
363.084	19400
363.168	17198
363.252	3404
363.336	1480
363.420	2312
363.503	13041
363.587	16241
363.671	1754
363.755	427
363.839	1116
363.923	-601
364.007	1176
364.091	1989
364.175	3114
364.258	25206
364.342	15311
364.426	23574
364.510	10353
364.594	5029
364.677	2523
364.761	10421
364.845	7331
364.929	2288
365.013	882
365.096	646
365.180	13
365.264	5335
365.347	22366
365.431	8458
365.515	693
365.598	-215
365.682	1078
365.766	1614
365.849	2220
365.933	-686
366.017	1420
366.100	465
366.184	-547
366.267	865
366.351	336
366.435	-243
366.518	-1140
366.602	-65
366.685	-409
366.769	-220
366.852	900
366.936	2928
367.019	30
367.103	428
367.186	4109
367.270	634
367.353	-1683
367.436	874
367.520	-473
367.603	-566
367.687	-610
367.770	649
367.853	-79
367.937	2070
368.020	5264
368.104	716
368.187	1040
368.270	829
368.353	-306
368.437	2284
368.520	7967
368.603	4075
368.687	1994
368.770	5838
368.853	185
368.936	1417
369.020	2194
369.103	-393
369.186	-894
369.269	-468
369.352	-36
369.436	22
369.519	209
369.602	-905
369.685	816
369.768	-381
369.851	-664
369.934	-834
370.018	-591
370.101	-416
370.184	2209
370.267	15
370.350	1077
370.433	2012
370.516	5133
370.599	8028
370.682	-295
370.765	3680
370.848	4605
370.931	7741
371.014	3440
371.097	-373
371.180	236
371.263	377
371.346	-1638
371.429	-54
371.511	-905
371.594	231
371.677	1924
371.760	3859
371.843	1321
371.926	6923
372.009	14660
372.091	6051
372.174	1916
372.257	9312
372.340	2781
372.423	3824
372.505	4794
372.588	1458
372.671	2354
372.754	6753
372.836	3571
372.919	6911
373.002	13058
373.085	1602
373.167	1212
373.250	2145
373.332	7441
373.415	10852
373.498	21013
373.580	7707
373.663	10137
373.746	14268
373.828	1202
373.911	1963
373.993	1336
374.076	12589
374.159	11019
374.241	2905
374.324	5949
374.406	4554
374.489	5321
374.571	18228
374.654	5564
374.736	3784
374.819	10230
374.901	16224
374.983	16848
375.066	2582
375.148	-48
375.231	9713
375.313	19293
375.395	5869
375.478	44
375.560	844
375.643	502
375.725	2855
375.807	13321
375.890	13956
375.972	5345
376.054	2476
376.136	6901
376.219	1996
376.301	3675
376.383	11664
376.465	4147
376.548	1174
376.630	983
376.712	10415
376.794	3821
376.877	501
376.959	-795
377.041	1224
377.123	1546
377.205	3386
377.287	-768
377.369	74
377.452	-1192
377.534	-888
377.616	-1608
377.698	151
377.780	-1439
377.862	-980
377.944	906
378.026	-1360
378.108	-744
378.190	-714
378.272	-570
378.354	-592
378.436	-816
378.518	-305
378.600	4000
378.682	2139
378.764	3923
378.846	3098
378.928	-408
379.010	-162
379.091	325
379.173	-429
379.255	-1503
379.337	-625
379.419	507
379.501	6204
379.583	988
379.664	-315
379.746	-614
379.828	4502
379.910	4179
379.991	4685
380.073	-175
380.155	173
380.237	295
380.318	-890
380.400	-889
380.482	-34
380.564	-295
380.645	-297
380.727	-480
380.809	972
380.890	-1064
380.972	-1500
381.053	-1108
381.135	1235
381.217	773
381.298	5450
381.380	510
381.461	1305
381.543	8711
381.624	11053
381.706	1097
381.787	1146
381.869	560
381.951	2809
382.032	15283
382.113	12574
382.195	33
382.276	2058
382.358	1372
382.439	8087
382.521	10411
382.602	16798
382.684	5898
382.765	11719
382.846	11957
382.928	21580
383.009	9676
383.090	6393
383.172	28644
383.253	46649
383.334	13738
383.416	14686
383.497	6391
383.578	2054
383.659	4782
383.741	23383
383.822	68370
383.903	33139
383.984	8547
384.066	16610
384.147	8633
384.228	1383
384.309	-16
384.390	551
384.471	296
384.553	509
384.634	352
384.715	615
384.796	-440
384.877	-699
384.958	4111
385.039	3536
385.120	532
385.201	663
385.282	673
385.363	1391
385.444	-833
385.525	1257
385.606	6223
385.687	6122
385.768	807
385.849	1201
385.930	7615
386.011	14401
386.092	1289
386.173	117
386.254	-578
386.335	1080
386.416	-404
386.496	1786
386.577	4494
386.658	2320
386.739	-615
386.820	2515
386.901	-136
386.981	1293
387.062	80
387.143	54
387.224	2329
387.304	4803
387.385	1881
387.466	-404
387.547	1897
387.627	-285
387.708	814
387.789	8117
387.869	8575
387.950	3251
388.031	-626
388.111	-1626
388.192	3494
388.273	5321
388.353	545
388.434	785
388.514	66
388.595	7306
388.676	9911
388.756	3915
388.837	3606
388.917	1163
388.998	-2135
389.078	438
389.159	-4
389.239	-1538
389.320	1215
389.400	-1641
389.480	1075
389.561	5399
389.641	2353
389.722	372
389.802	-976
389.883	2686
389.963	6850
390.043	4448
390.124	198
390.204	1504
390.284	3758
390.365	2078
390.445	7561
390.525	13416
390.605	8689
390.686	1393
390.766	161
390.846	835
390.927	-1114
391.007	-1212
391.087	440
391.167	-18
391.247	-1064
391.328	1563
391.408	1949
391.488	1942
391.568	-1570
391.648	-678
391.728	281
391.808	1215
391.888	207
391.969	2359
392.049	3515
392.129	2717
392.209	1504
392.289	6959
392.369	3286
392.449	5763
392.529	2034
392.609	1467
392.689	1080
392.769	5364
392.849	4658
392.929	6371
393.009	11873
393.089	7668
393.169	9194
393.248	28197
393.328	113910
393.408	122488
393.488	31788
393.568	8598
393.648	3382
393.728	1393
393.807	345
393.887	2181
393.967	1270
394.047	1465
394.127	1214
394.206	4086
394.286	14446
394.366	65280
394.446	70746
394.525	16139
394.605	2696
394.685	3140
394.764	7870
394.844	14021
394.924	9280
395.003	1823
395.083	53
395.163	211
395.242	-8
395.322	407
395.402	-1507
395.481	2410
395.561	4350
395.640	15618
395.720	11948
395.799	17781
395.879	13068
395.958	6231
396.038	22532
396.117	85419
396.197	93479
396.276	30810
396.356	9487
396.435	7185
396.515	4096
396.594	3098
396.673	7963
396.753	31992
396.832	104745
396.912	76812
396.991	14622
397.070	4373
397.150	325
397.229	1887
397.308	2698
397.388	5948
397.467	2725
397.546	512
397.625	-1887
397.705	1610
397.784	-408
397.863	-562
397.942	-1107
398.022	233
398.101	3025
398.180	16101
398.259	7107
398.338	1300
398.417	-877
398.497	-29
398.576	846
398.655	-1090
398.734	-349
398.813	61
398.892	4024
398.971	17032
399.050	6354
399.129	-1308
399.208	-547
399.287	-87
399.366	-1020
399.445	52
399.524	-191
399.603	-1846
399.682	228
399.761	2716
399.840	15922
399.919	14095
399.998	-323
400.077	-908
400.156	-2335
400.235	2037
400.313	-847
400.392	-850
400.471	1541
400.550	3104
400.629	-1217
400.708	690
400.786	-1832
400.865	2993
400.944	2260
401.023	1724
401.102	-1101
401.180	-350
401.259	-859
401.338	-421
401.416	123
401.495	-888
401.574	335
401.652	-852
401.731	102
401.810	-871
401.888	-1361
401.967	-1081
402.046	-1158
402.124	-124
402.203	-2011
402.281	-742
402.360	-758
402.438	4984
402.517	879
402.596	-307
402.674	-523
402.753	-261
402.831	-707
402.910	15
402.988	-322
403.066	3715
403.145	1772
403.223	1024
403.302	881
403.380	2540
403.459	943
403.537	-669
403.615	-498
403.694	-1586
403.772	-338
403.850	-166
403.929	-1127
404.007	-749
404.085	-257
404.164	-806
404.242	-672
404.320	1654
404.398	9628
404.477	8185
404.555	13777
404.633	13079
404.711	7504
404.789	3977
404.868	-796
404.946	-1555
405.024	-599
405.102	-997
405.180	-2180
405.258	-2075
405.336	-665
405.415	-1368
405.493	296
405.571	519
405.649	-1506
405.727	-1788
405.805	-540
405.883	-464
405.961	-322
406.039	-596
406.117	-1407
406.195	60
406.273	84
406.351	10144
406.429	5996
406.507	377
406.585	-1284
406.663	38
406.740	-451
406.818	-1246
406.896	-1930
406.974	-315
407.052	-1369
407.130	5409
407.208	7156
407.285	889
407.363	-1921
407.441	-771
407.519	-1088
407.596	-511
407.674	-7
407.752	7809
407.830	8122
407.907	1783
407.985	-915
408.063	-44
408.141	-2365
408.218	754
408.296	-1339
408.373	-911
408.451	-1587
408.529	-485
408.606	-1843
408.684	-859
408.762	-890
408.839	-834
408.917	-294
408.994	-415
409.072	-1967
409.149	-792
409.227	-106
409.304	435
409.382	7
409.459	-192
409.537	860
409.614	141
409.692	-1
409.769	-677
409.846	361
409.924	1774
410.001	-1350
410.079	335
410.156	-344
410.233	-471
410.311	-1209
410.388	-447
410.465	-1356
410.543	-1572
410.620	-620
410.697	-50
410.775	-634
410.852	-1891
410.929	-156
411.006	431
411.083	-1300
411.161	-1071
411.238	130
411.315	-39
411.392	-1552
411.469	360
411.547	-561
411.624	-2152
411.701	-1958
411.778	-1157
411.855	-1089
411.932	-1538
412.009	-1717
412.086	-634
412.163	-408
412.240	-298
412.317	-416
412.394	-1107
412.471	-845
412.548	-1000
412.625	-1887
412.702	-308
412.779	-318
412.856	-588
412.933	-1950
413.010	-1036
413.087	-790
413.164	787
413.241	1649
413.318	-1037
413.395	231
413.471	-411
413.548	-854
413.625	-177
413.702	-2071
413.779	-796
413.855	-1665
413.932	-1176
414.009	-2373
414.086	-254
414.162	-1612
414.239	-883
414.316	1187
414.393	4542
414.469	53
414.546	-712
414.623	-1329
414.699	-1225
414.776	-1937
414.853	-494
414.929	-1066
415.006	-1466
415.082	-703
415.159	-1259
415.236	-1120
415.312	-199
415.389	-315
415.465	-1035
415.542	-1641
415.618	-1278
415.695	-1204
415.771	-1120
415.848	-1377
415.924	-507
416.000	-1654
416.077	383
416.153	-2297
416.230	-1584
416.306	-1952
416.383	-1487
416.459	-1160
416.535	-1374
416.612	-1230
416.688	-1578
416.764	-1218
416.841	-1610
416.917	-1643
416.993	-863
417.069	-515
417.146	-854
417.222	-939
417.298	-868
417.374	-1136
417.451	-124
417.527	-2088
417.603	-1190
417.679	-1569
417.755	-1575
417.831	-2089
417.908	-1161
417.984	-1322
418.060	-1615
418.136	-693
418.212	-615
418.288	-1186
418.364	-45
418.440	-1859
418.516	-73
418.592	-686
418.668	300
418.744	-1266
418.820	244
418.896	-1265
418.972	-1846
419.048	-1983
419.124	528
419.200	-2425
419.276	241
419.352	-1948
419.428	-596
419.504	-2126
419.579	-1095
419.655	-2892
419.731	-1073
419.807	-635
419.883	-550
419.959	-348
420.034	-277
420.110	-1131
420.186	586
420.262	1140
420.337	72
420.413	-950
420.489	-147
420.565	-878
420.640	-1217
420.716	-566
420.792	-1866
420.867	-784
420.943	-1443
421.019	-1583
421.094	-2192
421.170	-1044
421.245	-716
421.321	-1263
421.397	-596
421.472	405
421.548	4245
421.623	1566
421.699	113
421.774	106
421.850	-705
421.925	-72
422.001	266
422.076	273
422.152	820
422.227	1215
422.302	3584
422.378	4624
422.453	10385
422.529	26624
422.604	67784
422.679	97128
422.755	72509
422.830	29372
422.905	12168
422.981	5546
423.056	3423
423.131	2134
423.207	1089
423.282	-347
423.357	855
423.432	-750
423.508	520
423.583	-752
423.658	343
423.733	-301
423.808	381
423.883	-226
423.959	66
424.034	-1045
424.109	475
424.184	-2213
424.259	-1367
424.334	-1108
424.409	-1390
424.484	-1141
424.559	-697
424.634	-1420
424.709	-132
424.784	-1119
424.859	-1774
424.934	-777
425.009	756
425.084	1604
425.159	-332
425.234	-370
425.309	-950
425.384	-252
425.459	-182
425.534	-312
425.609	-948
425.683	-1687
425.758	-1434
425.833	-1270
425.908	-511
425.983	-1232
426.058	1982
426.132	-341
426.207	-1458
426.282	507
426.357	-354
426.431	-1181
426.506	-927
426.581	-1616
426.655	-714
426.730	-1211
426.805	-1892
426.879	-749
426.954	-1245
427.029	-1329
427.103	2543
427.178	7189
427.253	3545
427.327	-932
427.402	-665
427.476	1639
427.551	-103
427.625	-973
427.700	-177
427.774	-1713
427.849	271
427.923	-1912
427.998	-1338
428.072	-1202
428.147	721
428.221	4837
428.296	20064
428.370	9653
428.444	819
428.519	-92
428.593	2237
428.667	1606
428.742	2489
428.816	3207
428.890	13729
428.965	21796
429.039	5037
429.113	3417
429.188	248
429.262	-1081
429.336	-511
429.410	735
429.485	521
429.559	1588
429.633	714
429.707	-1712
429.781	1272
429.855	13502
429.930	21347
430.004	10357
430.078	17315
430.152	15439
430.226	26523
430.300	27086
430.374	2484
430.448	141
430.522	3884
430.596	14308
430.670	9027
430.744	17735
430.818	23681
430.892	2997
430.966	-799
431.040	-1098
431.114	-1529
431.188	-1506
431.262	-836
431.336	-1958
431.410	423
431.484	2099
431.557	1158
431.631	-1652
431.705	-1090
431.779	2137
431.853	18441
431.927	11878
432.000	298
432.074	-893
432.148	-251
432.222	-541
432.295	-1263
432.369	-2078
432.443	-1588
432.516	3515
432.590	9263
432.664	2610
432.737	-541
432.811	-1936
432.885	-1225
432.958	-512
433.032	-1482
433.106	-1940
433.179	-1047
433.253	-1596
433.326	-1436
433.400	-1514
433.473	-868
433.547	-2079
433.620	-1390
433.694	-1389
433.767	-1466
433.841	-1522
433.914	-1331
433.988	-2044
434.061	-890
434.134	-2017
434.208	-1196
434.281	-2129
434.355	-1403
434.428	-1382
434.501	-1764
434.575	-2436
434.648	-1471
434.721	-1358
434.795	-1086
434.868	-2639
434.941	-1413
435.014	-2256
435.088	-1969
435.161	-1118
435.234	-1175
435.307	-732
435.381	-842
435.454	-1495
435.527	-801
435.600	-623
435.673	-405
435.746	-1531
435.819	-389
435.892	-744
435.966	-1003
436.039	-1487
436.112	-1122
436.185	-2030
436.258	-1298
436.331	-2199
436.404	-773
436.477	-1825
436.550	-1020
436.623	-1621
436.696	-1727
436.769	-1570
436.842	-844
436.915	-1614
436.987	-1793
437.060	-1245
437.133	-1162
437.206	-1738
437.279	-733
437.352	-1761
437.425	-1295
437.498	-1458
437.570	-631
437.643	-1137
437.716	-1053
437.789	-1126
437.861	-1470
437.934	-574
438.007	-1002
438.080	-2214
438.152	-1340
438.225	-375
438.298	3913
438.370	14089
438.443	4922
438.516	-554
438.588	-1458
438.661	-1938
438.734	-649
438.806	-1838
438.879	-445
438.951	-1098
439.024	-548
439.096	-1490
439.169	-1189
439.241	-1709
439.314	-1714
439.386	-1766
439.459	-392
439.531	-708
439.604	-1041
439.676	-1415
439.749	-1219
439.821	-2300
439.893	-840
439.966	-1534
440.038	-1552
440.110	-1332
440.183	-1632
440.255	-2027
440.327	-1006
440.400	239
440.472	8060
440.544	4336
440.617	-79
440.689	-448
440.761	-280
440.833	-812
440.905	-1005
440.978	-2004
441.050	-1120
441.122	-1473
441.194	-1484
441.266	-1360
441.338	-1932
441.411	-1086
441.483	1424
441.555	1510
441.627	-737
441.699	-1687
441.771	-595
441.843	-1004
441.915	-803
441.987	-1822
442.059	-1478
442.131	-1439
442.203	-529
442.275	-955
442.347	-33
442.419	544
442.491	9160
442.563	27993
442.635	11733
442.706	3745
442.778	2563
442.850	-1013
442.922	-1000
442.994	-653
443.066	-419
443.137	-1455
443.209	-722
443.281	-460
443.353	1564
443.425	12140
443.496	47415
443.568	48370
443.640	16771
443.711	1589
443.783	-570
443.855	-486
443.926	-863
443.998	-912
444.070	378
444.141	-1285
444.213	-1150
444.285	-878
444.356	-1051
444.428	-829
444.499	-1678
444.571	-1419
444.642	-403
444.714	-1398
444.785	-54
444.857	-668
444.928	1922
445.000	559
445.071	686
445.143	1307
445.214	1156
445.285	1341
445.357	9081
445.428	30128
445.500	70899
445.571	46835
445.642	25409
445.714	8363
445.785	5515
445.856	-817
445.928	-831
445.999	-602
446.070	-1411
446.141	-1203
446.213	-131
446.284	-1469
446.355	-828
446.426	-1438
446.497	-497
446.569	-200
446.640	-491
446.711	-1778
446.782	-1130
446.853	-746
446.924	-369
446.995	-1887
447.066	-441
447.138	-331
447.209	-1286
447.280	-2167
447.351	-1095
447.422	-1235
447.493	-607
447.564	-994
447.635	-813
447.706	-1753
447.777	-1428
447.847	-1691
447.918	-958
447.989	-1538
448.060	-549
448.131	345
448.202	232
448.273	-408
448.344	-1091
448.414	-1416
448.485	-1634
448.556	-1444
448.627	-1030
448.698	-849
448.768	-1936
448.839	-1315
448.910	-1071
448.981	-540
449.051	-1301
449.122	-1356
449.193	-1507
449.263	-1135
449.334	-1353
449.405	-1509
449.475	-152
449.546	-1253
449.616	-295
449.687	-144
449.758	-1285
449.828	-1994
449.899	-2187
449.969	-1537
450.040	-1163
450.110	-918
450.181	-627
450.251	-1240
450.322	-1409
450.392	-1762
450.463	-1075
450.533	-1153
450.604	-1171
450.674	-1770
450.744	-598
450.815	-1413
450.885	-892
450.955	-1171
451.026	-886
451.096	-1457
451.166	-837
451.237	221
451.307	3295
451.377	130
451.447	-1702
451.518	-1743
451.588	-982
451.658	-1056
451.728	253
451.799	3442
451.869	4108
451.939	-1164
452.009	-984
452.079	-1045
452.149	-786
452.219	-526
452.289	4240
452.360	2429
452.430	-805
452.500	-1088
452.570	-286
452.640	542
452.710	3363
452.780	5304
452.850	2557
452.920	392
452.990	-158
453.060	-725
453.129	-457
453.199	-359
453.269	4857
453.339	10688
453.409	16559
453.479	17476
453.549	25623
453.619	28770
453.688	8613
453.758	-163
453.828	-960
453.898	-822
453.968	-412
454.037	-1291
454.087	-852
454.107	-679
454.168	-1486
454.177	-1614
454.247	-684
454.249	-689
454.316	-986
454.330	-798
454.386	-87
454.411	334
454.456	988
454.492	1867
454.525	2682
454.574	871
454.595	66
454.655	-790
454.665	-933
454.734	-576
454.736	-543
454.804	311
454.817	868
454.873	3165
454.898	3538
454.943	4343
454.979	2287
455.013	308
455.060	-430
455.082	-751
455.141	-314
455.152	-219
455.221	2241
455.222	2284
455.291	4746
455.303	4770
455.360	4716
455.384	6715
455.430	10107
455.465	7711
455.499	5510
455.546	3797
455.569	2979
455.627	1694
455.638	1469
455.707	-626
455.708	-617
455.777	-381
455.789	-473
455.846	-1107
455.869	-968
455.916	-575
455.950	-1011
455.985	-1507
456.031	-901
456.054	-598
456.112	-548
456.124	-529
456.193	-970
456.193	-980
456.262	-1207
456.274	-936
456.332	318
456.355	133
456.401	-282
456.436	-295
456.470	-285
456.516	-973
456.540	-1316
456.597	-883
456.609	-832
456.678	-1070
456.678	-1078
456.747	-499
456.759	-530
456.817	-790
456.840	-839
456.886	-963
456.920	-941
456.955	-923
457.001	-730
457.024	-540
457.082	-614
457.093	-702
457.162	-1
457.163	4
457.232	-238
457.243	-203
457.301	-295
457.324	-426
457.370	-416
457.405	-121
457.439	56
457.485	-328
457.508	-523
457.566	-347
457.577	-279
457.646	-166
457.647	-150
457.715	848
457.727	912
457.784	1311
457.808	2148
457.853	3332
457.889	4325
457.922	4828
457.969	2861
457.991	2485
458.050	2512
458.060	2516
458.129	5965
458.130	6060
458.198	8263
458.211	7407
458.267	3730
458.292	2432
458.336	1032
458.372	772
458.405	938
458.453	1825
458.474	2434
458.533	5419
458.543	5673
458.611	12020
458.614	12027
458.680	8693
458.694	6917
458.749	2105
458.775	1526
458.818	604
458.855	349
458.887	222
458.936	33
458.955	-48
459.016	-231
459.024	-216
459.093	504
459.097	517
459.162	95
459.177	23
459.230	190
459.257	190
459.299	77
459.338	378
459.368	579
459.418	278
459.437	179
459.499	338
459.505	335
459.574	29
459.579	59
459.643	285
459.659	157
459.711	125
459.740	298
459.780	318
459.820	242
459.849	208
459.900	443
459.917	514
459.981	-110
459.986	-160
460.054	-269
460.061	-232
460.123	217
460.141	345
460.191	732
460.222	624
460.260	264
460.302	324
460.328	590
460.382	790
460.397	705
460.462	434
460.465	480
460.534	1979
460.543	2122
460.602	6458
460.623	8438
460.671	13668
460.703	19455
460.739	18959
460.783	15006
460.808	13426
460.864	3927
460.876	2807
460.944	605
460.945	578
461.013	753
461.024	709
461.081	7
461.104	132
461.150	471
461.184	67
461.218	84
461.264	559
461.286	525
461.345	59
461.355	30
461.423	431
461.425	422
461.491	-320
461.505	-278
461.559	942
461.585	1247
461.628	1503
461.665	2229
461.696	2718
461.745	4185
461.764	4226
461.825	1839
461.832	1770
461.901	817
461.905	866
461.969	250
461.985	47
462.037	631
462.065	941
462.105	631
462.145	420
462.173	956
462.225	1810
462.241	1719
462.305	1757
462.310	1761
462.378	1999
462.385	1826
462.446	806
462.465	903
462.514	988
462.545	867
462.582	724
462.625	498
462.650	319
462.705	-96
462.718	-45
462.785	789
462.786	798
462.854	918
462.865	952
462.922	1285
462.945	1441
462.990	1192
463.025	821
463.058	681
463.104	582
463.126	568
463.184	591
463.194	635
463.262	759
463.264	774
463.330	587
463.344	447
463.398	799
463.424	1079
463.466	442
463.504	17
463.533	402
463.583	795
463.601	781
463.663	523
463.669	521
463.737	1030
463.743	1037
463.805	1446
463.823	1639
463.873	2983
463.903	3846
463.940	3775
463.982	3902
464.008	3601
464.062	2127
464.076	1933
464.142	1002
464.144	996
464.211	829
464.221	862
464.279	1295
464.301	1360
464.347	763
464.381	465
464.414	830
464.461	1291
464.482	1228
464.540	1165
464.550	1208
464.617	936
464.620	949
464.685	1191
464.699	1125
464.753	1815
464.779	2260
464.820	2863
464.859	3360
464.888	2887
464.938	2079
464.956	2209
465.018	2520
465.023	2491
465.091	2122
465.098	2092
465.158	2058
465.177	2044
465.226	2020
465.257	1926
465.293	2059
465.336	2213
465.361	2349
465.416	2682
465.428	2685
465.495	2730
465.496	2742
465.563	3663
465.575	3894
465.631	4467
465.654	4680
465.698	3925
465.734	2984
465.765	2492
465.813	1705
465.833	1745
465.893	2274
465.900	2241
465.968	1671
465.972	1637
466.035	1679
466.052	1689
466.102	1898
466.131	2000
466.170	1808
466.210	1572
466.237	1776
466.290	2232
466.304	2196
466.369	1917
466.372	1924
466.439	2081
466.449	2088
466.506	2047
466.528	2030
466.573	2545
466.607	2927
466.641	3527
466.687	4395
466.708	5112
466.766	7200
466.775	6709
466.842	2841
466.845	2650
466.909	1699
466.925	1520
466.977	1734
467.004	1876
467.044	2075
467.083	2255
467.111	2550
467.163	3090
467.178	3195
467.242	3632
467.245	3634
467.312	3597
467.321	3591
467.379	3468
467.400	3412
467.446	3200
467.480	3042
467.559	3701
467.638	3263
467.717	2678
467.796	3186
467.875	2216
467.955	2110
468.034	3953
468.113	7296
468.192	8756
468.271	2788
468.350	2827
468.429	3286
468.508	3968
468.588	3046
468.667	2406
468.746	2891
468.825	2000
468.904	2130
468.983	2036
469.062	3851
469.141	4130
469.220	1996
469.299	2413
469.378	1975
469.456	3780
469.535	3383
469.614	2175
469.693	2228
469.772	3367
469.851	3316
469.930	3374
470.009	2327
470.088	2609
470.166	3098
470.245	3606
470.324	2527
470.403	2854
470.482	2447
470.560	2464
470.639	2246
470.718	2949
470.797	1047
470.875	3114
470.954	3102
471.033	2742
471.111	2709
471.190	1306
471.269	2016
471.347	2324
471.426	2020
471.505	2340
471.583	3463
471.662	3064
471.740	1750
471.819	2577
471.898	2294
471.976	2549
472.055	2068
472.133	2572
472.212	3763
472.290	2393
472.369	1232
472.447	2332
472.526	2383
472.604	2504
472.683	2617
472.761	2175
472.839	2097
472.918	2092
472.996	2028
473.075	1969
473.153	2268
473.231	1754
473.310	1269
473.388	2452
473.466	1972
473.545	3046
473.623	1850
473.701	2399
473.780	2665
473.858	1470
473.936	3820
474.014	2269
474.093	2342
474.171	2129
474.249	3092
474.327	2988
474.405	1423
474.484	2058
474.562	1099
474.640	1589
474.718	1517
474.796	1086
474.874	2230
474.952	1360
475.030	2372
475.108	2208
475.187	1108
475.265	2659
475.343	2008
475.421	2837
475.499	1867
475.577	1744
475.655	2729
475.733	2836
475.811	4458
475.889	3991
475.966	3649
476.044	1732
476.122	1790
476.200	2010
476.278	1701
476.356	1552
476.434	445
476.512	3115
476.590	1909
476.667	1763
476.745	1414
476.823	2450
476.901	1890
476.979	1429
477.056	2468
477.134	2099
477.212	2224
477.290	1774
477.367	1408
477.445	2055
477.523	846
477.601	1122
477.678	1815
477.756	1846
477.834	2413
477.911	1185
477.989	2389
478.066	1664
478.144	1717
478.222	1248
478.299	2115
478.377	1354
478.454	1779
478.532	587
478.609	1231
478.687	1859
478.764	984
478.842	2329
478.919	2045
478.997	1878
479.074	1223
479.152	1097
479.229	2246
479.307	272
479.384	1766
479.461	1556
479.539	1063
479.616	1698
479.694	535
479.771	1939
479.848	1980
479.926	981
480.003	3145
480.080	1213
480.157	1663
480.235	778
480.312	533
480.389	1772
480.467	2269
480.544	2948
480.621	1278
480.698	1526
480.775	1658
480.853	1518
480.930	1774
481.007	1999
481.084	1831
481.161	2468
481.238	2245
481.315	1750
481.392	1645
481.470	1098
481.547	988
481.624	1490
481.701	1424
481.778	1971
481.855	1136
481.932	1875
482.009	3546
482.086	1401
482.163	1001
482.240	1493
482.317	1592
482.393	1703
482.470	1122
482.547	1574
482.624	1078
482.701	1593
482.778	1305
482.855	1214
482.932	1588
483.009	1497
483.085	1523
483.162	863
483.239	2574
483.316	913
483.393	1860
483.469	1159
483.546	1776
483.623	1055
483.699	639
483.776	1277
483.853	934
483.930	1409
484.006	4349
484.083	8568
484.160	7265
484.236	11552
484.313	8015
484.389	5521
484.466	6107
484.543	4356
484.619	4749
484.696	6392
484.772	5385
484.849	5325
484.925	4421
485.002	4782
485.078	5069
485.155	4887
485.231	4637
485.308	4681
485.384	4422
485.461	5165
485.537	6021
485.614	7834
485.690	4510
485.766	4296
485.843	3956
485.919	4349
485.995	3337
486.072	4342
486.148	2831
486.224	3639
486.301	3680
486.377	3977
486.453	3441
486.530	5120
486.606	6957
486.682	6415
486.758	7192
486.835	6448
486.911	4223
486.987	7626
487.063	7349
487.139	6656
487.215	5676
487.292	5016
487.368	5325
487.444	4413
487.520	5654
487.596	4857
487.672	8921
487.748	19290
487.824	25686
487.900	8730
487.976	5668
488.052	3336
488.128	4838
488.204	3636
488.280	4542
488.356	3932
488.432	6720
488.508	9631
488.584	3442
488.660	3378
488.736	3087
488.812	3469
488.888	4788
488.964	3819
489.039	5333
489.115	6687
489.191	5750
489.267	3428
489.343	3770
489.418	2690
489.494	3405
489.570	1771
489.646	3746
489.722	3082
489.797	3226
489.873	3532
489.949	6404
490.024	5462
490.100	3606
490.176	2435
490.251	3014
490.327	3418
490.403	2386
490.478	2605
490.554	2492
490.629	2734
490.705	2358
490.781	2105
490.856	1999
490.932	2441
491.007	2141
491.083	1748
491.158	2891
491.234	2641
491.309	6240
491.385	4007
491.460	2085
491.536	2430
491.611	1654
491.686	2504
491.762	2540
491.837	3553
491.913	4976
491.988	6338
492.063	6147
492.139	2659
492.214	3214
492.289	2132
492.365	1243
492.440	2169
492.515	1065
492.590	2277
492.666	2224
492.741	2217
492.816	2874
492.891	2162
492.967	1642
493.042	1244
493.117	1238
493.192	1570
493.267	3773
493.342	11445
493.418	15680
493.493	2803
493.568	1386
493.643	1792
493.718	1662
493.793	1637
493.868	2464
493.943	1417
494.018	1700
494.093	1005
494.168	1751
494.243	1312
494.318	1663
494.393	1640
494.468	983
494.543	1234
494.618	1753
494.693	544
494.768	1298
494.842	862
494.917	1307
494.992	1363
495.067	510
495.142	1264
495.217	783
495.292	1934
495.366	1873
495.441	849
495.516	3176
495.591	2309
495.665	6197
495.740	9371
495.815	3574
495.890	1552
495.964	-78
496.039	3475
496.114	1765
496.188	2639
496.263	1595
496.338	1793
496.412	802
496.487	2173
496.561	2965
496.636	1803
496.710	1478
496.785	2093
496.860	1950
496.934	186
497.009	1783
497.083	1614
497.158	1764
497.232	1654
497.307	3000
497.381	1751
497.455	2223
497.530	2401
497.604	2019
497.679	1879
497.753	3295
497.827	1967
497.902	1932
497.976	4116
498.050	10865
498.125	40498
498.199	35390
498.273	4063
498.348	1629
498.422	2912
498.496	1997
498.570	1826
498.645	1020
498.719	-50
498.793	3008
498.867	3175
498.941	6066
499.016	17055
499.090	41203
499.164	12055
499.238	2652
499.312	2016
499.386	2586
499.460	1502
499.534	2781
499.609	2717
499.683	2998
499.757	3088
499.831	7618
499.905	28142
499.979	23623
500.053	3524
500.127	3298
500.201	757
500.275	3116
500.349	1459
500.422	1892
500.496	1901
500.570	4386
500.644	14925
500.718	25950
500.792	5469
500.866	1627
500.940	2373
501.013	2465
501.087	1368
501.161	3451
501.235	1879
501.309	10034
501.382	24017
501.456	20055
501.530	3566
501.603	6517
501.677	2352
501.751	534
501.825	2556
501.898	3932
501.972	8913
502.046	5643
502.119	821
502.193	4997
502.266	9637
502.340	4423
502.413	5013
502.487	9406
502.561	4783
502.634	1272
502.708	1033
502.781	498
502.855	2376
502.928	-182
503.002	546
503.075	268
503.149	1110
503.222	1212
503.295	663
503.369	1788
503.442	1797
503.516	7554
503.589	16177
503.662	10121
503.736	3801
503.809	7712
503.882	5088
503.956	9632
504.029	9300
504.102	9881
504.175	12314
504.249	3575
504.322	1955
504.395	1187
504.468	-2
504.542	1277
504.615	424
504.688	534
504.761	-496
504.834	2644
504.907	1237
504.980	1152
505.053	231
505.127	-883
505.200	3053
505.273	880
505.346	819
505.419	165
505.492	863
505.565	393
505.638	1348
505.711	-105
505.784	-60
505.857	-111
505.930	2188
506.003	-783
506.076	2341
506.149	548
506.221	-173
506.294	2150
506.367	2851
506.440	13384
506.513	5955
506.586	1110
506.659	-301
506.731	432
506.804	231
506.877	21
506.950	1006
507.022	440
507.095	-875
507.168	672
507.241	615
507.313	-396
507.386	241
507.459	1399
507.531	373
507.604	107
507.677	1094
507.749	-812
507.822	1182
507.894	1435
507.967	3607
508.040	1155
508.112	1747
508.185	1619
508.257	-177
508.330	2089
508.402	367
508.475	1514
508.547	1376
508.620	1029
508.692	3138
508.765	1582
508.837	443
508.909	1769
508.982	927
509.054	1464
509.127	783
509.199	570
509.271	647
509.344	677
509.416	625
509.488	1155
509.560	1309
509.633	579
509.705	250
509.777	852
509.849	2232
509.922	-354
509.994	1684
510.066	1813
510.138	-91
510.210	5418
510.283	2524
510.355	2714
510.427	1398
510.499	1889
510.571	1725
510.643	1181
510.715	2806
510.787	-79
510.859	2397
510.931	996
511.003	1797
511.076	2560
511.148	416
511.219	1084
511.291	2769
511.363	3271
511.435	1239
511.507	138
511.579	2288
511.651	3165
511.723	1547
511.795	1158
511.867	791
511.939	1707
512.010	1786
512.082	3011
512.154	-943
512.226	637
512.298	2931
512.369	3124
512.441	3240
512.513	1654
512.585	908
512.656	2899
512.728	636
512.800	1053
512.871	989
512.943	1607
513.015	799
513.086	1521
513.158	937
513.230	1038
513.301	875
513.373	2446
513.444	954
513.516	356
513.588	536
513.659	1120
513.731	1552
513.802	605
513.874	2724
513.945	1559
514.016	119
514.088	1937
514.159	-34
514.231	2031
514.302	2774
514.374	2367
514.445	110
514.516	4601
514.588	1330
514.659	1068
514.730	1478
514.802	3415
514.873	-240
514.944	3473
515.016	2188
515.087	369
515.158	1018
515.229	3468
515.301	790
515.372	2335
515.443	1196
515.514	1467
515.585	824
515.656	1297
515.728	2391
515.799	980
515.870	1409
515.941	1653
516.012	1467
516.083	2791
516.154	1149
516.225	1994
516.296	2973
516.367	1339
516.438	768
516.509	2395
516.580	2551
516.651	10217
516.722	25095
516.793	10674
516.864	2895
516.935	3433
517.006	3936
517.077	3767
517.148	9429
517.219	35667
517.289	45360
517.360	15390
517.431	6168
517.502	572
517.573	2313
517.643	2090
517.714	1976
517.785	3247
517.856	2182
517.926	3738
517.997	3006
518.068	2622
518.138	5782
518.209	5843
518.280	23306
518.350	82255
518.421	22510
518.492	4434
518.562	2662
518.633	2442
518.703	1382
518.774	7967
518.845	15613
518.915	14063
518.986	3359
519.056	3586
519.127	3735
519.197	5114
519.268	12534
519.338	9036
519.408	3016
519.479	1852
519.549	1081
519.620	2832
519.690	1884
519.760	1423
519.831	1348
519.901	1135
519.971	1685
520.042	1166
520.112	403
520.182	2282
520.253	1402
520.323	747
520.393	767
520.463	3729
520.534	-140
520.604	4939
520.674	2016
520.744	1491
520.814	3504
520.885	2869
520.955	4394
521.025	16680
521.095	5615
521.165	2792
521.235	526
521.305	262
521.375	1074
521.445	2353
521.515	1092
521.585	1666
521.655	-104
521.725	1489
521.795	1388
521.865	-832
521.935	3561
522.005	1217
522.075	1035
522.145	1632
522.215	-7
522.285	1803
522.355	2289
522.424	4323
522.494	1913
522.564	1934
522.634	1584
522.704	5452
522.774	1428
522.843	1437
522.913	746
522.983	309
523.053	-112
523.122	1170
523.192	535
523.262	1899
523.331	982
523.401	732
523.471	354
523.540	1087
523.610	347
523.680	651
523.749	1454
523.819	1670
523.888	179
523.958	832
524.027	504
524.097	1
524.166	849
524.236	-1165
524.305	2416
524.375	297
524.444	-1638
524.514	2483
524.583	51
524.653	-762
524.722	1388
524.791	-149
524.861	1772
524.930	-191
524.999	149
525.069	1825
525.138	827
525.207	-473
525.277	769
525.346	261
525.415	1668
525.484	1342
525.554	-12
525.623	666
525.692	449
525.761	873
525.830	1681
525.900	1252
525.969	3035
526.038	5325
526.107	10368
526.176	32832
526.245	21493
526.314	7242
526.383	17498
526.452	19401
526.522	39262
526.591	31111
526.660	4548
526.729	2690
526.797	4510
526.867	6784
526.935	30333
527.004	75327
527.073	35215
527.142	3400
527.211	1181
527.280	2433
527.349	827
527.418	459
527.487	1466
527.555	-274
527.624	276
527.693	-597
527.762	1060
527.831	-186
527.899	528
527.968	844
528.037	-910
528.106	273
528.174	847
528.243	1534
528.312	1407
528.380	1020
528.449	-921
528.518	1423
528.586	-1295
528.655	1609
528.723	268
528.792	-132
528.861	-549
528.929	-754
528.998	1503
529.066	403
529.135	1005
529.203	1289
529.272	880
529.340	2476
529.409	2655
529.477	302
529.545	1106
529.614	3831
529.682	705
529.751	3076
529.819	5654
529.887	3529
529.956	2189
530.024	3254
530.092	1647
530.161	3528
530.229	2761
530.297	1991
530.365	2772
530.434	3308
530.502	1753
530.570	3386
530.638	695
530.707	2826
530.775	3397
530.843	1633
530.911	2368
530.979	2614
531.047	1636
531.115	3456
531.183	2045
531.252	2930
531.320	1527
531.388	2092
531.456	3411
531.524	1690
531.592	2942
531.660	4857
531.728	1889
531.796	2734
531.864	2462
531.932	2275
532.000	1848
532.067	2234
532.135	3163
532.203	4625
532.271	2283
532.339	4698
532.407	4278
532.475	3883
532.542	3495
532.610	3552
532.678	1861
532.746	7990
532.814	13065
532.881	4949
532.949	3523
533.017	3557
533.084	3042
533.152	2444
533.220	3099
533.287	2376
533.355	2193
533.423	4130
533.490	2504
533.558	3020
533.625	2626
533.693	2001
533.761	2845
533.828	2699
533.896	1931
533.963	4672
534.031	4387
534.098	4570
534.166	2840
534.233	2265
534.300	4069
534.368	3236
534.435	1515
534.503	2386
534.570	2409
534.637	2289
534.705	2986
534.772	3464
534.840	4317
534.907	17503
534.974	16366
535.041	2641
535.109	2602
535.176	1535
535.243	2469
535.310	1729
535.378	1772
535.445	1721
535.512	2744
535.579	2183
535.646	728
535.714	1752
535.781	2971
535.848	2516
535.915	3180
535.982	2501
536.049	1657
536.116	3410
536.183	1240
536.250	1405
536.317	1116
536.384	2433
536.451	2162
536.518	2230
536.585	731
536.652	2773
536.719	1358
536.786	-81
536.853	1219
536.920	2772
536.987	1273
537.053	881
537.120	6355
537.187	5278
537.254	1588
537.321	716
537.388	1986
537.454	558
537.521	157
537.588	1320
537.654	1615
537.721	1144
537.788	2358
537.855	761
537.921	1801
537.988	652
538.055	1834
538.121	895
538.188	960
538.254	934
538.321	2268
538.388	1182
538.454	1106
538.521	1310
538.587	1049
538.654	1669
538.720	579
538.787	977
538.853	1684
538.920	906
538.986	347
539.053	82
539.119	1313
539.185	965
539.252	2172
539.318	756
539.385	2945
539.451	110
539.517	1733
539.583	1780
539.650	1854
539.716	4478
539.782	307
539.849	-192
539.915	1818
539.981	888
540.047	1385
540.114	215
540.180	1657
540.246	276
540.312	1397
540.378	939
540.444	2998
540.510	3024
540.576	3929
540.643	1116
540.709	480
540.775	1285
540.841	350
540.907	1360
540.973	1795
541.039	1307
541.105	1282
541.171	233
541.237	287
541.303	2416
541.369	2870
541.435	973
541.500	1593
541.566	-249
541.632	179
541.698	1079
541.764	2100
541.830	446
541.896	-252
541.961	1893
542.027	70
542.093	472
542.159	1192
542.224	554
542.290	1796
542.356	690
542.421	1580
542.487	1947
542.553	42
542.618	888
542.684	576
542.750	1006
542.815	1727
542.881	1410
542.947	3913
543.012	3467
543.078	736
543.143	242
543.209	1161
543.274	-45
543.340	1627
543.405	1919
543.471	1700
543.536	682
543.602	1191
543.667	-572
543.732	1412
543.798	234
543.863	1156
543.928	315
543.994	340
544.059	1416
544.124	803
544.190	684
544.255	1699
544.320	2004
544.386	-109
544.451	1214
544.516	1250
544.581	845
544.646	3466
544.712	3719
544.777	1461
544.842	1640
544.907	1833
544.972	703
545.037	1118
545.102	1012
545.168	252
545.233	2087
545.298	3042
545.363	695
545.428	1702
545.493	3540
545.558	2330
545.623	1924
545.688	883
545.753	1751
545.818	1597
545.883	2717
545.947	1016
546.012	2728
546.077	1698
546.142	2951
546.207	1004
546.272	2696
546.337	1712
546.401	3008
546.466	2376
546.531	1329
546.596	2555
546.661	1953
546.725	3198
546.790	2443
546.855	2633
546.919	2884
546.984	3755
547.049	3548
547.113	4509
547.178	3633
547.243	4741
547.307	6412
547.372	6861
547.436	5785
547.501	5949
547.565	7849
547.630	5856
547.695	5566
547.759	6123
547.823	6994
547.888	6804
547.952	6371
548.017	6671
548.081	7461
548.146	7683
548.210	7274
548.274	6830
548.339	7278
548.403	7796
548.468	6335
548.532	5833
548.596	6608
548.660	5901
548.725	8229
548.789	7878
548.853	9304
548.917	7879
548.982	7646
549.046	7645
549.110	5401
549.174	5666
549.238	6738
549.303	6706
549.367	8818
549.431	7845
549.495	7125
549.559	7014
549.623	8797
549.687	8507
549.751	9897
549.815	10612
549.879	11767
549.943	9585
550.007	11398
550.071	11152
550.135	10358
550.199	9206
550.263	9329
550.327	9800
550.391	9970
550.455	9971
550.519	10312
550.582	12512
550.646	11963
550.710	12653
550.774	13336
550.838	12267
550.901	13187
550.965	14362
551.029	15228
551.093	16674
551.156	16437
551.220	19893
551.284	21374
551.347	16098
551.411	18242
551.475	17679
551.538	14497
551.602	13314
551.666	12105
551.729	11058
551.793	12210
551.856	10658
551.920	11526
551.983	11578
552.047	11020
552.110	11097
552.174	10408
552.237	11840
552.301	11582
552.364	10604
552.428	10831
552.491	10733
552.554	10947
552.618	11291
552.681	10688
552.745	9763
552.808	12147
552.871	11549
552.934	10893
552.998	9686
553.061	11676
553.124	11231
553.187	10452
553.251	10077
553.314	12030
553.377	10826
553.440	14530
553.503	23437
553.567	28480
553.630	12874
553.693	12343
553.756	12374
553.819	11291
553.882	11509
553.945	11861
554.008	10870
554.071	11211
554.134	11120
554.197	10118
554.260	10679
554.323	11986
554.386	11085
554.449	11389
554.512	11408
554.575	10538
554.638	11287
554.701	10589
554.764	11110
554.827	10477
554.889	9905
554.952	9526
555.015	8128
555.078	9086
555.141	10170
555.203	8725
555.266	9590
555.329	10713
555.391	8505
555.454	8970
555.517	8125
555.580	8126
555.642	8136
555.705	7952
555.768	7875
555.830	7148
555.893	7460
555.955	7089
556.018	6810
556.080	7679
556.143	7494
556.206	7110
556.268	7934
556.330	6538
556.393	7211
556.455	7071
556.518	7010
556.580	6755
556.643	6084
556.705	6107
556.767	4774
556.830	5896
556.892	6134
556.955	5405
557.017	5180
557.079	5843
557.142	5819
557.204	5596
557.266	6972
557.328	5960
557.391	4464
557.453	4265
557.515	4523
557.577	4862
557.639	4999
557.701	4884
557.764	4423
557.826	4423
557.888	5964
557.950	5284
558.012	6157
558.074	7949
558.136	15747
558.198	31238
558.260	10801
558.322	5379
558.384	5758
558.446	7191
558.508	7264
558.570	8322
558.632	10011
558.694	14343
558.756	23144
558.818	63649
558.880	125325
558.942	38292
559.003	33772
559.065	15547
559.127	7941
559.189	7994
559.251	9798
559.312	14519
559.374	32262
559.436	87999
559.498	38073
559.559	8681
559.621	8228
559.683	9662
559.744	17074
559.806	46686
559.868	57499
559.929	11696
559.991	8850
560.052	13691
560.114	33188
560.176	20078
560.237	21160
560.299	27360
560.360	6751
560.422	3996
560.483	3589
560.545	3814
560.606	3327
560.667	3458
560.729	3126
560.790	3365
560.852	2856
560.913	3329
560.974	3117
561.036	2373
561.097	3317
561.158	2664
561.220	3205
561.281	2728
561.342	2596
561.403	3920
561.465	3148
561.526	4328
561.587	5015
561.648	1892
561.709	2861
561.771	2748
561.832	2299
561.893	3235
561.954	3523
562.015	2673
562.076	3138
562.137	2812
562.198	2518
562.259	2699
562.320	2136
562.381	3225
562.442	2588
562.503	3379
562.564	2578
562.625	2705
562.686	2236
562.747	1853
562.808	1992
562.869	3070
562.930	3799
562.991	3594
563.051	3131
563.112	1977
563.173	2381
563.234	1930
563.294	3511
563.355	1834
563.416	3033
563.477	2635
563.537	1953
563.598	3201
563.659	3296
563.720	2447
563.780	2569
563.841	3051
563.901	2469
563.962	3535
564.023	3005
564.083	3679
564.144	2517
564.204	2556
564.265	3272
564.325	3226
564.386	4993
564.446	5254
564.507	1599
564.567	2605
564.628	3400
564.688	2359
564.749	2833
564.809	3800
564.869	2927
564.930	1926
564.990	2879
565.050	2034
565.111	2042
565.171	2343
565.231	2784
565.292	3124
565.352	1520
565.412	2890
565.472	2800
565.532	2253
565.593	2385
565.653	3339
565.713	2987
565.773	2926
565.833	2261
565.893	3626
565.953	2628
566.013	2606
566.074	3408
566.134	5056
566.194	4958
566.254	5307
566.314	3701
566.374	2465
566.434	1974
566.494	2422
566.554	2708
566.614	3018
566.673	3369
566.733	3522
566.793	2958
566.853	3387
566.913	3589
566.973	3237
567.033	3470
567.092	2849
567.152	3114
567.212	3733
567.272	3450
567.331	3949
567.391	3852
567.451	3910
567.511	4768
567.570	4085
567.630	4017
567.690	2965
567.749	4471
567.809	2989
567.868	3693
567.928	3868
567.988	3771
568.047	3148
568.107	4326
568.166	4352
568.226	3847
568.285	5563
568.345	4555
568.404	5744
568.464	3603
568.523	3845
568.582	4079
568.642	4101
568.701	4497
568.761	5108
568.820	6451
568.879	6863
568.939	6629
568.998	5595
569.057	3894
569.116	4578
569.176	4864
569.235	3497
569.294	3886
569.353	3265
569.413	3874
569.472	3479
569.531	3335
569.590	3481
569.649	3243
569.708	3705
569.767	3758
569.827	3722
569.886	2759
569.945	3160
570.004	3570
570.063	3453
570.122	3258
570.181	4248
570.240	3947
570.299	4144
570.358	3781
570.417	3239
570.475	3657
570.534	3777
570.593	3768
570.652	2863
570.711	2837
570.770	3531
570.829	3748
570.887	3111
570.946	3290
571.005	3294
571.064	3489
571.122	4133
571.181	3312
571.240	2496
571.299	4454
571.357	3064
571.416	3904
571.475	4344
571.533	4184
571.592	3918
571.650	4011
571.709	3040
571.768	4385
571.826	3976
571.885	4289
571.943	2724
572.002	3382
572.060	3713
572.119	3047
572.177	3022
572.236	2941
572.294	3222
572.352	3974
572.411	3885
572.469	2642
572.528	2923
572.586	3017
572.644	3646
572.703	3768
572.761	3010
572.819	3676
572.877	3172
572.936	3295
572.994	2998
573.052	3289
573.110	3959
573.169	2945
573.227	3659
573.285	3620
573.343	3920
573.401	3343
573.459	3990
573.517	3022
573.576	3267
573.634	3844
573.692	4314
573.750	3672
573.808	3881
573.866	3902
573.924	5134
573.982	4175
574.040	3625
574.098	3966
574.155	3160
574.213	3259
574.271	3436
574.329	3259
574.387	2912
574.445	2625
574.503	3570
574.560	2585
574.618	3037
574.676	3020
574.734	2608
574.792	4054
574.849	3456
574.907	3348
574.965	3194
575.022	3399
575.080	2689
575.138	3172
575.195	2858
575.253	3616
575.311	3713
575.368	3374
575.426	2537
575.483	3568
575.541	3680
575.598	2755
575.656	2579
575.713	3237
575.771	3465
575.828	3007
575.886	3428
575.943	3090
576.001	3655
576.058	2981
576.115	3830
576.173	2966
576.230	4174
576.287	4363
576.345	3939
576.402	3746
576.459	3689
576.517	2809
576.574	4151
576.631	4104
576.688	4975
576.746	3611
576.803	4278
576.860	4010
576.917	3995
576.974	4213
577.031	3810
577.089	4086
577.146	2917
577.203	4375
577.260	4096
577.317	4279
577.374	4076
577.431	3917
577.488	3843
577.545	2725
577.602	3911
577.659	3936
577.716	4266
577.773	4130
577.830	3979
577.886	4665
577.943	3794
578.000	3768
578.057	4282
578.114	6011
578.171	5396
578.227	7611
578.284	8026
578.341	6897
578.398	5404
578.454	5437
578.511	4850
578.568	5176
578.625	4641
578.681	4833
578.738	4434
578.794	4697
578.851	4958
578.908	3533
578.964	4397
579.021	4145
579.077	3741
579.134	3933
579.190	3918
579.247	4405
579.303	4211
579.360	4015
579.416	3974
579.473	4001
579.529	4439
579.586	4197
579.642	5375
579.698	4865
579.755	5049
579.811	5206
579.867	5814
579.924	5913
579.980	6194
580.036	7210
580.093	9263
580.149	11693
580.205	13978
580.261	11521
580.317	8704
580.374	7568
580.430	7265
580.486	6452
580.542	6196
580.598	5841
580.619	5746
580.654	5584
580.692	5528
580.710	5498
580.765	5058
580.767	5043
580.823	5635
580.838	5684
580.879	5792
580.911	5844
580.935	5894
580.984	5878
580.991	5877
581.047	6588
581.057	6564
581.103	6471
581.130	7081
581.159	7687
581.203	7890
581.215	7950
581.270	7254
581.276	7309
581.326	7772
581.349	7457
581.382	6966
581.422	6963
581.438	6978
581.494	7352
581.494	7352
581.550	6991
581.567	7327
581.606	8049
581.640	7364
581.661	6954
581.713	7545
581.717	7591
581.773	7083
581.786	7217
581.829	7737
581.859	7833
581.885	7857
581.932	7228
581.940	7112
581.996	8319
582.004	8270
582.052	7954
582.077	8405
582.107	8929
582.150	8558
582.163	8467
582.219	8416
582.223	8416
582.274	8419
582.296	8402
582.330	8298
582.368	9096
582.386	9496
582.441	9165
582.441	9161
582.497	8835
582.514	9110
582.552	9979
582.587	10358
582.608	10463
582.659	9871
582.663	9829
582.719	10711
582.732	10677
582.774	10688
582.805	10553
582.830	10420
582.877	11379
582.885	11551
582.941	12453
582.950	12733
582.996	14418
583.023	15545
583.052	16738
583.095	16896
583.107	16894
583.162	18249
583.168	18319
583.218	18306
583.240	17639
583.273	16564
583.313	15485
583.328	15191
583.384	13833
583.385	13799
583.439	12521
583.458	12360
583.494	12288
583.531	11825
583.549	11638
583.603	11508
583.605	11493
583.660	11212
583.676	11145
583.715	11394
583.748	11602
583.770	11626
583.820	10937
583.825	10876
583.881	11681
583.893	11665
583.936	11708
583.965	11598
583.991	11461
584.038	12168
584.046	12308
584.101	12381
584.110	12327
584.156	12181
584.183	12196
584.211	12052
584.255	11907
584.266	11992
584.321	12961
584.328	13009
584.376	13152
584.400	13322
584.431	13464
584.472	13054
584.486	12948
584.541	13372
584.545	13403
584.596	14435
584.617	14618
584.651	14812
584.689	15222
584.706	15379
584.761	15060
584.762	15050
584.816	15213
584.834	15271
584.871	15422
584.906	15727
584.926	15807
584.978	15673
584.980	15704
585.035	16638
585.051	16770
585.090	16897
585.123	17078
585.145	17226
585.195	17230
585.200	17272
585.254	18586
585.267	18775
585.309	20089
585.340	21201
585.364	21771
585.412	22387
585.419	22554
585.473	25327
585.484	25966
585.528	30322
585.556	34167
585.583	42927
585.628	62096
585.637	69908
585.692	127317
585.700	137556
585.747	174080
585.772	162028
585.801	111050
585.845	46807
585.856	40406
585.910	27373
585.917	25945
585.965	23069
585.989	22131
586.019	21878
586.061	21092
586.074	20912
586.128	20782
586.133	20783
586.183	21206
586.205	20827
586.237	20280
586.277	20063
586.292	19971
586.346	19016
586.349	18964
586.401	19099
586.421	19090
586.455	19332
586.493	19950
586.509	21144
586.564	24721
586.565	24804
586.618	32092
586.637	33434
586.672	29084
586.709	23545
586.727	22321
586.781	20441
586.781	20475
586.835	19577
586.853	19159
586.889	18401
586.925	17044
586.944	16890
586.996	18142
586.998	18206
587.052	18922
587.068	18814
587.106	18582
587.140	18651
587.161	18860
587.212	19070
587.215	19122
587.269	19775
587.284	19735
587.323	19224
587.356	19101
587.377	19560
587.427	20167
587.431	20170
587.485	19994
587.499	19699
587.539	19743
587.571	20209
587.593	20829
587.643	22276
587.648	22418
587.702	22570
587.715	22660
587.755	23310
587.786	24014
587.810	24202
587.858	23738
587.864	23915
587.917	25248
587.930	25510
587.971	26395
588.001	27450
588.025	27971
588.073	27949
588.079	28187
588.133	30194
588.145	30717
588.187	32499
588.217	33186
588.241	34472
588.288	37592
588.295	38208
588.348	42867
588.360	43724
588.402	47041
588.431	49511
588.456	52558
588.503	58165
588.510	59262
588.564	68382
588.575	70289
588.617	80714
588.646	88191
588.671	98165
588.718	119247
588.725	125993
588.778	180605
588.789	192867
588.832	301164
588.861	378103
588.886	482595
588.932	686734
588.939	697069
588.993	730888
589.004	728808
589.047	553760
589.075	431990
589.100	344402
589.147	190847
589.154	183877
589.207	133937
589.218	124302
589.261	116722
589.290	112815
589.314	118590
589.361	131058
589.368	138218
589.421	199898
589.433	213784
589.475	349601
589.504	449351
589.528	535912
589.576	693151
589.582	677719
589.635	481627
589.647	436995
589.689	266126
589.718	152009
589.742	127392
589.790	82432
589.795	81035
589.849	68005
589.861	65035
589.902	61852
589.932	58828
589.955	53651
590.004	42732
590.009	42498
590.062	39274
590.075	38281
590.115	36416
590.146	35126
590.168	34902
590.218	33731
590.222	33782
590.275	33288
590.289	33145
590.328	33440
590.360	33328
590.381	33094
590.431	32139
590.435	32200
590.488	31586
590.503	31356
590.541	31845
590.574	32063
590.594	31771
590.645	30731
590.647	30853
590.700	31529
590.716	31569
590.753	31296
590.787	31133
590.806	31265
590.859	30865
590.859	30966
590.912	31282
590.930	31208
590.965	31364
591.001	31437
591.018	31402
591.071	30892
591.072	30785
591.124	30875
591.143	30714
591.177	31220
591.214	31634
591.230	32086
591.283	33341
591.285	33272
591.336	32792
591.356	32474
591.389	32364
591.427	32060
591.442	32052
591.495	31563
591.498	31407
591.547	31318
591.569	31283
591.600	31010
591.640	30226
591.653	30625
591.706	31929
591.711	31963
591.759	33404
591.782	33998
591.811	35364
591.853	37008
591.864	36730
591.917	34587
591.924	34169
591.969	33933
591.995	33603
592.022	34035
592.066	34432
592.075	34995
592.127	37758
592.137	38144
592.180	40235
592.208	41353
592.233	39632
592.279	35903
592.285	36136
592.338	37146
592.350	37241
592.390	36593
592.421	35900
592.443	36461
592.491	37283
592.495	37397
592.548	37191
592.562	37007
592.600	36933
592.633	36639
592.653	36875
592.704	36962
592.705	37168
592.775	36738
592.846	37959
592.916	37804
592.987	37502
593.058	38877
593.128	36998
593.199	37646
593.270	37227
593.341	38375
593.411	38306
593.482	39316
593.553	39798
593.623	40098
593.694	42228
593.764	43786
593.835	41983
593.906	40371
593.976	41665
594.047	42275
594.117	46952
594.188	48147
594.258	42764
594.329	43531
594.399	44301
594.470	45613
594.540	45623
594.611	46369
594.681	45857
594.751	46671
594.822	48065
594.892	51084
594.963	51167
595.033	51772
595.103	52130
595.174	54315
595.244	64135
595.314	71155
595.384	56422
595.455	56766
595.525	58480
595.595	60017
595.665	60344
595.736	58199
595.806	60022
595.876	60066
595.946	60827
596.016	62356
596.087	63989
596.157	63313
596.227	64839
596.297	67705
596.367	70161
596.437	76042
596.507	81009
596.577	85884
596.647	77793
596.717	78817
596.787	79126
596.857	78876
596.927	79512
596.997	80812
597.067	81460
597.137	85430
597.207	84701
597.277	84220
597.347	83278
597.417	80151
597.487	82195
597.557	83375
597.626	85992
597.696	88965
597.766	91054
597.836	97653
597.906	84135
597.975	80264
598.045	82321
598.115	84326
598.185	88536
598.254	97847
598.324	104101
598.394	104212
598.464	102088
598.533	102503
598.603	97729
598.672	97931
598.742	98136
598.812	99999
598.881	103291
598.951	101697
599.020	103792
599.090	107108
599.159	110700
599.229	108333
599.299	106104
599.368	111308
599.437	110851
599.507	106725
599.576	106537
599.646	107818
599.715	110115
599.785	107319
599.854	108210
599.924	110039
599.993	111346
600.062	111709
600.132	114312
600.201	119786
600.270	131160
600.340	137039
600.409	134879
600.478	137160
600.547	140056
600.617	135632
600.686	124262
600.755	122172
600.824	121999
600.894	123717
600.963	124315
601.032	125934
601.101	127688
601.170	128734
601.239	130509
601.308	132817
601.378	134871
601.447	137987
601.516	140936
601.585	144528
601.654	147242
601.723	152101
601.792	154550
601.861	161186
601.930	169118
601.999	175307
602.068	173186
602.137	175442
602.206	176647
602.275	178779
602.343	180430
602.412	181864
602.481	181952
602.550	183714
602.619	186026
602.688	186408
602.756	191978
602.825	188188
602.894	193236
602.963	190609
603.032	197460
603.100	197584
603.169	191486
603.238	201030
603.307	190655
603.375	192535
603.444	202232
603.513	182980
603.581	191389
603.650	205979
603.719	167727
603.787	157330
603.856	161317
603.924	165176
603.993	169440
604.061	174585
604.130	178735
604.198	183279
604.267	185211
604.335	190113
604.404	190659
604.472	199216
604.541	197149
604.609	205035
604.678	209040
604.746	212799
604.815	224982
604.883	215776
604.951	209721
605.020	215418
605.088	199165
605.156	186304
605.225	187226
605.293	185200
605.361	187219
605.429	183742
605.498	188845
605.566	186491
605.634	195736
605.702	194354
605.771	196853
605.839	204361
605.907	188171
605.975	198438
606.043	187315
606.111	180635
606.180	202029
606.248	181643
606.316	179014
606.384	197967
606.452	154447
606.520	122483
606.588	122318
606.656	123502
606.724	120125
606.792	115882
606.860	106316
606.928	97253
606.996	95066
607.064	91817
607.132	96005
607.200	100226
607.267	103037
607.335	105364
607.403	107376
607.471	104830
607.539	101621
607.607	101697
607.674	90666
607.742	92013
607.810	90662
607.878	91101
607.946	91633
608.013	95618
608.081	96200
608.149	96708
608.216	97241
608.284	102611
608.352	99871
608.419	101035
608.487	104861
608.555	97192
608.622	96673
608.690	101077
608.757	107571
608.825	110626
608.893	108279
608.960	102958
609.028	100686
609.095	105304
609.163	98705
609.230	89719
609.298	81518
609.365	85790
609.432	91331
609.500	98325
609.567	114038
609.635	128162
609.702	135424
609.769	130470
609.837	105832
609.904	88873
609.971	89525
610.039	98632
610.106	120969
610.173	203503
610.241	436530
610.308	311216
610.375	147151
610.442	101428
610.509	92985
610.577	92872
610.644	94564
610.711	95428
610.778	96883
610.845	100960
610.912	108811
610.980	114170
611.047	118385
611.114	111088
611.181	106182
611.248	104313
611.315	112351
611.382	113312
611.449	117256
611.516	118773
611.583	117733
611.650	118465
611.717	119149
611.784	122848
611.851	127313
611.918	130183
611.984	147274
612.051	193346
612.118	345995
612.185	765476
612.252	537890
612.319	182389
612.386	153940
612.452	142360
612.519	135962
612.586	140328
612.653	137245
612.719	140395
612.786	133550
612.853	123907
612.919	124098
612.986	124335
613.053	117330
613.120	111390
613.186	106903
613.253	108346
613.319	107275
613.386	109763
613.453	110657
613.519	111104
613.586	110183
613.652	113931
613.719	110257
613.785	113103
613.852	111071
613.918	110845
613.985	113436
614.051	122879
614.118	137304
614.184	132916
614.250	112465
614.317	114355
614.383	111670
614.449	114070
614.516	113342
614.582	117023
614.648	113021
614.715	113075
614.781	109420
614.847	110883
614.914	110546
614.980	106400
615.046	107069
615.112	110705
615.179	109914
615.245	111139
615.311	110623
615.377	112275
615.443	114106
615.509	114153
615.575	117924
615.642	116067
615.708	119057
615.774	124452
615.840	130725
615.906	136930
615.972	157126
616.038	217580
616.104	405978
616.170	867362
616.236	788142
616.302	252487
616.368	187950
616.434	147041
616.500	137687
616.565	145052
616.631	166873
616.697	148947
616.763	150303
616.829	196950
616.895	312762
616.961	313581
617.026	164712
617.092	125338
617.158	121387
617.224	117881
617.289	111537
617.355	106608
617.421	106671
617.487	107936
617.552	101377
617.618	100415
617.684	100189
617.749	103572
617.815	97091
617.880	95956
617.946	96847
618.012	99621
618.077	100511
618.143	98355
618.208	97646
618.274	104042
618.339	106018
618.405	90333
618.470	92225
618.536	90519
618.601	91645
618.667	86090
618.732	82714
618.798	80984
618.863	80131
618.928	79588
618.994	81804
619.059	81681
619.124	85810
619.190	81868
619.255	80913
619.320	82104
619.386	81502
619.451	80171
619.516	78860
619.581	80073
619.647	81264
619.712	82210
619.777	79562
619.842	80608
619.907	81564
619.972	82188
620.038	81017
620.103	79992
620.168	79812
620.233	81716
620.298	80638
620.363	82225
620.428	84217
620.493	86583
620.558	86903
620.623	87235
620.688	88669
620.753	87335
620.818	88225
620.883	88879
620.948	89837
621.013	88590
621.078	86130
621.143	87613
621.207	90888
621.272	88621
621.337	87723
621.402	88201
621.467	93176
621.532	94599
621.596	90261
621.661	86950
621.726	85805
621.791	87070
621.855	87682
621.920	87538
621.985	90235
622.049	93987
622.114	92723
622.179	93033
622.243	95149
622.308	96461
622.373	98673
622.437	96912
622.502	93194
622.566	92065
622.631	91531
622.695	95526
622.760	93893
622.824	91992
622.889	92872
622.953	92731
623.018	100125
623.082	98587
623.147	95993
623.211	94756
623.276	93421
623.340	90840
623.404	89136
623.469	90306
623.533	90976
623.597	88561
623.662	87117
623.726	83091
623.790	80363
623.854	77794
623.919	80538
623.983	79121
624.047	81652
624.111	80823
624.176	83219
624.240	82558
624.304	85895
624.368	82851
624.432	81486
624.496	82778
624.560	85701
624.625	87966
624.689	86997
624.753	88294
624.817	84087
624.881	82352
624.945	77599
625.009	76014
625.073	75868
625.137	77882
625.201	82249
625.265	80660
625.329	78064
625.393	78265
625.456	78469
625.520	80124
625.584	82083
625.648	87627
625.712	101171
625.776	139965
625.839	146007
625.903	86480
625.967	69967
626.031	86991
626.095	110812
626.158	77764
626.222	62346
626.286	58278
626.349	56682
626.413	54064
626.477	55527
626.540	54140
626.604	52818
626.668	54253
626.731	52249
626.795	53391
626.858	52484
626.922	50531
626.986	51547
627.049	50185
627.113	52156
627.176	52043
627.240	49753
627.303	48176
627.366	48361
627.430	49097
627.493	48905
627.557	49110
627.620	50212
627.684	49527
627.747	49117
627.810	45295
627.874	43252
627.937	42265
628.000	44163
628.064	43267
628.127	37732
628.190	38524
628.253	37552
628.317	36839
628.380	35495
628.443	35280
628.506	35402
628.569	33263
628.632	32015
628.696	33323
628.759	32017
628.822	30747
628.885	29666
628.948	30882
629.011	30324
629.074	28981
629.137	28390
629.200	28636
629.263	29952
629.326	28079
629.389	27735
629.452	27618
629.515	27668
629.578	27018
629.641	29212
629.704	27420
629.767	27778
629.830	27469
629.892	26604
629.955	26605
630.018	27406
630.081	26318
630.144	27201
630.207	24605
630.269	28102
630.332	27872
630.395	25642
630.458	25638
630.520	23113
630.583	25323
630.646	23784
630.708	23438
630.771	24600
630.834	25893
630.896	24122
630.959	23974
631.021	24313
631.084	24017
631.146	26411
631.209	27188
631.272	24105
631.334	24516
631.397	23674
631.459	23589
631.522	24675
631.584	24624
631.646	25915
631.709	25936
631.771	26904
631.834	26113
631.896	25004
631.958	23020
632.021	24447
632.083	22298
632.145	23658
632.208	22434
632.270	23845
632.332	22985
632.395	21263
632.457	23940
632.519	22914
632.581	22986
632.643	21105
632.706	23282
632.768	20727
632.830	22529
632.892	22612
632.954	21999
633.016	23371
633.078	22138
633.141	22635
633.203	22073
633.265	23051
633.327	22161
633.389	20921
633.451	22759
633.513	23175
633.575	24520
633.637	23280
633.698	22704
633.760	24170
633.822	23392
633.884	22958
633.946	23384
634.008	24068
634.070	25131
634.132	26054
634.193	25917
634.255	26375
634.317	25133
634.379	26699
634.441	25383
634.502	23963
634.564	22815
634.626	21886
634.687	21627
634.749	21631
634.811	21513
634.873	20333
634.934	20834
634.996	22364
635.057	19950
635.119	19637
635.181	21947
635.242	22613
635.304	19579
635.365	23123
635.427	20716
635.488	19029
635.550	20180
635.611	21399
635.673	18818
635.734	23803
635.796	21911
635.857	24573
635.918	22731
635.980	26166
636.041	25355
636.102	26477
636.164	26248
636.225	26197
636.286	21148
636.348	22546
636.409	20654
636.470	20360
636.531	20728
636.593	21598
636.654	21245
636.715	19987
636.776	19462
636.838	18313
636.899	19586
636.960	18836
637.021	17878
637.082	18796
637.143	18673
637.204	17642
637.265	17387
637.326	19074
637.387	18763
637.448	16619
637.509	18461
637.570	18213
637.631	18908
637.692	15975
637.753	17008
637.814	17623
637.875	17317
637.936	17951
637.997	16618
638.058	17492
638.119	19279
638.179	16905
638.240	16988
638.301	17185
638.362	16544
638.423	16725
638.483	17460
638.544	15345
638.605	18386
638.666	16212
638.726	16898
638.787	16909
638.848	16578
638.908	16475
638.969	15726
639.030	16225
639.090	15664
639.151	15314
639.211	16769
639.272	17266
639.332	19098
639.393	18054
639.453	15699
639.514	16216
639.574	17153
639.635	15401
639.695	16000
639.756	14940
639.816	15690
639.877	15590
639.937	17596
639.997	18289
640.058	14346
640.118	14902
640.178	16051
640.239	14806
640.299	14612
640.359	14172
640.420	15848
640.480	16769
640.540	15917
640.600	16577
640.661	15893
640.721	15558
640.781	19052
640.841	17319
640.901	16280
640.961	15325
641.021	15167
641.082	15220
641.142	16678
641.202	14845
641.262	12717
641.322	15752
641.382	13907
641.442	14591
641.502	13645
641.562	15221
641.622	14215
641.682	15540
641.742	15487
641.802	15614
641.861	15560
641.921	14478
641.981	14427
642.041	14168
642.101	14252
642.161	13111
642.221	13643
642.280	13602
642.340	13059
642.400	12861
642.460	13958
642.519	14423
642.579	13938
642.639	14549
642.698	11399
642.758	14957
642.818	14554
642.877	13843
642.937	13875
642.997	14254
643.056	14865
643.116	12816
643.175	15401
643.235	14312
643.294	14056
643.354	15001
643.414	15751
643.473	17037
643.532	17918
643.592	21993
643.651	31919
643.711	51775
643.770	98405
643.830	231163
643.889	470346
643.948	125146
644.008	30017
644.067	19958
644.126	15982
644.186	16021
644.245	14793
644.304	12073
644.363	15213
644.423	12978
644.482	14830
644.541	14268
644.600	11277
644.659	16699
644.719	17582
644.778	24184
644.837	35710
644.896	70647
644.955	157901
645.014	56538
645.073	19857
645.132	15009
645.191	15398
645.250	12980
645.309	15073
645.368	14953
645.427	17353
645.486	24415
645.545	38044
645.604	15544
645.663	13829
645.722	13438
645.781	14122
645.840	14940
645.898	16248
645.957	21698
646.016	29029
646.075	50170
646.134	93652
646.192	245152
646.251	354896
646.310	61599
646.369	22291
646.427	18531
646.486	15607
646.545	14342
646.603	13167
646.662	13182
646.721	11936
646.779	11373
646.838	11328
646.896	14450
646.955	16613
647.014	23737
647.072	39789
647.131	103452
647.189	50841
647.248	12923
647.306	12378
647.365	12493
647.423	9161
647.481	11296
647.540	8549
647.598	10392
647.657	10282
647.715	11408
647.773	9167
647.832	10422
647.890	8575
647.948	9578
648.007	10727
648.065	8921
648.123	9085
648.181	11073
648.240	11841
648.298	9984
648.356	10114
648.414	9658
648.472	9679
648.531	9245
648.589	8603
648.647	9683
648.705	9195
648.763	9223
648.821	9475
648.879	9380
648.937	10583
648.995	9832
649.053	12290
649.111	15981
649.169	25148
649.227	42182
649.285	83720
649.343	237501
649.401	115108
649.459	23527
649.516	16601
649.574	13398
649.632	21578
649.690	25894
649.748	16940
649.806	19814
649.863	36530
649.921	73899
649.979	49317
650.037	10879
650.094	8059
650.152	8926
650.210	7513
650.268	9134
650.325	8507
650.383	8849
650.440	7449
650.498	7179
650.556	7466
650.613	7452
650.671	7417
650.728	7524
650.786	8163
650.843	8783
650.901	6554
650.958	7498
651.016	7327
651.073	6761
651.131	5607
651.188	6898
651.246	7850
651.303	5320
651.360	6445
651.418	5958
651.475	7557
651.532	5534
651.590	6452
651.647	5885
651.704	6526
651.762	6235
651.819	6688
651.876	5504
651.933	5497
651.990	7757
652.048	5806
652.105	5173
652.162	7283
652.219	5874
652.276	6741
652.333	6650
652.390	5076
652.448	5904
652.505	5172
652.562	5420
652.619	6450
652.676	9701
652.733	10078
652.790	6506
652.847	4161
652.904	5811
652.961	5191
653.017	4640
653.074	5768
653.131	4847
653.188	4601
653.245	5540
653.302	5589
653.359	5213
653.415	5317
653.472	4463
653.529	6179
653.586	4742
653.642	5043
653.699	5290
653.756	4889
653.813	4603
653.869	5115
653.926	3838
653.983	4823
654.039	4817
654.096	5335
654.152	6150
654.209	4422
654.266	6092
654.322	4810
654.379	5875
654.435	6374
654.492	5593
654.548	6979
654.605	8989
654.661	6918
654.717	5403
654.774	6427
654.830	5919
654.887	5449
654.943	5386
655.000	5548
655.056	6263
655.112	5672
655.168	4546
655.225	4989
655.281	6785
655.337	7042
655.394	9634
655.450	8210
655.506	6844
655.562	10217
655.618	8396
655.675	4393
655.731	4938
655.787	5031
655.843	5368
655.899	4722
655.955	5331
656.011	4877
656.067	3917
656.123	5467
656.179	4970
656.235	6095
656.291	4123
656.347	5507
656.403	4163
656.459	5337
656.515	5266
656.571	5285
656.627	5580
656.683	5292
656.739	5435
656.795	5034
656.850	4769
656.906	5778
656.962	5614
657.018	4360
657.074	4848
657.129	5861
657.185	7927
657.241	13930
657.297	8918
657.352	4805
657.408	4536
657.464	6023
657.519	4235
657.575	4370
657.630	4181
657.686	4645
657.742	4338
657.797	4137
657.853	5224
657.908	5123
657.964	4149
658.019	5021
658.075	4978
658.130	5850
658.186	3725
658.241	4434
658.297	4443
658.352	3962
658.407	4900
658.463	3705
658.518	4680
658.573	5277
658.629	3045
658.684	5000
658.739	4899
658.795	4001
658.850	4875
658.905	4465
658.960	5011
659.016	3849
659.071	4660
659.126	4150
659.181	4415
659.236	6138
659.291	6496
659.346	4626
659.401	5725
659.457	6343
659.512	6916
659.567	5920
659.622	5365
659.677	4321
659.732	3567
659.787	4912
659.842	5429
659.897	6383
659.952	5177
660.007	4297
660.061	5262
660.116	4001
660.171	4029
660.226	4543
660.281	5104
660.336	4018
660.391	4369
660.445	4125
660.500	4855
660.555	4312
660.610	3500
660.664	4318
660.719	4285
660.774	4170
660.828	4419
660.883	3822
660.938	4706
660.992	3824
661.047	3605
661.101	4033
661.156	4134
661.211	3063
661.265	3358
661.320	4381
661.374	4275
661.429	4220
661.483	5064
661.538	3132
661.592	4593
661.647	4898
661.701	4718
661.755	4426
661.810	4058
661.864	3816
661.919	3646
661.973	5303
662.027	4638
662.081	2920
662.136	3157
662.190	4254
662.244	4600
662.299	4328
662.353	4989
662.407	3607
662.461	4304
662.515	4716
662.569	4223
662.624	5005
662.678	3996
662.732	3928
662.786	4506
662.840	3751
662.894	5385
662.948	3748
663.002	4215
663.056	4491
663.110	4305
663.164	3768
663.218	3795
663.272	3737
663.326	3929
663.380	3967
663.434	4307
663.488	4110
663.542	3974
663.595	4386
663.649	4339
663.703	4396
663.757	3707
663.811	3282
663.864	4023
663.918	4466
663.972	3734
664.026	4452
664.079	3356
664.133	4487
664.187	4031
664.240	3631
664.294	4204
664.348	4648
664.401	4275
664.455	3783
664.508	3806
664.562	3765
664.615	3909
664.669	3706
664.722	2986
664.776	2844
664.829	4930
664.883	3487
664.936	4428
664.990	4216
665.043	4848
665.097	4352
665.150	5013
665.203	4204
665.257	4471
665.310	4756
665.363	4748
665.417	4062
665.470	4646
665.523	4790
665.576	4163
665.630	4834
665.683	4731
665.736	4295
665.789	4135
665.842	4231
665.895	4238
665.949	3682
666.002	4353
666.055	3894
666.108	4569
666.161	4225
666.214	4488
666.267	4089
666.320	5144
666.373	4663
666.426	5088
666.479	3822
666.532	4479
666.585	4946
666.638	5089
666.691	4591
666.744	4664
666.796	5173
666.849	4656
666.902	4363
666.955	4200
667.008	4255
667.060	3610
667.113	3686
667.166	4313
667.219	4445
667.271	4432
667.324	4025
667.377	4477
667.430	3633
667.482	4372
667.535	4698
667.587	4712
667.640	4611
667.693	4605
667.745	4853
667.798	5154
667.850	3855
667.903	4333
667.955	4477
668.008	4132
668.060	5274
668.113	4776
668.165	4602
668.218	4672
668.270	4213
668.322	4473
668.375	3940
668.427	5147
668.479	3671
668.532	5239
668.584	4274
668.636	4440
668.689	4822
668.741	3740
668.793	4500
668.845	4614
668.898	5478
668.950	3876
669.002	4419
669.054	4547
669.106	4508
669.158	5416
669.211	5312
669.263	5352
669.315	6557
669.367	5429
669.419	4356
669.471	5450
669.523	5015
669.575	6071
669.627	5405
669.679	4408
669.731	4588
669.783	5294
669.835	4964
669.886	4375
669.938	5049
669.990	4623
670.042	4309
670.094	5249
670.146	4156
670.197	5484
670.249	5791
670.301	6806
670.353	7716
670.404	10329
670.456	14348
670.508	22946
670.560	38877
670.611	68104
670.663	120821
670.715	277314
670.766	393298
670.818	126052
670.869	28560
670.921	15260
670.972	10923
671.024	8790
671.075	7930
671.127	6296
671.178	5255
671.230	6185
671.281	5198
671.333	5242
671.384	5573
671.436	5501
671.487	7415
671.538	7921
671.590	11257
671.641	15311
671.692	24021
671.744	43921
671.795	31904
671.846	12516
671.897	7567
671.949	6210
672.000	5767
672.051	4403
672.102	5252
672.153	3713
672.204	5215
672.256	4782
672.307	4330
672.358	4726
672.409	4513
672.460	4696
672.511	4551
672.562	4126
672.613	3718
672.664	3721
672.715	4511
672.766	3675
672.817	4099
672.868	4053
672.919	3386
672.970	3180
673.021	2917
673.071	2769
673.122	3284
673.173	3561
673.224	2809
673.275	3187
673.326	2923
673.376	3607
673.427	3422
673.478	2722
673.528	4034
673.579	3155
673.630	3092
673.680	4096
673.731	3127
673.782	3235
673.832	4180
673.883	4336
673.934	2921
673.984	3553
674.035	3422
674.085	3866
674.136	3903
674.186	3714
674.237	3717
674.287	6159
674.338	4721
674.388	3434
674.438	2479
674.489	4055
674.539	3314
674.589	3722
674.640	3512
674.690	3186
674.740	3605
674.791	3983
674.841	3693
674.891	3496
674.942	3407
674.992	2590
675.042	2591
675.092	2710
675.142	2697
675.193	2764
675.243	2971
675.293	3409
675.343	3172
675.393	3165
675.443	2822
675.493	2498
675.543	2073
675.593	3045
675.643	2969
675.693	2430
675.743	2894
675.793	2645
675.843	2738
675.893	3596
675.943	3092
675.993	2720
676.043	3483
676.093	2904
676.142	3170
676.192	3242
676.242	2820
676.292	2934
676.341	2658
676.391	3593
676.441	3141
676.491	2425
676.540	2190
676.590	2431
676.640	2197
676.689	2398
676.739	1990
676.789	1642
676.838	2624
676.888	2225
676.937	1877
676.987	2655
677.037	2240
677.086	1911
677.136	2662
677.185	2103
677.235	2125
677.284	2082
677.333	1789
677.383	1839
677.432	1701
677.482	1714
677.531	2412
677.580	2422
677.630	2662
677.679	1897
677.728	2679
677.778	2261
677.827	2050
677.876	1730
677.925	2003
677.975	2790
678.024	2356
678.073	2220
678.122	2258
678.171	2703
678.220	2672
678.269	2282
678.319	2623
678.368	2317
678.417	2227
678.466	2821
678.515	3750
678.564	1972
678.613	2634
678.662	1990
678.711	2757
678.760	1824
678.809	2322
678.857	1822
678.906	2586
678.955	1902
679.004	2175
679.053	2543
679.102	1917
679.151	1948
679.199	1651
679.248	1634
679.297	2797
679.346	2187
679.394	1467
679.443	1710
679.492	2898
679.540	2065
679.589	1692
679.638	1860
679.686	2288
679.735	1335
679.784	2706
679.832	2403
679.881	1441
679.929	1638
679.978	1797
680.026	1917
680.075	2006
680.123	1150
680.172	2012
680.220	1322
680.268	2353
680.317	1162
680.365	1424
680.414	1087
680.462	1854
680.510	1618
680.559	1912
680.607	1659
680.655	1687
680.703	1663
680.752	1546
680.800	1438
680.848	1595
680.896	880
680.945	1523
680.993	1825
681.041	1447
681.089	1419
681.137	2727
681.185	1326
681.233	1636
681.258	1967
681.281	2233
681.329	1531
681.377	995
681.380	1088
681.425	1869
681.473	2571
681.502	2375
681.521	2143
681.569	3170
681.617	2549
681.624	2568
681.665	2311
681.713	2624
681.745	2802
681.761	2815
681.809	2873
681.857	3038
681.867	2941
681.904	2408
681.952	3682
681.989	3044
682.000	2785
682.048	3492
682.096	2493
682.111	2791
682.143	3292
682.191	3471
682.233	3926
682.239	3939
682.286	4015
682.334	3610
682.354	3729
682.382	3813
682.430	4566
682.476	4603
682.477	4561
682.525	4075
682.572	3561
682.598	3766
682.620	3874
682.667	4990
682.715	4810
682.720	4871
682.763	4976
682.810	4803
682.841	4498
682.857	4262
682.905	4571
682.952	5164
682.963	5085
683.000	4737
683.047	5253
683.085	6021
683.095	6171
683.142	5646
683.190	5226
683.206	5354
683.237	5412
683.284	5432
683.328	5444
683.332	5417
683.379	5198
683.426	5358
683.449	5583
683.473	5735
683.521	5891
683.568	5838
683.571	5912
683.615	6411
683.662	7030
683.693	6628
683.709	6332
683.757	5889
683.804	6336
683.814	6505
683.851	6970
683.898	6984
683.936	6628
683.945	6514
683.992	7143
684.039	7105
684.057	7155
684.086	7121
684.133	7738
684.179	7321
684.180	7277
684.227	7662
684.274	7275
684.300	7079
684.321	6896
684.368	6912
684.415	7832
684.422	7890
684.462	8036
684.509	8296
684.543	7714
684.556	7491
684.603	7845
684.649	7956
684.665	8148
684.696	8465
684.743	8409
684.786	8911
684.790	8931
684.837	8745
684.883	9050
684.908	9605
684.930	10094
684.977	9811
685.023	9545
685.029	9639
685.070	9965
685.117	9520
685.150	9880
685.164	10058
685.210	9852
685.257	10935
685.272	10938
685.303	10733
685.350	10314
685.393	9855
685.396	9802
685.443	10098
685.490	11089
685.514	10993
685.536	10954
685.583	10645
685.629	11018
685.636	11042
685.675	10776
685.722	10916
685.757	10627
685.768	10629
685.815	10537
685.861	11656
685.878	11688
685.908	11494
685.954	11752
686.000	11847
686.000	11842
686.047	11565
686.093	12751
686.121	12785
686.139	12627
686.185	12241
686.232	12141
686.242	12232
686.278	12548
686.324	12196
686.363	11740
686.370	11661
686.416	12273
686.463	12505
686.484	12419
686.509	12384
686.555	12866
686.601	12509
686.606	12590
686.647	12995
686.693	12459
686.727	12815
686.739	12986
686.785	12363
686.831	12545
686.848	12628
686.877	12667
686.923	12488
686.969	12341
686.969	12339
687.015	13167
687.061	13299
687.090	13256
687.107	13123
687.153	13618
687.199	13167
687.211	13031
687.245	12779
687.291	13095
687.332	13456
687.336	13504
687.382	13977
687.428	13872
687.453	14161
687.474	14207
687.520	13511
687.565	13204
687.574	13193
687.611	13629
687.657	14067
687.695	14634
687.702	14779
687.748	15844
687.794	16809
687.816	16718
687.839	16008
687.885	15390
687.931	14784
687.937	14685
687.976	14842
688.022	14884
688.058	15446
688.067	15517
688.113	14715
688.158	14415
688.179	14496
688.204	14818
688.249	15039
688.295	15473
688.300	15446
688.340	15242
688.386	15394
688.421	15619
688.431	15658
688.477	15535
688.522	15505
688.542	15409
688.567	15476
688.613	15214
688.658	15950
688.663	15948
688.703	15977
688.749	16089
688.784	16399
688.794	16467
688.839	16091
688.884	16593
688.905	16423
688.930	16218
688.975	15976
689.020	16071
689.026	16033
689.065	16230
689.110	16761
689.146	17260
689.155	17314
689.201	16749
689.246	16689
689.267	16815
689.291	17122
689.336	16916
689.381	16721
689.388	16751
689.426	16974
689.471	17163
689.509	17013
689.516	17008
689.561	17334
689.606	17262
689.630	17489
689.651	17663
689.696	16864
689.741	17019
689.750	17104
689.785	17641
689.830	17102
689.871	17065
689.875	17075
689.920	17031
689.965	17151
689.992	17127
690.010	17242
690.054	17498
690.099	17732
690.112	17939
690.144	18322
690.189	17929
690.233	17680
690.233	17704
690.278	17369
690.323	17916
690.354	17777
690.367	17968
690.412	19153
690.457	19966
690.474	20330
690.501	20639
690.546	20873
690.590	21404
690.595	21400
690.635	22378
690.680	23309
690.716	24079
690.724	24659
690.769	27624
690.813	31444
690.836	33037
690.857	37363
690.902	46448
690.946	55975
690.957	58335
690.991	80107
691.035	109570
691.077	137441
691.080	137490
691.124	128965
691.168	121626
691.198	117072
691.213	108261
691.257	81729
691.301	55319
691.318	45075
691.346	41385
691.390	35366
691.434	28666
691.439	27951
691.478	26834
691.522	25418
691.559	24089
691.567	24026
691.611	23287
691.655	22477
691.680	22153
691.699	22191
691.743	22164
691.787	21591
691.800	21451
691.831	21575
691.875	21943
691.919	22546
691.921	22513
691.964	22230
692.008	21857
692.041	21678
692.052	21749
692.096	21606
692.139	22047
692.162	21774
692.183	21651
692.227	21965
692.271	22148
692.282	22133
692.315	22106
692.359	22027
692.402	21884
692.403	21923
692.447	21576
692.490	21339
692.523	20920
692.534	21027
692.578	21603
692.622	21826
692.643	22088
692.666	22249
692.709	22275
692.753	22310
692.763	22287
692.797	22453
692.840	22714
692.884	22922
692.884	22972
692.928	22971
692.971	23502
693.004	23375
693.015	23386
693.059	24016
693.102	24374
693.124	24452
693.146	24809
693.189	25303
693.233	26053
693.245	26185
693.276	27177
693.320	28544
693.363	29564
693.365	29556
693.407	32650
693.450	35697
693.485	37941
693.493	39493
693.537	47475
693.580	55124
693.605	59697
693.624	68726
693.667	89736
693.710	111424
693.725	118918
693.753	158856
693.797	221959
693.840	284575
693.845	291189
693.883	276702
693.926	259809
693.966	245637
693.970	240467
694.013	181580
694.056	122511
694.086	81618
694.099	77610
694.142	64236
694.185	51086
694.206	44540
694.229	42501
694.272	38906
694.315	35177
694.326	34120
694.358	32609
694.401	30811
694.444	28410
694.446	28236
694.487	27686
694.530	27118
694.566	26568
694.573	26545
694.616	25930
694.659	25566
694.686	25195
694.702	25094
694.745	24611
694.787	24075
694.806	23858
694.830	23976
694.873	23876
694.916	23950
694.926	23876
694.959	23892
695.002	23973
695.044	23731
695.046	23681
695.087	23440
695.130	22936
695.166	22482
695.172	22651
695.215	23377
695.258	24186
695.286	24533
695.301	24528
695.343	24599
695.386	24585
695.406	24445
695.428	24350
695.471	24164
695.514	23923
695.526	23797
695.556	24433
695.599	25487
695.641	26086
695.646	26138
695.684	25855
695.726	25133
695.766	24572
695.769	24642
695.811	24686
695.854	24825
695.886	24820
695.896	24850
695.938	24640
695.981	24397
696.005	24264
696.023	24552
696.065	25118
696.108	25631
696.125	25790
696.150	25915
696.192	26093
696.235	26077
696.245	26038
696.277	26335
696.319	26712
696.361	26959
696.365	26918
696.404	27777
696.446	28655
696.485	29233
696.488	29268
696.530	28831
696.572	28524
696.604	28152
696.614	28085
696.656	27355
696.698	26756
696.724	26337
696.740	26362
696.783	26254
696.825	26172
696.844	26026
696.867	26116
696.909	26140
696.951	26169
696.964	26144
696.992	26243
697.034	26116
697.076	26211
697.083	26139
697.118	26309
697.160	26361
697.202	26448
697.203	26385
697.244	26569
697.286	26539
697.323	26428
697.327	26492
697.369	26450
697.411	26383
697.442	26375
697.453	26524
697.494	26693
697.536	26957
697.562	27043
697.578	26924
697.620	26482
697.661	25865
697.682	25543
697.703	25885
697.744	26388
697.786	27030
697.801	27129
697.828	27206
697.869	27196
697.911	27320
697.921	27264
697.952	27148
697.994	26919
698.035	26683
698.040	26580
698.077	26654
698.118	26694
698.160	26715
698.160	26644
698.201	26950
698.243	27139
698.279	27292
698.284	27411
698.325	27823
698.367	28200
698.399	28437
698.408	28453
698.449	28156
698.491	27870
698.518	27598
698.532	27724
698.573	27887
698.614	28063
698.638	28077
698.656	28045
698.697	27805
698.738	27540
698.757	27349
698.779	27747
698.820	28352
698.862	28964
698.877	29118
698.903	29444
698.944	29819
698.985	30209
698.996	30236
699.026	29989
699.067	29536
699.116	28917
699.235	28994
699.354	27784
699.474	28050
699.593	28305
699.713	28176
699.832	28425
699.951	28378
700.070	27879
700.190	26425
700.309	27556
700.428	26780
700.547	25935
700.667	26465
700.786	26447
700.905	26240
701.024	26076
701.143	25503
701.262	25143
701.381	24859
701.500	25424
701.619	25609
701.738	25327
701.857	26119
701.976	24246
702.095	25377
702.214	25344
702.333	25054
702.452	24186
702.571	25015
702.690	24694
702.809	24872
702.928	23705
703.047	24009
703.165	23751
703.284	23589
703.403	24230
703.522	24257
703.640	23736
703.759	24086
703.878	24732
703.997	23207
704.115	22652
704.234	21934
704.353	22149
704.471	21977
704.590	22034
704.708	21456
704.827	21550
704.946	22468
705.064	22424
705.183	22171
705.301	24575
705.420	31390
705.538	30225
705.656	26375
705.775	27484
705.893	35196
706.012	39668
706.130	27904
706.249	26494
706.367	26850
706.485	27038
706.604	26803
706.722	25381
706.840	27712
706.958	30847
707.077	27225
707.195	24805
707.313	24415
707.431	23964
707.549	23368
707.668	24935
707.786	23643
707.904	24054
708.022	24016
708.140	22937
708.258	22416
708.376	24109
708.494	23187
708.612	24924
708.730	31054
708.848	30397
708.966	27836
709.084	27677
709.202	26857
709.320	27314
709.438	26980
709.556	27787
709.674	26428
709.791	26518
709.909	25196
710.027	26618
710.145	25585
710.263	25773
710.380	25205
710.498	24763
710.616	25267
710.733	24973
710.851	24532
710.969	25214
711.086	24824
711.204	23663
711.322	24599
711.439	24637
711.557	23626
711.674	24052
711.792	23046
711.909	24879
712.027	25467
712.144	22779
712.262	23592
712.379	23615
712.497	32455
712.614	34085
712.732	28925
712.849	27338
712.966	27311
713.084	29773
713.201	28852
713.318	28407
713.436	28005
713.553	28366
713.670	27115
713.787	28444
713.905	27307
714.022	27616
714.139	27229
714.256	28468
714.373	30781
714.490	39070
714.608	65017
714.725	210620
714.842	222641
714.959	37409
715.076	27782
715.193	25734
715.310	24966
715.427	25406
715.544	22864
715.661	25147
715.778	23448
715.895	26527
716.011	25436
716.128	23815
716.245	23524
716.362	23928
716.479	23899
716.596	23576
716.713	24341
716.829	23340
716.946	23213
717.063	22810
717.180	22425
717.296	22282
717.413	21715
717.530	21053
717.646	21278
717.763	21760
717.880	20517
717.996	20891
718.113	20510
718.229	21088
718.346	20970
718.462	20642
718.579	20887
718.695	21226
718.812	21551
718.928	20819
719.045	20382
719.161	19795
719.277	19801
719.394	18912
719.510	21207
719.626	20734
719.743	23491
719.859	24760
719.975	31025
720.092	75033
720.208	152130
720.324	33998
720.440	21244
720.557	22394
720.673	21582
720.789	24930
720.905	35455
721.021	22925
721.137	19391
721.253	20139
721.369	18833
721.486	20199
721.602	20830
721.718	18939
721.834	17020
721.950	17993
722.066	17770
722.181	17734
722.297	18275
722.413	17368
722.529	17471
722.645	17257
722.761	17122
722.877	17432
722.993	18311
723.108	18237
723.224	16516
723.340	17321
723.456	16053
723.571	16716
723.687	16551
723.803	17241
723.918	15514
724.034	16577
724.150	16141
724.265	16157
724.381	20723
724.497	22528
724.612	15365
724.728	15967
724.843	15110
724.959	15895
725.074	19503
725.190	20381
725.305	15840
725.421	15182
725.536	13958
725.651	14942
725.767	14830
725.882	14795
725.997	14182
726.113	14061
726.228	13964
726.343	14975
726.459	13768
726.574	15411
726.689	13412
726.804	13778
726.920	14462
727.035	14238
727.150	14602
727.265	13493
727.380	13798
727.495	13831
727.610	13474
727.725	14412
727.841	15105
727.956	20776
728.071	18349
728.186	13297
728.301	12290
728.416	13166
728.531	12740
728.645	12858
728.760	12709
728.875	12618
728.990	13229
729.105	13168
729.220	13327
729.335	13449
729.449	12695
729.564	13005
729.679	11698
729.794	12924
729.908	13270
730.023	12314
730.138	11829
730.253	12883
730.367	13236
730.482	12041
730.596	11485
730.711	13241
730.826	13566
730.940	13294
731.055	12947
731.169	12595
731.284	11793
731.398	11893
731.513	12797
731.627	12544
731.742	13905
731.856	14709
731.970	13191
732.085	14379
732.199	16251
732.313	20658
732.428	35937
732.542	86877
732.656	56665
732.771	18276
732.885	15886
732.999	15313
733.113	15594
733.227	16146
733.342	14609
733.456	15002
733.570	14578
733.684	13974
733.798	13965
733.912	13709
734.026	13206
734.140	14010
734.254	13832
734.368	15525
734.482	16537
734.596	13685
734.710	12778
734.824	13652
734.938	13306
735.052	13101
735.166	14183
735.280	14062
735.393	12491
735.507	13173
735.621	13924
735.735	15875
735.849	13810
735.962	12993
736.076	13590
736.190	13690
736.303	13801
736.417	15212
736.531	12704
736.644	13256
736.758	12695
736.872	11924
736.985	12229
737.099	12076
737.212	11609
737.326	13100
737.439	12253
737.553	11750
737.666	11465
737.780	11317
737.893	12166
738.007	11361
738.120	11714
738.233	11637
738.347	11265
738.460	11066
738.573	11779
738.687	10901
738.800	11976
738.913	12031
739.026	11712
739.140	11718
739.253	11741
739.366	11353
739.479	11627
739.592	11454
739.705	11179
739.818	11426
739.932	11105
740.045	12104
740.158	10485
740.271	11687
740.384	11562
740.497	11021
740.610	11065
740.723	11600
740.836	12424
740.949	11561
741.062	11718
741.174	11523
741.287	11714
741.400	11031
741.513	10853
741.626	12207
741.739	10164
741.851	11412
741.964	11405
742.077	10850
742.189	10366
742.302	10836
742.415	10709
742.527	11558
742.640	10441
742.753	11373
742.865	10176
742.978	10399
743.090	11102
743.203	10709
743.316	10529
743.428	10913
743.541	10950
743.653	10284
743.766	10043
743.878	10726
743.990	11452
744.103	11112
744.215	10713
744.327	10484
744.440	10042
744.552	11259
744.664	9980
744.777	11350
744.889	10757
745.001	10727
745.113	11027
745.226	10581
745.338	10750
745.450	10849
745.562	10583
745.674	10872
745.786	10610
745.898	10576
746.010	11417
746.122	10626
746.234	10396
746.347	10193
746.459	9582
746.570	10428
746.682	10733
746.794	11845
746.906	10410
747.018	10877
747.130	10124
747.242	10123
747.354	9470
747.466	11766
747.577	10347
747.689	10735
747.801	10191
747.913	10777
748.024	10388
748.136	9733
748.248	10795
748.359	10920
748.471	10669
748.583	10685
748.694	10954
748.806	11909
748.918	10934
749.029	10781
749.141	11132
749.252	10868
749.364	10702
749.475	11127
749.587	10435
749.698	10974
749.809	11373
749.921	10985
750.032	10156
750.144	10632
750.255	10331
750.366	9897
750.478	10197
750.589	10441
750.700	9822
750.811	10821
750.923	10714
751.034	11315
751.145	11676
751.256	10389
751.367	10179
751.479	10464
751.590	9853
751.701	10537
751.812	10549
751.923	10846
752.034	11437
752.145	10477
752.256	10600
752.367	11779
752.478	11418
752.589	11806
752.700	10830
752.811	10986
752.922	10407
753.032	11213
753.143	10905
753.254	10985
753.365	11445
753.476	11632
753.586	10509
753.697	11288
753.808	11724
753.919	10817
754.029	11376
754.140	11703
754.251	11209
754.361	12176
754.472	12240
754.582	11847
754.693	11248
754.804	12241
754.914	11823
755.025	12161
755.135	12581
755.246	12369
755.356	11743
755.466	12666
755.577	11501
755.687	13077
755.798	12536
755.908	13382
756.018	11956
756.129	13678
756.239	13188
756.349	14255
756.460	13376
756.570	13580
756.680	13354
756.790	13765
756.900	14549
757.011	14623
757.121	13580
757.231	14990
757.341	14670
757.451	14448
757.561	14556
757.671	15547
757.781	14684
757.891	15700
758.001	14930
758.111	15845
758.221	15966
758.331	16288
758.441	16451
758.551	16539
758.661	16824
758.771	17192
758.880	18024
758.990	17559
759.100	17227
759.210	18140
759.320	18665
759.429	19504
759.539	18577
759.649	20020
759.758	21245
759.868	20991
759.978	20288
760.087	21264
760.197	21254
760.307	22327
760.416	23299
760.526	22794
760.635	23468
760.745	23795
760.854	24572
760.964	25490
761.073	24718
761.182	26586
761.292	25703
761.401	28262
761.511	27995
761.620	29577
761.729	29678
761.839	30332
761.948	31411
762.057	31176
762.166	32871
762.276	32579
762.385	36246
762.494	37030
762.603	37591
762.712	38854
762.822	41283
762.931	42571
763.040	42763
763.149	45677
763.258	48250
763.367	49947
763.476	53739
763.585	55509
763.694	58613
763.803	61947
763.912	65957
764.021	68767
764.130	73946
764.238	79184
764.347	84080
764.456	90937
764.565	97917
764.674	106691
764.783	117246
764.891	126826
765.000	141828
765.109	157837
765.217	175497
765.326	198973
765.435	226603
765.543	263401
765.652	306085
765.761	358843
765.869	420792
765.978	489892
766.086	548704
766.195	581167
766.303	545464
766.412	390907
766.520	371243
766.629	533148
766.737	576217
766.846	550286
766.954	481711
767.062	412136
767.171	347275
767.279	290062
767.387	244961
767.496	210132
767.604	183541
767.712	164020
767.820	146914
767.928	135073
768.037	125026
768.145	118253
768.253	114063
768.361	110752
768.469	110687
768.577	112382
768.685	117600
768.793	126670
768.901	138524
769.009	157083
769.117	179750
769.225	218140
769.333	276313
769.441	353856
769.549	450239
769.657	539512
769.765	519457
769.873	367930
769.981	476475
770.088	533256
770.196	468538
770.304	384079
770.412	310202
770.519	255064
770.627	211894
770.735	181777
770.842	154662
770.950	135448
771.058	120014
771.165	107356
771.273	96802
771.380	89384
771.488	81636
771.595	75559
771.703	70252
771.810	65401
771.918	59769
772.025	58484
772.133	55425
772.240	50546
772.348	50023
772.455	47440
772.562	44582
772.670	42229
772.777	41248
772.884	39243
772.991	38217
773.099	37120
773.206	35100
773.313	35803
773.420	31989
773.528	31963
773.635	30102
773.742	29941
773.849	30118
773.956	28960
774.063	26890
774.170	26910
774.277	26730
774.384	24657
774.491	24838
774.598	25212
774.705	24255
774.812	23834
774.919	23584
775.026	23289
775.133	22072
775.239	21978
775.346	20874
775.453	20823
775.560	20133
775.667	21107
775.773	20469
775.880	19310
775.987	18771
776.093	19393
776.200	18463
776.307	17565
776.413	18089
776.520	18267
776.627	17534
776.733	17306
776.840	16044
776.946	18489
777.053	16462
777.159	16297
777.266	15278
777.372	17257
777.478	15866
777.585	15863
777.691	14235
777.798	15318
777.904	13853
778.010	15242
778.117	14894
778.223	13414
778.329	13974
778.435	13829
778.542	13837
778.648	13175
778.754	12482
778.860	12873
778.966	12991
779.072	12920
779.178	12861
779.284	12276
779.391	13036
779.497	13532
779.603	17907
779.708	20998
779.815	40449
779.920	114412
780.026	217080
780.132	60101
780.238	20264
780.344	14682
780.450	13784
780.556	12370
780.661	11506
780.767	11442
780.873	10901
780.979	10420
781.085	10313
781.190	10919
781.296	10562
781.402	9217
781.507	9574
781.613	9426
781.719	8782
781.824	9670
781.930	9215
782.035	8161
782.141	10273
782.246	8376
782.352	7994
782.457	9897
782.563	8664
782.668	8365
782.773	8057
782.879	8413
782.984	8732
783.090	8205
783.195	8793
783.300	8621
783.405	7405
783.511	7733
783.616	8498
783.721	9125
783.826	7443
783.932	7425
784.037	8777
784.142	7857
784.247	7911
784.352	8052
784.457	7777
784.562	8376
784.667	8331
784.772	7007
784.877	6578
784.982	8248
785.087	7244
785.192	7592
785.297	6703
785.402	7083
785.507	6996
785.611	7480
785.716	6134
785.821	7879
785.926	6923
786.031	6025
786.135	6724
786.240	7018
786.345	5084
786.450	6593
786.554	6260
786.659	6410
786.763	5528
786.868	6040
786.973	7067
787.077	6363
787.182	6822
787.286	7250
787.391	6881
787.495	6325
787.600	5473
787.704	6720
787.809	5694
787.913	6158
788.017	6243
788.122	5916
788.226	5431
788.330	5690
788.435	4893
788.539	6710
788.643	5801
788.747	4938
788.852	5690
788.956	5173
789.060	6051
789.164	5591
789.268	4655
789.372	5928
789.476	6046
789.580	5458
789.684	5052
789.788	5912
789.892	5181
789.996	6456
790.100	4729
790.204	5908
790.308	4961
790.412	5599
790.516	4935
790.620	5536
790.724	5525
790.828	5694
790.931	4609
791.035	6430
791.139	4212
791.242	4685
791.346	5911
791.450	6046
791.554	4908
791.657	4438
791.761	5003
791.864	6700
791.968	5576
792.072	5399
792.175	5037
792.279	4817
792.382	5241
792.486	4356
792.589	4695
792.693	4711
792.796	4387
792.899	5464
793.003	4876
793.106	3830
793.209	5395
793.313	6208
793.416	2338
793.519	5031
793.623	5861
793.726	5445
793.829	4987
793.932	3770
794.035	3613
794.138	6047
794.242	6504
794.345	7273
794.448	9589
794.551	19538
794.654	64016
794.757	142094
794.860	35834
794.963	9721
795.066	5499
795.169	5970
795.272	4713
795.375	5440
795.477	4395
795.580	5267
795.683	2946
795.786	5157
795.889	3843
795.991	5476
796.094	5114
796.197	3068
796.300	5628
796.402	3665
796.505	3044
796.608	4355
796.710	3778
796.813	4087
796.915	3179
797.018	4690
797.120	3682
797.223	2930
797.326	4655
797.428	3825
797.530	3074
797.633	3946
797.735	4619
797.838	3773
797.940	4200
798.042	3361
798.145	3430
798.247	4799
798.349	2701
798.452	4204
798.554	3418
798.656	2962
798.758	4260
798.860	3670
798.962	3363
799.065	3596
799.167	2486
799.269	4433
799.371	3515
799.473	4476
799.575	3741
799.677	3928
799.779	4132
799.881	1660
799.983	4184
800.085	3832
800.187	3930
800.289	3199
800.390	3415
800.492	4104
800.594	4252
800.696	2965
800.798	3365
800.899	3040
801.001	3392
801.103	3281
801.205	2639
801.306	2713
801.408	2420
801.509	3831
801.611	2897
801.713	3309
801.814	2438
801.916	3296
802.017	2810
802.119	3170
802.220	2994
802.322	2239
802.423	4280
802.525	2252
802.626	3147
802.727	3133
802.829	2467
802.930	1833
803.031	3727
803.133	2219
803.234	2391
803.335	3543
803.436	1497
803.538	2616
803.639	1603
803.740	3673
803.841	2478
803.942	3098
804.043	3615
804.144	1672
804.245	2797
804.346	2055
804.447	1944
804.548	2656
804.649	3632
804.750	2951
804.851	2154
804.952	2606
805.053	2881
805.154	1671
805.255	3320
805.355	2619
805.456	2264
805.557	2335
805.658	1660
805.758	2940
805.859	2668
805.960	2779
806.061	2278
806.161	2190
806.262	2858
806.362	1269
806.463	1713
806.564	2843
806.664	2268
806.765	2270
806.865	3147
806.966	1370
807.066	1540
807.166	2867
807.267	2796
807.367	1934
807.468	2898
807.568	1429
807.668	3169
807.769	3672
807.869	1413
807.969	2477
808.069	2069
808.170	2442
808.270	2482
808.370	2505
808.470	2529
808.570	916
808.670	1155
808.770	2186
808.870	1697
808.970	2372
809.070	2058
809.170	2633
809.271	2184
809.370	2117
809.470	2402
809.570	1111
809.670	1361
809.770	1586
809.870	2765
809.970	2109
810.070	1828
810.169	2455
810.269	923
810.369	3520
810.469	1835
810.568	2065
810.668	1235
810.768	1549
810.867	1934
810.967	1640
811.066	2737
811.166	1382
811.265	2436
811.365	1663
811.464	1504
811.564	2448
811.663	2337
811.763	898
811.862	2162
811.962	2725
812.061	1470
812.160	1767
812.260	1488
812.359	1607
812.458	2278
812.557	5589
812.657	5464
812.756	3235
812.855	1493
812.954	1785
813.053	1633
813.153	1386
813.252	1398
813.351	2271
813.450	2200
813.549	2195
813.648	1652
813.747	1517
813.846	1290
813.945	1135
814.044	2644
814.143	1989
814.242	3126
814.341	1102
814.439	1875
814.538	1700
814.637	1941
814.736	2444
814.835	2095
814.933	1690
815.032	1606
815.131	2888
815.229	2974
815.328	4304
815.427	3349
815.525	2807
815.624	3098
815.722	3388
815.821	3955
815.919	3454
816.018	2755
816.116	3426
816.215	2829
816.313	3090
816.412	3347
816.510	4345
816.609	4980
816.707	4303
816.805	3135
816.904	3806
817.002	3575
817.100	4466
817.198	3978
817.296	3466
817.395	3526
817.493	3683
817.591	4047
817.689	4114
817.787	3420
817.885	5244
817.983	5882
818.081	11317
818.179	20849
818.277	54270
818.375	52215
818.473	15472
818.571	7421
818.669	5755
818.767	5764
818.865	5147
818.963	5636
819.061	6663
819.158	10286
819.256	20418
819.354	42776
819.452	99936
819.549	70740
819.647	19902
819.745	8179
819.842	6483
819.940	5121
820.038	4398
820.135	4196
820.233	4812
820.330	3173
820.428	3079
820.525	4208
820.623	3114
820.720	3129
820.818	4043
820.915	3562
821.012	3039
821.110	2293
821.207	3518
821.304	2695
821.402	3695
821.499	3907
821.596	2823
821.693	3124
821.791	4013
821.888	2521
821.985	3786
822.082	1765
822.179	3658
822.276	2553
822.373	2650
822.470	3031
822.567	2720
822.664	1998
822.761	2950
822.858	2460
822.955	3736
823.052	1750
823.149	2055
823.246	2636
823.343	2409
823.440	2684
823.536	2887
823.633	3069
823.730	2425
823.827	3009
823.923	2379
824.020	2914
824.117	1889
824.213	1842
824.310	1740
824.407	2203
824.503	2652
824.600	2615
824.696	2268
824.793	3066
824.889	2130
824.986	1776
825.082	2511
825.179	2908
825.275	2472
825.371	2454
825.468	2420
825.564	1525
825.660	2488
825.757	2684
825.853	2560
825.949	844
826.045	1779
826.142	1425
826.238	2405
826.334	2531
826.430	1617
826.526	2442
826.622	1521
826.718	2269
826.814	2658
826.910	2920
827.006	1850
827.102	976
827.198	2754
827.294	1886
827.390	1851
827.486	1693
827.582	411
827.678	1173
827.774	2729
827.869	770
827.965	2302
828.061	1794
828.157	1712
828.252	1977
828.348	1156
828.444	1800
828.539	799
828.635	1621
828.731	2861
828.826	660
828.922	3219
829.017	1025
829.113	2708
829.208	1922
829.304	1707
829.399	3040
829.495	2098
829.590	2635
829.685	990
829.781	2548
829.876	2093
829.971	1405
830.066	924
830.162	1691
830.257	1587
830.352	1443
830.447	2099
830.543	1908
830.638	1339
830.733	2889
830.828	1612
830.923	1771
831.018	1691
831.113	1842
831.208	2011
831.303	1415
831.398	1819
831.493	2274
831.588	2259
831.683	516
831.778	1709
831.873	1308
831.967	2807
832.062	1505
832.157	1101
832.252	1874
832.346	1583
832.441	1889
832.536	2399
832.631	2177
832.725	2885
832.820	1224
832.914	1975
833.009	1526
833.104	963
833.198	2326
833.293	793
833.387	2102
833.482	2184
833.576	1155
833.670	1597
833.765	697
833.859	780
833.954	1203
834.048	1910
834.142	2416
834.237	1518
834.331	2329
834.425	1835
834.519	1130
834.613	2244
834.708	316
834.802	1281
834.896	1179
834.990	1753
835.084	1803
835.178	1544
835.272	655
835.366	1160
835.460	2019
835.554	1381
835.648	678
835.742	972
835.836	1359
835.930	42
836.024	914
836.117	2576
836.211	1698
836.305	2176
836.399	2955
836.493	758
836.586	1674
836.680	1310
836.774	693
836.867	2318
836.961	559
837.055	700
837.148	1006
837.242	1866
837.335	634
837.429	1522
837.522	369
837.616	1799
837.709	1950
837.803	2112
837.896	1012
837.989	1267
838.083	1204
838.176	3062
838.269	1450
838.363	2389
838.456	651
838.549	1905
838.642	1406
838.735	2462
838.829	2085
838.922	1421
839.015	753
839.108	632
839.201	1308
839.294	1612
839.387	1192
839.480	885
839.573	1571
839.666	1704
839.759	680
839.852	1094
839.945	1181
840.038	56
840.131	1164
840.223	1067
840.316	1485
840.409	1976
840.502	1139
840.594	2430
840.687	461
840.780	1344
840.873	616
840.965	1418
841.058	833
841.150	2512
841.243	847
841.336	1150
841.428	1292
841.521	480
841.613	789
841.706	1041
841.798	1157
841.890	1038
841.983	-223
842.075	1195
842.167	-344
842.260	631
842.352	1541
842.444	1519
842.537	2024
842.629	3168
842.721	1219
842.813	1176
842.905	966
842.997	1512
843.090	993
843.182	1547
843.274	1309
843.366	5318
843.458	6868
843.550	5490
843.642	39
843.734	920
843.826	1333
843.918	792
844.009	1322
844.101	977
844.193	344
844.285	141
844.377	718
844.469	926
844.560	545
844.652	970
844.744	1656
844.835	787
844.927	736
845.019	1060
845.110	1375
845.202	1616
845.293	695
845.385	878
845.476	829
845.568	1426
845.659	553
845.751	1247
845.842	1639
845.934	542
846.025	-36
846.116	1937
846.208	1192
846.299	1156
846.390	1313
846.482	639
846.573	1730
846.664	1641
846.755	278
846.846	1869
846.937	-292
847.029	715
847.120	1204
847.211	687
847.302	1627
847.393	394
847.484	1041
847.575	1212
847.666	535
847.757	451
847.847	1435
847.938	662
848.029	1169
848.120	801
848.211	1008
848.302	1041
848.392	284
848.483	1142
848.574	204
848.664	677
848.755	1415
848.846	1154
848.936	105
849.027	1640
849.118	455
849.208	1358
849.299	1126
849.389	1013
849.480	1686
849.570	3604
849.661	5277
849.751	9221
849.841	4317
849.932	1138
850.022	316
850.112	1975
850.203	848
850.293	725
850.383	421
850.474	681
850.564	1253
850.654	1014
850.744	255
850.834	1533
850.924	988
851.014	1848
851.104	841
851.194	1360
851.284	1618
851.374	1519
851.464	1456
851.554	1499
851.644	626
851.734	2208
851.824	2795
851.914	3422
852.004	7697
852.094	8045
852.183	1548
852.273	1204
852.363	1116
852.452	360
852.542	968
852.632	1472
852.721	1152
852.811	811
852.901	1076
852.990	858
853.080	538
853.169	1639
853.259	616
853.348	1057
853.438	840
853.527	1534
853.617	875
853.706	3441
853.795	3496
853.885	9329
853.974	15749
854.063	28269
854.152	42704
854.242	17634
854.331	3505
854.420	1857
854.509	930
854.598	1461
854.687	446
854.777	1326
854.866	310
854.955	517
855.044	569
855.133	1874
855.222	978
855.311	750
855.400	751
855.488	-47
855.577	716
855.666	616
855.755	1582
855.844	1575
855.933	1128
856.021	1272
856.110	541
856.199	-242
856.288	176
856.376	744
856.465	-40
856.554	611
856.642	409
856.731	1123
856.819	403
856.908	1000
856.996	647
857.085	1011
857.173	627
857.262	1148
857.350	-139
857.438	716
857.527	-224
857.615	664
857.703	743
857.792	428
857.880	156
857.968	635
858.056	1348
858.145	399
858.233	166
858.321	1060
858.409	846
858.497	476
858.585	-159
858.673	1288
858.761	110
858.849	286
858.937	452
859.025	317
859.113	1523
859.201	162
859.289	1150
859.377	314
859.465	1156
859.552	1048
859.640	409
859.728	475
859.816	692
859.903	1443
859.991	76
860.079	848
860.166	199
860.254	911
860.342	495
860.429	609
860.517	-571
860.604	273
860.692	584
860.779	-54
860.867	-6
860.954	320
861.042	527
861.129	499
861.216	89
861.304	-230
861.391	692
861.478	497
861.565	917
861.653	1810
861.740	540
861.827	213
861.914	209
862.001	105
862.089	-172
862.176	318
862.263	871
862.350	873
862.437	124
862.524	321
862.611	-123
862.698	354
862.785	331
862.871	577
862.958	741
863.045	220
863.132	419
863.219	1184
863.306	245
863.392	1389
863.479	893
863.566	347
863.652	911
863.739	617
863.826	1029
863.912	922
863.999	475
864.086	542
864.172	-136
864.259	1128
864.345	308
864.432	613
864.518	176
864.604	1355
864.691	598
864.777	211
864.863	1097
864.950	1830
865.036	900
865.122	2600
865.209	2583
865.295	2969
865.381	2323
865.467	2737
865.553	2464
865.639	3177
865.726	2698
865.812	6094
865.898	9480
865.984	13520
866.070	20980
866.156	24302
866.242	7632
866.328	3446
866.414	2080
866.499	2780
866.585	1737
866.671	2402
866.757	2616
866.843	2123
866.928	1525
867.014	1874
867.100	2743
867.186	1964
867.271	1811
867.357	2477
867.442	2253
867.528	2761
867.614	2349
867.699	1343
867.785	1849
867.870	1759
867.956	1058
868.041	2221
868.127	1692
868.212	1767
868.297	1508
868.383	1731
868.468	2149
868.553	3221
868.639	1764
868.724	3197
868.809	2173
868.894	2043
868.979	2044
869.065	2280
869.150	1327
869.235	2573
869.320	1745
869.405	1585
869.490	776
869.575	1115
869.660	992
869.745	915
869.830	1739
869.915	1407
870.000	1293
870.085	1666
870.169	2033
870.254	2638
870.339	1130
870.424	1032
870.509	1657
870.593	1879
870.678	1696
870.763	1416
870.847	1471
870.932	1370
871.016	1460
871.101	796
871.186	1045
871.270	1709
871.355	1173
871.439	1753
871.523	1687
871.608	1754
871.692	1006
871.777	2424
871.861	1806
871.945	1510
872.030	1662
872.114	1650
872.198	678
872.282	716
872.367	1047
872.451	806
872.535	1284
872.619	932
872.703	772
872.787	763
872.871	1178
872.955	1092
873.039	911
873.123	1286
873.207	2251
873.291	953
873.375	442
873.459	1186
873.543	1265
873.627	1290
873.711	792
873.794	1061
873.878	784
873.962	605
874.045	1228
874.129	1047
874.137	1024
874.213	797
874.245	712
874.296	571
874.352	25
874.380	-240
874.460	1077
874.464	1130
874.547	295
874.568	586
874.631	1442
874.676	1613
874.714	1773
874.784	1315
874.798	1219
874.881	1946
874.892	1808
874.965	885
874.999	864
875.048	815
875.107	974
875.131	1042
875.215	1220
875.215	1219
875.298	554
875.323	605
875.381	737
875.430	1166
875.465	1500
875.538	883
875.548	781
875.631	1292
875.646	1204
875.714	795
875.753	749
875.798	724
875.861	745
875.881	759
875.964	902
875.968	893
876.047	685
876.076	800
876.130	1013
876.183	1036
876.213	1052
876.291	1165
876.296	1178
876.379	1157
876.398	1062
876.462	566
876.506	392
876.545	351
876.613	971
876.628	1088
876.711	1166
876.721	1135
876.794	933
876.828	778
876.877	539
876.935	795
876.960	933
877.043	408
877.043	409
877.125	617
877.150	733
877.208	953
877.258	720
877.291	626
877.365	937
877.374	966
877.456	897
877.472	905
877.539	935
877.579	922
877.622	957
877.687	797
877.704	727
877.787	1224
877.794	1143
877.869	139
877.901	321
877.952	749
878.008	106
878.034	-121
878.115	881
878.117	891
878.199	129
878.222	288
878.282	1051
878.329	763
878.364	429
878.437	640
878.447	665
878.529	83
878.544	182
878.611	652
878.651	498
878.694	462
878.758	481
878.776	453
878.858	632
878.865	666
878.941	1066
878.972	919
879.023	556
879.078	166
879.105	91
879.185	954
879.187	967
879.269	549
879.292	558
879.351	561
879.399	274
879.433	69
879.506	-108
879.516	-112
879.598	77
879.613	116
879.680	1
879.720	-63
879.762	58
879.827	-1
879.844	-30
879.926	557
879.933	532
880.007	119
880.040	110
880.089	163
880.147	292
880.171	459
880.253	1345
880.254	1346
880.335	785
880.360	761
880.417	1056
880.467	1388
880.499	1465
880.574	1539
880.580	1561
880.662	1338
880.680	1171
880.744	395
880.787	47
880.825	-43
880.893	280
880.907	267
880.989	104
881.000	136
881.070	437
881.106	200
881.152	-28
881.213	318
881.233	388
881.315	596
881.319	571
881.396	164
881.426	95
881.478	-166
881.532	101
881.559	475
881.639	188
881.641	167
881.722	379
881.745	328
881.803	320
881.852	391
881.885	462
881.958	150
881.966	80
882.047	194
882.064	2
882.129	-180
882.171	116
882.210	282
882.277	807
882.291	847
882.372	426
882.383	398
882.454	389
882.489	456
882.535	505
882.596	331
882.616	298
882.697	155
882.702	151
882.778	182
882.808	232
882.859	225
882.914	354
882.940	473
883.020	315
883.021	313
883.102	631
883.127	612
883.183	402
883.233	253
883.264	209
883.339	159
883.345	174
883.426	35
883.445	128
883.507	335
883.551	412
883.587	295
883.657	-73
883.668	-75
883.749	250
883.763	225
883.830	139
883.869	171
883.910	-24
883.975	-117
883.991	-21
884.072	110
884.081	147
884.152	133
884.187	108
884.233	299
884.292	636
884.314	523
884.394	-527
884.398	-552
884.475	-251
884.504	-131
884.555	39
884.610	150
884.636	139
884.716	238
884.716	238
884.797	156
884.821	29
884.877	-309
884.927	-370
884.958	-251
885.033	-319
885.038	-315
885.118	-188
885.139	-89
885.199	-254
885.244	-434
885.279	-358
885.350	-83
885.359	-57
885.439	99
885.456	124
885.520	186
885.561	191
885.600	185
885.667	159
885.680	201
885.760	628
885.773	675
885.840	-61
885.878	-443
885.920	-283
885.984	-101
886.000	-166
886.080	-359
886.089	-373
886.160	-169
886.195	-183
886.240	-182
886.300	-112
886.320	-166
886.400	-147
886.406	-149
886.480	-94
886.511	-141
886.560	125
886.616	509
886.640	504
886.720	567
886.722	562
886.800	-204
886.827	-303
886.879	92
886.932	207
886.959	288
887.038	528
887.039	522
887.119	131
887.143	14
887.198	396
887.248	671
887.278	530
887.354	172
887.358	188
887.437	359
887.459	507
887.517	545
887.564	438
887.596	530
887.669	848
887.676	787
887.755	-94
887.774	-306
887.835	165
887.880	650
887.914	526
887.985	65
887.994	-0
888.073	-535
888.090	-604
888.153	-516
888.195	-610
888.232	-469
888.300	-51
888.311	-49
888.391	-66
888.405	-53
888.470	215
888.510	312
888.549	185
888.615	125
888.628	173
888.708	348
888.720	384
888.787	14
888.825	-234
888.866	-115
888.930	173
888.945	111
889.024	-248
889.035	-292
889.103	46
889.140	223
889.182	110
889.245	-24
889.261	-29
889.340	-45
889.349	-43
889.419	229
889.454	377
889.498	220
889.559	-5
889.577	-54
889.656	-234
889.664	-246
889.735	30
889.768	166
889.814	114
889.873	51
889.978	-96
890.083	-747
890.187	691
890.292	-787
890.397	72
890.501	-767
890.606	-267
890.710	337
890.815	152
890.919	-341
891.024	-605
891.128	324
891.233	-90
891.337	785
891.442	421
891.546	-472
891.650	-802
891.755	189
891.859	1395
891.963	409
892.068	245
892.172	639
892.276	-126
892.380	-177
892.484	686
892.589	183
892.693	291
892.797	-758
892.901	-252
893.005	-215
893.109	-209
893.213	480
893.317	208
893.421	808
893.525	495
893.629	336
893.733	-249
893.837	352
893.941	-357
894.045	164
894.148	115
894.252	587
894.356	-410
894.460	-2
894.564	-73
894.667	-48
894.771	493
894.875	133
894.978	108
895.082	-668
895.186	-7
895.289	574
895.393	-401
895.496	92
895.600	-73
895.703	-431
895.807	61
895.910	44
896.014	-209
896.117	-495
896.221	273
896.324	-375
896.427	1191
896.531	-724
896.634	46
896.737	403
896.840	-582
896.944	-992
897.047	-255
897.150	-216
897.253	42
897.356	981
897.460	-438
897.563	130
897.666	-211
897.769	-377
897.872	-265
897.975	312
898.078	-245
898.181	-231
898.284	208
898.387	512
898.490	71
898.593	96
898.695	-194
898.798	313
898.901	307
899.004	-218
899.107	-94
899.209	-58
899.312	-272
899.415	136
899.518	-192
899.620	-944
899.723	376
899.826	-368
899.928	362
900.031	-189
900.133	-165
900.236	-65
900.338	40
900.441	-318
900.543	-632
900.646	-171
900.748	-858
900.851	102
900.953	498
901.055	656
901.158	99
901.260	-112
901.362	895
901.465	89
901.567	-56
901.669	308
901.771	608
901.873	334
901.976	688
902.078	-420
902.180	798
902.282	-109
902.384	-865
902.486	-59
902.588	61
902.690	81
902.792	15
902.894	375
902.996	-414
903.098	-578
903.200	407
903.302	914
903.404	-79
903.505	-1034
903.607	93
903.709	76
903.811	-186
903.913	-197
904.014	359
904.116	-514
904.218	-58
904.319	82
904.421	494
904.523	-515
904.624	15
904.726	-15
904.827	-38
904.929	-370
905.030	-900
905.132	-718
905.233	19
905.335	-211
905.436	44
905.537	-70
905.639	783
905.740	-43
905.841	1047
905.943	455
906.044	-180
906.145	134
906.247	-443
906.348	520
906.449	-39
906.550	411
906.651	-486
906.752	-51
906.854	3
906.955	-553
907.056	-103
907.157	-147
907.258	451
907.359	-688
907.460	437
907.561	-777
907.662	-30
907.762	-507
907.863	-162
907.964	455
908.065	-15
908.166	-450
908.267	-213
908.367	61
908.468	-424
908.569	-86
908.670	275
908.770	-186
908.871	-188
908.971	-440
909.072	-12
909.173	173
909.273	-244
909.374	-176
909.474	64
909.575	263
909.675	-830
909.776	72
909.876	-60
909.977	560
910.077	-255
910.177	173
910.278	-1022
910.378	242
910.478	-778
910.579	-192
910.679	-160
910.779	-107
910.879	-468
910.980	-420
911.080	-242
911.180	-903
911.280	-194
911.380	-169
911.480	-120
911.580	-816
911.680	-1179
911.780	-177
911.880	-254
911.980	-1696
912.080	-455
912.180	-328
912.280	-1403
912.380	-789
912.480	-106
912.580	245
912.679	-451
912.779	-114
912.879	356
912.979	-725
913.078	-472
913.178	-260
913.278	-323
913.377	-701
913.477	32
913.577	613
913.676	597
913.776	444
913.875	202
913.975	-47
914.074	-150
914.174	-517
914.273	-1168
914.373	290
914.472	413
914.572	-208
914.671	-766
914.770	-1182
914.870	64
914.969	-1068
915.068	-1009
915.167	-64
915.267	-644
915.366	-46
915.465	-396
915.564	-777
915.663	-44
915.763	-128
915.862	-166
915.961	-712
916.060	263
916.159	-416
916.258	-418
916.357	-795
916.456	-117
916.555	-478
916.654	-386
916.752	490
916.851	-704
916.950	411
917.049	-324
917.148	-420
917.247	185
917.345	-732
917.444	294
917.543	263
917.642	6
917.740	-689
917.839	-450
917.937	314
918.036	233
918.135	-494
918.233	693
918.332	-522
918.430	-298
918.529	-16
918.627	-815
918.726	184
918.824	303
918.923	335
919.021	-110
919.119	315
919.218	-382
919.316	-636
919.414	-624
919.512	-96
919.611	-548
919.709	-172
919.807	106
919.905	-143
920.003	31
920.102	-178
920.200	-564
920.298	-138
920.396	-637
920.494	-141
920.592	-190
920.690	-585
920.788	-477
920.886	16
920.984	-345
921.082	-190
921.180	428
921.277	-224
921.375	-607
921.473	-314
921.571	-319
921.669	-68
921.766	168
921.864	50
921.962	486
922.060	-161
922.157	-227
922.255	-122
922.352	-103
922.450	1009
922.548	-561
922.645	-587
922.743	34
922.840	-916
922.938	-618
923.035	4
923.133	862
923.230	103
923.327	-628
923.425	389
923.522	645
923.619	-536
923.717	147
923.814	-107
923.911	46
924.008	777
924.106	28
924.203	-501
924.300	-395
924.397	-102
924.494	358
924.591	2
924.688	217
924.786	-162
924.883	357
924.979	-13
925.077	-199
925.173	-144
925.270	-306
925.367	-293
925.464	-250
925.561	525
925.658	-46
925.755	-536
925.852	254
925.948	134
926.045	442
926.142	316
926.239	-117
926.335	-23
926.432	150
926.529	48
926.625	-153
926.722	-243
926.818	319
926.915	390
927.011	101
927.108	276
927.204	-165
927.301	91
927.397	-537
927.494	98
927.590	-156
927.687	-287
927.783	-283
927.879	118
927.976	-185
928.072	170
928.168	-168
928.264	256
928.361	101
928.457	-925
928.553	-210
928.649	-315
928.745	-28
928.841	543
928.937	353
929.033	-705
929.129	500
929.225	313
929.321	37
929.417	-622
929.513	275
929.609	25
929.705	-345
929.801	22
929.897	-581
929.993	-244
930.089	462
930.184	-85
930.280	-294
930.376	435
930.471	-665
930.567	-45
930.663	576
930.758	-606
930.854	-645
930.950	-771
931.045	520
931.141	-411
931.236	87
931.332	-384
931.427	-340
931.523	326
931.618	26
931.714	-184
931.809	-1121
931.905	-365
932.000	-32
932.095	-707
932.191	-366
932.286	334
932.381	-338
932.476	27
932.572	-34
932.667	-81
932.762	-43
932.857	375
932.952	-304
933.047	-763
933.142	276
933.237	-812
933.332	-282
933.427	326
933.522	-735
933.617	-465
933.712	248
933.807	-1164
933.902	299
933.997	-361
934.092	-86
934.187	-1118
934.282	-1037
934.376	-594
934.471	175
934.566	-49
934.661	356
934.755	-1543
934.850	-218
934.945	-915
935.039	-551
935.134	-240
935.228	129
935.323	324
935.417	-45
935.512	-656
935.606	-501
935.701	-693
935.795	68
935.890	-3
935.984	374
936.079	-469
936.173	-192
936.267	-389
936.362	-6
936.456	-832
936.550	51
936.644	-1498
936.738	-620
936.833	-556
936.927	-293
937.021	-913
937.115	-638
937.209	-498
937.303	224
937.397	-499
937.491	-373
937.585	-513
937.679	37
937.773	-152
937.867	374
937.961	584
938.055	-427
938.149	19
938.243	-155
938.337	-487
938.430	-203
938.524	80
938.618	-448
938.712	-600
938.805	-196
938.899	-369
938.993	-795
939.086	-287
939.180	-350
939.274	-91
939.367	-3
939.461	-751
939.554	-587
939.648	-433
939.741	-100
939.835	-735
939.928	-569
940.022	-785
940.115	-585
940.208	-621
940.302	155
940.395	366
940.488	-1380
940.582	-711
940.675	-419
940.768	503
940.861	92
940.954	-99
941.048	-143
941.141	-717
941.234	-645
941.327	-578
941.420	798
941.513	-191
941.606	-66
941.699	-120
941.792	-727
941.885	-732
941.978	-226
942.071	-267
942.164	-1364
942.257	-232
942.349	56
942.442	-449
942.535	-143
942.628	138
942.721	-815
942.813	-1007
942.906	859
942.999	-468
943.091	-582
943.184	-1061
943.277	-302
943.369	-599
943.462	-181
943.554	422
943.647	346
943.739	730
943.832	-946
943.924	-1060
944.017	76
944.109	-640
944.201	-448
944.294	474
944.386	-13
944.478	-901
944.571	161
944.663	-930
944.755	-94
944.847	-176
944.940	521
945.032	-1401
945.124	-235
945.216	194
945.308	-76
945.400	185
945.492	-698
945.584	-870
945.676	-373
945.768	-259
945.860	-422
945.952	-858
946.044	-44
946.136	-794
946.228	-654
946.320	-244
946.412	-169
946.503	209
946.595	-247
946.687	-851
946.779	-367
946.870	-373
946.962	-259
947.054	-193
947.145	227
947.237	-737
947.329	325
947.420	-594
947.512	-110
947.603	-672
947.695	678
947.786	-777
947.878	-494
947.969	23
948.061	-291
948.152	-730
948.243	-618
948.335	-612
948.426	-1029
948.517	-957
948.609	-829
948.700	-44
948.791	-1090
948.882	-872
948.973	-490
949.065	-1230
949.156	-268
949.247	-1138
949.338	-512
949.429	-773
949.520	93
949.611	-935
949.702	-492
949.793	-885
949.884	-1026
949.975	-1319
950.066	-680
950.157	-880
950.247	-195
950.338	-1339
950.429	-803
950.520	-451
950.611	-861
950.701	-31
950.792	-543
950.883	-469
950.973	-38
951.064	-776
951.155	-84
951.245	-624
951.336	-92
951.427	-1323
951.517	47
951.608	-609
951.698	-427
951.788	-766
951.879	-583
951.969	-37
952.060	-703
952.150	-908
952.240	-68
952.331	-2389
952.421	177
952.511	-1594
952.602	-698
952.692	4
952.782	-214
952.872	-980
952.962	-225
953.052	-361
953.143	-1743
953.233	-146
953.323	-180
953.413	-661
953.503	341
953.593	-395
953.683	-840
953.773	-1215
953.863	202
953.953	-612
954.042	-569
954.132	-705
954.222	-403
954.312	-430
954.402	-755
954.492	-308
954.581	-711
954.671	-1213
954.761	46
954.850	214
954.940	-455
955.030	-891
955.119	-529
955.209	-735
955.298	-817
955.388	-1208
955.477	1399
955.567	-1777
955.656	-637
955.746	-168
955.835	-973
955.925	-932
956.014	-184
956.103	-479
956.193	-853
956.282	-375
956.371	-780
956.461	-285
956.550	-611
956.639	-62
956.728	-674
956.817	-761
956.906	-704
956.995	-1361
957.085	-515
957.174	-852
957.263	-698
957.352	-607
957.441	-618
957.530	-182
957.619	215
957.708	-1225
957.796	-1430
957.885	-765
957.974	-1300
958.063	-394
958.152	-999
958.241	-673
958.329	-753
958.418	-936
958.507	-768
958.596	-150
958.684	-661
958.773	-612
958.861	-214
958.950	-947
959.039	-314
959.127	-624
959.216	-759
959.304	-874
959.393	-934
959.481	-846
959.570	226
959.658	-493
959.746	-358
959.835	-48
959.923	-197
960.011	-1044
960.100	-996
960.188	-461
960.276	-261
960.365	-675
960.453	-1165
960.541	-483
960.629	-709
960.717	-546
960.805	-2230
960.893	-534
960.981	-1014
961.069	-148
961.158	-1170
961.245	-1066
961.333	-394
961.421	-1289
961.509	-674
961.597	-249
961.685	-612
961.773	-300
961.861	-726
961.949	-366
962.036	-1242
962.124	-792
962.212	201
962.299	-829
962.387	-726
962.475	-1278
962.562	-968
962.650	-191
962.738	-251
962.825	-985
962.913	-740
963.000	-750
963.088	-208
963.175	-1498
963.263	-568
963.350	-1085
963.438	-872
963.525	-1347
963.612	-335
963.700	-514
963.787	93
963.874	-780
963.962	-720
964.049	-76
964.136	-1133
964.223	-939
964.310	-462
964.398	-821
964.485	-303
964.572	-551
964.659	-1159
964.746	-709
964.833	-627
964.920	-1469
965.007	-893
965.094	-660
965.181	-696
965.268	-1383
965.355	-1412
965.441	-291
965.528	-1262
965.615	-408
965.702	-1098
965.789	-1641
965.875	-764
965.962	-1041
966.049	-1011
966.136	-835
966.222	-666
966.309	-1068
966.395	-772
966.482	-447
966.569	-952
966.655	-646
966.742	-1380
966.828	146
966.915	-1444
967.001	-235
967.087	-959
967.174	150
967.260	-80
967.347	-631
967.433	-1025
967.519	-586
967.605	-483
967.692	-1213
967.778	-340
967.864	-1441
967.950	-252
968.036	-1429
968.123	-1091
968.209	-1107
968.295	-1823
968.381	-399
968.467	-112
968.553	-1588
968.639	-19
968.725	-1240
968.811	-1266
968.897	-825
968.983	-1471
969.069	-1424
969.154	-435
969.240	-694
969.326	-1387
969.412	-1750
969.497	-562
969.583	-1412
969.669	-88
969.755	-1688
969.840	-637
969.926	-917
970.012	-922
970.097	-515
970.183	-772
970.268	-1206
970.354	-1063
970.439	-1631
970.525	-168
970.610	-1280
970.696	-304
970.781	-846
970.866	-1753
970.952	-694
971.037	-928
971.122	-1469
971.208	-175
971.293	-951
971.378	-1466
971.463	-1067
971.549	-1052
971.634	-744
971.719	5
971.804	-1011
971.889	308
971.974	-756
972.059	-463
972.144	-698
972.229	-1090
972.314	-1441
972.399	-1458
972.484	-969
972.569	-875
972.654	-1672
972.739	121
972.824	-2076
972.908	-522
972.993	-900
973.078	-769
973.163	-1345
973.247	-411
973.332	-2040
973.417	305
973.501	-1338
973.586	-1310
973.671	-997
973.755	-1928
973.840	-201
973.924	-254
974.009	-1174
974.093	-1006
974.178	-452
974.262	-1238
974.346	-771
974.431	-886
974.515	-1368
974.600	-896
974.684	-523
974.768	-1644
974.852	-219
974.937	-951
975.021	-751
975.105	-1421
975.189	-415
975.273	-358
975.358	-1609
975.442	-1434
975.526	-342
975.610	-1420
975.694	-1111
975.778	141
975.862	-1128
975.946	-1839
976.030	-28
976.114	-1784
976.198	-637
976.281	-614
976.365	-128
976.449	-759
976.533	-1041
976.617	-1930
976.700	-547
976.784	-1384
976.868	-1875
976.951	-732
977.035	-570
977.119	-1293
977.202	-1112
977.286	-831
977.369	-1158
977.453	-463
977.536	-939
977.620	-1221
977.703	-756
977.787	-702
977.870	-331
977.953	-602
978.037	-2258
978.120	-390
978.203	-1392
978.287	-768
978.370	-1989
978.453	-792
978.536	-1644
978.620	-657
978.703	-1357
978.786	-1077
978.869	-2208
978.952	-2006
979.035	-402
979.118	-873
979.201	-2479
979.284	-353
979.367	-1394
979.450	-259
979.533	-1207
979.616	-1019
979.699	-676
979.782	-56
979.865	-820
979.948	-1327
980.030	-1108
980.113	-562
980.196	-1667
980.279	-1124
980.361	-1076
980.444	-1096
980.526	-1315
980.609	-1131
980.692	-563
980.774	-1523
980.857	-2509
980.939	-401
981.022	-983
981.104	-965
981.187	-1717
981.269	-702
981.352	-1162
981.434	-1155
981.516	-1769
981.599	-467
981.681	-1259
981.763	-977
981.846	-1112
981.928	-1382
982.010	-1336
982.092	-2044
982.174	-522
982.256	-1337
982.339	-1189
982.421	-1173
982.503	-1013
982.585	-1308
982.667	-964
982.749	-816
982.831	-1956
982.913	-1286
982.995	236
983.077	-1607
983.158	-797
983.240	-1280
983.322	-1321
983.404	-1289
983.486	-1974
983.568	-708
983.649	-1595
983.731	-1113
983.813	-1645
983.894	-312
983.976	-2384
984.058	-1163
984.139	-865
984.221	-1535
984.302	-460
984.384	-977
984.465	-1371
984.547	-903
984.628	-2042
984.710	-688
984.791	-1152
984.872	-1131
984.954	-1429
985.035	-1146
985.116	-1574
985.198	-760
985.279	-150
985.360	-1369
985.441	-970
985.522	-251
985.604	-1987
985.685	-2983
985.766	-827
985.847	-116
985.928	-2135
986.009	-1973
986.090	-765
986.171	-926
986.252	-2304
986.333	-1031
986.414	-1477
986.495	-915
986.576	-1747
986.656	-1547
986.737	-903
986.818	-722
986.899	-1695
986.980	-1975
987.060	-528
987.141	-1227
987.222	-1334
987.302	-423
987.383	-2388
987.464	-1699
987.544	-1162
987.625	-1331
987.705	142
987.786	-1310
987.866	-1031
987.947	-2025
988.027	-1209
988.108	-1648
988.188	-1147
988.268	-1017
988.349	-1678
988.429	-1508
988.509	-1654
988.589	-1977
988.670	-2656
988.750	-370
988.830	-1258
988.910	-688
988.990	-2153
989.070	-917
989.151	-965
989.231	-1917
989.311	-589
989.391	-1573
989.471	-2229
989.551	-1946
989.631	-1700
989.711	-131
989.791	-2121
989.870	-1061
989.950	-468
990.030	-1494
990.110	-1320
990.190	-1257
990.269	-1309
990.349	-1447
990.429	-1034
990.509	-428
990.588	-1745
990.668	-1192
990.747	-1135
990.827	-1631
990.907	-1735
990.986	-2024
991.066	-922
991.145	-2374
991.225	-1412
991.304	-2125
991.383	-1197
991.463	-1842
991.542	-1975
991.622	-971
991.701	-1701
991.780	-1341
991.859	-1215
991.939	-2173
992.018	-1635
992.097	-661
992.176	-2199
992.256	-1301
992.335	-1916
992.414	-848
992.493	-2035
992.572	-1796
992.651	-109
992.730	-2031
992.809	-1479
992.888	-1081
992.967	-1270
993.046	-829
993.125	-2525
993.203	-1696
993.282	-1014
993.361	-1850
993.440	-947
993.519	-2358
993.597	-1176
993.676	-1696
993.755	-662
993.834	-1744
993.912	-1920
993.991	-866
994.069	-2285
994.148	-2083
994.226	-2102
994.305	-1606
994.384	-2033
994.462	324
994.540	-1973
994.619	-1168
994.697	-891
994.776	-1234
994.854	-708
994.932	-1802
995.011	-1597
995.089	-1453
995.167	-1439
995.245	-1056
995.324	-2254
995.402	-1035
995.480	-2484
995.558	-1520
995.636	-1730
995.714	-1802
995.792	-1331
995.870	-2553
995.948	-1444
996.026	-1535
996.104	-2270
996.182	-746
996.260	-2279
996.338	-1705
996.416	-1813
996.494	-2175
996.572	-1404
996.649	-991
996.727	-2629
996.805	-1255
996.883	-2169
996.960	-2321
997.038	-1169
997.116	-1072
997.193	-1564
997.271	-1262
997.348	-1593
997.426	-1814
997.504	-1491
997.581	-1393
997.658	-1282
997.736	-2600
997.813	-2537
997.891	-246
997.968	-1698
998.046	-1975
998.123	-1689
998.200	-932
998.277	-2281
998.355	-838
998.432	-1838
998.509	-1707
998.586	-642
998.663	-1806
998.741	-1356
998.818	-985
998.895	-1091
998.972	-1323
999.049	-961
999.126	-2304
999.203	-1335
999.280	-1032
999.357	-2114
999.434	-1327
999.511	-1192
999.587	-980
999.664	-1896
999.741	-828
999.818	-465
999.895	-1928
999.971	-2290
1000.048	-1433
1000.125	-772
1000.202	-1980
1000.278	-1982
1000.355	-1282
1000.431	-1021
1000.508	-1829
1000.584	-1025
1000.661	-1559
1000.738	-2214
1000.814	-1099
1000.890	-1886
1000.967	-1805
1001.043	-1928
1001.120	-2046
1001.196	-570
1001.272	-1852
1001.349	-2689
1001.425	-1798
1001.501	-1761
1001.577	-1582
1001.654	-2264
1001.730	-2084
1001.806	-1182
1001.882	-2156
1001.958	-1895
1002.034	-1078
1002.110	-1521
1002.186	-1511
1002.262	-1617
1002.338	-2146
1002.414	-995
1002.490	-936
1002.566	-1949
1002.642	-2409
1002.718	-623
1002.794	-1870
1002.870	-1993
1002.945	-2144
1003.021	-1717
1003.097	-1696
1003.173	-655
1003.248	-2351
1003.324	-1758
1003.400	-2097
1003.475	-1630
1003.551	-1786
1003.626	-1073
1003.702	-1830
1003.777	-2053
1003.853	-2288
1003.928	-1925
1004.004	-2021
1004.079	-1564
1004.155	-1753
1004.230	-2609
1004.305	-790
1004.381	-1789
1004.456	-1877
1004.531	-1610
1004.607	-1393
1004.682	-1985
1004.757	-839
1004.832	-1765
1004.907	-1856
1004.982	-1698
1005.057	-1652
1005.133	-1801
1005.208	-2064
1005.283	-1472
1005.358	-1258
1005.433	-2215
1005.508	-1371
1005.583	-1981
1005.657	-2496
1005.732	-1498
1005.807	-1564
1005.882	-1190
1005.957	-1856
1006.032	-1976
1006.106	-1370
1006.181	-1652
1006.256	-810
1006.331	-2200
1006.405	-1939
1006.480	-1462
1006.554	-1943
1006.629	-1771
1006.704	-1063
1006.778	-1745
1006.853	-1166
1006.927	-2174
1007.002	-1947
1007.076	-1989
1007.150	-1445
1007.225	-1201
1007.299	-1329
1007.373	-2329
1007.448	-1743
1007.522	-1058
1007.596	-1568
1007.671	-1992
1007.745	-1514
1007.819	-3096
1007.893	-1736
1007.967	-2168
1008.041	-2531
1008.115	-1582
1008.190	-1655
1008.264	-1824
1008.338	-2411
1008.412	-2280
1008.486	-1203
1008.560	-2559
1008.633	-1666
1008.707	-1601
1008.781	-1029
1008.855	-1732
1008.929	-2370
1009.003	-2594
1009.076	-2422
1009.150	-1327
1009.224	-1493
1009.298	-1989
1009.371	-1818
1009.445	-1750
1009.519	-1530
1009.592	-2346
1009.666	-1679
1009.739	-1578
1009.813	-2005
1009.886	-1181
1009.960	-1883
1010.033	-1833
1010.107	-1377
1010.180	-2142
1010.253	-1518
1010.327	-2878
1010.400	-2104
1010.473	-2234
1010.547	-987
1010.620	-1375
1010.693	-1428
1010.766	-1721
1010.840	-1589
1010.913	-2049
1010.986	-2093
1011.059	-2605
1011.132	-1939
1011.205	-1346
1011.278	-1977
1011.351	-1858
1011.424	-1101
1011.497	-2412
1011.570	-1723
1011.643	-1746
1011.716	-1928
1011.789	-1767
1011.862	-951
1011.934	-2155
1012.007	-2320
1012.080	-1982
1012.153	-2011
1012.225	-1379
1012.298	-2044
1012.371	-2206
1012.443	-1104
1012.516	-2563
1012.588	-1616
1012.661	-1150
1012.733	-2046
1012.806	-1535
1012.879	-1724
1012.951	-1683
1013.023	-2331
1013.096	-1665
1013.168	-1489
1013.241	-1753
1013.313	-2540
1013.385	-2454
1013.458	-1847
1013.530	-1399
1013.602	-2243
1013.674	-1697
1013.746	-2260
1013.819	-2299
1013.891	-736
1013.963	-1921
1014.035	-1541
1014.107	-1483
1014.179	-1788
1014.251	-2672
1014.323	-1621
1014.395	-1663
1014.467	-1024
1014.539	-677
1014.611	-1804
1014.683	-1907
1014.754	-2394
1014.826	-1472
1014.898	-2051
1014.970	-2943
1015.042	-964
1015.113	-2131
1015.185	-927
1015.257	-3164
1015.328	-1043
1015.400	-1380
1015.471	-1471
1015.543	-2407
1015.615	-1056
1015.686	-1395
1015.757	-1683
1015.829	-1547
1015.901	-1642
1015.972	-1861
1016.043	-1544
1016.115	-1606
1016.186	-955
1016.257	-2047
1016.328	-1189
1016.400	-996
1016.471	-2148
1016.542	-1375
1016.613	-938
1016.685	-2212
1016.756	-1134
1016.827	-2120
1016.898	-1890
1016.969	-1211
1017.040	-1717
1017.111	-1964
1017.182	-2044
1017.253	-1632
1017.324	-1636
1017.395	-1543
1017.466	-1943
1017.537	-1810
1017.608	-1151
1017.678	-1706
1017.749	-1952
1017.820	-1833
1017.891	-1763
1017.961	-1801
1018.032	-1803
1018.103	-2042
1018.173	-1888
1018.244	-1812
1018.315	-1603
1018.385	-860
1018.456	-2064
1018.526	-2263
1018.597	-1513
1018.667	-2472
1018.738	-1221
1018.808	-1783
1018.878	-2276
1018.949	-1413
1019.019	-1529
1019.089	-2308
1019.160	-940
1019.230	-2367
1019.300	-1456
1019.371	-2500
1019.441	-971
1019.511	-1533
1019.581	-1474
1019.651	-993
1019.721	-1495
1019.791	-2221
1019.861	-1353
1019.931	-1926
1020.001	-1968
1020.071	-734
1020.141	-1743
1020.211	-1620
1020.281	-1954
1020.351	-2374
1020.421	-1388
1020.491	-1846
1020.560	-2238
1020.630	-2118
1020.700	-897
1020.770	-1462
1020.839	-1350
1020.909	-2224
1020.979	-1370
1021.048	-2249
1021.118	-1650
1021.187	-1794
1021.257	-2284
1021.326	-1599
1021.396	-1630
1021.465	-921
1021.535	-1967
1021.604	-1817
1021.674	-1223
1021.743	-1970
1021.812	-1778
1021.882	-2033
1021.951	-2332
1022.020	-2098
1022.089	-1258
1022.159	-2242
1022.228	-1647
1022.297	-1550
1022.366	-1804
1022.435	-2027
1022.504	-1066
1022.573	-2815
1022.642	-896
1022.711	-1664
1022.781	-1791
1022.849	-1303
1022.918	-2818
1022.987	-2279
1023.056	-1816
1023.125	-1255
1023.194	-1464
1023.263	-2133
1023.331	-2047
1023.400	-2364
1023.469	-2432
1023.538	-918
1023.606	-1733
1023.675	-1674
1023.744	-2039
1023.812	-1918
1023.881	-1666
1023.949	-1964
1024.018	-1548
1024.086	-2183
1024.155	-1939
1024.223	-2124
1024.292	-1076
1024.360	-911
1024.429	-1844
1024.497	-2156
1024.565	-1405
1024.634	-2699
1024.702	-1559
1024.770	-1681
1024.838	-1974
1024.907	-2034
1024.975	-1985
1025.043	-1593
1025.111	-1907
1025.179	-1594
1025.247	-1989
1025.315	-1811
1025.383	-1768
1025.451	-1549
1025.519	-2132
1025.587	-2415
1025.655	-2205
1025.723	-2012
1025.791	-1017
1025.859	-2082
1025.927	-840
1025.995	-2492
1026.062	-1692
1026.130	-1753
1026.198	-2665
1026.266	-1892
1026.333	-1763
1026.401	-1747
1026.469	-1920
1026.536	-1835
1026.604	-1745
1026.671	-1893
1026.739	-1624
1026.806	-1748
1026.874	-2168
1026.941	-1752
1027.009	-1911
1027.076	-1591
1027.144	-1444
1027.211	-2452
1027.278	-1836
1027.345	-2073
1027.413	-1246
1027.480	-1807
1027.547	-1958
1027.614	-1945
1027.682	-2007
1027.749	-1312
1027.816	-1496
1027.883	-1990
1027.950	-1158
1028.017	-1708
1028.084	-1404
1028.151	-2633
1028.218	-1879
1028.285	-2019
1028.352	-2397
1028.419	-1996
1028.486	-2349
1028.553	-1805
1028.619	-1596
1028.686	-1737
1028.753	-1825
1028.820	-2075
1028.886	-1956
1028.953	-2125
1029.020	-2499
1029.086	-1817
1029.153	-2198
1029.220	-1960
1029.286	-1493
1029.353	-1799
1029.419	-1596
1029.486	-1666
1029.552	-1884
1029.619	-2521
1029.685	-1871
1029.751	-1611
1029.818	-172
1029.884	-2475
1029.951	-1024
1030.017	-2746
1030.083	-1716
1030.149	-1780
1030.216	-1558
1030.282	-1973
1030.348	-2357
1030.414	-1766
1030.480	-2502
1030.546	-1947
1030.612	-1797
1030.678	-2205
1030.744	-2444
1030.810	-2205
1030.876	-1414
1030.942	-2805
1031.008	-1359
1031.074	-2221
1031.140	-1643
1031.206	-2261
1031.272	-2177
1031.337	-1884
1031.403	-2557
1031.469	-1440
1031.534	-2141
1031.600	-2274
1031.666	-2274
1031.731	-2337
1031.797	-1561
1031.863	-1372
1031.928	-1857
1031.994	-1754
1032.059	-943
1032.125	-2261
1032.190	-2175
1032.256	-1864
1032.321	-2293
1032.386	-2437
1032.452	-1358
1032.517	-2001
1032.582	-2288
1032.647	-2172
1032.713	-2050
1032.778	-1679
1032.843	-2718
1032.908	-2211
1032.974	-2111
1033.039	-2313
1033.104	-2006
1033.169	-1722
1033.234	-2213
1033.299	-2666
1033.364	-1402
1033.429	-2875
1033.494	-1239
1033.559	-2394
1033.624	-2011
1033.688	-1747
1033.753	-2236
1033.818	-2744
1033.883	-2282
1033.948	-1716
1034.013	-2089
1034.077	-2758
1034.142	-679
1034.207	-1955
1034.271	-2288
1034.336	-1305
1034.400	-1378
1034.465	-2605
1034.530	-1579
1034.594	-1933
1034.658	-2472
1034.723	-2456
1034.787	-1478
1034.852	-1654
1034.916	-1583
1034.981	-2134
1035.045	-1662
1035.109	-1678
1035.173	-1346
1035.238	-2171
1035.302	-1657
1035.366	-2774
1035.430	-2141
1035.495	-2460
1035.559	-2063
1035.623	-2134
1035.687	-1576
1035.751	-2404
1035.815	-2253
1035.879	-2021
1035.943	-2016
1036.007	-1299
1036.071	-1777
1036.135	-2301
1036.198	-1911
1036.262	-2742
1036.326	-1751
1036.390	-2396
1036.454	-2318
1036.517	-2361
1036.581	-1996
1036.645	-2367
1036.709	-2411
1036.772	-2504
1036.836	-2162
1036.900	-2075
1036.963	-2699
1037.026	-2683
1037.090	-2116
1037.154	-2113
1037.217	-1511
1037.280	-2455
1037.344	-2054
1037.407	-2516
1037.471	-2278
1037.534	-2425
1037.597	-2072
1037.661	-3053
1037.724	-2384
1037.787	-2657
1037.850	-2400
1037.913	-2584
1037.977	-1430
1038.040	-2115
1038.103	-2244
1038.166	-2164
1038.229	-1981
1038.292	-2158
1038.355	-2595
1038.418	-2667
1038.481	-2093
1038.544	-2054
1038.607	-2854
1038.670	-2333
1038.732	-2293
1038.795	-1417
1038.858	-1935
1038.921	-2529
1038.984	-2078
1039.046	-2289
1039.109	-1891
1039.172	-1923
1039.234	-1833
1039.297	-1520
1039.360	-2227
1039.422	-2481
1039.485	-2438
1039.547	-1950
1039.610	-2048
1039.672	-3146
1039.734	-1845
1039.797	-1982
1039.859	-1815
1039.922	-2753
1039.984	-1907
1040.046	-2558
1040.109	-1661
1040.171	-2849
1040.233	-1910
1040.295	-2852
1040.358	-2157
1040.420	-3110
1040.482	-2484
1040.544	-1891
1040.606	-1644
1040.668	-2613
1040.730	-1776
1040.792	-2026
1040.854	-2386
1040.916	-2421
1040.978	-2525
1041.040	-1392
1041.102	-2211
1041.164	-1776
1041.225	-1765
1041.287	-2076
1041.349	-2115
1041.411	-2417
1041.472	-1444
1041.534	-2062
1041.596	-2702
1041.657	-2455
1041.719	-1754
1041.781	-2336
1041.842	-2700
1041.904	-2268
1041.965	-2132
1042.027	-2637
1042.088	-1951
1042.150	-1996
1042.211	-2181
1042.272	-2067
1042.334	-2595
1042.395	-2618
1042.456	-2656
1042.518	-2233
1042.579	-1553
1042.640	-2595
1042.701	-2087
1042.763	-3130
1042.824	-2136
1042.885	-2873
1042.946	-2131
1043.007	-2007
1043.068	-2254
1043.129	-2566
1043.190	-2377
1043.251	-1936
1043.312	-2120
1043.373	-2035
1043.434	-2217
1043.495	-2098
1043.556	-1888
1043.616	-1732
1043.677	-2399
1043.738	-2125
1043.799	-1761
1043.859	-2412
1043.920	-2449
1043.981	-2289
1044.041	-2384
1044.102	-1977
1044.162	-2017
1044.223	-3108
1044.284	-1817
1044.344	-2545
1044.405	-2393
1044.465	-2723
1044.525	-2388
1044.586	-2154
1044.646	-1788
1044.707	-1724
1044.767	-1497
1044.827	-2630
1044.887	-2529
1044.948	-1935
1045.008	-2149
1045.068	-3167
1045.128	-2129
1045.188	-2669
1045.249	-2088
1045.309	-2054
1045.369	-2370
1045.429	-1916
1045.489	-2780
1045.549	-1788
1045.609	-1926
1045.669	-2438
1045.729	-1167
1045.789	-1810
1045.848	-2913
1045.908	-2081
1045.968	-1437
1046.028	-1626
1046.088	-1637
1046.147	-1648
1046.207	-1305
1046.267	-2072
1046.326	-1731
1046.386	-1972
1046.446	-1880
1046.505	-1452
1046.565	-1391
1046.624	-1475
1046.684	-1891
1046.743	-574
1046.803	-1334
1046.862	-220
1046.922	0
