'Start Wavelength	183.907
'End Wavelength	1046.922
'Gate Delay	5.000
'Gate Width (ms)	1.050
'Laser Output Level	0.000
'X Position	0.000
'Y Position	0.000
'Z Position	0.000
'Grid Point Number	1.000
'Shot Number	100.000
183.907	-42.000
183.977	-87.000
184.047	-205
184.116	759
184.186	-100
184.256	336
184.325	-930
184.395	-222
184.465	466
184.534	534
184.604	-581
184.674	567
184.743	-379
184.813	361
184.883	-636
184.952	228
185.022	62
185.092	62
185.161	-299
185.231	58
185.301	-280
185.370	663
185.440	42
185.509	696
185.579	559
185.649	-151
185.718	-163
185.788	333
185.857	-319
185.927	68
185.996	-14
186.066	-526
186.136	-993
186.205	509
186.275	-185
186.344	558
186.414	-805
186.483	-257
186.553	247
186.622	214
186.692	-737
186.761	-144
186.831	-182
186.900	-152
186.970	-466
187.039	736
187.109	70
187.178	-479
187.248	-425
187.317	332
187.387	-532
187.456	229
187.526	185
187.595	45
187.664	-785
187.734	755
187.803	-305
187.873	205
187.942	20
188.012	-466
188.081	-245
188.150	57
188.220	-10
188.289	69
188.358	-676
188.428	-453
188.497	-186
188.567	180
188.636	308
188.705	-459
188.775	-677
188.844	-584
188.913	413
188.983	-338
189.052	-469
189.121	243
189.191	-722
189.260	534
189.329	-800
189.399	-390
189.468	371
189.537	103
189.606	564
189.676	779
189.745	-188
189.814	552
189.883	-573
189.953	-399
190.022	281
190.091	-258
190.161	55
190.230	659
190.299	235
190.368	-704
190.437	-104
190.507	365
190.576	-549
190.645	80
190.714	176
190.783	-201
190.853	337
190.922	508
190.991	-143
191.060	-721
191.129	-1196
191.198	342
191.268	87
191.337	-102
191.406	350
191.475	441
191.544	-701
191.613	249
191.682	-566
191.752	-86
191.821	-1183
191.890	-317
191.959	-515
192.028	-312
192.097	95
192.166	162
192.235	-765
192.304	284
192.373	-235
192.442	24
192.511	214
192.580	-286
192.650	-16
192.719	-563
192.788	-532
192.857	344
192.926	-1004
192.995	114
193.064	-455
193.133	75
193.202	91
193.271	303
193.340	-170
193.409	497
193.478	-87
193.547	367
193.615	-92
193.684	-35
193.753	-735
193.822	247
193.891	-1151
193.960	-203
194.029	-184
194.098	515
194.167	-852
194.236	-277
194.305	-714
194.374	-508
194.443	-97
194.512	124
194.580	-503
194.649	281
194.718	-615
194.787	-544
194.856	-1155
194.925	-170
194.994	-802
195.062	-265
195.131	-771
195.200	-294
195.269	-472
195.338	63
195.407	-74
195.475	-598
195.544	-687
195.613	-392
195.682	-941
195.751	557
195.819	-1121
195.888	-458
195.957	4
196.026	-178
196.094	-599
196.163	-230
196.232	143
196.301	-259
196.369	-12
196.438	-83
196.507	-694
196.576	76
196.644	-197
196.713	144
196.782	-573
196.850	12
196.919	-634
196.988	68
197.056	-438
197.125	86
197.194	-451
197.262	-130
197.331	-861
197.400	-675
197.468	65
197.537	-449
197.606	149
197.674	92
197.743	333
197.812	-454
197.880	240
197.949	-318
198.017	81
198.086	-414
198.155	-1496
198.223	116
198.292	-625
198.360	-37
198.429	-406
198.497	-351
198.566	-268
198.635	28
198.703	15
198.772	750
198.840	-463
198.909	-130
198.977	-1111
199.046	-1112
199.114	194
199.183	-25
199.251	-164
199.320	-865
199.388	-726
199.457	-577
199.525	-815
199.594	-38
199.662	-628
199.731	229
199.799	-485
199.867	-113
199.936	-774
200.004	-430
200.073	-91
200.141	-244
200.210	-378
200.278	-228
200.346	-537
200.415	-363
200.483	-735
200.552	-457
200.620	-160
200.688	206
200.757	-518
200.825	183
200.893	-565
200.962	425
201.030	-420
201.098	-624
201.167	-407
201.235	134
201.303	199
201.372	105
201.440	103
201.508	297
201.577	-88
201.645	-178
201.713	-452
201.781	265
201.850	-149
201.918	-5
201.986	-565
202.055	-108
202.123	-485
202.191	-383
202.259	-25
202.327	-63
202.396	-207
202.464	-179
202.532	-999
202.600	253
202.669	-138
202.737	188
202.805	-495
202.873	-350
202.941	93
203.009	122
203.078	-695
203.146	-589
203.214	-825
203.282	-271
203.350	-629
203.418	-167
203.487	-236
203.555	-49
203.623	-246
203.691	218
203.759	-563
203.827	-350
203.895	-740
203.963	-1040
204.031	-1496
204.099	-28
204.168	-979
204.236	189
204.304	256
204.372	-568
204.440	-1025
204.508	155
204.576	-345
204.644	-174
204.712	-729
204.780	238
204.848	-226
204.916	-102
204.984	-553
205.052	-294
205.120	-487
205.188	-432
205.256	-1112
205.324	-946
205.392	-498
205.460	-185
205.528	-786
205.596	184
205.664	-551
205.732	-511
205.799	232
205.867	199
205.935	-712
206.003	-257
206.071	25
206.139	-727
206.207	-36
206.275	-461
206.343	-1100
206.411	-213
206.478	-229
206.546	218
206.614	-675
206.682	-283
206.750	-262
206.818	-99
206.885	196
206.953	-495
207.021	536
207.089	326
207.157	-620
207.225	-565
207.292	-224
207.360	-570
207.428	-1249
207.496	299
207.563	-114
207.631	103
207.699	-695
207.767	-96
207.834	-793
207.902	75
207.970	-466
208.038	114
208.105	136
208.173	236
208.241	-668
208.309	76
208.376	53
208.444	315
208.512	-1061
208.579	-868
208.647	-549
208.715	-117
208.782	-914
208.850	230
208.918	-1218
208.985	-733
209.053	382
209.120	-104
209.188	-1756
209.256	42
209.323	-1004
209.391	-692
209.459	304
209.526	433
209.594	-69
209.661	762
209.729	-756
209.796	-290
209.864	-231
209.932	-1577
209.999	427
210.067	-123
210.134	-1090
210.202	-388
210.269	-904
210.337	-191
210.404	-613
210.472	415
210.539	62
210.607	-172
210.674	-147
210.742	-310
210.809	24
210.877	76
210.944	-1418
211.012	-1121
211.079	1243
211.146	66
211.214	-1071
211.281	-195
211.349	187
211.416	-441
211.484	-571
211.551	-444
211.618	-121
211.686	35
211.753	-735
211.821	-75
211.888	-973
211.955	-523
212.023	-413
212.090	-515
212.157	-6
212.225	-608
212.292	-94
212.359	149
212.427	174
212.494	149
212.561	-239
212.629	650
212.696	-718
212.763	258
212.831	-701
212.898	244
212.965	-1188
213.032	31
213.100	-528
213.167	-442
213.234	-409
213.301	632
213.369	-384
213.436	-124
213.503	284
213.570	-298
213.638	-207
213.705	-121
213.772	-1079
213.839	173
213.906	-566
213.973	399
214.041	-112
214.108	-468
214.175	-555
214.242	13
214.309	-1107
214.376	6
214.444	-1358
214.511	-466
214.578	-1026
214.645	156
214.712	-860
214.779	-594
214.846	-322
214.913	301
214.980	-458
215.048	556
215.115	-165
215.182	143
215.249	-321
215.316	-162
215.383	383
215.450	70
215.517	-1049
215.584	-158
215.651	-826
215.718	271
215.785	-303
215.852	-781
215.919	-1165
215.986	-249
216.053	-556
216.120	-630
216.187	-320
216.254	536
216.321	-472
216.388	-355
216.455	-764
216.522	-272
216.589	-406
216.656	127
216.722	-357
216.789	-59
216.856	292
216.923	35
216.990	113
217.057	-21
217.124	-94
217.191	170
217.258	523
217.324	417
217.391	570
217.458	342
217.525	-327
217.592	-63
217.659	-1451
217.725	-50
217.792	-718
217.859	-49
217.926	-798
217.993	-784
218.059	-57
218.126	-27
218.193	-1263
218.260	-939
218.327	-1347
218.393	-564
218.460	-670
218.527	-581
218.594	-683
218.660	-215
218.727	4
218.794	-999
218.860	-444
218.927	-521
218.994	-136
219.061	-671
219.127	-1277
219.194	-217
219.261	31
219.327	-586
219.394	-146
219.461	-1802
219.527	306
219.594	-499
219.661	-1229
219.727	-214
219.794	-460
219.860	-727
219.927	87
219.994	-74
220.060	-1151
220.127	-623
220.193	-303
220.260	448
220.326	347
220.393	321
220.460	941
220.526	37
220.593	-488
220.659	1037
220.726	-926
220.792	161
220.859	-185
220.925	687
220.992	2110
221.058	1599
221.125	951
221.191	776
221.258	221
221.324	974
221.391	-875
221.457	-342
221.524	-396
221.590	-204
221.657	-295
221.723	239
221.789	-354
221.856	114
221.922	-777
221.989	32
222.055	-319
222.121	-1124
222.188	353
222.254	-323
222.321	-1520
222.387	-481
222.453	-233
222.520	288
222.586	-1034
222.652	44
222.719	-1590
222.785	21
222.851	-1075
222.918	-117
222.984	126
223.050	-521
223.116	-2099
223.183	765
223.249	-330
223.315	-905
223.382	-414
223.448	-406
223.514	-1043
223.580	-421
223.647	-849
223.713	-1174
223.779	-350
223.845	-964
223.911	-462
223.978	-996
224.044	-73
224.110	-905
224.176	-166
224.242	-647
224.309	-931
224.375	-143
224.441	-813
224.507	-1286
224.573	-1522
224.639	381
224.705	-837
224.772	-166
224.838	-559
224.904	-464
224.970	-1252
225.036	-743
225.102	-1905
225.168	61
225.234	-69
225.300	523
225.366	-500
225.432	198
225.499	-823
225.565	-479
225.631	-1506
225.697	-372
225.763	30
225.829	-21
225.895	-168
225.961	-671
226.027	-951
226.093	-1008
226.159	297
226.225	384
226.291	806
226.357	2331
226.423	1292
226.489	454
226.554	93
226.620	631
226.686	-378
226.752	194
226.818	847
226.884	3693
226.950	3030
227.016	885
227.082	184
227.148	367
227.214	193
227.279	-439
227.345	-482
227.411	401
227.477	-746
227.543	-116
227.609	-116
227.674	141
227.740	-906
227.806	-36
227.872	-726
227.938	-496
228.003	-44
228.069	-211
228.135	-140
228.201	-373
228.267	-788
228.332	-1019
228.398	-1234
228.464	-54
228.530	-751
228.595	145
228.661	-1418
228.727	-97
228.792	411
228.858	-1192
228.924	-2029
228.990	276
229.055	-1321
229.121	171
229.187	-260
229.252	-326
229.318	-833
229.384	146
229.449	-656
229.515	-2201
229.581	-1812
229.646	1291
229.712	-861
229.777	-1031
229.843	-817
229.909	-370
229.974	-40
230.040	-377
230.105	-456
230.171	-266
230.236	-596
230.302	220
230.368	-740
230.433	-527
230.499	-541
230.564	428
230.630	-1420
230.695	569
230.761	42
230.826	-1362
230.892	140
230.957	-1002
231.023	-808
231.088	-337
231.154	200
231.219	-1157
231.284	-576
231.350	189
231.415	-1327
231.481	132
231.546	-1012
231.612	46
231.677	-1129
231.742	-1264
231.808	832
231.873	-385
231.939	-1995
232.004	290
232.069	91
232.135	-784
232.200	-574
232.265	-38
232.331	-767
232.396	-784
232.461	-998
232.527	-167
232.592	-1318
232.657	-289
232.723	-427
232.788	-375
232.853	-416
232.918	1014
232.984	-221
233.049	-921
233.114	-1399
233.179	-898
233.245	436
233.310	-184
233.375	-1703
233.440	290
233.506	-1240
233.571	-1045
233.636	-810
233.701	-403
233.766	-871
233.832	-486
233.897	-1722
233.962	-1562
234.027	-84
234.092	-217
234.157	-720
234.222	-1123
234.288	-573
234.353	213
234.418	-64
234.483	-19
234.548	-1281
234.613	-761
234.678	-653
234.743	-1107
234.808	407
234.873	-1728
234.938	1098
235.004	-234
235.069	-250
235.134	-749
235.199	-414
235.264	14
235.329	-1531
235.394	51
235.459	-326
235.524	-1643
235.589	104
235.654	-473
235.719	-1610
235.784	43
235.849	-911
235.913	-196
235.978	-858
236.043	-269
236.108	-1068
236.173	-652
236.238	-540
236.303	-457
236.368	-789
236.433	253
236.498	-1828
236.563	621
236.627	620
236.692	5058
236.757	3480
236.822	1049
236.887	-732
236.952	1170
237.017	-1509
237.081	1087
237.146	-55
237.211	2259
237.276	4770
237.341	7976
237.405	2945
237.470	1624
237.535	-238
237.600	668
237.664	99
237.729	-779
237.794	-861
237.859	1709
237.923	-115
237.988	-320
238.053	-289
238.118	-644
238.182	71
238.247	1395
238.312	-396
238.376	-350
238.441	-2506
238.506	307
238.570	-1643
238.635	278
238.700	-479
238.764	61
238.829	-532
238.893	-1304
238.958	-36
239.023	-745
239.087	-783
239.152	-49
239.216	-1693
239.281	384
239.346	-328
239.410	49
239.475	-1354
239.539	543
239.604	-127
239.668	-434
239.733	-888
239.797	-1097
239.862	33
239.926	-83
239.991	-41
240.055	-312
240.120	-1288
240.184	-150
240.249	-1248
240.313	-1033
240.378	43
240.442	279
240.507	-221
240.571	-691
240.635	-708
240.700	-287
240.764	-991
240.829	-122
240.893	-1932
240.957	97
241.022	-138
241.086	710
241.151	-1555
241.215	-860
241.279	163
241.344	-855
241.408	-358
241.472	-481
241.537	-119
241.601	123
241.665	-2232
241.730	-675
241.794	725
241.858	-999
241.922	-746
241.987	-846
242.051	-703
242.115	-1316
242.179	-124
242.244	-714
242.308	-119
242.372	112
242.436	-1038
242.501	-234
242.565	-1660
242.629	-886
242.693	-277
242.757	-640
242.822	-1096
242.886	80
242.950	254
243.014	-831
243.078	-487
243.142	-970
243.206	-1138
243.271	-221
243.335	-1247
243.399	637
243.463	750
243.527	4144
243.591	660
243.655	203
243.719	-1205
243.783	738
243.847	-124
243.911	367
243.975	-848
244.040	-1054
244.104	915
244.168	-278
244.232	-1030
244.296	-37
244.360	-108
244.424	-1125
244.488	-509
244.552	310
244.615	-1539
244.679	-236
244.743	-249
244.807	-1041
244.871	-527
244.935	-991
244.999	-1969
245.063	-741
245.127	109
245.191	70
245.255	-473
245.319	-284
245.383	-1862
245.446	452
245.510	-1250
245.574	-190
245.638	-824
245.702	-1336
245.766	154
245.829	945
245.893	-1240
245.957	-652
246.021	156
246.085	-411
246.149	-701
246.212	892
246.276	25
246.340	114
246.404	-442
246.467	110
246.531	-2440
246.595	415
246.659	-312
246.722	-1539
246.786	-572
246.850	-615
246.913	-834
246.977	-1536
247.041	-666
247.104	496
247.168	-442
247.232	295
247.295	1180
247.359	376
247.423	-577
247.486	33
247.550	-85
247.614	458
247.677	226
247.741	325
247.804	-160
247.868	-101
247.932	308
247.995	2151
248.059	178
248.122	-521
248.186	1015
248.249	137
248.313	2723
248.376	3508
248.440	661
248.503	-1130
248.567	1148
248.630	-673
248.694	88
248.757	1428
248.821	2882
248.884	2005
248.948	441
249.011	2487
249.075	3265
249.138	3060
249.202	612
249.265	337
249.328	547
249.392	-537
249.455	525
249.519	215
249.582	-376
249.645	1503
249.709	-328
249.772	279
249.835	-156
249.899	-43
249.962	-10
250.025	-142
250.089	452
250.152	1478
250.215	335
250.279	-237
250.342	-11
250.405	533
250.468	-1052
250.532	301
250.595	913
250.658	3812
250.721	8805
250.785	2371
250.848	1886
250.911	150
250.974	1229
251.038	358
251.101	2103
251.164	315
251.227	895
251.290	795
251.354	1359
251.417	5762
251.480	6683
251.543	4342
251.606	12699
251.669	9865
251.732	2883
251.795	2738
251.859	3429
251.922	7646
251.985	5492
252.048	2628
252.111	242
252.174	588
252.237	1476
252.300	4749
252.363	3378
252.426	10638
252.489	3317
252.552	914
252.615	129
252.678	1732
252.741	3724
252.804	3283
252.867	11022
252.930	5393
252.993	2269
253.056	468
253.119	877
253.182	-89
253.245	498
253.308	1957
253.371	-1102
253.434	285
253.497	660
253.559	1964
253.622	432
253.685	631
253.748	288
253.811	758
253.874	-138
253.937	-262
254.000	283
254.062	647
254.125	730
254.188	1976
254.251	552
254.314	-131
254.376	-220
254.439	188
254.502	-26
254.565	104
254.628	1298
254.690	20
254.753	-359
254.816	-685
254.878	-1207
254.941	932
255.004	663
255.067	-129
255.129	-288
255.192	50
255.255	-1021
255.317	-20
255.380	-763
255.443	-1005
255.505	-1110
255.568	-219
255.631	-873
255.693	-421
255.756	-1524
255.819	390
255.881	-707
255.944	-676
256.006	-1482
256.069	-454
256.132	-1529
256.194	-109
256.257	-389
256.319	-275
256.382	-726
256.444	596
256.507	28
256.569	-1265
256.632	-158
256.694	70
256.757	1825
256.819	9472
256.882	1806
256.944	284
257.007	486
257.069	-299
257.132	-441
257.194	737
257.257	-754
257.319	-900
257.381	-662
257.444	1901
257.506	9349
257.569	10317
257.631	2709
257.693	1004
257.756	263
257.818	-555
257.880	-841
257.943	607
258.005	-1336
258.067	102
258.130	-212
258.192	234
258.254	-658
258.317	-493
258.379	4
258.441	301
258.503	191
258.566	-31
258.628	119
258.690	-1231
258.753	-541
258.815	393
258.877	-1451
258.939	-137
259.001	-114
259.064	-557
259.126	-680
259.188	-458
259.250	-347
259.312	-856
259.375	-201
259.437	-781
259.499	-981
259.561	-314
259.623	-644
259.685	-679
259.747	-338
259.809	855
259.872	1018
259.934	2001
259.996	2658
260.058	494
260.120	-1206
260.182	-384
260.244	-1066
260.306	-842
260.368	-521
260.430	-870
260.492	-319
260.554	906
260.616	-950
260.678	408
260.740	219
260.802	-434
260.864	-789
260.926	-1261
260.988	291
261.050	-416
261.112	118
261.174	2905
261.236	-417
261.298	-397
261.359	-425
261.421	1150
261.483	-925
261.545	396
261.607	-2534
261.669	522
261.731	-613
261.793	282
261.854	-1649
261.916	113
261.978	-1188
262.040	345
262.102	-239
262.164	-1176
262.225	-767
262.287	-520
262.349	-1283
262.411	187
262.472	-31
262.534	-942
262.596	-433
262.658	429
262.719	-934
262.781	85
262.843	-686
262.904	-575
262.966	-320
263.028	-635
263.090	1273
263.151	5396
263.213	2025
263.275	294
263.336	-226
263.398	202
263.459	-1438
263.521	340
263.583	216
263.644	-533
263.706	-1445
263.767	-90
263.829	-1229
263.891	-739
263.952	-1194
264.014	-524
264.075	-480
264.137	1224
264.198	-535
264.260	-453
264.321	-435
264.383	-111
264.444	1922
264.506	358
264.567	-140
264.629	1527
264.690	74
264.752	39
264.813	-550
264.875	-950
264.936	504
264.998	-1011
265.059	-487
265.120	-228
265.182	-1282
265.243	4092
265.305	4714
265.366	757
265.427	-363
265.489	-326
265.550	-1685
265.611	-719
265.673	-1195
265.734	284
265.795	-517
265.857	-1061
265.918	-1343
265.979	1773
266.040	6766
266.102	6325
266.163	1139
266.224	296
266.286	-743
266.347	-749
266.408	-1021
266.469	-178
266.530	-825
266.592	-543
266.653	-608
266.714	-497
266.775	-893
266.836	-950
266.898	-1540
266.959	-336
267.020	-985
267.081	465
267.142	-776
267.203	-996
267.264	-1831
267.326	266
267.387	-1405
267.448	-1128
267.509	-936
267.570	-342
267.631	-848
267.692	-1584
267.753	-815
267.814	-1137
267.875	-332
267.936	-304
267.997	-848
268.058	-692
268.119	-1052
268.180	-224
268.241	-1387
268.302	-539
268.363	-843
268.424	-1303
268.485	-1090
268.546	-957
268.607	-922
268.668	-340
268.729	-1159
268.790	-139
268.851	-756
268.912	-339
268.972	-104
269.033	-170
269.094	-2183
269.155	-77
269.216	-1458
269.277	-899
269.338	-931
269.398	-152
269.459	-1172
269.520	-290
269.581	-1409
269.642	13
269.702	-1123
269.763	-776
269.824	-1109
269.885	-1656
269.945	-35
270.006	-388
270.067	-1796
270.128	-643
270.188	-1722
270.249	-1482
270.310	-1289
270.370	-546
270.431	-1378
270.492	-1365
270.553	-952
270.613	-1026
270.674	-144
270.734	-850
270.795	-961
270.856	-385
270.916	-803
270.977	-69
271.038	-361
271.098	-487
271.159	-784
271.219	-1193
271.280	-865
271.340	-369
271.401	-1658
271.462	-682
271.522	-814
271.583	-870
271.643	-544
271.704	-370
271.764	-970
271.825	-236
271.885	2108
271.946	4476
272.006	679
272.066	788
272.127	2149
272.187	21
272.248	-531
272.308	-1238
272.369	1724
272.429	504
272.489	-297
272.550	-644
272.610	-236
272.671	-305
272.731	-923
272.791	-473
272.852	-961
272.912	28
272.972	-788
273.033	-766
273.093	-718
273.153	-352
273.214	-182
273.274	-194
273.334	587
273.394	2640
273.455	103
273.515	-26
273.575	1419
273.635	699
273.696	493
273.756	2375
273.816	-287
273.876	-554
273.936	-268
273.997	1580
274.057	-1111
274.117	-1091
274.177	-508
274.237	2369
274.297	3607
274.358	901
274.418	1062
274.478	1358
274.538	-598
274.598	-1422
274.658	499
274.718	1432
274.778	303
274.838	-347
274.898	-263
274.958	1526
275.018	2105
275.078	1924
275.138	-246
275.198	-1297
275.258	-1027
275.318	-683
275.378	-317
275.438	-311
275.498	-996
275.558	662
275.618	2776
275.678	761
275.738	27
275.798	337
275.858	-971
275.918	-1404
275.978	-1221
276.038	-624
276.098	-1225
276.157	-516
276.217	667
276.277	-925
276.337	-682
276.397	-1169
276.457	-1868
276.517	-1772
276.576	-1375
276.636	-159
276.696	-734
276.756	-578
276.815	-803
276.875	-845
276.935	-1323
276.995	-665
277.055	-1095
277.114	179
277.174	-820
277.234	329
277.293	-344
277.353	-423
277.413	-777
277.472	-1021
277.532	-1329
277.592	-928
277.651	20
277.711	1910
277.771	-727
277.830	2526
277.890	2210
277.950	599
278.009	6064
278.069	1973
278.128	616
278.188	3133
278.248	185
278.307	2056
278.367	1552
278.426	-210
278.486	-621
278.545	-948
278.605	-1383
278.664	-567
278.724	-606
278.783	1209
278.843	2394
278.902	-487
278.962	-851
279.021	-203
279.081	-133
279.140	-288
279.199	-1078
279.259	624
279.318	180
279.378	979
279.437	707
279.496	4675
279.556	20332
279.615	20700
279.675	3575
279.734	733
279.793	1037
279.853	4062
279.912	835
279.971	208
280.031	-64
280.090	974
280.149	1193
280.208	2091
280.268	13796
280.327	19539
280.386	2726
280.445	1037
280.505	-305
280.564	361
280.623	528
280.682	-591
280.742	659
280.801	-387
280.860	-1171
280.919	-325
280.978	-536
281.037	-843
281.097	-1473
281.156	-261
281.215	-1036
281.274	-317
281.333	780
281.392	793
281.451	-275
281.510	-547
281.569	-1830
281.628	-48
281.688	-1321
281.747	-807
281.806	-1408
281.865	-789
281.924	-1513
281.983	-1090
282.042	-1320
282.101	-1141
282.160	-624
282.219	-888
282.278	-949
282.337	-266
282.396	-372
282.454	-423
282.513	-1373
282.572	112
282.631	-447
282.690	-997
282.749	-1894
282.808	-145
282.867	-1141
282.926	-879
282.985	-694
283.043	-825
283.102	-1510
283.161	-366
283.220	-30
283.279	1896
283.338	-79
283.396	-1246
283.455	-598
283.514	-742
283.573	-70
283.631	-104
283.690	-1072
283.749	-1020
283.808	-605
283.866	466
283.925	-984
283.984	-326
284.043	-1460
284.101	-354
284.160	-1102
284.219	323
284.277	-107
284.336	-340
284.395	1491
284.453	1358
284.512	-869
284.570	522
284.629	115
284.688	-1108
284.746	-706
284.805	407
284.863	934
284.922	1230
284.981	506
285.039	2426
285.098	4659
285.156	12262
285.215	37608
285.273	44005
285.332	16730
285.390	7316
285.449	3824
285.507	2195
285.566	1149
285.624	1610
285.683	152
285.741	613
285.799	-119
285.858	303
285.916	-257
285.975	-253
286.033	-1036
286.091	-68
286.150	-584
286.208	94
286.267	-603
286.325	-336
286.383	-1327
286.442	-354
286.500	-626
286.558	-136
286.616	-1362
286.675	-652
286.733	-437
286.791	-1047
286.850	-983
286.908	-888
286.966	-323
287.024	-46
287.083	-715
287.141	-399
287.199	-794
287.257	-612
287.315	-697
287.374	-753
287.432	-239
287.490	-176
287.548	-1253
287.606	-498
287.664	-81
287.723	93
287.781	-796
287.839	-719
287.897	-600
287.955	394
288.013	149
288.071	2381
288.129	11289
288.187	47297
288.245	23060
288.303	5913
288.361	1429
288.419	840
288.477	802
288.535	305
288.593	-2
288.651	-759
288.709	-399
288.767	-635
288.825	-604
288.883	-607
288.941	-1427
288.999	-682
289.057	-1288
289.115	-924
289.173	-603
289.231	-384
289.289	-1084
289.346	-573
289.404	-197
289.462	-1234
289.520	-1113
289.578	120
289.636	-1102
289.694	-1400
289.751	-1397
289.809	-718
289.867	-1336
289.925	-609
289.983	-1030
290.040	-1011
290.098	-1237
290.156	-1064
290.214	-1914
290.271	-840
290.329	-427
290.387	-1217
290.444	-1145
290.502	-234
290.560	-1530
290.617	-142
290.675	-1033
290.733	-1336
290.790	-584
290.848	109
290.906	-1346
290.963	-927
291.021	-801
291.078	-802
291.136	-1238
291.194	532
291.251	2046
291.309	-355
291.366	-968
291.424	-880
291.481	-1249
291.539	-1123
291.596	-941
291.654	-981
291.711	-1113
291.769	-759
291.826	-905
291.884	-793
291.941	-1783
291.999	-614
292.056	-1376
292.114	-762
292.171	-1784
292.228	-789
292.286	-954
292.343	-1002
292.401	-797
292.458	-143
292.515	-1334
292.573	-1009
292.630	-1416
292.687	-816
292.745	-1134
292.802	-209
292.859	739
292.917	1840
292.974	212
293.031	-812
293.089	-1186
293.146	-714
293.203	-502
293.260	-1411
293.318	-1265
293.375	-215
293.432	-1070
293.489	-401
293.546	-1478
293.604	-1090
293.661	422
293.718	5569
293.775	2540
293.832	-40
293.889	-101
293.947	-1350
294.004	-1719
294.061	-441
294.118	-913
294.175	2320
294.232	4899
294.289	1441
294.346	-408
294.403	-110
294.460	-514
294.517	-773
294.574	-993
294.631	-1425
294.688	-821
294.745	474
294.802	5895
294.859	8750
294.916	2187
294.973	687
295.030	-1180
295.087	106
295.144	-302
295.201	26
295.258	-1065
295.315	-552
295.372	1191
295.429	4019
295.486	1178
295.542	280
295.599	1956
295.656	6941
295.713	3327
295.770	3819
295.827	1017
295.883	-421
295.940	-706
295.997	-297
296.054	-200
296.111	-345
296.167	91
296.224	-718
296.281	-678
296.338	-1047
296.394	-1407
296.451	-334
296.508	59
296.564	2404
296.621	2135
296.678	4472
296.734	8506
296.791	3325
296.848	753
296.904	271
296.961	813
297.018	3671
297.074	3136
297.131	526
297.187	-231
297.244	1006
297.301	3113
297.357	10891
297.414	3514
297.470	1000
297.527	-683
297.583	-622
297.640	25
297.696	-432
297.753	-842
297.809	-807
297.866	-695
297.922	85
297.979	-1124
298.035	-780
298.092	-1177
298.148	1275
298.204	2488
298.261	258
298.317	1877
298.374	6913
298.430	4572
298.486	884
298.543	-247
298.599	10
298.656	-400
298.712	1153
298.768	3332
298.824	2704
298.881	795
298.937	341
298.993	-872
299.050	64
299.106	-487
299.162	-805
299.218	-163
299.275	735
299.331	-526
299.387	933
299.443	4622
299.500	6419
299.556	1864
299.612	-3
299.668	-662
299.724	215
299.780	146
299.837	-522
299.893	-88
299.949	2680
300.005	2930
300.061	3370
300.117	8810
300.173	5379
300.229	830
300.285	463
300.341	314
300.397	215
300.453	-729
300.510	-122
300.566	-1139
300.622	-164
300.678	-403
300.734	1949
300.790	3043
300.845	5439
300.901	2897
300.957	2349
301.013	1601
301.069	100
301.125	-189
301.181	-678
301.237	-74
301.293	-772
301.349	-366
301.405	-437
301.461	-898
301.516	987
301.572	-225
301.628	-289
301.684	-314
301.740	246
301.796	1982
301.851	2133
301.907	1431
301.963	2218
302.019	4771
302.074	18264
302.130	21552
302.186	10880
302.242	3272
302.297	1645
302.353	68
302.409	1449
302.464	2068
302.520	1445
302.576	4156
302.631	6601
302.687	2600
302.743	1395
302.798	-26
302.854	-289
302.910	591
302.965	465
303.021	999
303.076	1063
303.132	951
303.187	1284
303.243	414
303.299	-249
303.354	-296
303.410	413
303.465	-754
303.521	147
303.576	-636
303.632	233
303.687	1041
303.743	4591
303.798	5607
303.853	2431
303.909	347
303.964	-311
304.020	-315
304.075	969
304.130	38
304.186	1979
304.241	2376
304.297	2430
304.352	-40
304.358	-42
304.407	-61
304.449	615
304.463	846
304.518	-430
304.539	-578
304.573	-835
304.629	361
304.630	359
304.684	301
304.720	2718
304.739	3928
304.794	7758
304.811	6754
304.850	4361
304.902	1040
304.905	824
304.960	686
304.992	635
305.015	585
305.071	1092
305.083	834
305.126	-121
305.173	216
305.181	289
305.236	-477
305.264	-47
305.292	359
305.347	151
305.354	252
305.402	857
305.445	329
305.457	167
305.512	810
305.535	635
305.567	519
305.622	1030
305.626	1056
305.678	1617
305.716	4312
305.733	5341
305.788	6532
305.807	5871
305.843	4773
305.897	5959
305.898	5970
305.953	7184
305.988	5168
306.008	4042
306.063	2455
306.078	2066
306.118	1148
306.168	806
306.173	771
306.228	312
306.259	153
306.283	147
306.338	829
306.349	894
306.393	945
306.440	992
306.448	1023
306.503	1421
306.530	1523
306.558	1764
306.613	3063
306.620	3330
306.668	5132
306.711	5737
306.723	5647
306.778	4565
306.801	3606
306.833	2678
306.888	1315
306.892	1265
306.943	745
306.982	750
306.997	803
307.052	1083
307.072	1019
307.107	1014
307.162	1621
307.163	1628
307.217	2392
307.253	3001
307.272	3350
307.327	3838
307.343	3760
307.381	3332
307.434	1939
307.436	1926
307.491	3896
307.524	5531
307.546	6084
307.600	6492
307.614	5760
307.655	3412
307.704	1961
307.710	1951
307.765	2714
307.795	3669
307.819	4250
307.874	6758
307.885	6770
307.929	6420
307.975	5326
307.984	5371
308.038	7008
308.065	8342
308.093	12958
308.148	25965
308.156	29320
308.202	45082
308.246	56479
308.257	56635
308.312	36108
308.336	27201
308.366	19621
308.421	10308
308.426	9751
308.475	7060
308.517	5268
308.530	4915
308.585	4511
308.607	4255
308.639	3807
308.694	3670
308.697	3704
308.748	5988
308.787	8311
308.803	8578
308.857	8053
308.877	7299
308.912	6646
308.967	6269
308.967	6270
309.021	8167
309.058	9759
309.076	11652
309.130	18744
309.148	21627
309.185	33312
309.238	57278
309.239	57501
309.293	69641
309.328	65393
309.348	58871
309.402	34410
309.418	28356
309.457	19896
309.508	12483
309.511	12194
309.566	9393
309.598	8151
309.620	7893
309.674	8188
309.688	8352
309.729	8094
309.778	6796
309.783	6689
309.837	5379
309.868	4867
309.892	5204
309.946	6018
309.959	6378
310.001	7512
310.049	8902
310.055	8708
310.109	6044
310.139	4379
310.163	3850
310.218	2915
310.229	2768
310.272	2519
310.319	2473
310.326	2431
310.381	1967
310.409	1849
310.435	1929
310.489	1617
310.499	1656
310.543	1839
310.589	1626
310.598	1691
310.652	2621
310.679	2864
310.706	2496
310.760	1642
310.769	1533
310.814	1666
310.859	1732
310.868	1674
310.923	1313
310.948	1159
310.977	1426
311.031	1961
311.038	2032
311.085	2058
311.128	1898
311.139	1874
311.193	1882
311.218	1854
311.247	1858
311.301	1841
311.308	1827
311.356	1533
311.398	1344
311.410	1410
311.464	1569
311.488	1697
311.518	1823
311.572	1928
311.578	1941
311.626	2130
311.668	2201
311.680	2283
311.734	2738
311.758	2889
311.788	2708
311.842	2376
311.847	2336
311.896	3501
311.937	4494
311.950	4259
312.004	3160
312.027	2679
312.058	2767
312.112	2912
312.117	2920
312.165	2948
312.207	2961
312.297	3655
312.386	2541
312.476	2336
312.566	2728
312.656	1783
312.745	1717
312.835	2500
312.925	2274
313.015	2492
313.104	2729
313.194	2360
313.284	1946
313.374	2090
313.463	2794
313.553	2046
313.643	2388
313.732	2294
313.822	1575
313.912	2375
314.001	3071
314.091	2583
314.180	3182
314.270	3480
314.360	2469
314.449	1413
314.539	2166
314.628	2116
314.718	2494
314.808	2726
314.897	1484
314.987	2693
315.076	2162
315.166	2314
315.255	3003
315.345	2033
315.434	1907
315.524	3014
315.613	2009
315.703	1892
315.792	2548
315.881	3357
315.971	2434
316.060	3242
316.150	4070
316.239	4089
316.328	2309
316.418	2205
316.507	1435
316.597	2855
316.686	1318
316.775	2350
316.865	3937
316.954	2259
317.043	1191
317.133	1658
317.222	1659
317.311	1879
317.400	610
317.490	2961
317.579	1355
317.668	2045
317.757	1385
317.847	2424
317.936	3289
318.025	4252
318.114	1410
318.203	2015
318.293	3820
318.382	7257
318.471	5121
318.560	9210
318.649	15480
318.738	3973
318.828	1937
318.917	2053
319.006	2776
319.095	6525
319.184	17853
319.273	8414
319.362	3385
319.451	1738
319.540	2699
319.629	2985
319.718	3211
319.807	3249
319.896	6231
319.985	20963
320.074	7123
320.163	3292
320.252	3303
320.341	4513
320.430	3449
320.519	3108
320.608	1428
320.697	2672
320.786	1740
320.875	1787
320.964	1678
321.053	2828
321.142	3359
321.230	3584
321.319	3635
321.408	7187
321.497	4242
321.586	4158
321.675	4670
321.764	6042
321.852	3719
321.941	4484
322.030	3067
322.119	3273
322.207	6473
322.296	6086
322.385	3994
322.474	3671
322.562	6586
322.651	5007
322.740	2949
322.829	3921
322.917	4717
323.006	2846
323.095	3219
323.183	2488
323.272	4050
323.361	5626
323.449	13035
323.538	5029
323.626	10136
323.715	6164
323.804	3194
323.892	8902
323.981	4656
324.069	2702
324.158	5576
324.246	5303
324.335	2484
324.424	3006
324.512	1919
324.601	2761
324.689	6451
324.778	10379
324.866	4169
324.954	2075
325.043	1941
325.131	3021
325.220	4825
325.308	4785
325.397	3818
325.485	2285
325.574	1711
325.662	1183
325.750	612
325.839	2622
325.927	2081
326.015	1596
326.104	2107
326.192	3311
326.280	2323
326.369	1724
326.457	1911
326.545	2303
326.634	1836
326.722	1508
326.810	919
326.898	2006
326.987	1251
327.075	1678
327.163	3279
327.251	2664
327.340	5464
327.428	7764
327.516	1705
327.604	1805
327.692	1378
327.781	2519
327.869	2051
327.957	1284
328.045	1264
328.133	2274
328.221	2104
328.309	1971
328.397	1911
328.485	1956
328.574	1701
328.662	2843
328.750	3111
328.838	1948
328.926	2732
329.014	2005
329.102	1534
329.190	5247
329.278	2611
329.366	1393
329.454	1118
329.542	2279
329.630	1219
329.718	1444
329.806	1097
329.893	1694
329.981	1942
330.069	2435
330.157	4261
330.245	10917
330.333	4978
330.421	2154
330.509	2693
330.597	4042
330.684	3030
330.772	2717
330.860	3266
330.948	5276
331.036	2637
331.123	1465
331.211	1857
331.299	2005
331.387	5106
331.475	7114
331.562	3029
331.650	1622
331.738	523
331.825	2325
331.913	921
332.001	676
332.089	1388
332.176	3039
332.264	5456
332.352	3859
332.439	2057
332.527	2000
332.614	1109
332.702	2688
332.790	1223
332.877	3536
332.965	4857
333.052	1597
333.140	1508
333.228	2790
333.315	898
333.403	1597
333.490	3657
333.578	2044
333.665	3498
333.753	1600
333.840	912
333.928	2037
334.015	3864
334.103	7004
334.190	20515
334.278	5827
334.365	2671
334.452	1744
334.540	1549
334.627	1645
334.715	2738
334.802	3693
334.889	15512
334.977	14020
335.064	2843
335.151	1443
335.239	2484
335.326	2947
335.413	11676
335.501	15258
335.588	1968
335.675	2199
335.762	2923
335.850	5075
335.937	2173
336.024	6612
336.111	19597
336.199	8635
336.286	2348
336.373	1781
336.460	707
336.547	1586
336.635	1581
336.722	1552
336.809	1924
336.896	1808
336.983	7143
337.070	17169
337.157	21819
337.245	12120
337.332	6790
337.419	1366
337.506	1658
337.593	2299
337.680	6618
337.767	19685
337.854	4861
337.941	5421
338.028	3685
338.115	1894
338.202	3365
338.289	5074
338.376	8941
338.463	4112
338.550	10393
338.637	10825
338.724	3277
338.811	4765
338.898	1438
338.984	1597
339.071	1542
339.158	1339
339.245	2644
339.332	3029
339.419	2825
339.506	2883
339.593	1015
339.679	1647
339.766	1157
339.853	2087
339.940	2045
340.027	1863
340.113	1221
340.200	1513
340.287	1504
340.374	1091
340.460	1222
340.547	470
340.634	2122
340.720	3768
340.807	2006
340.894	1078
340.980	1022
341.067	1523
341.154	1546
341.240	1861
341.327	2057
341.414	2633
341.500	383
341.587	1902
341.674	1295
341.760	2358
341.847	1145
341.933	690
342.020	207
342.106	740
342.193	786
342.279	1870
342.366	500
342.452	1700
342.539	1104
342.625	2184
342.712	3453
342.798	2434
342.885	703
342.971	197
343.058	933
343.144	801
343.230	1251
343.317	1483
343.403	835
343.490	929
343.576	1565
343.662	1133
343.749	1054
343.835	1617
343.921	2610
344.008	12067
344.094	24167
344.180	5825
344.267	2397
344.353	7298
344.439	7523
344.525	3964
344.612	8886
344.698	11226
344.784	5780
344.870	2466
344.957	1684
345.043	2176
345.129	649
345.215	1892
345.301	1363
345.387	1510
345.474	341
345.560	546
345.646	712
345.732	872
345.818	952
345.904	1057
345.990	601
346.076	1739
346.162	1265
346.249	1809
346.335	501
346.421	1747
346.507	3107
346.593	10013
346.679	2497
346.765	1522
346.851	815
346.937	586
347.023	1148
347.108	1250
347.194	772
347.280	1031
347.366	688
347.452	2975
347.538	10639
347.624	9531
347.710	6933
347.796	1505
347.882	1822
347.967	1033
348.053	1505
348.139	1436
348.225	783
348.311	908
348.397	1421
348.482	1736
348.568	1647
348.654	573
348.740	791
348.825	433
348.911	2627
348.997	5189
349.083	11027
349.168	1775
349.254	1339
349.340	1451
349.425	735
349.511	1107
349.597	1193
349.682	1770
349.768	7784
349.854	3738
349.939	1115
350.025	890
350.110	1455
350.196	983
350.282	124
350.367	1179
350.453	1270
350.538	1130
350.624	884
350.709	2602
350.795	641
350.880	22
350.966	1153
351.051	2004
351.137	1295
351.222	1060
351.308	1607
351.393	4810
351.479	1567
351.564	729
351.649	1630
351.735	1623
351.820	384
351.906	482
351.991	1614
352.076	3608
352.162	3887
352.247	1576
352.332	704
352.418	1456
352.503	2702
352.588	7780
352.673	4828
352.759	1448
352.844	860
352.929	1651
353.014	290
353.100	1103
353.185	680
353.270	1131
353.355	1768
353.441	1314
353.526	905
353.611	1694
353.696	1150
353.781	1806
353.866	654
353.952	1714
354.037	624
354.122	2784
354.207	2419
354.292	1087
354.377	831
354.462	1548
354.547	825
354.632	2064
354.717	1519
354.802	905
354.887	537
354.972	1227
355.057	524
355.142	1067
355.227	1806
355.312	884
355.397	1395
355.482	3560
355.567	1177
355.652	3169
355.737	2559
355.822	6704
355.907	5101
355.991	2270
356.076	266
356.161	1201
356.246	270
356.331	1653
356.416	1327
356.501	12613
356.585	11602
356.670	1384
356.755	2938
356.840	2372
356.924	7846
357.009	24710
357.094	9128
357.179	2592
357.263	1391
357.348	2808
357.433	2404
357.517	1638
357.602	2194
357.687	1215
357.771	2979
357.856	11933
357.941	7531
358.025	8512
358.110	26953
358.195	13217
358.279	2499
358.364	1077
358.448	5200
358.533	12005
358.617	8274
358.702	8942
358.787	3253
358.871	2500
358.956	1471
359.040	994
359.125	1248
359.209	1612
359.294	5387
359.378	9885
359.462	1957
359.547	1437
359.631	100
359.716	-483
359.800	1035
359.885	2467
359.969	-103
360.053	2024
360.138	1000
360.222	1262
360.306	1274
360.391	2196
360.475	4414
360.559	9844
360.644	4093
360.728	2474
360.812	6316
360.896	17705
360.981	7537
361.065	4805
361.149	1844
361.233	999
361.318	466
361.402	710
361.486	1234
361.570	420
361.654	1341
361.739	2103
361.823	9859
361.907	17721
361.991	3298
362.075	1047
362.159	1205
362.243	3752
362.327	739
362.411	3776
362.495	1254
362.580	1412
362.664	1139
362.748	426
362.832	1666
362.916	1815
363.000	5990
363.084	13064
363.168	18382
363.252	4390
363.336	2330
363.420	3152
363.503	15020
363.587	18017
363.671	3134
363.755	1974
363.839	3644
363.923	1116
364.007	2671
364.091	2700
364.175	5073
364.258	25405
364.342	13485
364.426	10359
364.510	4152
364.594	4870
364.677	5049
364.761	15374
364.845	11579
364.929	3260
365.013	2640
365.096	1682
365.180	1889
365.264	6856
365.347	25305
365.431	11573
365.515	3177
365.598	856
365.682	2738
365.766	2360
365.849	3812
365.933	1752
366.017	3290
366.100	2390
366.184	328
366.267	1990
366.351	1314
366.435	467
366.518	-227
366.602	1088
366.685	842
366.769	2161
366.852	2539
366.936	4449
367.019	826
367.103	2268
367.186	5656
367.270	1640
367.353	-414
367.436	1407
367.520	876
367.603	1587
367.687	885
367.770	1862
367.853	1305
367.937	6918
368.020	8695
368.104	1750
368.187	2071
368.270	2793
368.353	2042
368.437	2732
368.520	7006
368.603	3652
368.687	4948
368.770	9721
368.853	2340
368.936	3689
369.020	4526
369.103	1892
369.186	977
369.269	1101
369.352	917
369.436	2083
369.519	1935
369.602	184
369.685	2053
369.768	891
369.851	1334
369.934	785
370.018	536
370.101	508
370.184	3901
370.267	2267
370.350	2324
370.433	4026
370.516	9303
370.599	9553
370.682	913
370.765	6367
370.848	6880
370.931	11350
371.014	6023
371.097	753
371.180	1436
371.263	1606
371.346	-109
371.429	2305
371.511	991
371.594	2050
371.677	4161
371.760	6050
371.843	2380
371.926	12528
372.009	26921
372.091	10697
372.174	5661
372.257	14677
372.340	6171
372.423	5603
372.505	8750
372.588	2744
372.671	4182
372.754	10745
372.836	5553
372.919	8567
373.002	15819
373.085	4523
373.167	2765
373.250	4505
373.332	12574
373.415	17409
373.498	29519
373.580	11289
373.663	15613
373.746	20889
373.828	4388
373.911	3545
373.993	3164
374.076	15168
374.159	13533
374.241	4490
374.324	9816
374.406	7667
374.489	9350
374.571	28573
374.654	11374
374.736	5791
374.819	16891
374.901	24200
374.983	22089
375.066	5062
375.148	2308
375.231	12364
375.313	23375
375.395	8151
375.478	1481
375.560	1482
375.643	2070
375.725	4886
375.807	19136
375.890	17326
375.972	6125
376.054	4264
376.136	5727
376.219	3096
376.301	6409
376.383	15823
376.465	6240
376.548	2565
376.630	4543
376.712	13578
376.794	5781
376.877	1161
376.959	443
377.041	955
377.123	3868
377.205	5423
377.287	612
377.369	1095
377.452	946
377.534	713
377.616	333
377.698	630
377.780	-450
377.862	602
377.944	1930
378.026	671
378.108	348
378.190	990
378.272	1267
378.354	746
378.436	-429
378.518	1062
378.600	6253
378.682	4924
378.764	6094
378.846	5540
378.928	1174
379.010	1786
379.091	2034
379.173	1343
379.255	-534
379.337	1075
379.419	2971
379.501	9908
379.583	3868
379.664	1181
379.746	1305
379.828	7023
379.910	7405
379.991	7286
380.073	451
380.155	1492
380.237	-24
380.318	483
380.400	240
380.482	1959
380.564	1699
380.645	1507
380.727	1499
380.809	2484
380.890	219
380.972	519
381.053	549
381.135	1719
381.217	1361
381.298	7782
381.380	3714
381.461	3798
381.543	12780
381.624	15857
381.706	2911
381.787	2499
381.869	3003
381.951	6245
382.032	22707
382.113	16528
382.195	2543
382.276	4041
382.358	4033
382.439	12999
382.521	15527
382.602	22961
382.684	10573
382.765	17130
382.846	17272
382.928	21956
383.009	12315
383.090	10689
383.172	32668
383.253	44725
383.334	18061
383.416	20517
383.497	10512
383.578	4925
383.659	10187
383.741	31974
383.822	67699
383.903	34169
383.984	14233
384.066	23698
384.147	13450
384.228	4124
384.309	2335
384.390	2346
384.471	1667
384.553	1613
384.634	1874
384.715	2549
384.796	596
384.877	1639
384.958	6049
385.039	6952
385.120	2025
385.201	2819
385.282	2588
385.363	3154
385.444	1113
385.525	4106
385.606	11781
385.687	11020
385.768	2902
385.849	3203
385.930	13484
386.011	23447
386.092	5478
386.173	1858
386.254	1988
386.335	2320
386.416	1535
386.496	4610
386.577	6476
386.658	3543
386.739	1793
386.820	3136
386.901	1285
386.981	2212
387.062	625
387.143	667
387.224	5577
387.304	7122
387.385	2848
387.466	1335
387.547	3633
387.627	1634
387.708	2561
387.789	12987
387.869	15280
387.950	4762
388.031	890
388.111	528
388.192	5506
388.273	7584
388.353	3449
388.434	1992
388.514	2614
388.595	13326
388.676	16131
388.756	7291
388.837	5976
388.917	3474
388.998	244
389.078	2343
389.159	546
389.239	418
389.320	2566
389.400	-144
389.480	3883
389.561	8918
389.641	4833
389.722	1687
389.802	1892
389.883	4192
389.963	10777
390.043	7574
390.124	2420
390.204	2694
390.284	7371
390.365	4193
390.445	10038
390.525	17503
390.605	11363
390.686	3839
390.766	2904
390.846	1593
390.927	693
391.007	336
391.087	1948
391.167	628
391.247	190
391.328	2588
391.408	4736
391.488	3436
391.568	-671
391.648	1249
391.728	2347
391.808	1730
391.888	359
391.969	4945
392.049	7834
392.129	5417
392.209	3929
392.289	10850
392.369	6061
392.449	7493
392.529	4228
392.609	2490
392.689	3513
392.769	8760
392.849	7200
392.929	8343
393.009	16103
393.089	8870
393.169	5797
393.248	14980
393.328	63292
393.408	64303
393.488	15686
393.568	4569
393.648	2623
393.728	2026
393.807	537
393.887	3404
393.967	2473
394.047	3038
394.127	4119
394.206	10104
394.286	31569
394.366	96779
394.446	103949
394.525	36670
394.605	11391
394.685	8226
394.764	13566
394.844	18676
394.924	12445
395.003	3787
395.083	2185
395.163	2502
395.242	2191
395.322	2661
395.402	633
395.481	3888
395.561	7263
395.640	18925
395.720	14120
395.799	22099
395.879	19228
395.958	16759
396.038	47486
396.117	123708
396.197	132242
396.276	60353
396.356	22961
396.435	13803
396.515	8841
396.594	5253
396.673	6982
396.753	19373
396.832	58626
396.912	42353
396.991	9619
397.070	4624
397.150	512
397.229	2581
397.308	1537
397.388	3566
397.467	3203
397.546	1518
397.625	-488
397.705	2855
397.784	2098
397.863	1118
397.942	1036
398.022	1267
398.101	5762
398.180	18975
398.259	9187
398.338	3022
398.417	1064
398.497	990
398.576	1056
398.655	-347
398.734	665
398.813	1448
398.892	6342
398.971	18766
399.050	8896
399.129	1052
399.208	1497
399.287	2071
399.366	67
399.445	734
399.524	863
399.603	-742
399.682	1254
399.761	3557
399.840	19471
399.919	16189
399.998	2609
400.077	34
400.156	-242
400.235	2725
400.313	-297
400.392	-3
400.471	3398
400.550	3922
400.629	716
400.708	1551
400.786	509
400.865	5028
400.944	4584
401.023	2905
401.102	60
401.180	703
401.259	611
401.338	771
401.416	821
401.495	282
401.574	1244
401.652	163
401.731	1907
401.810	-197
401.888	554
401.967	96
402.046	32
402.124	2239
402.203	318
402.281	1463
402.360	912
402.438	7237
402.517	3458
402.596	1816
402.674	592
402.753	858
402.831	949
402.910	1023
402.988	541
403.066	5557
403.145	3991
403.223	3693
403.302	4864
403.380	4344
403.459	3462
403.537	1785
403.615	598
403.694	147
403.772	1134
403.850	289
403.929	367
404.007	849
404.085	1292
404.164	1587
404.242	3722
404.320	16136
404.398	47310
404.477	43428
404.555	29634
404.633	27247
404.711	36270
404.789	26796
404.868	5841
404.946	2114
405.024	1706
405.102	1463
405.180	384
405.258	-713
405.336	1129
405.415	399
405.493	2210
405.571	1449
405.649	-547
405.727	-825
405.805	1472
405.883	1008
405.961	1060
406.039	1284
406.117	160
406.195	1100
406.273	2451
406.351	13653
406.429	9417
406.507	2124
406.585	467
406.663	250
406.740	595
406.818	-472
406.896	217
406.974	1711
407.052	-601
407.130	7229
407.208	9928
407.285	2828
407.363	-637
407.441	375
407.519	-420
407.596	557
407.674	734
407.752	3978
407.830	5785
407.907	3000
407.985	-116
408.063	961
408.141	430
408.218	2187
408.296	-303
408.373	185
408.451	172
408.529	51
408.606	-492
408.684	184
408.762	-476
408.839	-120
408.917	-280
408.994	-283
409.072	-609
409.149	-471
409.227	791
409.304	566
409.382	130
409.459	-78
409.537	137
409.614	334
409.692	341
409.769	-310
409.846	-67
409.924	1811
410.001	-657
410.079	569
410.156	1454
410.233	1030
410.311	174
410.388	474
410.465	180
410.543	228
410.620	863
410.697	287
410.775	-1282
410.852	-977
410.929	321
411.006	639
411.083	784
411.161	1883
411.238	2336
411.315	1856
411.392	-686
411.469	1555
411.547	950
411.624	-664
411.701	-210
411.778	398
411.855	100
411.932	-441
412.009	-2
412.086	954
412.163	451
412.240	474
412.317	1108
412.394	327
412.471	65
412.548	-394
412.625	-335
412.702	245
412.779	1706
412.856	1182
412.933	-270
413.010	718
413.087	944
413.164	2229
413.241	3617
413.318	-164
413.395	682
413.471	122
413.548	331
413.625	797
413.702	-569
413.779	-140
413.855	-567
413.932	-572
414.009	-845
414.086	28
414.162	-236
414.239	1406
414.316	1921
414.393	6552
414.469	1293
414.546	-437
414.623	852
414.699	-332
414.776	141
414.853	323
414.929	402
415.006	-76
415.082	1066
415.159	-141
415.236	332
415.312	813
415.389	480
415.465	-407
415.542	-335
415.618	-487
415.695	-290
415.771	-381
415.848	-729
415.924	301
416.000	-286
416.077	670
416.153	-1222
416.230	-916
416.306	-195
416.383	-105
416.459	281
416.535	-273
416.612	-589
416.688	-203
416.764	-1148
416.841	-763
416.917	-725
416.993	37
417.069	-436
417.146	271
417.222	1215
417.298	1271
417.374	-922
417.451	136
417.527	-505
417.603	-387
417.679	20
417.755	319
417.831	-834
417.908	-400
417.984	-100
418.060	-921
418.136	346
418.212	-246
418.288	-139
418.364	-366
418.440	-456
418.516	596
418.592	971
418.668	1207
418.744	446
418.820	1152
418.896	239
418.972	-867
419.048	-362
419.124	1277
419.200	-1179
419.276	223
419.352	-1003
419.428	252
419.504	-978
419.579	416
419.655	-34
419.731	-353
419.807	853
419.883	1164
419.959	-41
420.034	16
420.110	1101
420.186	3745
420.262	3584
420.337	501
420.413	-185
420.489	-437
420.565	175
420.640	-753
420.716	163
420.792	-748
420.867	953
420.943	-583
421.019	143
421.094	-289
421.170	-436
421.245	-1045
421.321	347
421.397	-321
421.472	1502
421.548	1424
421.623	1223
421.699	907
421.774	270
421.850	-514
421.925	889
422.001	1152
422.076	795
422.152	603
422.227	1425
422.302	2842
422.378	3585
422.453	7473
422.529	21415
422.604	62942
422.679	107948
422.755	68342
422.830	23586
422.905	9356
422.981	3997
423.056	2915
423.131	2460
423.207	1511
423.282	369
423.357	1205
423.432	721
423.508	469
423.583	1133
423.658	1284
423.733	894
423.808	1096
423.883	304
423.959	561
424.034	-697
424.109	1234
424.184	-672
424.259	-353
424.334	-146
424.409	-437
424.484	-215
424.559	46
424.634	-554
424.709	193
424.784	175
424.859	-566
424.934	513
425.009	2057
425.084	3355
425.159	984
425.234	297
425.309	-1043
425.384	2370
425.459	5943
425.534	1535
425.609	-335
425.683	-1158
425.758	-1110
425.833	-1082
425.908	970
425.983	949
426.058	4235
426.132	1199
426.207	-46
426.282	1922
426.357	390
426.431	126
426.506	-98
426.581	-187
426.655	88
426.730	-316
426.805	-899
426.879	157
426.954	-18
427.029	-27
427.103	4176
427.178	12591
427.253	4705
427.327	152
427.402	1735
427.476	7926
427.551	3498
427.625	442
427.700	917
427.774	-990
427.849	771
427.923	-610
427.998	-457
428.072	-993
428.147	1568
428.221	3574
428.296	14144
428.370	6867
428.444	936
428.519	1508
428.593	4366
428.667	3697
428.742	4455
428.816	4544
428.890	12752
428.965	18751
429.039	7418
429.113	5570
429.188	2128
429.262	-366
429.336	-265
429.410	1847
429.485	2157
429.559	3698
429.633	2583
429.707	-11
429.781	2202
429.855	13266
429.930	19001
430.004	12194
430.078	22920
430.152	17995
430.226	20917
430.300	20496
430.374	2803
430.448	1187
430.522	6815
430.596	19439
430.670	11826
430.744	14607
430.818	20515
430.892	4409
430.966	-439
431.040	136
431.114	-429
431.188	-866
431.262	-232
431.336	-215
431.410	1998
431.484	4740
431.557	2852
431.631	-581
431.705	412
431.779	2521
431.853	12187
431.927	7773
432.000	-50
432.074	-577
432.148	741
432.222	665
432.295	-759
432.369	115
432.443	-20
432.516	5082
432.590	13622
432.664	5664
432.737	114
432.811	-732
432.885	-542
432.958	-33
433.032	-996
433.106	-409
433.179	-749
433.253	80
433.326	-574
433.400	-1056
433.473	-204
433.547	-1014
433.620	-31
433.694	-981
433.767	116
433.841	-554
433.914	146
433.988	-989
434.061	-295
434.134	-1082
434.208	-35
434.281	-745
434.355	-264
434.428	-445
434.501	-1104
434.575	-1016
434.648	-926
434.721	-298
434.795	-116
434.868	-375
434.941	-423
435.014	-1126
435.088	-634
435.161	-575
435.234	91
435.307	-598
435.381	-142
435.454	-234
435.527	-311
435.600	-178
435.673	-377
435.746	227
435.819	-980
435.892	-839
435.966	-508
436.039	-749
436.112	323
436.185	-1083
436.258	-863
436.331	-457
436.404	-798
436.477	-826
436.550	-127
436.623	-239
436.696	-809
436.769	-549
436.842	-627
436.915	103
436.987	75
437.060	-690
437.133	-663
437.206	-579
437.279	-293
437.352	-457
437.425	-470
437.498	1
437.570	263
437.643	-22
437.716	30
437.789	-824
437.861	344
437.934	2545
438.007	1091
438.080	-718
438.152	-32
438.225	380
438.298	6913
438.370	22207
438.443	11106
438.516	2171
438.588	-36
438.661	-614
438.734	-246
438.806	-1103
438.879	147
438.951	217
439.024	883
439.096	-889
439.169	-260
439.241	-431
439.314	-641
439.386	-348
439.459	1112
439.531	1266
439.604	-19
439.676	241
439.749	-3
439.821	-1252
439.893	-41
439.966	-208
440.038	-52
440.110	-121
440.183	-431
440.255	-483
440.327	461
440.400	2728
440.472	13431
440.544	9024
440.617	968
440.689	1363
440.761	1685
440.833	2343
440.905	1680
440.978	-781
441.050	-145
441.122	44
441.194	-137
441.266	-236
441.338	-271
441.411	54
441.483	2096
441.555	5010
441.627	1632
441.699	1461
441.771	1205
441.843	-318
441.915	-522
441.987	-722
442.059	-674
442.131	-114
442.203	354
442.275	1015
442.347	1613
442.419	1324
442.491	5161
442.563	12583
442.635	7738
442.706	5791
442.778	4692
442.850	200
442.922	-625
442.994	-74
443.066	966
443.137	182
443.209	-16
443.281	-62
443.353	2439
443.425	8601
443.496	25863
443.568	24516
443.640	9780
443.711	1859
443.783	-262
443.855	-44
443.926	-161
443.998	87
444.070	1018
444.141	475
444.213	714
444.285	659
444.356	195
444.428	355
444.499	-364
444.571	-1479
444.642	-374
444.714	-556
444.785	-278
444.857	1889
444.928	5077
445.000	3004
445.071	2633
445.143	3704
445.214	1415
445.285	2403
445.357	9892
445.428	20983
445.500	46400
445.571	31926
445.642	14806
445.714	6997
445.785	8721
445.856	1926
445.928	1064
445.999	906
446.070	1011
446.141	463
446.213	877
446.284	471
446.355	1053
446.426	-406
446.497	-603
446.569	1313
446.640	632
446.711	-158
446.782	-185
446.853	-315
446.924	700
446.995	-481
447.066	501
447.138	1235
447.209	557
447.280	-548
447.351	-645
447.422	-807
447.493	-73
447.564	512
447.635	-449
447.706	-824
447.777	-27
447.847	-255
447.918	-526
447.989	588
448.060	1488
448.131	4137
448.202	2840
448.273	918
448.344	694
448.414	-244
448.485	-72
448.556	-77
448.627	-554
448.698	894
448.768	-390
448.839	-342
448.910	786
448.981	1749
449.051	33
449.122	-574
449.193	-1150
449.263	-490
449.334	-833
449.405	201
449.475	1106
449.546	298
449.616	1755
449.687	1894
449.758	246
449.828	-83
449.899	185
449.969	-1135
450.040	-282
450.110	296
450.181	664
450.251	-483
450.322	-31
450.392	489
450.463	-116
450.533	-98
450.604	231
450.674	-253
450.744	123
450.815	-308
450.885	-27
450.955	-328
451.026	-384
451.096	-234
451.166	638
451.237	1463
451.307	6702
451.377	3555
451.447	-617
451.518	-806
451.588	-343
451.658	476
451.728	1223
451.799	6508
451.869	8761
451.939	2328
452.009	-599
452.079	-68
452.149	1130
452.219	1470
452.289	8389
452.360	6684
452.430	838
452.500	252
452.570	446
452.640	1136
452.710	4814
452.780	8240
452.850	4116
452.920	1632
452.990	1338
453.060	431
453.129	878
453.199	1364
453.269	8799
453.339	21405
453.409	34059
453.479	30366
453.549	46525
453.619	49348
453.688	22488
453.758	3592
453.828	1129
453.898	-221
453.968	730
454.037	376
454.087	712
454.107	846
454.168	489
454.177	430
454.247	402
454.249	384
454.316	-187
454.330	72
454.386	1022
454.411	2013
454.456	3539
454.492	5291
454.525	6865
454.574	3913
454.595	2648
454.655	1322
454.665	1125
454.734	175
454.736	237
454.804	1658
454.817	2815
454.873	7323
454.898	8214
454.943	9774
454.979	6205
455.013	2980
455.060	1943
455.082	1584
455.141	1408
455.152	1360
455.221	5851
455.222	5959
455.291	11626
455.303	11611
455.360	11205
455.384	14273
455.430	18796
455.465	15795
455.499	13200
455.546	9799
455.569	8132
455.627	6328
455.638	6059
455.707	1069
455.708	1072
455.777	188
455.789	330
455.846	1025
455.869	823
455.916	272
455.950	295
455.985	356
456.031	74
456.054	-25
456.112	587
456.124	703
456.193	982
456.193	972
456.262	949
456.274	1040
456.332	1503
456.355	1485
456.401	1221
456.436	1235
456.470	1172
456.516	379
456.540	141
456.597	-135
456.609	-246
456.678	-111
456.678	-117
456.747	-196
456.759	-238
456.817	-301
456.840	60
456.886	627
456.920	325
456.955	63
457.001	432
457.024	624
457.082	779
457.093	872
457.162	2095
457.163	2110
457.232	1317
457.243	1228
457.301	722
457.324	485
457.370	295
457.405	585
457.439	985
457.485	641
457.508	368
457.566	675
457.577	787
457.646	838
457.647	849
457.715	1274
457.727	1311
457.784	1509
457.808	1814
457.853	2191
457.889	2061
457.922	1937
457.969	2130
457.991	2256
458.050	2169
458.060	2215
458.129	3113
458.130	3146
458.198	3170
458.211	2957
458.267	2499
458.292	2122
458.336	1346
458.372	1114
458.405	1250
458.453	1517
458.474	1722
458.533	2795
458.543	2948
458.611	5327
458.614	5402
458.680	4684
458.694	3773
458.749	1753
458.775	1577
458.818	984
458.855	788
458.887	976
458.936	1167
458.955	1075
459.016	354
459.024	293
459.093	1187
459.097	1183
459.162	799
459.177	859
459.230	1367
459.257	1734
459.299	1887
459.338	1568
459.368	1620
459.418	1994
459.437	1919
459.499	1590
459.505	1597
459.574	1156
459.579	1143
459.643	634
459.659	603
459.711	831
459.740	824
459.780	800
459.820	1307
459.849	1667
459.900	1678
459.917	1601
459.981	1365
459.986	1352
460.054	1600
460.061	1614
460.123	1404
460.141	1399
460.191	1761
460.222	1644
460.260	1431
460.302	1504
460.328	1509
460.382	1527
460.397	1484
460.462	1213
460.465	1243
460.534	2321
460.543	2416
460.602	5290
460.623	6544
460.671	10129
460.703	14609
460.739	14670
460.783	12483
460.808	11685
460.864	3979
460.876	2960
460.944	1630
460.945	1615
461.013	1750
461.024	1735
461.081	1466
461.104	1541
461.150	1511
461.184	1540
461.218	1830
461.264	1610
461.286	1404
461.345	1174
461.355	1140
461.423	1683
461.425	1667
461.491	1207
461.505	1381
461.559	3477
461.585	4179
461.628	6546
461.665	9191
461.696	10015
461.745	12738
461.764	11661
461.825	4280
461.832	4190
461.901	2243
461.905	2269
461.969	1636
461.985	1582
462.037	2028
462.065	1975
462.105	1681
462.145	1976
462.173	3119
462.225	4901
462.241	5321
462.305	8115
462.310	7935
462.378	4643
462.385	4025
462.446	2418
462.465	2147
462.514	1977
462.545	2198
462.582	2066
462.625	1903
462.650	1939
462.705	1798
462.718	1769
462.785	2017
462.786	2030
462.854	2547
462.865	2680
462.922	3718
462.945	4149
462.990	3226
463.025	2263
463.058	2236
463.104	1921
463.126	1749
463.184	1953
463.194	2013
463.262	1827
463.264	1844
463.330	2603
463.344	2630
463.398	3135
463.424	3411
463.466	2322
463.504	1563
463.533	2002
463.583	2373
463.601	2272
463.663	2347
463.669	2436
463.737	3025
463.743	3097
463.805	5015
463.823	5659
463.873	9282
463.903	11575
463.940	11461
463.982	11651
464.008	10062
464.062	5291
464.076	4924
464.142	2567
464.144	2515
464.211	1435
464.221	1343
464.279	1985
464.301	2175
464.347	2591
464.381	2765
464.414	2696
464.461	2944
464.482	3130
464.540	3650
464.550	3618
464.617	2968
464.620	2944
464.685	3333
464.699	3380
464.753	3626
464.779	3889
464.820	4795
464.859	5739
464.888	5694
464.938	5327
464.956	5389
465.018	5438
465.023	5377
465.091	4665
465.098	4579
465.158	4090
465.177	4010
465.226	4117
465.257	4011
465.293	3760
465.336	3551
465.361	3686
465.416	4040
465.428	4682
465.495	8179
465.496	8213
465.563	11712
465.575	12406
465.631	14660
465.654	15693
465.698	10393
465.734	5371
465.765	4783
465.813	3850
465.833	3649
465.893	3541
465.900	3530
465.968	3309
465.972	3298
466.035	3187
466.052	3119
466.102	3369
466.131	3533
466.170	3466
466.210	3433
466.237	3410
466.290	3259
466.304	3376
466.369	3854
466.372	3841
466.439	3323
466.449	3239
466.506	4175
466.528	4528
466.573	6504
466.607	7981
466.641	11261
466.687	15836
466.708	16890
466.766	19870
466.775	18341
466.842	6523
466.845	5953
466.909	4379
466.925	4051
466.977	4188
467.004	4295
467.044	4750
467.083	5220
467.111	5461
467.163	5875
467.178	6051
467.242	6761
467.245	6756
467.312	6509
467.321	6470
467.379	6229
467.400	6130
467.446	6636
467.480	6991
467.559	6452
467.638	5937
467.717	6178
467.796	6326
467.875	5880
467.955	5392
468.034	10113
468.113	19746
468.192	27860
468.271	7479
468.350	5785
468.429	4932
468.508	5808
468.588	5505
468.667	5618
468.746	5515
468.825	5828
468.904	5193
468.983	6083
469.062	8534
469.141	9654
469.220	4534
469.299	5043
469.378	5628
469.456	7378
469.535	6502
469.614	6636
469.693	6684
469.772	8084
469.851	10220
469.930	6939
470.009	5342
470.088	5318
470.166	5204
470.245	5988
470.324	6296
470.403	5733
470.482	4757
470.560	5496
470.639	5047
470.718	6247
470.797	4636
470.875	6364
470.954	7211
471.033	8488
471.111	4802
471.190	5245
471.269	4045
471.347	4575
471.426	4334
471.505	5649
471.583	6262
471.662	6188
471.740	5552
471.819	5141
471.898	4905
471.976	5065
472.055	4888
472.133	5838
472.212	7017
472.290	6961
472.369	5184
472.447	5131
472.526	3996
472.604	5960
472.683	4292
472.761	4403
472.839	3948
472.918	4839
472.996	3925
473.075	5232
473.153	4235
473.231	4745
473.310	3851
473.388	5203
473.466	4655
473.545	5824
473.623	5905
473.701	4986
473.780	4283
473.858	4380
473.936	6256
474.014	4804
474.093	4202
474.171	7027
474.249	8657
474.327	6561
474.405	3905
474.484	4430
474.562	3562
474.640	4676
474.718	4456
474.796	4547
474.874	3964
474.952	2841
475.030	2837
475.108	3903
475.187	3328
475.265	4090
475.343	5302
475.421	5386
475.499	3793
475.577	4172
475.655	6042
475.733	10318
475.811	16590
475.889	15944
475.966	9541
476.044	4682
476.122	4110
476.200	5072
476.278	3971
476.356	4132
476.434	4680
476.512	4802
476.590	5786
476.667	4942
476.745	3954
476.823	5004
476.901	4963
476.979	4476
477.056	4011
477.134	5453
477.212	5201
477.290	5307
477.367	4098
477.445	3270
477.523	3628
477.601	3011
477.678	4205
477.756	5283
477.834	5162
477.911	4074
477.989	4437
478.066	3891
478.144	4718
478.222	3816
478.299	3734
478.377	3761
478.454	3602
478.532	4249
478.609	3801
478.687	4351
478.764	3429
478.842	4333
478.919	4367
478.997	3593
479.074	4011
479.152	3974
479.229	6323
479.307	3626
479.384	3853
479.461	3470
479.539	3611
479.616	4470
479.694	3336
479.771	4998
479.848	3420
479.926	5028
480.003	6619
480.080	4178
480.157	3512
480.235	3692
480.312	3050
480.389	3342
480.467	6328
480.544	7689
480.621	4686
480.698	3899
480.775	4248
480.853	4904
480.930	3898
481.007	3632
481.084	3673
481.161	5220
481.238	4765
481.315	3966
481.392	3190
481.470	3838
481.547	3920
481.624	2735
481.701	2551
481.778	4141
481.855	3656
481.932	6132
482.009	9482
482.086	5633
482.163	3652
482.240	3686
482.317	3990
482.393	3668
482.470	3589
482.547	4127
482.624	2907
482.701	4309
482.778	2399
482.855	3349
482.932	3191
483.009	1968
483.085	3804
483.162	3184
483.239	3950
483.316	2298
483.393	3167
483.469	3856
483.546	2895
483.623	4406
483.699	3329
483.776	3178
483.853	4172
483.930	6065
484.006	14655
484.083	25953
484.160	15801
484.236	24028
484.313	17585
484.389	13305
484.466	12838
484.543	11367
484.619	10854
484.696	12362
484.772	11309
484.849	12508
484.925	10274
485.002	10821
485.078	10715
485.155	10643
485.231	10777
485.308	10870
485.384	11085
485.461	12802
485.537	17534
485.614	21581
485.690	8951
485.766	9504
485.843	9410
485.919	9416
485.995	9744
486.072	9413
486.148	9192
486.224	9627
486.301	9381
486.377	9635
486.453	9488
486.530	11215
486.606	14906
486.682	15343
486.758	16957
486.835	18068
486.911	13592
486.987	20798
487.063	16236
487.139	14162
487.215	11830
487.292	11299
487.368	8927
487.444	9923
487.520	10295
487.596	9470
487.672	11094
487.748	15408
487.824	17566
487.900	11152
487.976	9628
488.052	9904
488.128	11133
488.204	8647
488.280	9285
488.356	10372
488.432	18744
488.508	26445
488.584	8755
488.660	8138
488.736	7674
488.812	7653
488.888	10264
488.964	10982
489.039	11217
489.115	16414
489.191	12590
489.267	8092
489.343	8027
489.418	7574
489.494	7516
489.570	6701
489.646	8344
489.722	7437
489.797	7175
489.873	11394
489.949	20235
490.024	17024
490.100	6475
490.176	7491
490.251	6057
490.327	7417
490.403	6445
490.478	6673
490.554	5858
490.629	6387
490.705	6390
490.781	6721
490.856	4964
490.932	7068
491.007	5891
491.083	5249
491.158	6198
491.234	8519
491.309	16182
491.385	14470
491.460	5990
491.536	6787
491.611	5378
491.686	5962
491.762	6975
491.837	9169
491.913	12015
491.988	16457
492.063	15588
492.139	10435
492.214	6589
492.289	5655
492.365	4567
492.440	5634
492.515	5117
492.590	5821
492.666	4592
492.741	6786
492.816	9474
492.891	5327
492.967	5549
493.042	4731
493.117	4741
493.192	5838
493.267	10874
493.342	33369
493.418	41284
493.493	6878
493.568	3943
493.643	4205
493.718	4785
493.793	6653
493.868	6562
493.943	4132
494.018	5712
494.093	4644
494.168	4238
494.243	2923
494.318	4026
494.393	3992
494.468	2707
494.543	3664
494.618	3567
494.693	3872
494.768	4402
494.842	4096
494.917	3177
494.992	3041
495.067	4168
495.142	3597
495.217	3514
495.292	3868
495.366	3525
495.441	4637
495.516	6359
495.591	6032
495.665	13961
495.740	24965
495.815	10994
495.890	5668
495.964	3228
496.039	6783
496.114	4968
496.188	4883
496.263	4447
496.338	4810
496.412	5926
496.487	6322
496.561	5329
496.636	6152
496.710	5716
496.785	5519
496.860	6419
496.934	5049
497.009	4768
497.083	3990
497.158	5221
497.232	6218
497.307	5724
497.381	5949
497.455	5974
497.530	8588
497.604	5659
497.679	6150
497.753	9486
497.827	10596
497.902	8038
497.976	11455
498.050	35821
498.125	137168
498.199	111109
498.273	10209
498.348	5694
498.422	6291
498.496	6467
498.570	6056
498.645	5431
498.719	5650
498.793	7006
498.867	12307
498.941	17116
499.016	57453
499.090	141308
499.164	35585
499.238	5504
499.312	4997
499.386	6282
499.460	5914
499.534	5876
499.609	6396
499.683	10141
499.757	11055
499.831	25890
499.905	96383
499.979	75344
500.053	11433
500.127	10402
500.201	5715
500.275	6032
500.349	5916
500.422	6762
500.496	8167
500.570	14838
500.644	49666
500.718	87911
500.792	15784
500.866	6275
500.940	8244
501.013	7083
501.087	5707
501.161	7719
501.235	11387
501.309	33373
501.382	83212
501.456	60556
501.530	14719
501.603	25745
501.677	9356
501.751	3239
501.825	6802
501.898	12357
501.972	33661
502.046	17011
502.119	5770
502.193	15042
502.266	34735
502.340	14944
502.413	16323
502.487	28509
502.561	14092
502.634	4979
502.708	4405
502.781	2385
502.855	3713
502.928	2464
503.002	3660
503.075	2963
503.149	4537
503.222	3455
503.295	4085
503.369	6304
503.442	7442
503.516	25371
503.589	59369
503.662	31765
503.736	12376
503.809	27827
503.882	19833
503.956	32742
504.029	22578
504.102	8390
504.175	8921
504.249	3978
504.322	4827
504.395	5099
504.468	3075
504.542	3847
504.615	2436
504.688	3020
504.761	1438
504.834	3899
504.907	3703
504.980	4207
505.053	3638
505.127	968
505.200	6398
505.273	4707
505.346	3506
505.419	2400
505.492	4137
505.565	2538
505.638	3514
505.711	2167
505.784	2268
505.857	1926
505.930	4084
506.003	1942
506.076	4392
506.149	3952
506.221	2832
506.294	6085
506.367	12856
506.440	43819
506.513	18578
506.586	4273
506.659	2078
506.731	2843
506.804	2576
506.877	3181
506.950	3061
507.022	2572
507.095	3017
507.168	3104
507.241	3135
507.313	1762
507.386	1997
507.459	2924
507.531	2516
507.604	1322
507.677	3357
507.749	632
507.822	4139
507.894	6465
507.967	9551
508.040	4411
508.112	5134
508.185	4069
508.257	3308
508.330	5943
508.402	4258
508.475	3137
508.547	4619
508.620	4442
508.692	6679
508.765	4027
508.837	3156
508.909	3711
508.982	3282
509.054	3807
509.127	2675
509.199	3747
509.271	2514
509.344	2800
509.416	4078
509.488	3506
509.560	3874
509.633	3044
509.705	4556
509.777	3606
509.849	5026
509.922	3423
509.994	4464
510.066	5157
510.138	4349
510.210	10222
510.283	8299
510.355	7762
510.427	5837
510.499	5718
510.571	4918
510.643	4649
510.715	6853
510.787	3791
510.859	6656
510.931	5187
511.003	4788
511.076	5894
511.148	4969
511.219	4306
511.291	7983
511.363	8698
511.435	5271
511.507	3535
511.579	5461
511.651	5065
511.723	3985
511.795	3714
511.867	4715
511.939	5313
512.010	8804
512.082	6615
512.154	3061
512.226	4396
512.298	8152
512.369	8995
512.441	7654
512.513	6718
512.585	4232
512.656	5662
512.728	4845
512.800	4054
512.871	5826
512.943	5105
513.015	3150
513.086	5360
513.158	4292
513.230	3882
513.301	4981
513.373	4791
513.444	4255
513.516	3848
513.588	3941
513.659	4522
513.731	4053
513.802	3520
513.874	6958
513.945	5738
514.016	3589
514.088	3846
514.159	3482
514.231	5344
514.302	6862
514.374	6412
514.445	5271
514.516	11492
514.588	6739
514.659	4936
514.730	8910
514.802	6628
514.873	3260
514.944	5987
515.016	4904
515.087	4753
515.158	6417
515.229	9171
515.301	3606
515.372	4653
515.443	3457
515.514	3801
515.585	2192
515.656	4400
515.728	4895
515.799	3089
515.870	4177
515.941	4062
516.012	3514
516.083	6206
516.154	4142
516.225	6945
516.296	6435
516.367	4341
516.438	5517
516.509	5215
516.580	7751
516.651	18803
516.722	51363
516.793	20065
516.864	8972
516.935	7814
517.006	10133
517.077	10767
517.148	21226
517.219	69563
517.289	90549
517.360	46415
517.431	16074
517.502	5239
517.573	6362
517.643	6685
517.714	6295
517.785	7193
517.856	5984
517.926	8797
517.997	8967
518.068	7288
518.138	11205
518.209	13096
518.280	47409
518.350	156558
518.421	42340
518.492	9329
518.562	7413
518.633	6757
518.703	4701
518.774	8712
518.845	11975
518.915	10043
518.986	6306
519.056	7040
519.127	8830
519.197	14997
519.268	44127
519.338	26381
519.408	7098
519.479	6202
519.549	5489
519.620	5326
519.690	4689
519.760	4687
519.831	4290
519.901	3229
519.971	4593
520.042	4734
520.112	4372
520.182	5059
520.253	4895
520.323	4365
520.393	6111
520.463	9574
520.534	4569
520.604	12699
520.674	7054
520.744	5885
520.814	11270
520.885	10543
520.955	17638
521.025	54337
521.095	16635
521.165	5404
521.235	3104
521.305	3448
521.375	3545
521.445	4284
521.515	3027
521.585	5414
521.655	2822
521.725	4888
521.795	5290
521.865	1563
521.935	7637
522.005	4391
522.075	3443
522.145	5014
522.215	3729
522.285	5964
522.355	8428
522.424	13805
522.494	9768
522.564	4881
522.634	6091
522.704	12416
522.774	5164
522.843	4319
522.913	2904
522.983	2756
523.053	2316
523.122	3635
523.192	2633
523.262	6923
523.331	4735
523.401	4415
523.471	2476
523.540	3349
523.610	2025
523.680	2641
523.749	3687
523.819	4095
523.888	3363
523.958	3812
524.027	2913
524.097	4061
524.166	2909
524.236	1664
524.305	4450
524.375	2550
524.444	2191
524.514	4264
524.583	2822
524.653	3027
524.722	4056
524.791	1455
524.861	3881
524.930	1544
524.999	2128
525.069	4248
525.138	4021
525.207	3531
525.277	4447
525.346	2892
525.415	3215
525.484	2349
525.554	3841
525.623	3488
525.692	1952
525.761	2455
525.830	2968
525.900	2619
525.969	4212
526.038	5306
526.107	5267
526.176	16390
526.245	11021
526.314	5921
526.383	11489
526.452	9264
526.522	20616
526.591	19717
526.660	6528
526.729	3531
526.797	6178
526.867	9515
526.935	37181
527.004	46032
527.073	20538
527.142	2957
527.211	3262
527.280	3532
527.349	3147
527.418	863
527.487	3676
527.555	1206
527.624	2371
527.693	1166
527.762	3044
527.831	1612
527.899	2928
527.968	2195
528.037	676
528.106	2150
528.174	3897
528.243	4307
528.312	4944
528.380	4693
528.449	2407
528.518	2790
528.586	186
528.655	2802
528.723	2237
528.792	1312
528.861	1845
528.929	661
528.998	2433
529.066	1693
529.135	2965
529.203	1980
529.272	1387
529.340	3793
529.409	4705
529.477	1941
529.545	2565
529.614	5160
529.682	3803
529.751	4649
529.819	6843
529.887	4160
529.956	3385
530.024	3736
530.092	2002
530.161	4159
530.229	3302
530.297	2372
530.365	3898
530.434	3826
530.502	2730
530.570	3450
530.638	2301
530.707	2863
530.775	4781
530.843	3136
530.911	3200
530.979	3140
531.047	3587
531.115	3635
531.183	2873
531.252	3956
531.320	2762
531.388	1571
531.456	3949
531.524	1673
531.592	4205
531.660	5378
531.728	2277
531.796	2692
531.864	4074
531.932	4066
532.000	3731
532.067	2810
532.135	4224
532.203	4877
532.271	3408
532.339	5925
532.407	8356
532.475	4939
532.542	4126
532.610	3855
532.678	4038
532.746	12565
532.814	22834
532.881	7120
532.949	4910
533.017	3509
533.084	3775
533.152	4111
533.220	3481
533.287	2447
533.355	3377
533.423	2959
533.490	2838
533.558	3318
533.625	2805
533.693	3766
533.761	3691
533.828	4109
533.896	3230
533.963	7033
534.031	7258
534.098	7389
534.166	5180
534.233	4027
534.300	6348
534.368	5136
534.435	3390
534.503	4325
534.570	4030
534.637	2427
534.705	4303
534.772	3436
534.840	3801
534.907	8836
534.974	9378
535.041	3985
535.109	4977
535.176	2554
535.243	3346
535.310	3102
535.378	2693
535.445	3284
535.512	2812
535.579	3949
535.646	1850
535.714	3071
535.781	5102
535.848	4566
535.915	6172
535.982	5249
536.049	5301
536.116	5983
536.183	4871
536.250	3400
536.317	2183
536.384	3471
536.451	4267
536.518	3726
536.585	1824
536.652	4094
536.719	4284
536.786	1863
536.853	3434
536.920	4778
536.987	5111
537.053	2916
537.120	12905
537.187	9181
537.254	3106
537.321	1902
537.388	3258
537.454	2441
537.521	2758
537.588	2279
537.654	3701
537.721	3429
537.788	3843
537.855	2348
537.921	2566
537.988	2447
538.055	4168
538.121	1337
538.188	2835
538.254	3483
538.321	5039
538.388	3520
538.454	2463
538.521	2738
538.587	2370
538.654	2234
538.720	2829
538.787	3033
538.853	3072
538.920	3257
538.986	3671
539.053	2881
539.119	3151
539.185	1741
539.252	3747
539.318	1907
539.385	4718
539.451	2348
539.517	3701
539.583	4493
539.650	5323
539.716	10023
539.782	3567
539.849	1533
539.915	3191
539.981	2403
540.047	2869
540.114	2905
540.180	3948
540.246	2093
540.312	2707
540.378	3870
540.444	5581
540.510	4791
540.576	9897
540.643	3308
540.709	2239
540.775	2656
540.841	2882
540.907	4909
540.973	6653
541.039	4327
541.105	3454
541.171	2604
541.237	1423
541.303	3386
541.369	5309
541.435	3306
541.500	4373
541.566	1790
541.632	2658
541.698	2278
541.764	3467
541.830	2034
541.896	1893
541.961	3094
542.027	1606
542.093	1875
542.159	2883
542.224	1923
542.290	4647
542.356	3862
542.421	4720
542.487	4315
542.553	2814
542.618	3635
542.684	2401
542.750	2508
542.815	4048
542.881	3535
542.947	9028
543.012	6595
543.078	2343
543.143	2343
543.209	3410
543.274	1836
543.340	3050
543.405	4549
543.471	5279
543.536	2454
543.602	3064
543.667	391
543.732	3799
543.798	2031
543.863	3320
543.928	2598
543.994	1743
544.059	2619
544.124	3145
544.190	1824
544.255	2888
544.320	3308
544.386	2679
544.451	3101
544.516	3453
544.581	3419
544.646	7128
544.712	8957
544.777	3156
544.842	4425
544.907	3770
544.972	3522
545.037	3682
545.102	4536
545.168	3696
545.233	4837
545.298	5402
545.363	3969
545.428	5537
545.493	6011
545.558	7506
545.623	5259
545.688	2760
545.753	4631
545.818	3490
545.883	4437
545.947	3304
546.012	4090
546.077	3524
546.142	4954
546.207	3138
546.272	4541
546.337	3952
546.401	4502
546.466	3928
546.531	3650
546.596	4417
546.661	4321
546.725	4361
546.790	2441
546.855	4371
546.919	3287
546.984	4616
547.049	4182
547.113	5436
547.178	4597
547.243	5012
547.307	6095
547.372	6538
547.436	5722
547.501	5180
547.565	6152
547.630	6211
547.695	6031
547.759	7107
547.823	6174
547.888	6498
547.952	5452
548.017	7442
548.081	6275
548.146	7756
548.210	6598
548.274	6215
548.339	4942
548.403	5596
548.468	5153
548.532	4256
548.596	5833
548.660	5601
548.725	6057
548.789	6650
548.853	7750
548.917	5934
548.982	7612
549.046	6964
549.110	4987
549.174	4576
549.238	5679
549.303	5108
549.367	7251
549.431	5411
549.495	5851
549.559	6163
549.623	7034
549.687	6787
549.751	7398
549.815	6547
549.879	8110
549.943	6759
550.007	8125
550.071	8015
550.135	7679
550.199	6174
550.263	8081
550.327	7920
550.391	8868
550.455	7493
550.519	7915
550.582	8189
550.646	8523
550.710	9022
550.774	8087
550.838	9499
550.901	7993
550.965	8731
551.029	8541
551.093	11291
551.156	12191
551.220	18582
551.284	17803
551.347	12082
551.411	20560
551.475	19252
551.538	9744
551.602	8768
551.666	8196
551.729	7312
551.793	9046
551.856	8693
551.920	7785
551.983	8234
552.047	7806
552.110	8066
552.174	7358
552.237	8221
552.301	7517
552.364	7627
552.428	7206
552.491	7193
552.554	7906
552.618	7960
552.681	8218
552.745	7688
552.808	9748
552.871	10404
552.934	9562
552.998	7021
553.061	8752
553.124	8129
553.187	8644
553.251	8488
553.314	9307
553.377	9797
553.440	13807
553.503	31536
553.567	44614
553.630	13214
553.693	9867
553.756	8454
553.819	8975
553.882	8337
553.945	9001
554.008	7819
554.071	8005
554.134	8991
554.197	7822
554.260	8367
554.323	9324
554.386	8650
554.449	8638
554.512	9210
554.575	6969
554.638	8705
554.701	7924
554.764	7420
554.827	8635
554.889	7396
554.952	7249
555.015	7464
555.078	7229
555.141	7809
555.203	7707
555.266	7691
555.329	7545
555.391	7711
555.454	6592
555.517	6691
555.580	7217
555.642	6297
555.705	5843
555.768	7027
555.830	7263
555.893	5415
555.955	6037
556.018	5142
556.080	6536
556.143	6906
556.206	5396
556.268	7217
556.330	6243
556.393	6500
556.455	6015
556.518	8219
556.580	7161
556.643	5893
556.705	5668
556.767	4677
556.830	4509
556.892	5483
556.955	5190
557.017	4710
557.079	4984
557.142	4945
557.204	4174
557.266	6727
557.328	5942
557.391	4828
557.453	4207
557.515	4824
557.577	4516
557.639	5484
557.701	4075
557.764	4163
557.826	4306
557.888	5505
557.950	4309
558.012	5465
558.074	5419
558.136	9017
558.198	14444
558.260	7740
558.322	3813
558.384	5400
558.446	5473
558.508	5630
558.570	6592
558.632	7466
558.694	10519
558.756	13673
558.818	33232
558.880	67521
558.942	20376
559.003	14656
559.065	8951
559.127	5146
559.189	5882
559.251	6497
559.312	9086
559.374	17344
559.436	42378
559.498	20849
559.559	5479
559.621	5772
559.683	7594
559.744	11817
559.806	24777
559.868	29660
559.929	7994
559.991	7644
560.052	8147
560.114	16162
560.176	9904
560.237	10543
560.299	13457
560.360	5303
560.422	5092
560.483	4919
560.545	4970
560.606	4695
560.667	3912
560.729	4799
560.790	4789
560.852	5066
560.913	4319
560.974	4381
561.036	4695
561.097	4729
561.158	4307
561.220	4941
561.281	3945
561.342	4344
561.403	4543
561.465	4991
561.526	7070
561.587	8729
561.648	4689
561.709	4550
561.771	4083
561.832	3853
561.893	3817
561.954	4312
562.015	4837
562.076	4796
562.137	4246
562.198	4381
562.259	4214
562.320	4031
562.381	4517
562.442	5095
562.503	4938
562.564	5085
562.625	4678
562.686	4138
562.747	3990
562.808	5023
562.869	4524
562.930	6575
562.991	5382
563.051	5079
563.112	4528
563.173	5425
563.234	3277
563.294	4906
563.355	4440
563.416	4860
563.477	3972
563.537	4501
563.598	4608
563.659	5136
563.720	5358
563.780	4708
563.841	5129
563.901	5295
563.962	5671
564.023	4965
564.083	5167
564.144	4934
564.204	4556
564.265	5708
564.325	5313
564.386	10454
564.446	9445
564.507	3978
564.567	4278
564.628	5229
564.688	4521
564.749	4510
564.809	4924
564.869	6124
564.930	4098
564.990	5529
565.050	4101
565.111	3821
565.171	4775
565.231	4266
565.292	5121
565.352	4245
565.412	4700
565.472	4422
565.532	3231
565.593	4124
565.653	4875
565.713	3943
565.773	4747
565.833	4306
565.893	5322
565.953	4363
566.013	4249
566.074	5691
566.134	6743
566.194	9522
566.254	8684
566.314	6260
566.374	4469
566.434	4910
566.494	5352
566.554	5044
566.614	3700
566.673	5261
566.733	5116
566.793	5356
566.853	5318
566.913	5571
566.973	5137
567.033	5045
567.092	5241
567.152	5102
567.212	5181
567.272	5405
567.331	6045
567.391	5718
567.451	5812
567.511	6558
567.570	7291
567.630	4926
567.690	4599
567.749	5375
567.809	4966
567.868	5690
567.928	4430
567.988	5894
568.047	4816
568.107	5735
568.166	4885
568.226	5540
568.285	6727
568.345	4812
568.404	6046
568.464	5720
568.523	5082
568.582	5949
568.642	4923
568.701	7130
568.761	6507
568.820	7994
568.879	7577
568.939	8033
568.998	6337
569.057	5623
569.116	5778
569.176	5664
569.235	4259
569.294	4179
569.353	4648
569.413	6044
569.472	4387
569.531	5391
569.590	4224
569.649	4886
569.708	3442
569.767	4842
569.827	5182
569.886	5148
569.945	4081
570.004	4595
570.063	4866
570.122	4368
570.181	5311
570.240	5375
570.299	5629
570.358	5665
570.417	3889
570.475	3866
570.534	4734
570.593	4774
570.652	4538
570.711	4412
570.770	4156
570.829	4914
570.887	3800
570.946	5314
571.005	4273
571.064	4971
571.122	4810
571.181	5181
571.240	4881
571.299	4460
571.357	5040
571.416	5086
571.475	5278
571.533	6126
571.592	4785
571.650	4663
571.709	3242
571.768	4314
571.826	4925
571.885	4068
571.943	5116
572.002	4651
572.060	5534
572.119	4643
572.177	4498
572.236	3849
572.294	3467
572.352	5016
572.411	3312
572.469	4269
572.528	4526
572.586	5125
572.644	4467
572.703	5668
572.761	4750
572.819	4393
572.877	4599
572.936	4256
572.994	4076
573.052	4774
573.110	3752
573.169	4241
573.227	2892
573.285	4435
573.343	4118
573.401	4080
573.459	3861
573.517	4976
573.576	3714
573.634	4853
573.692	4455
573.750	4497
573.808	4656
573.866	4616
573.924	5088
573.982	5361
574.040	4107
574.098	4661
574.155	3747
574.213	3905
574.271	3593
574.329	3620
574.387	3548
574.445	3622
574.503	3410
574.560	2524
574.618	3601
574.676	2869
574.734	3056
574.792	3757
574.849	2974
574.907	3211
574.965	3063
575.022	3212
575.080	2995
575.138	4092
575.195	3273
575.253	3976
575.311	3487
575.368	3738
575.426	2750
575.483	4427
575.541	3738
575.598	4304
575.656	3933
575.713	4210
575.771	3692
575.828	3175
575.886	3863
575.943	4866
576.001	3700
576.058	3897
576.115	4605
576.173	5392
576.230	5096
576.287	5023
576.345	4480
576.402	4614
576.459	4699
576.517	4548
576.574	5245
576.631	4278
576.688	4192
576.746	3633
576.803	3928
576.860	4969
576.917	5074
576.974	5103
577.031	3758
577.089	5057
577.146	4119
577.203	4113
577.260	5051
577.317	4891
577.374	5113
577.431	4987
577.488	4043
577.545	4283
577.602	4522
577.659	4981
577.716	5502
577.773	5703
577.830	4909
577.886	5196
577.943	5090
578.000	5039
578.057	6558
578.114	6614
578.171	8271
578.227	11208
578.284	10577
578.341	9520
578.398	7848
578.454	7470
578.511	7062
578.568	6809
578.625	5488
578.681	5231
578.738	4678
578.794	5133
578.851	4359
578.908	4073
578.964	4047
579.021	5230
579.077	4070
579.134	4925
579.190	3609
579.247	4735
579.303	4716
579.360	3717
579.416	4340
579.473	4443
579.529	3807
579.586	5062
579.642	4534
579.698	4612
579.755	5364
579.811	5206
579.867	5600
579.924	5814
579.980	6429
580.036	8460
580.093	10888
580.149	16746
580.205	18944
580.261	14766
580.317	11713
580.374	10147
580.430	9359
580.486	8162
580.542	6165
580.598	7015
580.619	6752
580.654	6279
580.692	6459
580.710	6530
580.765	5476
580.767	5429
580.823	5878
580.838	5709
580.879	5209
580.911	5080
580.935	4970
580.984	5310
580.991	5350
581.047	6581
581.057	6658
581.103	6895
581.130	7404
581.159	7935
581.203	7955
581.215	7907
581.270	9225
581.276	9138
581.326	8098
581.349	8020
581.382	7877
581.422	6874
581.438	6422
581.494	6762
581.494	6775
581.550	6315
581.567	6678
581.606	7469
581.640	7037
581.661	6740
581.713	7657
581.717	7726
581.773	6256
581.786	6467
581.829	6962
581.859	7248
581.885	7497
581.932	7462
581.940	7448
581.996	7318
582.004	7319
582.052	7175
582.077	7498
582.107	7850
582.150	7763
582.163	7723
582.219	8368
582.223	8383
582.274	8516
582.296	8123
582.330	7410
582.368	8436
582.386	8921
582.441	8669
582.441	8658
582.497	8789
582.514	8960
582.552	9527
582.587	10226
582.608	10463
582.659	9293
582.663	9193
582.719	10402
582.732	10310
582.774	10149
582.805	10292
582.830	10378
582.877	11140
582.885	11310
582.941	11140
582.950	11418
582.996	12941
583.023	13620
583.052	14667
583.095	16537
583.107	17102
583.162	20309
583.168	20621
583.218	22517
583.240	22492
583.273	21334
583.313	19442
583.328	18855
583.384	17162
583.385	17125
583.439	15942
583.458	15754
583.494	15715
583.531	14732
583.549	14289
583.603	13739
583.605	13717
583.660	13891
583.676	13795
583.715	14043
583.748	14102
583.770	13991
583.820	14018
583.825	14042
583.881	13861
583.893	13760
583.936	13723
583.965	13928
583.991	13978
584.038	13824
584.046	13800
584.101	13750
584.110	13702
584.156	13947
584.183	14285
584.211	14523
584.255	15120
584.266	15247
584.321	14108
584.328	14154
584.376	15230
584.400	15187
584.431	15098
584.472	15273
584.486	15283
584.541	15851
584.545	15885
584.596	16795
584.617	16395
584.651	16382
584.689	17791
584.706	18254
584.761	18479
584.762	18449
584.816	18296
584.834	18514
584.871	18837
584.906	18727
584.926	18858
584.978	18968
584.980	19007
585.035	19904
585.051	19823
585.090	19965
585.123	20862
585.145	21423
585.195	21262
585.200	21310
585.254	22548
585.267	22827
585.309	24423
585.340	25439
585.364	25844
585.412	25839
585.419	25905
585.473	25565
585.484	25602
585.528	27370
585.556	29159
585.583	33076
585.628	41657
585.637	45348
585.692	68767
585.700	73066
585.747	91898
585.772	91725
585.801	71529
585.845	43345
585.856	40006
585.910	29164
585.917	27950
585.965	27054
585.989	26924
586.019	27389
586.061	27088
586.074	27072
586.128	27270
586.133	27224
586.183	27580
586.205	27750
586.237	28640
586.277	28831
586.292	28776
586.346	28293
586.349	28259
586.401	28814
586.421	28609
586.455	29411
586.493	30639
586.509	32607
586.564	38244
586.565	38370
586.618	52013
586.637	54329
586.672	46676
586.709	36637
586.727	34084
586.781	30912
586.781	31005
586.835	29838
586.853	29553
586.889	29794
586.925	29450
586.944	29559
586.996	30677
586.998	30806
587.052	31152
587.068	31241
587.106	31628
587.140	31471
587.161	31852
587.212	33174
587.215	33387
587.269	34820
587.284	35083
587.323	34980
587.356	34768
587.377	35169
587.427	36336
587.431	36551
587.485	37251
587.499	37335
587.539	37734
587.571	38057
587.593	39088
587.643	40556
587.648	40780
587.702	41178
587.715	41359
587.755	43039
587.786	43855
587.810	44638
587.858	45860
587.864	46237
587.917	48349
587.930	48695
587.971	51652
588.001	53552
588.025	54939
588.073	56763
588.079	57363
588.133	60696
588.145	61568
588.187	66779
588.217	69283
588.241	72775
588.288	79599
588.295	81116
588.348	91585
588.360	93509
588.402	103135
588.431	109185
588.456	116667
588.503	130738
588.510	134073
588.564	157347
588.575	161869
588.617	189698
588.646	208355
588.671	236668
588.718	290002
588.725	308748
588.778	452733
588.789	482186
588.832	733155
588.861	906963
588.886	1103572
588.932	1489107
588.939	1502800
588.993	1531542
589.004	1513041
589.047	1248172
589.075	1070087
589.100	867737
589.147	505190
589.154	488590
589.207	350812
589.218	321587
589.261	298329
589.290	281582
589.314	295673
589.361	322994
589.368	341900
589.421	491605
589.433	523256
589.475	830843
589.504	1050191
589.528	1205017
589.576	1496869
589.582	1474056
589.635	1140906
589.647	1064369
589.689	678185
589.718	413716
589.742	347635
589.790	215474
589.795	211729
589.849	168662
589.861	158330
589.902	146728
589.932	136174
589.955	125279
590.004	100397
590.009	99865
590.062	90559
590.075	87808
590.115	83001
590.146	78912
590.168	77673
590.218	73190
590.222	73359
590.275	71773
590.289	71084
590.328	69841
590.360	68032
590.381	67756
590.431	66090
590.435	66354
590.488	65715
590.503	65300
590.541	64282
590.574	62884
590.594	62833
590.645	61673
590.647	61946
590.700	61644
590.716	61276
590.753	60227
590.787	58619
590.806	58884
590.859	58957
590.859	59216
590.912	58217
590.930	57696
590.965	58268
591.001	58228
591.018	58190
591.071	57491
591.072	57218
591.124	58071
591.143	58012
591.177	58641
591.214	58898
591.230	59466
591.283	60348
591.285	60099
591.336	59426
591.356	58774
591.389	58787
591.427	58181
591.442	58235
591.495	57570
591.498	57241
591.547	56638
591.569	56011
591.600	56542
591.640	56590
591.653	57149
591.706	58405
591.711	58266
591.759	60160
591.782	60693
591.811	62896
591.853	65436
591.864	64918
591.917	60656
591.924	59762
591.969	61081
591.995	61379
592.022	61114
592.066	59883
592.075	60825
592.127	64891
592.137	65357
592.180	69699
592.208	71935
592.233	69269
592.279	63205
592.285	63296
592.338	61606
592.350	60918
592.390	60909
592.421	60411
592.443	60828
592.491	60781
592.495	61180
592.548	62596
592.562	62682
592.600	62618
592.633	62017
592.653	62110
592.704	61231
592.705	61595
592.775	62030
592.846	62628
592.916	61509
592.987	61408
593.058	60807
593.128	61835
593.199	61630
593.270	60474
593.341	59552
593.411	60962
593.482	60793
593.553	60985
593.623	59836
593.694	61168
593.764	64005
593.835	61662
593.906	61144
593.976	60319
594.047	61983
594.117	68182
594.188	68374
594.258	60210
594.329	60975
594.399	62509
594.470	61598
594.540	60493
594.611	62257
594.681	61927
594.751	63036
594.822	65006
594.892	67365
594.963	70429
595.033	69013
595.103	68110
595.174	71786
595.244	83490
595.314	94266
595.384	71573
595.455	69930
595.525	73011
595.595	73675
595.665	73629
595.736	71671
595.806	72980
595.876	73297
595.946	72328
596.016	72340
596.087	73771
596.157	73548
596.227	74766
596.297	77709
596.367	79598
596.437	83464
596.507	91206
596.577	100677
596.647	83370
596.717	81847
596.787	82246
596.857	81170
596.927	83764
596.997	83568
597.067	84856
597.137	92096
597.207	90332
597.277	86154
597.347	87042
597.417	84724
597.487	85074
597.557	87434
597.626	87469
597.696	90844
597.766	95431
597.836	105772
597.906	88849
597.975	85770
598.045	85148
598.115	86475
598.185	87745
598.254	93987
598.324	96646
598.394	96218
598.464	95186
598.533	96082
598.603	92527
598.672	93730
598.742	95015
598.812	95798
598.881	95635
598.951	96798
599.020	96803
599.090	97704
599.159	100218
599.229	99480
599.299	97662
599.368	101005
599.437	101012
599.507	100495
599.576	102573
599.646	105752
599.715	108504
599.785	103683
599.854	103610
599.924	108957
599.993	106878
600.062	106918
600.132	107562
600.201	110982
600.270	117770
600.340	120037
600.409	120032
600.478	121539
600.547	124092
600.617	125611
600.686	117495
600.755	116017
600.824	116375
600.894	117507
600.963	118265
601.032	121257
601.101	120637
601.170	121460
601.239	122346
601.308	124906
601.378	126649
601.447	129499
601.516	130922
601.585	131732
601.654	135360
601.723	139652
601.792	141391
601.861	149211
601.930	159253
601.999	159385
602.068	153464
602.137	154925
602.206	155293
602.275	156563
602.343	159561
602.412	160458
602.481	160059
602.550	160504
602.619	161855
602.688	162793
602.756	165112
602.825	161519
602.894	168576
602.963	164907
603.032	168315
603.100	166819
603.169	162950
603.238	171040
603.307	161544
603.375	162031
603.444	172054
603.513	157644
603.581	161716
603.650	173284
603.719	145121
603.787	135759
603.856	138817
603.924	141497
603.993	145227
604.061	146485
604.130	149852
604.198	152338
604.267	152177
604.335	156212
604.404	155276
604.472	160711
604.541	159721
604.609	166241
604.678	170580
604.746	173001
604.815	183856
604.883	175055
604.951	168629
605.020	173084
605.088	159138
605.156	153010
605.225	150260
605.293	147265
605.361	150628
605.429	147390
605.498	151093
605.566	146104
605.634	153380
605.702	151257
605.771	152881
605.839	159314
605.907	143333
605.975	154058
606.043	146594
606.111	140533
606.180	159924
606.248	150554
606.316	154028
606.384	156013
606.452	125843
606.520	99024
606.588	96980
606.656	93833
606.724	94381
606.792	90403
606.860	83767
606.928	79850
606.996	79049
607.064	76978
607.132	79269
607.200	81504
607.267	84530
607.335	83314
607.403	86291
607.471	84533
607.539	82439
607.607	83006
607.674	76223
607.742	77712
607.810	77054
607.878	74753
607.946	76302
608.013	78778
608.081	79774
608.149	80162
608.216	78988
608.284	82209
608.352	80987
608.419	82757
608.487	90535
608.555	81709
608.622	77734
608.690	80041
608.757	84285
608.825	84947
608.893	83932
608.960	84235
609.028	85850
609.095	90453
609.163	80617
609.230	75379
609.298	70671
609.365	68464
609.432	74415
609.500	78528
609.567	85464
609.635	93814
609.702	99453
609.769	95081
609.837	85672
609.904	78203
609.971	78391
610.039	85906
610.106	105696
610.173	169012
610.241	335631
610.308	327331
610.375	175716
610.442	102504
610.509	84270
610.577	80985
610.644	78427
610.711	77435
610.778	80343
610.845	81673
610.912	86365
610.980	94337
611.047	114535
611.114	98765
611.181	83192
611.248	80625
611.315	84061
611.382	84312
611.449	86435
611.516	88946
611.583	87340
611.650	88181
611.717	88290
611.784	90585
611.851	94625
611.918	99035
611.984	109316
612.051	143197
612.118	249620
612.185	540991
612.252	444319
612.319	150124
612.386	115279
612.452	103096
612.519	102849
612.586	110678
612.653	103010
612.719	98392
612.786	96503
612.853	90298
612.919	88297
612.986	89217
613.053	84755
613.120	81960
613.186	78667
613.253	83567
613.319	79553
613.386	80993
613.453	82162
613.519	84914
613.586	83616
613.652	88119
613.719	84905
613.785	84868
613.852	82977
613.918	82401
613.985	85326
614.051	94153
614.118	113855
614.184	114831
614.250	85614
614.317	83032
614.383	81746
614.449	82844
614.516	82286
614.582	83117
614.648	82747
614.715	82198
614.781	81456
614.847	85002
614.914	84450
614.980	82073
615.046	80356
615.112	81859
615.179	81458
615.245	82312
615.311	82527
615.377	84906
615.443	87467
615.509	88184
615.575	88027
615.642	86751
615.708	89480
615.774	95847
615.840	103344
615.906	112976
615.972	124735
616.038	171107
616.104	312346
616.170	676502
616.236	700522
616.302	227705
616.368	147169
616.434	121407
616.500	111657
616.565	111863
616.631	120588
616.697	116394
616.763	113099
616.829	132012
616.895	185528
616.961	199765
617.026	136210
617.092	104194
617.158	99625
617.224	94790
617.289	91956
617.355	91008
617.421	94491
617.487	91529
617.552	86095
617.618	85397
617.684	85586
617.749	88901
617.815	83296
617.880	80971
617.946	81247
618.012	82070
618.077	84146
618.143	82223
618.208	82493
618.274	87332
618.339	91659
618.405	80976
618.470	81543
618.536	83300
618.601	89641
618.667	87264
618.732	80225
618.798	79079
618.863	78760
618.928	77841
618.994	81220
619.059	82316
619.124	84802
619.190	82024
619.255	79104
619.320	80195
619.386	80359
619.451	78496
619.516	77564
619.581	78738
619.647	80460
619.712	80906
619.777	79219
619.842	79627
619.907	81344
619.972	79717
620.038	80288
620.103	79195
620.168	77442
620.233	78850
620.298	78313
620.363	78952
620.428	80392
620.493	81510
620.558	81098
620.623	81274
620.688	81911
620.753	79773
620.818	82324
620.883	82376
620.948	81774
621.013	80955
621.078	83339
621.143	83260
621.207	84864
621.272	84735
621.337	85981
621.402	90246
621.467	102530
621.532	104257
621.596	97014
621.661	91220
621.726	88461
621.791	89610
621.855	88971
621.920	88733
621.985	91951
622.049	95266
622.114	94202
622.179	95935
622.243	101067
622.308	99679
622.373	103310
622.437	100527
622.502	94758
622.566	95596
622.631	96426
622.695	96348
622.760	97544
622.824	94326
622.889	94660
622.953	96090
623.018	102433
623.082	100664
623.147	97003
623.211	93494
623.276	95192
623.340	92412
623.404	90742
623.469	90549
623.533	90532
623.597	89066
623.662	89134
623.726	87829
623.790	84504
623.854	86392
623.919	87264
623.983	84344
624.047	84968
624.111	84112
624.176	86531
624.240	89742
624.304	92353
624.368	84632
624.432	85452
624.496	86536
624.560	85388
624.625	86419
624.689	85981
624.753	88067
624.817	84755
624.881	81673
624.945	80289
625.009	79580
625.073	79618
625.137	81499
625.201	84381
625.265	83786
625.329	79786
625.393	80530
625.456	79607
625.520	81988
625.584	82688
625.648	91720
625.712	111964
625.776	177011
625.839	190321
625.903	105845
625.967	79225
626.031	100741
626.095	132110
626.158	82459
626.222	67687
626.286	66720
626.349	65861
626.413	63673
626.477	64948
626.540	62130
626.604	62616
626.668	64320
626.731	62476
626.795	67125
626.858	66628
626.922	63314
626.986	61833
627.049	58887
627.113	62835
627.176	59691
627.240	59422
627.303	58671
627.366	60631
627.430	59102
627.493	60982
627.557	63352
627.620	63531
627.684	61882
627.747	62413
627.810	58492
627.874	57285
627.937	55769
628.000	59986
628.064	57308
628.127	52085
628.190	52597
628.253	53341
628.317	53842
628.380	51271
628.443	52041
628.506	52702
628.569	49498
628.632	48876
628.696	49166
628.759	49135
628.822	47412
628.885	46904
628.948	46429
629.011	47210
629.074	45974
629.137	45996
629.200	46341
629.263	48142
629.326	43348
629.389	44941
629.452	46237
629.515	47315
629.578	46269
629.641	46414
629.704	45987
629.767	46911
629.830	44734
629.892	45297
629.955	42795
630.018	45308
630.081	41840
630.144	44158
630.207	40818
630.269	45831
630.332	45766
630.395	42819
630.458	40420
630.520	40668
630.583	41297
630.646	40795
630.708	40700
630.771	41133
630.834	41275
630.896	39374
630.959	39934
631.021	38824
631.084	41374
631.146	41799
631.209	43568
631.272	40091
631.334	39660
631.397	38433
631.459	36735
631.522	38476
631.584	37950
631.646	39222
631.709	38376
631.771	40034
631.834	39267
631.896	38169
631.958	36352
632.021	38056
632.083	37108
632.145	39381
632.208	37294
632.270	37263
632.332	36341
632.395	36098
632.457	38196
632.519	37546
632.581	37232
632.643	35874
632.706	36337
632.768	35228
632.830	37352
632.892	35533
632.954	36551
633.016	38464
633.078	35526
633.141	34963
633.203	36345
633.265	37382
633.327	33768
633.389	33794
633.451	36939
633.513	37898
633.575	38854
633.637	36528
633.698	35794
633.760	36027
633.822	35661
633.884	34792
633.946	35386
634.008	35709
634.070	38053
634.132	44453
634.193	38706
634.255	35451
634.317	34759
634.379	36275
634.441	35325
634.502	34789
634.564	33967
634.626	34505
634.687	32101
634.749	33614
634.811	33365
634.873	29797
634.934	31662
634.996	34140
635.057	30698
635.119	32444
635.181	32799
635.242	32995
635.304	31293
635.365	33951
635.427	32135
635.488	32162
635.550	32399
635.611	31921
635.673	32040
635.734	35732
635.796	33110
635.857	34613
635.918	32654
635.980	34683
636.041	32114
636.102	33138
636.164	32676
636.225	33609
636.286	31678
636.348	32846
636.409	30877
636.470	31161
636.531	31123
636.593	34162
636.654	32921
636.715	29963
636.776	30432
636.838	28608
636.899	30626
636.960	30351
637.021	28040
637.082	29326
637.143	29633
637.204	27784
637.265	28154
637.326	29066
637.387	29025
637.448	26651
637.509	28879
637.570	29440
637.631	28784
637.692	26055
637.753	26844
637.814	28830
637.875	27295
637.936	27226
637.997	26630
638.058	26887
638.119	28948
638.179	27384
638.240	27021
638.301	28094
638.362	27136
638.423	28385
638.483	28732
638.544	26011
638.605	27800
638.666	26538
638.726	27685
638.787	27216
638.848	26367
638.908	26150
638.969	26719
639.030	27109
639.090	25182
639.151	25555
639.211	26226
639.272	27193
639.332	30520
639.393	27679
639.453	25406
639.514	25901
639.574	26416
639.635	25117
639.695	25526
639.756	24415
639.816	24234
639.877	24910
639.937	26867
639.997	27797
640.058	23640
640.118	23849
640.178	24713
640.239	24524
640.299	24353
640.359	24125
640.420	23622
640.480	24731
640.540	24137
640.600	23246
640.661	25507
640.721	24942
640.781	27121
640.841	25160
640.901	24831
640.961	25284
641.021	25003
641.082	23282
641.142	25073
641.202	25035
641.262	22744
641.322	24392
641.382	21954
641.442	24841
641.502	24088
641.562	24509
641.622	23812
641.682	24519
641.742	22916
641.802	24817
641.861	24010
641.921	24295
641.981	24314
642.041	24302
642.101	24591
642.161	22486
642.221	22567
642.280	22840
642.340	22329
642.400	21858
642.460	23043
642.519	23385
642.579	23358
642.639	24634
642.698	20323
642.758	24066
642.818	23292
642.877	21826
642.937	23255
642.997	23546
643.056	24875
643.116	22274
643.175	25199
643.235	22704
643.294	23079
643.354	23837
643.414	23612
643.473	25487
643.532	25469
643.592	29882
643.651	37831
643.711	54936
643.770	92243
643.830	201649
643.889	414484
643.948	122406
644.008	35380
644.067	27159
644.126	24896
644.186	23034
644.245	22615
644.304	20379
644.363	23275
644.423	20340
644.482	21739
644.541	21930
644.600	20007
644.659	23769
644.719	24668
644.778	28941
644.837	35188
644.896	55445
644.955	109486
645.014	52556
645.073	30271
645.132	23689
645.191	22560
645.250	22076
645.309	22969
645.368	22224
645.427	23616
645.486	26215
645.545	34530
645.604	22846
645.663	21329
645.722	20338
645.781	21400
645.840	22296
645.898	23267
645.957	27927
646.016	32968
646.075	48795
646.134	83763
646.192	198680
646.251	296761
646.310	60535
646.369	27774
646.427	25088
646.486	21586
646.545	21050
646.603	21088
646.662	20365
646.721	19682
646.779	18787
646.838	17700
646.896	20375
646.955	21864
647.014	27285
647.072	35798
647.131	71596
647.189	42513
647.248	20582
647.306	18660
647.365	19255
647.423	17024
647.481	19519
647.540	16478
647.598	18391
647.657	17458
647.715	19124
647.773	18141
647.832	19131
647.890	18452
647.948	18278
648.007	19792
648.065	17554
648.123	18377
648.181	21080
648.240	25033
648.298	22568
648.356	18871
648.414	18953
648.472	19446
648.531	18893
648.589	18284
648.647	17349
648.705	17332
648.763	18424
648.821	17747
648.879	17848
648.937	18329
648.995	19437
649.053	20100
649.111	23940
649.169	28204
649.227	40248
649.285	69491
649.343	173451
649.401	93957
649.459	32435
649.516	26431
649.574	24620
649.632	34611
649.690	40843
649.748	30324
649.806	40177
649.863	58423
649.921	57856
649.979	42041
650.037	19749
650.094	15458
650.152	18125
650.210	16243
650.268	17029
650.325	16186
650.383	17076
650.440	15565
650.498	16907
650.556	16599
650.613	14924
650.671	15143
650.728	16349
650.786	16462
650.843	16804
650.901	14616
650.958	15695
651.016	15832
651.073	15465
651.131	15184
651.188	14687
651.246	16148
651.303	14563
651.360	14424
651.418	15241
651.475	15670
651.532	13416
651.590	15433
651.647	14872
651.704	15542
651.762	14464
651.819	14565
651.876	14570
651.933	14890
651.990	15383
652.048	13172
652.105	13740
652.162	15531
652.219	13394
652.276	14082
652.333	14394
652.390	13415
652.448	13968
652.505	14731
652.562	17164
652.619	17045
652.676	27282
652.733	26209
652.790	14587
652.847	12608
652.904	13773
652.961	12100
653.017	13130
653.074	14243
653.131	14087
653.188	13016
653.245	13885
653.302	13562
653.359	13591
653.415	12604
653.472	12855
653.529	12880
653.586	12138
653.642	12257
653.699	13633
653.756	11597
653.813	13012
653.869	12777
653.926	12128
653.983	12349
654.039	12623
654.096	12166
654.152	13715
654.209	11697
654.266	13685
654.322	12194
654.379	15130
654.435	15360
654.492	14409
654.548	16097
654.605	18386
654.661	15329
654.717	13110
654.774	14137
654.830	14109
654.887	14124
654.943	13776
655.000	15341
655.056	14570
655.112	15070
655.168	13306
655.225	13811
655.281	15133
655.337	16520
655.394	22319
655.450	18042
655.506	15926
655.562	22293
655.618	19800
655.675	12275
655.731	12848
655.787	12839
655.843	14261
655.899	12036
655.955	13538
656.011	12865
656.067	12225
656.123	13514
656.179	13332
656.235	14912
656.291	12547
656.347	14350
656.403	13078
656.459	13659
656.515	13536
656.571	13856
656.627	14637
656.683	13189
656.739	13931
656.795	13486
656.850	13515
656.906	14239
656.962	13914
657.018	12011
657.074	13201
657.129	13400
657.185	15208
657.241	17590
657.297	15230
657.352	13322
657.408	11576
657.464	13787
657.519	14206
657.575	11990
657.630	13795
657.686	12300
657.742	12235
657.797	13202
657.853	13637
657.908	14535
657.964	12278
658.019	13031
658.075	13815
658.130	14162
658.186	12225
658.241	13310
658.297	11905
658.352	11918
658.407	13420
658.463	12439
658.518	12541
658.573	13004
658.629	10999
658.684	12329
658.739	13209
658.795	12070
658.850	12281
658.905	12288
658.960	11690
659.016	12109
659.071	12354
659.126	12606
659.181	11685
659.236	14290
659.291	15161
659.346	13848
659.401	16339
659.457	18223
659.512	22060
659.567	15705
659.622	12917
659.677	12618
659.732	11806
659.787	12378
659.842	13477
659.897	16048
659.952	12644
660.007	12121
660.061	11535
660.116	11913
660.171	11961
660.226	12520
660.281	12975
660.336	11642
660.391	12167
660.445	12026
660.500	13334
660.555	12307
660.610	12526
660.664	11850
660.719	12575
660.774	12176
660.828	12731
660.883	11816
660.938	13556
660.992	12351
661.047	12926
661.101	11920
661.156	12477
661.211	11108
661.265	13128
661.320	11097
661.374	12917
661.429	11263
661.483	13011
661.538	11987
661.592	12618
661.647	12871
661.701	13571
661.755	11654
661.810	12831
661.864	11782
661.919	12527
661.973	13102
662.027	12680
662.081	11039
662.136	12699
662.190	12748
662.244	13235
662.299	12842
662.353	11993
662.407	11918
662.461	12053
662.515	13840
662.569	14214
662.624	13305
662.678	12937
662.732	12510
662.786	12698
662.840	12912
662.894	13319
662.948	12388
663.002	12337
663.056	11555
663.110	11682
663.164	12057
663.218	11919
663.272	11920
663.326	12318
663.380	12238
663.434	13065
663.488	12425
663.542	13560
663.595	12885
663.649	12968
663.703	12753
663.757	12327
663.811	12070
663.864	12380
663.918	12592
663.972	12002
664.026	12451
664.079	12178
664.133	12942
664.187	10622
664.240	11930
664.294	12251
664.348	12456
664.401	12667
664.455	12196
664.508	11894
664.562	11473
664.615	12462
664.669	11403
664.722	12393
664.776	11958
664.829	12186
664.883	12813
664.936	13021
664.990	13488
665.043	13352
665.097	15045
665.150	15733
665.203	13719
665.257	13361
665.310	14058
665.363	14062
665.417	13944
665.470	13888
665.523	14056
665.576	13486
665.630	13775
665.683	13795
665.736	13806
665.789	13745
665.842	13481
665.895	13753
665.949	13634
666.002	13622
666.055	13258
666.108	13342
666.161	12634
666.214	13740
666.267	13064
666.320	14160
666.373	13215
666.426	12643
666.479	12387
666.532	14092
666.585	13949
666.638	13923
666.691	13196
666.744	13807
666.796	13091
666.849	13520
666.902	13848
666.955	13329
667.008	11936
667.060	12608
667.113	12281
667.166	11856
667.219	12011
667.271	12143
667.324	12730
667.377	13499
667.430	13922
667.482	16339
667.535	14479
667.587	13784
667.640	13299
667.693	13506
667.745	14188
667.798	15317
667.850	13248
667.903	13725
667.955	13700
668.008	14527
668.060	15077
668.113	16147
668.165	15706
668.218	15407
668.270	15918
668.322	14671
668.375	13553
668.427	14139
668.479	13760
668.532	14663
668.584	15119
668.636	13632
668.689	14702
668.741	14793
668.793	14362
668.845	14106
668.898	14150
668.950	14371
669.002	14292
669.054	13476
669.106	14589
669.158	15266
669.211	15036
669.263	15138
669.315	17967
669.367	18265
669.419	15601
669.471	15280
669.523	15490
669.575	16110
669.627	14875
669.679	15527
669.731	14352
669.783	14905
669.835	14823
669.886	15133
669.938	15750
669.990	14951
670.042	14675
670.094	15948
670.146	16382
670.197	17751
670.249	20664
670.301	21385
670.353	27008
670.404	32920
670.456	44501
670.508	65714
670.560	103831
670.611	171642
670.663	296153
670.715	607558
670.766	778173
670.818	336286
670.869	94306
670.921	50545
670.972	36376
671.024	28804
671.075	23117
671.127	21397
671.178	18950
671.230	18399
671.281	17317
671.333	17321
671.384	17402
671.436	18062
671.487	18067
671.538	18241
671.590	18242
671.641	21427
671.692	25441
671.744	32666
671.795	31605
671.846	23094
671.897	19339
671.949	18088
672.000	15588
672.051	15319
672.102	16236
672.153	14125
672.204	15338
672.256	15306
672.307	15274
672.358	14977
672.409	15518
672.460	14620
672.511	13377
672.562	14080
672.613	12232
672.664	13410
672.715	13846
672.766	13163
672.817	13574
672.868	12897
672.919	13550
672.970	12774
673.021	12831
673.071	12498
673.122	12328
673.173	13287
673.224	12772
673.275	12928
673.326	12357
673.376	12101
673.427	12453
673.478	12546
673.528	12880
673.579	12403
673.630	12156
673.680	12627
673.731	11494
673.782	12484
673.832	13706
673.883	13130
673.934	11394
673.984	12008
674.035	11747
674.085	11549
674.136	12530
674.186	12913
674.237	14020
674.287	16483
674.338	13156
674.388	12155
674.438	11998
674.489	12320
674.539	11961
674.589	13570
674.640	12759
674.690	12691
674.740	14380
674.791	14874
674.841	14337
674.891	12795
674.942	12445
674.992	11769
675.042	11032
675.092	11833
675.142	11387
675.193	12410
675.243	11418
675.293	12441
675.343	12369
675.393	11680
675.443	12459
675.493	11454
675.543	11713
675.593	12189
675.643	11718
675.693	11977
675.743	12481
675.793	11551
675.843	11680
675.893	12020
675.943	11112
675.993	10996
676.043	11507
676.093	11495
676.142	10599
676.192	12273
676.242	11062
676.292	11207
676.341	10845
676.391	11859
676.441	9893
676.491	10593
676.540	10266
676.590	10072
676.640	11075
676.689	10835
676.739	10362
676.789	10319
676.838	10358
676.888	9646
676.937	10207
676.987	9978
677.037	9587
677.086	9491
677.136	10237
677.185	10254
677.235	10061
677.284	10495
677.333	9965
677.383	9705
677.432	9198
677.482	9992
677.531	10160
677.580	9983
677.630	10067
677.679	8756
677.728	10358
677.778	9542
677.827	9600
677.876	9237
677.925	9279
677.975	10149
678.024	9696
678.073	10357
678.122	10321
678.171	11117
678.220	10999
678.269	11466
678.319	11084
678.368	10307
678.417	9647
678.466	11551
678.515	11755
678.564	12552
678.613	10623
678.662	11062
678.711	10211
678.760	10227
678.809	10163
678.857	10610
678.906	10892
678.955	10884
679.004	10861
679.053	10856
679.102	11045
679.151	10249
679.199	9908
679.248	9432
679.297	9516
679.346	10434
679.394	10361
679.443	9999
679.492	10773
679.540	10146
679.589	10424
679.638	10202
679.686	8906
679.735	11208
679.784	10221
679.832	10359
679.881	9049
679.929	8642
679.978	9445
680.026	9820
680.075	9967
680.123	9279
680.172	9501
680.220	8595
680.268	9532
680.317	9382
680.365	9363
680.414	9119
680.462	9939
680.510	9834
680.559	8573
680.607	9678
680.655	9045
680.703	10100
680.752	8480
680.800	8327
680.848	7849
680.896	8336
680.945	8717
680.993	8190
681.041	8308
681.089	8550
681.137	8135
681.185	8071
681.233	8579
681.258	8651
681.281	8682
681.329	7869
681.377	8038
681.380	8136
681.425	9249
681.473	10668
681.502	9944
681.521	9371
681.569	9596
681.617	9231
681.624	9384
681.665	10082
681.713	9453
681.745	9798
681.761	9902
681.809	9044
681.857	9716
681.867	9436
681.904	8318
681.952	9750
681.989	9662
682.000	9597
682.048	9834
682.096	8890
682.111	9226
682.143	9826
682.191	9634
682.233	10413
682.239	10491
682.286	9971
682.334	9595
682.354	9112
682.382	8391
682.430	10371
682.476	10229
682.477	10193
682.525	10137
682.572	9653
682.598	9618
682.620	9552
682.667	10321
682.715	10116
682.720	10156
682.763	10197
682.810	9972
682.841	10019
682.857	10014
682.905	10378
682.952	10058
682.963	10272
683.000	10889
683.047	10203
683.085	10982
683.095	11125
683.142	10513
683.190	10809
683.206	10547
683.237	10084
683.284	10528
683.328	10328
683.332	10275
683.379	11149
683.426	10511
683.449	10476
683.473	10446
683.521	10745
683.568	10718
683.571	10711
683.615	10131
683.662	11002
683.693	11023
683.709	11008
683.757	10671
683.804	10545
683.814	10676
683.851	11051
683.898	11555
683.936	11498
683.945	11457
683.992	11545
684.039	11417
684.057	11187
684.086	10793
684.133	11661
684.179	11761
684.180	11738
684.227	12189
684.274	11211
684.300	11489
684.321	11755
684.368	11323
684.415	11931
684.422	11912
684.462	11474
684.509	11461
684.543	11665
684.556	11776
684.603	11525
684.649	12103
684.665	12004
684.696	11582
684.743	12122
684.786	12283
684.790	12300
684.837	12662
684.883	12995
684.908	13352
684.930	13696
684.977	14473
685.023	14598
685.029	14550
685.070	13603
685.117	13549
685.150	13674
685.164	13824
685.210	15117
685.257	15812
685.272	15543
685.303	14529
685.350	13619
685.393	13845
685.396	13880
685.443	13477
685.490	14176
685.514	14286
685.536	14335
685.583	14590
685.629	14503
685.636	14427
685.675	13826
685.722	14583
685.757	13891
685.768	13672
685.815	14678
685.861	15109
685.878	15158
685.908	15207
685.954	14854
686.000	15551
686.000	15559
686.047	16222
686.093	17084
686.121	16962
686.139	16560
686.185	16513
686.232	16100
686.242	15967
686.278	15452
686.324	14631
686.363	14683
686.370	14736
686.416	15298
686.463	15411
686.484	15409
686.509	15479
686.555	15660
686.601	14963
686.606	15093
686.647	15871
686.693	15116
686.727	15087
686.739	15124
686.785	14864
686.831	14723
686.848	14754
686.877	14763
686.923	14791
686.969	14438
686.969	14435
687.015	15059
687.061	15067
687.090	15537
687.107	15728
687.153	15191
687.199	14907
687.211	14778
687.245	14603
687.291	15481
687.332	15762
687.336	15792
687.382	16324
687.428	15679
687.453	15922
687.474	15946
687.520	15643
687.565	15414
687.574	15342
687.611	15303
687.657	15592
687.695	15976
687.702	16087
687.748	16523
687.794	16522
687.816	16557
687.839	16271
687.885	15851
687.931	15311
687.937	15328
687.976	15809
688.022	15445
688.058	16219
688.067	16384
688.113	15979
688.158	15818
688.179	15903
688.204	16114
688.249	16300
688.295	16317
688.300	16366
688.340	16960
688.386	17509
688.421	16977
688.431	16712
688.477	16519
688.522	16496
688.542	16575
688.567	16840
688.613	16420
688.658	16604
688.663	16587
688.703	16680
688.749	17511
688.784	17443
688.794	17377
688.839	16629
688.884	17024
688.905	16740
688.930	16445
688.975	17242
689.020	16984
689.026	16976
689.065	17419
689.110	17599
689.146	17785
689.155	17699
689.201	17721
689.246	16929
689.267	17002
689.291	17330
689.336	17270
689.381	17137
689.388	17133
689.426	17279
689.471	17363
689.509	17637
689.516	17648
689.561	17660
689.606	17141
689.630	17237
689.651	17479
689.696	16943
689.741	17724
689.750	17740
689.785	17883
689.830	17380
689.871	17846
689.875	17888
689.920	17840
689.965	17550
689.992	17421
690.010	17557
690.054	18015
690.099	18887
690.112	18861
690.144	18701
690.189	19138
690.233	18719
690.233	18737
690.278	19301
690.323	19219
690.354	19508
690.367	19858
690.412	20363
690.457	21138
690.474	21591
690.501	22206
690.546	22554
690.590	22901
690.595	22931
690.635	24132
690.680	25980
690.716	27279
690.724	28107
690.769	33043
690.813	37674
690.836	40292
690.857	45676
690.902	57609
690.946	70963
690.957	74527
690.991	101352
691.035	140912
691.077	177965
691.080	178673
691.124	175017
691.168	166852
691.198	162842
691.213	150941
691.257	117156
691.301	84752
691.318	72372
691.346	64905
691.390	52844
691.434	41284
691.439	40006
691.478	36658
691.522	32519
691.559	29143
691.567	28915
691.611	27540
691.655	25902
691.680	25009
691.699	24787
691.743	24333
691.787	23769
691.800	23574
691.831	23480
691.875	23583
691.919	23305
691.921	23281
691.964	23646
692.008	23438
692.041	23076
692.052	23001
692.096	22883
692.139	22698
692.162	22723
692.183	22743
692.227	22379
692.271	22409
692.282	22296
692.315	22331
692.359	22259
692.402	22214
692.403	22247
692.447	22119
692.490	22135
692.523	21553
692.534	21568
692.578	22416
692.622	22578
692.643	22908
692.666	23053
692.709	22625
692.753	22476
692.763	22348
692.797	22576
692.840	23482
692.884	23782
692.884	23822
692.928	24124
692.971	24342
693.004	24564
693.015	24687
693.059	24802
693.102	25027
693.124	25124
693.146	25796
693.189	27266
693.233	28572
693.245	28958
693.276	30730
693.320	32882
693.363	34897
693.365	34924
693.407	38545
693.450	42519
693.485	45440
693.493	47373
693.537	57349
693.580	67536
693.605	73730
693.624	84918
693.667	111488
693.710	139540
693.725	149870
693.753	198038
693.797	276257
693.840	356500
693.845	364186
693.883	360272
693.926	349423
693.966	341212
693.970	334576
694.013	260833
694.056	189141
694.086	139916
694.099	131970
694.142	106955
694.185	81417
694.206	69548
694.229	65121
694.272	56133
694.315	47946
694.326	45599
694.358	42584
694.401	39100
694.444	35077
694.446	34828
694.487	33268
694.530	31629
694.566	30014
694.573	29819
694.616	28040
694.659	26642
694.686	25611
694.702	25362
694.745	24845
694.787	23783
694.806	23537
694.830	23744
694.873	23669
694.916	23606
694.926	23515
694.959	23095
695.002	22921
695.044	22311
695.046	22251
695.087	22430
695.130	22527
695.166	22560
695.172	22583
695.215	22444
695.258	22308
695.286	22100
695.301	22042
695.343	21832
695.386	21750
695.406	21506
695.428	21201
695.471	20913
695.514	20469
695.526	20249
695.556	20608
695.599	21338
695.641	21718
695.646	21759
695.684	21844
695.726	21534
695.766	21427
695.769	21469
695.811	21451
695.854	21174
695.886	21044
695.896	21009
695.938	20599
695.981	20182
696.005	19966
696.023	20187
696.065	20518
696.108	20848
696.125	20934
696.150	21284
696.192	21929
696.235	22524
696.245	22622
696.277	22530
696.319	22352
696.361	22168
696.365	22096
696.404	22973
696.446	24003
696.485	24804
696.488	24822
696.530	24328
696.572	23898
696.604	23612
696.614	23477
696.656	22361
696.698	21359
696.724	20779
696.740	20796
696.783	20581
696.825	20572
696.844	20398
696.867	20430
696.909	20585
696.951	20684
696.964	20646
696.992	20648
697.034	20597
697.076	20645
697.083	20604
697.118	20902
697.160	21166
697.202	21365
697.203	21324
697.244	21100
697.286	20758
697.323	20310
697.327	20314
697.369	20061
697.411	19753
697.442	19463
697.453	19618
697.494	20139
697.536	20554
697.562	20821
697.578	20728
697.620	20270
697.661	19855
697.682	19570
697.703	19693
697.744	19929
697.786	20241
697.801	20276
697.828	20407
697.869	20478
697.911	20529
697.921	20523
697.952	20558
697.994	20458
698.035	20436
698.040	20369
698.077	20017
698.118	19629
698.160	19261
698.160	19212
698.201	19711
698.243	20182
698.279	20531
698.284	20628
698.325	21095
698.367	21551
698.399	21821
698.408	21679
698.449	20817
698.491	19958
698.518	19321
698.532	19503
698.573	19931
698.614	20342
698.638	20533
698.656	20629
698.697	20730
698.738	20837
698.757	20841
698.779	20790
698.820	20583
698.862	20375
698.877	20253
698.903	20622
698.944	21126
698.985	21633
698.996	21722
699.026	21560
699.067	21261
699.116	20856
699.235	21174
699.354	20552
699.474	19915
699.593	22588
699.713	22738
699.832	20139
699.951	21108
700.070	19282
700.190	19624
700.309	19765
700.428	20457
700.547	19334
700.667	19754
700.786	20454
700.905	19880
701.024	20109
701.143	19569
701.262	18384
701.381	17803
701.500	18550
701.619	18433
701.738	18753
701.857	18046
701.976	18033
702.095	18313
702.214	18762
702.333	18384
702.452	17808
702.571	17800
702.690	18270
702.809	17719
702.928	16613
703.047	17361
703.165	18208
703.284	17063
703.403	16861
703.522	18560
703.640	18795
703.759	19217
703.878	23364
703.997	17098
704.115	17457
704.234	17197
704.353	16976
704.471	16632
704.590	16594
704.708	15944
704.827	16524
704.946	16389
705.064	17647
705.183	17632
705.301	20282
705.420	31531
705.538	28711
705.656	25173
705.775	25451
705.893	43302
706.012	53852
706.130	25242
706.249	23698
706.367	23198
706.485	24302
706.604	23875
706.722	23172
706.840	24637
706.958	26226
707.077	23745
707.195	22581
707.313	22222
707.431	21116
707.549	21411
707.668	21473
707.786	22044
707.904	21245
708.022	20218
708.140	20467
708.258	20671
708.376	21094
708.494	20709
708.612	22849
708.730	32649
708.848	31330
708.966	26960
709.084	25724
709.202	25221
709.320	27320
709.438	26981
709.556	27217
709.674	26007
709.791	27658
709.909	25520
710.027	25919
710.145	24866
710.263	26203
710.380	25278
710.498	25068
710.616	25397
710.733	24383
710.851	24084
710.969	24374
711.086	24862
711.204	24138
711.322	23819
711.439	24145
711.557	23783
711.674	24465
711.792	23373
711.909	25168
712.027	26831
712.144	22812
712.262	23339
712.379	26047
712.497	36889
712.614	37484
712.732	30394
712.849	28685
712.966	29411
713.084	31574
713.201	31510
713.318	30859
713.436	30674
713.553	30611
713.670	30185
713.787	31368
713.905	31203
714.022	29845
714.139	28089
714.256	30162
714.373	30478
714.490	36091
714.608	53226
714.725	152425
714.842	166579
714.959	34222
715.076	27725
715.193	26483
715.310	26233
715.427	24616
715.544	24073
715.661	24874
715.778	25715
715.895	28462
716.011	27464
716.128	26179
716.245	24670
716.362	25356
716.479	25242
716.596	23942
716.713	23871
716.829	24123
716.946	24407
717.063	23442
717.180	23070
717.296	22411
717.413	24502
717.530	22074
717.646	22478
717.763	22402
717.880	21835
717.996	22493
718.113	22112
718.229	21285
718.346	20485
718.462	21215
718.579	21426
718.695	23430
718.812	24892
718.928	24892
719.045	21659
719.161	21308
719.277	20635
719.394	20355
719.510	21761
719.626	21115
719.743	25387
719.859	23524
719.975	27292
720.092	50276
720.208	97715
720.324	29242
720.440	21271
720.557	22563
720.673	23266
720.789	31408
720.905	55824
721.021	27949
721.137	20451
721.253	20513
721.369	20291
721.486	21528
721.602	25547
721.718	20206
721.834	17755
721.950	19600
722.066	18189
722.181	18550
722.297	18174
722.413	17913
722.529	18289
722.645	17959
722.761	17243
722.877	17752
722.993	18571
723.108	18710
723.224	17024
723.340	17931
723.456	17061
723.571	17727
723.687	16619
723.803	16563
723.918	15994
724.034	17331
724.150	16476
724.265	18233
724.381	26835
724.497	31027
724.612	16581
724.728	16351
724.843	15596
724.959	17136
725.074	25067
725.190	28077
725.305	15720
725.421	16477
725.536	14602
725.651	15219
725.767	14868
725.882	14500
725.997	14987
726.113	14387
726.228	14112
726.343	15688
726.459	14537
726.574	15128
726.689	14995
726.804	13737
726.920	15508
727.035	14565
727.150	14568
727.265	14216
727.380	14779
727.495	14555
727.610	13564
727.725	14437
727.841	16512
727.956	27738
728.071	22059
728.186	13663
728.301	13449
728.416	13734
728.531	12548
728.645	12525
728.760	12596
728.875	12945
728.990	12316
729.105	12924
729.220	12489
729.335	13056
729.449	13300
729.564	12414
729.679	12961
729.794	12692
729.908	13374
730.023	13055
730.138	11734
730.253	12866
730.367	11573
730.482	12066
730.596	11908
730.711	12659
730.826	12165
730.940	12411
731.055	12189
731.169	11918
731.284	11090
731.398	11403
731.513	13043
731.627	11818
731.742	13650
731.856	13686
731.970	11072
732.085	12719
732.199	13207
732.313	14316
732.428	22788
732.542	43324
732.656	30110
732.771	13862
732.885	12212
732.999	12176
733.113	12586
733.227	12622
733.342	11871
733.456	11647
733.570	11350
733.684	10869
733.798	11041
733.912	11366
734.026	11069
734.140	10678
734.254	11511
734.368	15415
734.482	18618
734.596	10345
734.710	11117
734.824	11336
734.938	11021
735.052	11247
735.166	10940
735.280	12442
735.393	10298
735.507	11066
735.621	12832
735.735	18870
735.849	11853
735.962	11239
736.076	10946
736.190	11926
736.303	12996
736.417	16240
736.531	10636
736.644	11039
736.758	9873
736.872	10604
736.985	9980
737.099	10642
737.212	10806
737.326	10628
737.439	10388
737.553	10234
737.666	10900
737.780	9423
737.893	10197
738.007	10142
738.120	9406
738.233	10590
738.347	10423
738.460	10179
738.573	10118
738.687	9761
738.800	9963
738.913	9952
739.026	11440
739.140	11631
739.253	11757
739.366	10962
739.479	10059
739.592	9409
739.705	9094
739.818	10224
739.932	9756
740.045	9786
740.158	9890
740.271	9489
740.384	9357
740.497	9692
740.610	10875
740.723	9795
740.836	10209
740.949	9749
741.062	10594
741.174	10324
741.287	9796
741.400	9836
741.513	9633
741.626	10116
741.739	10329
741.851	9308
741.964	9704
742.077	10792
742.189	9540
742.302	10517
742.415	9637
742.527	9262
742.640	9644
742.753	9763
742.865	8701
742.978	9142
743.090	9628
743.203	10204
743.316	9939
743.428	9702
743.541	9381
743.653	9871
743.766	9565
743.878	9540
743.990	10653
744.103	11312
744.215	9899
744.327	9241
744.440	10584
744.552	10613
744.664	9510
744.777	10177
744.889	9663
745.001	10930
745.113	10087
745.226	9338
745.338	10287
745.450	9900
745.562	9495
745.674	9445
745.786	9921
745.898	9694
746.010	10523
746.122	9248
746.234	10557
746.347	9585
746.459	10812
746.570	9703
746.682	9705
746.794	10522
746.906	9840
747.018	10226
747.130	9943
747.242	10359
747.354	9342
747.466	11294
747.577	9990
747.689	10071
747.801	9563
747.913	10103
748.024	9977
748.136	9934
748.248	9979
748.359	10563
748.471	10970
748.583	10349
748.694	10917
748.806	12944
748.918	11072
749.029	11202
749.141	10168
749.252	10934
749.364	10069
749.475	12085
749.587	11435
749.698	10455
749.809	10542
749.921	10729
750.032	11273
750.144	10499
750.255	9695
750.366	10563
750.478	10060
750.589	10643
750.700	10772
750.811	11066
750.923	10866
751.034	11694
751.145	12492
751.256	10830
751.367	11375
751.479	10553
751.590	10894
751.701	10852
751.812	10511
751.923	12295
752.034	10933
752.145	10822
752.256	11623
752.367	11034
752.478	11274
752.589	12007
752.700	11156
752.811	11554
752.922	11995
753.032	10820
753.143	12725
753.254	11194
753.365	12853
753.476	12088
753.586	11640
753.697	12560
753.808	11681
753.919	11555
754.029	11942
754.140	12777
754.251	12618
754.361	12333
754.472	12829
754.582	13363
754.693	13538
754.804	13241
754.914	12822
755.025	12892
755.135	12522
755.246	13122
755.356	12562
755.466	14116
755.577	13503
755.687	14433
755.798	13825
755.908	13395
756.018	13846
756.129	14331
756.239	14207
756.349	15393
756.460	14978
756.570	14838
756.680	14579
756.790	15553
756.900	16168
757.011	15643
757.121	16273
757.231	16624
757.341	16881
757.451	16270
757.561	15963
757.671	17108
757.781	16708
757.891	16754
758.001	17745
758.111	18557
758.221	18337
758.331	19042
758.441	19111
758.551	19238
758.661	20454
758.771	19655
758.880	21307
758.990	21383
759.100	20592
759.210	22331
759.320	22008
759.429	22602
759.539	23270
759.649	23424
759.758	23868
759.868	24999
759.978	24137
760.087	25245
760.197	25950
760.307	26129
760.416	26815
760.526	28025
760.635	28675
760.745	28569
760.854	29738
760.964	29985
761.073	31222
761.182	31160
761.292	31885
761.401	34419
761.511	33637
761.620	35748
761.729	36389
761.839	37962
761.948	39501
762.057	39302
762.166	40426
762.276	41285
762.385	44899
762.494	45553
762.603	47025
762.712	49700
762.822	52012
762.931	54557
763.040	56278
763.149	58372
763.258	62195
763.367	65700
763.476	69087
763.585	72960
763.694	76766
763.803	80391
763.912	84799
764.021	91959
764.130	97516
764.238	104689
764.347	111565
764.456	120087
764.565	130000
764.674	140810
764.783	154635
764.891	168427
765.000	190852
765.109	215565
765.217	242663
765.326	276842
765.435	320110
765.543	376672
765.652	447154
765.761	538692
765.869	663201
765.978	814845
766.086	991332
766.195	1136486
766.303	1053953
766.412	638241
766.520	757279
766.629	1083596
766.737	1077854
766.846	921821
766.954	745901
767.062	602601
767.171	490828
767.279	399809
767.387	331076
767.496	282650
767.604	245268
767.712	216648
767.820	193283
767.928	178285
768.037	164902
768.145	157706
768.253	150665
768.361	148103
768.469	147346
768.577	151059
768.685	158830
768.793	169657
768.901	187531
769.009	214907
769.117	256487
769.225	315680
769.333	406447
769.441	550233
769.549	757233
769.657	992944
769.765	960415
769.873	681444
769.981	953205
770.088	935844
770.196	725233
770.304	553325
770.412	432070
770.519	347531
770.627	284598
770.735	239553
770.842	204698
770.950	178266
771.058	156719
771.165	139733
771.273	125800
771.380	115415
771.488	105418
771.595	96725
771.703	87594
771.810	82022
771.918	78279
772.025	71687
772.133	67828
772.240	63701
772.348	60203
772.455	59513
772.562	54441
772.670	51636
772.777	49514
772.884	46454
772.991	45563
773.099	44565
773.206	42043
773.313	41402
773.420	39428
773.528	37865
773.635	36000
773.742	36278
773.849	34557
773.956	32707
774.063	32345
774.170	30686
774.277	30380
774.384	29821
774.491	29412
774.598	27874
774.705	27192
774.812	27565
774.919	26470
775.026	24985
775.133	25675
775.239	25141
775.346	24283
775.453	23871
775.560	22749
775.667	23677
775.773	22201
775.880	22972
775.987	21450
776.093	21110
776.200	20404
776.307	20113
776.413	20549
776.520	18583
776.627	20233
776.733	18490
776.840	17562
776.946	19680
777.053	18511
777.159	18749
777.266	16790
777.372	18203
777.478	17040
777.585	16349
777.691	15326
777.798	15074
777.904	16042
778.010	16836
778.117	15942
778.223	14873
778.329	14899
778.435	14141
778.542	14554
778.648	14459
778.754	13699
778.860	13029
778.966	14282
779.072	13783
779.178	13679
779.284	14853
779.391	14591
779.497	15747
779.603	21708
779.708	30522
779.815	64841
779.920	208017
780.026	304387
780.132	70590
780.238	22827
780.344	18026
780.450	16064
780.556	13491
780.661	12939
780.767	12247
780.873	11285
780.979	11582
781.085	10510
781.190	10805
781.296	10605
781.402	10380
781.507	9532
781.613	9577
781.719	8824
781.824	9448
781.930	9887
782.035	9469
782.141	9510
782.246	8849
782.352	9027
782.457	9409
782.563	8452
782.668	8599
782.773	10000
782.879	8178
782.984	9469
783.090	9469
783.195	9620
783.300	9201
783.405	8331
783.511	8024
783.616	9171
783.721	8986
783.826	7919
783.932	8232
784.037	8688
784.142	8400
784.247	7512
784.352	7765
784.457	8132
784.562	7610
784.667	8180
784.772	6915
784.877	6873
784.982	7870
785.087	7015
785.192	7428
785.297	6928
785.402	7627
785.507	7332
785.611	7302
785.716	6712
785.821	7428
785.926	6598
786.031	7561
786.135	6617
786.240	6623
786.345	5470
786.450	7403
786.554	6182
786.659	5741
786.763	6010
786.868	7084
786.973	7325
787.077	6499
787.182	6011
787.286	5680
787.391	6132
787.495	6135
787.600	6222
787.704	5160
787.809	5876
787.913	4704
788.017	6029
788.122	6602
788.226	5482
788.330	6445
788.435	6121
788.539	6351
788.643	5271
788.747	6002
788.852	4971
788.956	5137
789.060	5637
789.164	6296
789.268	5356
789.372	6403
789.476	5605
789.580	5153
789.684	4841
789.788	5156
789.892	5042
789.996	5740
790.100	4805
790.204	5072
790.308	5513
790.412	5484
790.516	6080
790.620	5954
790.724	6603
790.828	6033
790.931	4620
791.035	6595
791.139	6032
791.242	4624
791.346	6357
791.450	4835
791.554	4711
791.657	3210
791.761	5285
791.864	5187
791.968	4804
792.072	5187
792.175	4621
792.279	4525
792.382	4819
792.486	5522
792.589	4447
792.693	5283
792.796	3774
792.899	4701
793.003	5089
793.106	3593
793.209	3550
793.313	5558
793.416	3251
793.519	5234
793.623	5280
793.726	4789
793.829	3637
793.932	5281
794.035	4326
794.138	6080
794.242	6036
794.345	8850
794.448	14664
794.551	33279
794.654	115506
794.757	190545
794.860	39216
794.963	10130
795.066	6644
795.169	6860
795.272	4594
795.375	5369
795.477	3755
795.580	4625
795.683	3300
795.786	4012
795.889	3088
795.991	5196
796.094	5125
796.197	4041
796.300	4735
796.402	3871
796.505	3041
796.608	3696
796.710	3906
796.813	3549
796.915	3042
797.018	3621
797.120	3583
797.223	2726
797.326	4493
797.428	2906
797.530	2904
797.633	3527
797.735	3743
797.838	5163
797.940	4595
798.042	2189
798.145	3743
798.247	4504
798.349	1885
798.452	3651
798.554	2061
798.656	2566
798.758	4092
798.860	3457
798.962	3395
799.065	2640
799.167	2532
799.269	3815
799.371	2604
799.473	3808
799.575	3346
799.677	3469
799.779	3680
799.881	1920
799.983	3121
800.085	3349
800.187	2662
800.289	1968
800.390	2970
800.492	2635
800.594	3848
800.696	2488
800.798	2823
800.899	3065
801.001	1863
801.103	2862
801.205	1891
801.306	2108
801.408	1743
801.509	2876
801.611	2204
801.713	2874
801.814	2211
801.916	2655
802.017	3380
802.119	2708
802.220	2990
802.322	1369
802.423	4086
802.525	3037
802.626	3081
802.727	2905
802.829	2640
802.930	966
803.031	3680
803.133	2259
803.234	2813
803.335	2777
803.436	1256
803.538	2479
803.639	1043
803.740	3171
803.841	1684
803.942	3013
804.043	2047
804.144	1327
804.245	2372
804.346	1989
804.447	1591
804.548	1519
804.649	3012
804.750	2809
804.851	1640
804.952	2025
805.053	1925
805.154	1487
805.255	2601
805.355	2391
805.456	1405
805.557	641
805.658	709
805.758	2572
805.859	1808
805.960	2215
806.061	2075
806.161	1700
806.262	1984
806.362	1907
806.463	1207
806.564	2272
806.664	1632
806.765	2595
806.865	2881
806.966	2108
807.066	1501
807.166	2657
807.267	2318
807.367	1485
807.468	2450
807.568	934
807.668	2180
807.769	2334
807.869	1328
807.969	1393
808.069	2215
808.170	2504
808.270	1709
808.370	2576
808.470	2629
808.570	928
808.670	1531
808.770	2486
808.870	1125
808.970	2900
809.070	1885
809.170	340
809.271	1678
809.370	1322
809.470	1596
809.570	1488
809.670	1949
809.770	1634
809.870	2093
809.970	2644
810.070	1674
810.169	2381
810.269	47
810.369	2212
810.469	1034
810.568	983
810.668	1541
810.768	1717
810.867	1393
810.967	1159
811.066	783
811.166	855
811.265	2183
811.365	1241
811.464	822
811.564	2283
811.663	1350
811.763	636
811.862	2135
811.962	2270
812.061	945
812.160	1325
812.260	1142
812.359	1872
812.458	1441
812.557	3984
812.657	6449
812.756	3784
812.855	1995
812.954	1207
813.053	1944
813.153	1212
813.252	512
813.351	1984
813.450	1040
813.549	1464
813.648	1731
813.747	1964
813.846	439
813.945	782
814.044	1002
814.143	968
814.242	975
814.341	654
814.439	1660
814.538	1921
814.637	1260
814.736	958
814.835	1071
814.933	313
815.032	1279
815.131	948
815.229	1884
815.328	2543
815.427	1639
815.525	2464
815.624	1428
815.722	1136
815.821	1547
815.919	1160
816.018	327
816.116	2605
816.215	1060
816.313	1491
816.412	1799
816.510	1826
816.609	3206
816.707	1676
816.805	1850
816.904	1156
817.002	1848
817.100	2175
817.198	1903
817.296	1703
817.395	1409
817.493	1922
817.591	1395
817.689	2982
817.787	975
817.885	3391
817.983	4607
818.081	8906
818.179	18551
818.277	45448
818.375	47656
818.473	14192
818.571	5622
818.669	4842
818.767	3497
818.865	3609
818.963	3654
819.061	4730
819.158	8218
819.256	17137
819.354	39065
819.452	92977
819.549	72812
819.647	20889
819.745	8444
819.842	5329
819.940	3207
820.038	2464
820.135	1813
820.233	3891
820.330	1644
820.428	1675
820.525	2500
820.623	1323
820.720	1296
820.818	1582
820.915	1775
821.012	2467
821.110	-36
821.207	2173
821.304	1255
821.402	1371
821.499	1861
821.596	1853
821.693	1537
821.791	1400
821.888	1839
821.985	1591
822.082	664
822.179	2090
822.276	1116
822.373	1438
822.470	716
822.567	1758
822.664	789
822.761	1947
822.858	-105
822.955	1426
823.052	730
823.149	1231
823.246	684
823.343	1066
823.440	1040
823.536	1329
823.633	638
823.730	1388
823.827	740
823.923	1425
824.020	1440
824.117	1534
824.213	-108
824.310	1507
824.407	1067
824.503	834
824.600	966
824.696	686
824.793	1151
824.889	553
824.986	1015
825.082	1329
825.179	1177
825.275	668
825.371	320
825.468	1740
825.564	-63
825.660	1213
825.757	444
825.853	1900
825.949	-357
826.045	1103
826.142	294
826.238	466
826.334	405
826.430	309
826.526	309
826.622	130
826.718	-129
826.814	1551
826.910	1153
827.006	787
827.102	227
827.198	1328
827.294	-274
827.390	1061
827.486	273
827.582	-519
827.678	-197
827.774	1429
827.869	-532
827.965	1999
828.061	-246
828.157	413
828.252	1038
828.348	43
828.444	466
828.539	-33
828.635	-163
828.731	1191
828.826	-334
828.922	588
829.017	405
829.113	1118
829.208	-482
829.304	145
829.399	1453
829.495	108
829.590	763
829.685	183
829.781	68
829.876	162
829.971	473
830.066	348
830.162	77
830.257	1063
830.352	567
830.447	1795
830.543	1253
830.638	5
830.733	146
830.828	659
830.923	1097
831.018	75
831.113	2
831.208	306
831.303	-498
831.398	808
831.493	369
831.588	76
831.683	-484
831.778	248
831.873	-694
831.967	1083
832.062	28
832.157	26
832.252	417
832.346	68
832.441	279
832.536	804
832.631	1576
832.725	388
832.820	-565
832.914	926
833.009	322
833.104	1089
833.198	525
833.293	-87
833.387	325
833.482	600
833.576	177
833.670	566
833.765	556
833.859	-305
833.954	434
834.048	983
834.142	-282
834.237	248
834.331	56
834.425	1068
834.519	-219
834.613	845
834.708	810
834.802	631
834.896	649
834.990	828
835.084	668
835.178	-2
835.272	1079
835.366	-411
835.460	776
835.554	329
835.648	-280
835.742	735
835.836	482
835.930	-158
836.024	-420
836.117	1509
836.211	763
836.305	1902
836.399	2127
836.493	-522
836.586	477
836.680	-119
836.774	-432
836.867	896
836.961	-458
837.055	46
837.148	239
837.242	453
837.335	443
837.429	389
837.522	446
837.616	1160
837.709	2435
837.803	1265
837.896	647
837.989	826
838.083	1321
838.176	2763
838.269	2733
838.363	1102
838.456	-402
838.549	1231
838.642	983
838.735	1800
838.829	1306
838.922	165
839.015	421
839.108	188
839.201	901
839.294	185
839.387	641
839.480	-112
839.573	315
839.666	2121
839.759	-792
839.852	-175
839.945	317
840.038	165
840.131	84
840.223	100
840.316	955
840.409	-475
840.502	-913
840.594	896
840.687	-55
840.780	572
840.873	27
840.965	-314
841.058	1183
841.150	3094
841.243	1052
841.336	1766
841.428	-175
841.521	-213
841.613	-232
841.706	964
841.798	-150
841.890	726
841.983	-382
842.075	1127
842.167	83
842.260	193
842.352	1720
842.444	1483
842.537	3517
842.629	4919
842.721	422
842.813	535
842.905	275
842.997	841
843.090	819
843.182	1623
843.274	2798
843.366	7589
843.458	14401
843.550	10087
843.642	1874
843.734	505
843.826	287
843.918	934
844.009	558
844.101	407
844.193	133
844.285	975
844.377	667
844.469	928
844.560	-4
844.652	29
844.744	903
844.835	454
844.927	-140
845.019	487
845.110	192
845.202	624
845.293	559
845.385	-344
845.476	592
845.568	571
845.659	535
845.751	514
845.842	-168
845.934	800
846.025	193
846.116	874
846.208	-21
846.299	275
846.390	302
846.482	1053
846.573	-5
846.664	1562
846.755	797
846.846	1214
846.937	-1111
847.029	664
847.120	-828
847.211	-64
847.302	1200
847.393	-444
847.484	-190
847.575	174
847.666	-675
847.757	744
847.847	827
847.938	687
848.029	317
848.120	-58
848.211	-103
848.302	108
848.392	2
848.483	406
848.574	-760
848.664	342
848.755	124
848.846	1179
848.936	-729
849.027	199
849.118	-60
849.208	181
849.299	726
849.389	838
849.480	1190
849.570	742
849.661	2721
849.751	4164
849.841	2163
849.932	-374
850.022	-269
850.112	1101
850.203	184
850.293	25
850.383	-160
850.474	691
850.564	-198
850.654	-20
850.744	-508
850.834	365
850.924	-203
851.014	137
851.104	61
851.194	-84
851.284	391
851.374	490
851.464	221
851.554	632
851.644	661
851.734	1344
851.824	2137
851.914	1931
852.004	4781
852.094	4930
852.183	362
852.273	-48
852.363	-37
852.452	65
852.542	-153
852.632	-688
852.721	49
852.811	269
852.901	-481
852.990	-169
853.080	518
853.169	-57
853.259	618
853.348	-451
853.438	-379
853.527	859
853.617	905
853.706	1687
853.795	1991
853.885	5742
853.974	8959
854.063	18715
854.152	29619
854.242	12021
854.331	1943
854.420	463
854.509	175
854.598	935
854.687	800
854.777	668
854.866	-957
854.955	200
855.044	31
855.133	-400
855.222	-85
855.311	-417
855.400	202
855.488	779
855.577	166
855.666	-314
855.755	968
855.844	743
855.933	1152
856.021	176
856.110	505
856.199	214
856.288	-138
856.376	238
856.465	-590
856.554	128
856.642	-1193
856.731	575
856.819	-24
856.908	-334
856.996	-339
857.085	379
857.173	-1031
857.262	-446
857.350	382
857.438	-546
857.527	763
857.615	-320
857.703	123
857.792	-267
857.880	-560
857.968	228
858.056	280
858.145	92
858.233	-852
858.321	-497
858.409	-906
858.497	-768
858.585	-611
858.673	701
858.761	-1122
858.849	25
858.937	-172
859.025	193
859.113	51
859.201	-811
859.289	93
859.377	-273
859.465	-337
859.552	-76
859.640	-547
859.728	444
859.816	-244
859.903	151
859.991	-607
860.079	-934
860.166	-16
860.254	-615
860.342	52
860.429	-1254
860.517	-156
860.604	573
860.692	-310
860.779	-112
860.867	-199
860.954	-577
861.042	-710
861.129	-201
861.216	-560
861.304	-126
861.391	-426
861.478	-357
861.565	-160
861.653	757
861.740	-682
861.827	-226
861.914	-285
862.001	-916
862.089	-849
862.176	-592
862.263	-232
862.350	680
862.437	-323
862.524	-747
862.611	-952
862.698	-312
862.785	-238
862.871	-907
862.958	-1372
863.045	-794
863.132	273
863.219	-260
863.306	-1593
863.392	551
863.479	-256
863.566	-529
863.652	-193
863.739	-770
863.826	-252
863.912	-176
863.999	-923
864.086	-207
864.172	-1572
864.259	-945
864.345	-835
864.432	-349
864.518	-498
864.604	-543
864.691	-391
864.777	643
864.863	478
864.950	-88
865.036	-320
865.122	-260
865.209	581
865.295	12
865.381	-274
865.467	388
865.553	-58
865.639	-288
865.726	79
865.812	1151
865.898	4215
865.984	7335
866.070	12634
866.156	15340
866.242	3872
866.328	881
866.414	-171
866.499	1090
866.585	202
866.671	-97
866.757	-373
866.843	427
866.928	-449
867.014	222
867.100	-3
867.186	118
867.271	198
867.357	1069
867.442	512
867.528	130
867.614	-551
867.699	321
867.785	563
867.870	-110
867.956	-307
868.041	785
868.127	-779
868.212	265
868.297	175
868.383	-346
868.468	-175
868.553	938
868.639	349
868.724	981
868.809	696
868.894	-329
868.979	38
869.065	387
869.150	-1182
869.235	82
869.320	-1594
869.405	94
869.490	-1110
869.575	-679
869.660	-453
869.745	-253
869.830	-144
869.915	-654
870.000	-105
870.085	-502
870.169	-1230
870.254	-609
870.339	-32
870.424	-599
870.509	-137
870.593	-578
870.678	-336
870.763	-492
870.847	-395
870.932	-813
871.016	-121
871.101	-570
871.186	-169
871.270	-636
871.355	-1056
871.439	-253
871.523	-643
871.608	-971
871.692	-179
871.777	461
871.861	-384
871.945	-1076
872.030	-430
872.114	-254
872.198	-746
872.282	77
872.367	-510
872.451	-826
872.535	-631
872.619	-337
872.703	-783
872.787	-581
872.871	-819
872.955	-279
873.039	-1000
873.123	-1457
873.207	-124
873.291	-616
873.375	361
873.459	-391
873.543	-1024
873.627	-484
873.711	-465
873.794	-443
873.878	-747
873.962	-1022
874.045	-1426
874.129	-1257
874.137	-1258
874.213	-1269
874.245	-1033
874.296	-650
874.352	-1047
874.380	-1242
874.460	-161
874.464	-118
874.547	-1146
874.568	-910
874.631	-207
874.676	-445
874.714	-642
874.784	-283
874.798	-214
874.881	707
874.892	536
874.965	-633
874.999	-938
875.048	-1372
875.107	-617
875.131	-313
875.215	-642
875.215	-642
875.298	-987
875.323	-936
875.381	-762
875.430	-369
875.465	-96
875.538	-369
875.548	-407
875.631	-898
875.646	-811
875.714	-448
875.753	-407
875.798	-324
875.861	-1185
875.881	-1460
875.964	-459
875.968	-470
876.047	-757
876.076	-705
876.130	-545
876.183	-715
876.213	-825
876.291	-686
876.296	-674
876.379	-812
876.398	-677
876.462	-153
876.506	-216
876.545	-321
876.613	260
876.628	385
876.711	-654
876.721	-588
876.794	-60
876.828	-184
876.877	-405
876.935	-301
876.960	-220
877.043	383
877.043	380
877.125	-237
877.150	-268
877.208	-290
877.258	-278
877.291	-252
877.365	-241
877.374	-254
877.456	-555
877.472	-573
877.539	-564
877.579	-447
877.622	-286
877.687	-188
877.704	-200
877.787	-96
877.794	-145
877.869	-696
877.901	-710
877.952	-581
878.008	-438
878.034	-394
878.115	-119
878.117	-112
878.199	-309
878.222	-212
878.282	-141
878.329	-218
878.364	-223
878.437	-198
878.447	-178
878.529	-277
878.544	-240
878.611	-358
878.651	-623
878.694	-834
878.758	-409
878.776	-208
878.858	-73
878.865	-32
878.941	-13
878.972	-139
879.023	-163
879.078	-690
879.105	-968
879.185	-640
879.187	-628
879.269	-436
879.292	-463
879.351	-771
879.399	-589
879.433	-396
879.506	-484
879.516	-481
879.598	-1026
879.613	-912
879.680	-588
879.720	-611
879.762	-489
879.827	-526
879.844	-577
879.926	-320
879.933	-315
880.007	-372
880.040	-560
880.089	-499
880.147	-91
880.171	-109
880.253	91
880.254	88
880.335	-144
880.360	177
880.417	909
880.467	1016
880.499	1064
880.574	1576
880.580	1627
880.662	218
880.680	184
880.744	-138
880.787	-234
880.825	-298
880.893	-515
880.907	-572
880.989	-1085
881.000	-1070
881.070	-588
881.106	-424
881.152	-393
881.213	-279
881.233	-217
881.315	-165
881.319	-163
881.396	246
881.426	181
881.478	-176
881.532	-61
881.559	-50
881.639	-160
881.641	-168
881.722	-579
881.745	-729
881.803	-412
881.852	-200
881.885	-399
881.958	-809
881.966	-786
882.047	355
882.064	245
882.129	-577
882.171	-536
882.210	-200
882.277	154
882.291	67
882.372	-657
882.383	-737
882.454	-455
882.489	-327
882.535	-411
882.596	-194
882.616	-72
882.697	-256
882.702	-256
882.778	-182
882.808	-84
882.859	-197
882.914	-432
882.940	-419
883.020	-289
883.021	-288
883.102	-217
883.127	-296
883.183	-361
883.233	-423
883.264	-359
883.339	134
883.345	122
883.426	-336
883.445	-429
883.507	-239
883.551	-281
883.587	-316
883.657	-49
883.668	-40
883.749	69
883.763	60
883.830	-186
883.869	-447
883.910	-338
883.975	91
883.991	77
884.072	-189
884.081	-219
884.152	-310
884.187	-300
884.233	-201
884.292	-204
884.314	-190
884.394	-160
884.398	-152
884.475	-341
884.504	-515
884.555	-471
884.610	-89
884.636	-80
884.716	-549
884.716	-547
884.797	-313
884.821	-185
884.877	90
884.927	64
884.958	-42
885.033	-46
885.038	-48
885.118	-281
885.139	-318
885.199	-272
885.244	-19
885.279	77
885.350	-200
885.359	-191
885.439	-46
885.456	-11
885.520	-203
885.561	-291
885.600	80
885.667	534
885.680	398
885.760	-121
885.773	-206
885.840	-176
885.878	-368
885.920	-242
885.984	53
886.000	6
886.080	-220
886.089	-215
886.160	2
886.195	-31
886.240	-174
886.300	-330
886.320	-324
886.400	-160
886.406	-161
886.480	-470
886.511	-559
886.560	-118
886.616	216
886.640	-8
886.720	-445
886.722	-462
886.800	-6
886.827	193
886.879	43
886.932	-159
886.959	-108
887.038	37
887.039	40
887.119	132
887.143	128
887.198	-121
887.248	-245
887.278	-34
887.354	331
887.358	343
887.437	466
887.459	558
887.517	143
887.564	-331
887.596	-256
887.669	33
887.676	46
887.755	124
887.774	147
887.835	104
887.880	91
887.914	214
887.985	403
887.994	346
888.073	-197
888.090	-300
888.153	-74
888.195	29
888.232	197
888.300	587
888.311	552
888.391	243
888.405	179
888.470	286
888.510	359
888.549	501
888.615	730
888.628	689
888.708	482
888.720	425
888.787	629
888.825	778
888.866	376
888.930	-253
888.945	-162
889.024	314
889.035	375
889.103	-99
889.140	-350
889.182	-305
889.245	-222
889.261	-206
889.340	-144
889.349	-137
889.419	-51
889.454	-1
889.498	-182
889.559	-422
889.577	-430
889.656	-467
889.664	-467
889.735	45
889.768	286
889.814	311
889.873	346
889.978	367
890.083	329
890.187	346
890.292	-89
890.397	730
890.501	-156
890.606	37
890.710	977
890.815	54
890.919	488
891.024	-376
891.128	182
891.233	-79
891.337	1186
891.442	556
891.546	177
891.650	-272
891.755	927
891.859	428
891.963	-6
892.068	295
892.172	966
892.276	220
892.380	350
892.484	-834
892.589	1095
892.693	-199
892.797	761
892.901	934
893.005	438
893.109	808
893.213	-234
893.317	159
893.421	427
893.525	-555
893.629	15
893.733	-404
893.837	473
893.941	758
894.045	906
894.148	-583
894.252	1011
894.356	-236
894.460	375
894.564	-510
894.667	-2
894.771	-602
894.875	56
894.978	245
895.082	-342
895.186	-33
895.289	966
895.393	511
895.496	423
895.600	201
895.703	-40
895.807	489
895.910	263
896.014	-51
896.117	-55
896.221	421
896.324	307
896.427	-160
896.531	640
896.634	420
896.737	421
896.840	-283
896.944	-429
897.047	1077
897.150	149
897.253	-343
897.356	417
897.460	-727
897.563	-80
897.666	-123
897.769	-127
897.872	-9
897.975	8
898.078	-264
898.181	-331
898.284	-1359
898.387	555
898.490	16
898.593	197
898.695	227
898.798	-294
898.901	85
899.004	450
899.107	-459
899.209	-296
899.312	382
899.415	-117
899.518	54
899.620	291
899.723	-4
899.826	702
899.928	176
900.031	721
900.133	-219
900.236	26
900.338	-267
900.441	213
900.543	-281
900.646	496
900.748	197
900.851	-879
900.953	46
901.055	655
901.158	-572
901.260	428
901.362	-491
901.465	554
901.567	0
901.669	-73
901.771	-290
901.873	96
901.976	141
902.078	-845
902.180	-705
902.282	8
902.384	-209
902.486	139
902.588	-304
902.690	-265
902.792	-301
902.894	-336
902.996	-318
903.098	-217
903.200	-482
903.302	701
903.404	-427
903.505	-55
903.607	186
903.709	409
903.811	422
903.913	69
904.014	946
904.116	-407
904.218	-288
904.319	128
904.421	293
904.523	76
904.624	-40
904.726	231
904.827	108
904.929	211
905.030	-552
905.132	49
905.233	581
905.335	-689
905.436	-120
905.537	288
905.639	-130
905.740	250
905.841	431
905.943	451
906.044	-245
906.145	-112
906.247	-151
906.348	-178
906.449	-335
906.550	-109
906.651	-790
906.752	-509
906.854	-666
906.955	629
907.056	-374
907.157	382
907.258	-569
907.359	-296
907.460	-510
907.561	236
907.662	313
907.762	-266
907.863	-151
907.964	15
908.065	229
908.166	276
908.267	157
908.367	-128
908.468	462
908.569	308
908.670	229
908.770	5
908.871	328
908.971	-139
909.072	595
909.173	172
909.273	-663
909.374	141
909.474	-864
909.575	285
909.675	-298
909.776	-104
909.876	-381
909.977	491
910.077	293
910.177	-19
910.278	-31
910.378	174
910.478	168
910.579	182
910.679	-302
910.779	308
910.879	723
910.980	-332
911.080	-332
911.180	-275
911.280	-232
911.380	845
911.480	-776
911.580	-653
911.680	82
911.780	-293
911.880	135
911.980	-25
912.080	-378
912.180	220
912.280	343
912.380	357
912.480	28
912.580	-514
912.679	-563
912.779	240
912.879	-18
912.979	-83
913.078	-379
913.178	-303
913.278	-468
913.377	-393
913.477	-66
913.577	-162
913.676	-83
913.776	24
913.875	-455
913.975	-56
914.074	320
914.174	332
914.273	-1177
914.373	-12
914.472	-280
914.572	-22
914.671	-700
914.770	-26
914.870	-908
914.969	-317
915.068	592
915.167	77
915.267	-825
915.366	70
915.465	-947
915.564	-211
915.663	-247
915.763	381
915.862	248
915.961	201
916.060	-567
916.159	148
916.258	-118
916.357	-502
916.456	587
916.555	461
916.654	-204
916.752	-526
916.851	-758
916.950	83
917.049	-318
917.148	-606
917.247	-558
917.345	-474
917.444	-390
917.543	1001
917.642	-416
917.740	331
917.839	-75
917.937	659
918.036	37
918.135	-93
918.233	-632
918.332	-5
918.430	-375
918.529	370
918.627	-435
918.726	580
918.824	394
918.923	-754
919.021	-453
919.119	462
919.218	-406
919.316	321
919.414	-511
919.512	-251
919.611	-456
919.709	-686
919.807	-730
919.905	-744
920.003	-542
920.102	158
920.200	-48
920.298	-297
920.396	-331
920.494	609
920.592	-696
920.690	-637
920.788	-66
920.886	-172
920.984	-460
921.082	-748
921.180	449
921.277	277
921.375	-882
921.473	-827
921.571	-229
921.669	-212
921.766	137
921.864	88
921.962	-713
922.060	-387
922.157	34
922.255	-275
922.352	-102
922.450	-390
922.548	-89
922.645	-686
922.743	193
922.840	-323
922.938	-599
923.035	273
923.133	-423
923.230	-271
923.327	-359
923.425	230
923.522	-410
923.619	-663
923.717	-426
923.814	1103
923.911	42
924.008	-168
924.106	-85
924.203	-257
924.300	614
924.397	315
924.494	-365
924.591	-741
924.688	-316
924.786	-389
924.883	-31
924.979	327
925.077	-549
925.173	631
925.270	-1234
925.367	41
925.464	72
925.561	118
925.658	357
925.755	-461
925.852	-756
925.948	-596
926.045	117
926.142	-99
926.239	-318
926.335	148
926.432	-682
926.529	249
926.625	276
926.722	-222
926.818	-961
926.915	-529
927.011	176
927.108	-352
927.204	-712
927.301	-135
927.397	155
927.494	79
927.590	-327
927.687	59
927.783	4
927.879	26
927.976	-530
928.072	-52
928.168	-120
928.264	-76
928.361	-776
928.457	-748
928.553	45
928.649	232
928.745	-310
928.841	-179
928.937	80
929.033	222
929.129	-838
929.225	-462
929.321	-91
929.417	-380
929.513	-1177
929.609	-330
929.705	-698
929.801	-297
929.897	-1071
929.993	-828
930.089	-205
930.184	-997
930.280	-822
930.376	113
930.471	-968
930.567	-49
930.663	-421
930.758	293
930.854	-854
930.950	-367
931.045	-1204
931.141	-133
931.236	-237
931.332	-979
931.427	-263
931.523	171
931.618	-961
931.714	-1030
931.809	-220
931.905	-303
932.000	-219
932.095	-557
932.191	204
932.286	-533
932.381	-508
932.476	-275
932.572	159
932.667	-262
932.762	-872
932.857	136
932.952	-819
933.047	-755
933.142	-613
933.237	-522
933.332	-868
933.427	-226
933.522	-298
933.617	-1045
933.712	194
933.807	224
933.902	-1239
933.997	-711
934.092	-825
934.187	-580
934.282	31
934.376	-151
934.471	-977
934.566	-1012
934.661	68
934.755	-117
934.850	-435
934.945	-732
935.039	-881
935.134	-190
935.228	-627
935.323	214
935.417	-485
935.512	-60
935.606	-1350
935.701	-482
935.795	-1006
935.890	-255
935.984	-908
936.079	-140
936.173	-449
936.267	-238
936.362	-132
936.456	-265
936.550	-37
936.644	-34
936.738	-943
936.833	-945
936.927	-575
937.021	-625
937.115	-286
937.209	-1534
937.303	-81
937.397	-1462
937.491	-953
937.585	-254
937.679	-1194
937.773	-602
937.867	-496
937.961	-64
938.055	-254
938.149	-91
938.243	-414
938.337	-257
938.430	-598
938.524	271
938.618	-327
938.712	419
938.805	30
938.899	229
938.993	-1209
939.086	83
939.180	-919
939.274	-384
939.367	-992
939.461	-605
939.554	-337
939.648	424
939.741	-768
939.835	-310
939.928	-392
940.022	-113
940.115	-46
940.208	272
940.302	-288
940.395	410
940.488	-645
940.582	-330
940.675	-932
940.768	220
940.861	-431
940.954	-321
941.048	-1410
941.141	138
941.234	-1610
941.327	-130
941.420	-351
941.513	-173
941.606	-693
941.699	-7
941.792	-969
941.885	-512
941.978	-582
942.071	-22
942.164	-510
942.257	147
942.349	-53
942.442	-943
942.535	-557
942.628	-67
942.721	-422
942.813	-1102
942.906	-157
942.999	-314
943.091	-116
943.184	-850
943.277	-689
943.369	-585
943.462	-759
943.554	-188
943.647	-1355
943.739	-161
943.832	-1258
943.924	-800
944.017	901
944.109	-604
944.201	-464
944.294	128
944.386	-431
944.478	-1456
944.571	-644
944.663	391
944.755	-1105
944.847	-210
944.940	-664
945.032	-1
945.124	-666
945.216	-266
945.308	-937
945.400	-584
945.492	-171
945.584	-124
945.676	-664
945.768	-379
945.860	-508
945.952	-690
946.044	-902
946.136	-597
946.228	-294
946.320	-616
946.412	-705
946.503	-745
946.595	-172
946.687	-373
946.779	-375
946.870	-197
946.962	207
947.054	-663
947.145	294
947.237	-451
947.329	-504
947.420	65
947.512	-763
947.603	-290
947.695	-102
947.786	-509
947.878	-522
947.969	-161
948.061	-301
948.152	-1070
948.243	-510
948.335	271
948.426	458
948.517	-672
948.609	120
948.700	-339
948.791	-472
948.882	-164
948.973	-214
949.065	-591
949.156	-1099
949.247	-647
949.338	-749
949.429	-748
949.520	-792
949.611	-1577
949.702	143
949.793	-305
949.884	-248
949.975	-234
950.066	-1542
950.157	-431
950.247	-513
950.338	-801
950.429	-1488
950.520	-1
950.611	-183
950.701	-166
950.792	-652
950.883	-297
950.973	-321
951.064	-112
951.155	-13
951.245	286
951.336	-1284
951.427	-816
951.517	371
951.608	-165
951.698	-225
951.788	-438
951.879	-703
951.969	-400
952.060	-1343
952.150	-470
952.240	-773
952.331	-2104
952.421	557
952.511	-445
952.602	-378
952.692	-689
952.782	-391
952.872	-1021
952.962	-403
953.052	-69
953.143	-920
953.233	384
953.323	-150
953.413	-1148
953.503	-91
953.593	-382
953.683	-1595
953.773	-1006
953.863	-862
953.953	240
954.042	-635
954.132	-1298
954.222	-705
954.312	-440
954.402	-989
954.492	-641
954.581	-1004
954.671	-1465
954.761	-854
954.850	322
954.940	-74
955.030	-1049
955.119	-1253
955.209	228
955.298	-2435
955.388	-751
955.477	313
955.567	-765
955.656	-675
955.746	-88
955.835	-1018
955.925	-522
956.014	-857
956.103	-349
956.193	-71
956.282	-890
956.371	-913
956.461	-901
956.550	-784
956.639	-783
956.728	-1243
956.817	145
956.906	-707
956.995	144
957.085	-867
957.174	-437
957.263	-476
957.352	-577
957.441	-1617
957.530	421
957.619	-558
957.708	-634
957.796	-851
957.885	-840
957.974	-921
958.063	-438
958.152	-769
958.241	-188
958.329	-560
958.418	-345
958.507	-1080
958.596	679
958.684	-1470
958.773	12
958.861	-22
958.950	186
959.039	-920
959.127	-439
959.216	640
959.304	-391
959.393	-590
959.481	-310
959.570	-773
959.658	310
959.746	-610
959.835	301
959.923	-575
960.011	-806
960.100	-533
960.188	-374
960.276	-922
960.365	287
960.453	-748
960.541	-1130
960.629	-259
960.717	-907
960.805	-917
960.893	-591
960.981	-2010
961.069	352
961.158	-1312
961.245	92
961.333	-861
961.421	-735
961.509	-360
961.597	-209
961.685	-1058
961.773	-563
961.861	-945
961.949	-171
962.036	-1020
962.124	-58
962.212	-416
962.299	-457
962.387	-1380
962.475	-75
962.562	-480
962.650	-336
962.738	-911
962.825	-1493
962.913	-993
963.000	-896
963.088	-891
963.175	-923
963.263	-1127
963.350	-806
963.438	-1236
963.525	-1415
963.612	-1137
963.700	14
963.787	1070
963.874	-260
963.962	-849
964.049	-716
964.136	-1133
964.223	-706
964.310	-674
964.398	-884
964.485	-1105
964.572	-725
964.659	-1282
964.746	-1134
964.833	-627
964.920	-1616
965.007	-1350
965.094	-411
965.181	-1139
965.268	-1202
965.355	-957
965.441	-177
965.528	-2069
965.615	-331
965.702	-1391
965.789	-1106
965.875	-829
965.962	19
966.049	-1497
966.136	-1714
966.222	-782
966.309	-972
966.395	-1271
966.482	-1120
966.569	-2170
966.655	-1856
966.742	-584
966.828	13
966.915	-696
967.001	-177
967.087	-1613
967.174	7
967.260	-1212
967.347	-195
967.433	-899
967.519	895
967.605	-1282
967.692	-930
967.778	-1216
967.864	-575
967.950	-1329
968.036	-1404
968.123	-1673
968.209	96
968.295	-1527
968.381	997
968.467	-388
968.553	-1582
968.639	-294
968.725	-372
968.811	-114
968.897	-764
968.983	-600
969.069	-1282
969.154	-601
969.240	643
969.326	-1296
969.412	-404
969.497	-981
969.583	-1878
969.669	-463
969.755	-470
969.840	-1419
969.926	-597
970.012	-618
970.097	-118
970.183	-917
970.268	-433
970.354	-346
970.439	-572
970.525	277
970.610	-1717
970.696	-344
970.781	-853
970.866	-1352
970.952	-201
971.037	-1473
971.122	-970
971.208	-808
971.293	-696
971.378	-2084
971.463	-933
971.549	-979
971.634	-1542
971.719	-835
971.804	-755
971.889	-660
971.974	-1590
972.059	-926
972.144	-334
972.229	-1172
972.314	-1862
972.399	-582
972.484	-958
972.569	-450
972.654	-1631
972.739	-11
972.824	-1424
972.908	-932
972.993	-1081
973.078	-1155
973.163	-1296
973.247	-992
973.332	-1740
973.417	-331
973.501	-1531
973.586	-1038
973.671	-791
973.755	-916
973.840	-964
973.924	-539
974.009	-341
974.093	-924
974.178	-831
974.262	-1082
974.346	-911
974.431	-914
974.515	-1536
974.600	-885
974.684	341
974.768	-1647
974.852	317
974.937	-1279
975.021	-985
975.105	-639
975.189	-328
975.273	-221
975.358	-846
975.442	-1262
975.526	-519
975.610	-1449
975.694	-957
975.778	678
975.862	-732
975.946	-1824
976.030	703
976.114	-1077
976.198	-940
976.281	-785
976.365	199
976.449	-1684
976.533	-810
976.617	-1631
976.700	-1643
976.784	-956
976.868	-1469
976.951	-552
977.035	-622
977.119	-724
977.202	-70
977.286	-642
977.369	-545
977.453	-399
977.536	-1842
977.620	-1091
977.703	-890
977.787	-1483
977.870	-714
977.953	-161
978.037	-1699
978.120	-860
978.203	-737
978.287	-808
978.370	-996
978.453	-472
978.536	-838
978.620	-136
978.703	-613
978.786	-1095
978.869	-1317
978.952	-2203
979.035	709
979.118	-854
979.201	-542
979.284	-575
979.367	-1317
979.450	-552
979.533	-96
979.616	-1479
979.699	-1256
979.782	-1003
979.865	-1109
979.948	-840
980.030	-1181
980.113	-1761
980.196	-957
980.279	-759
980.361	-917
980.444	-860
980.526	-1342
980.609	-1833
980.692	-1452
980.774	-888
980.857	-1165
980.939	-693
981.022	-1310
981.104	-1388
981.187	-856
981.269	118
981.352	-582
981.434	-1866
981.516	-1285
981.599	-887
981.681	-1049
981.763	56
981.846	-773
981.928	-816
982.010	-1422
982.092	-1634
982.174	-639
982.256	-769
982.339	-878
982.421	-1182
982.503	-911
982.585	-1406
982.667	265
982.749	-1727
982.831	-913
982.913	-1659
982.995	-442
983.077	-1712
983.158	65
983.240	-1452
983.322	-812
983.404	-937
983.486	-1180
983.568	-293
983.649	-911
983.731	-811
983.813	-1637
983.894	-945
983.976	-448
984.058	-1207
984.139	-491
984.221	-1701
984.302	-423
984.384	-734
984.465	-1290
984.547	-912
984.628	-1560
984.710	6
984.791	-1504
984.872	-1383
984.954	-977
985.035	-740
985.116	-1179
985.198	-2184
985.279	-279
985.360	-1971
985.441	-647
985.522	-787
985.604	-1541
985.685	-1718
985.766	38
985.847	-272
985.928	-1893
986.009	-1163
986.090	-965
986.171	-581
986.252	-1406
986.333	-1863
986.414	-1359
986.495	-1018
986.576	-1241
986.656	-1817
986.737	-898
986.818	-1386
986.899	-2281
986.980	-1243
987.060	-186
987.141	-1752
987.222	-150
987.302	414
987.383	-925
987.464	-1671
987.544	-806
987.625	-1841
987.705	-1854
987.786	-1145
987.866	-1354
987.947	-1380
988.027	-746
988.108	-2018
988.188	-805
988.268	-1344
988.349	-1073
988.429	-1240
988.509	-535
988.589	-1479
988.670	-2329
988.750	-123
988.830	-1061
988.910	-565
988.990	-1406
989.070	-1150
989.151	-918
989.231	-875
989.311	-695
989.391	-914
989.471	-1326
989.551	-1645
989.631	-1552
989.711	-774
989.791	-1364
989.870	-1176
989.950	-678
990.030	-1490
990.110	-820
990.190	-1755
990.269	-526
990.349	-928
990.429	-208
990.509	-1444
990.588	-1657
990.668	-284
990.747	-1790
990.827	-1063
990.907	-592
990.986	-1931
991.066	-844
991.145	-1782
991.225	-896
991.304	-1852
991.383	-1611
991.463	-2178
991.542	-1030
991.622	-1044
991.701	-1295
991.780	-1940
991.859	-1189
991.939	-1161
992.018	-919
992.097	-1152
992.176	-1780
992.256	-1176
992.335	-1190
992.414	-1798
992.493	-1543
992.572	-1636
992.651	43
992.730	-1573
992.809	-1180
992.888	-1292
992.967	-1112
993.046	-78
993.125	-2374
993.203	-1444
993.282	-411
993.361	-1343
993.440	-944
993.519	-2084
993.597	-594
993.676	-1482
993.755	2
993.834	-1585
993.912	-1850
993.991	-963
994.069	-2303
994.148	-1944
994.226	-1730
994.305	-988
994.384	-1864
994.462	-476
994.540	-1447
994.619	-1829
994.697	-488
994.776	-1714
994.854	-1021
994.932	-1806
995.011	-270
995.089	-1975
995.167	-1049
995.245	-1605
995.324	-1382
995.402	-1042
995.480	-2417
995.558	-1089
995.636	-2039
995.714	-1397
995.792	-1217
995.870	-1712
995.948	-852
996.026	-755
996.104	-2091
996.182	-1712
996.260	-1018
996.338	-1223
996.416	-1411
996.494	-827
996.572	-253
996.649	-958
996.727	-1797
996.805	-746
996.883	-1532
996.960	-1659
997.038	-858
997.116	-721
997.193	-1449
997.271	-1769
997.348	-1808
997.426	-2064
997.504	-1965
997.581	-869
997.658	262
997.736	-2326
997.813	-1882
997.891	-1192
997.968	-852
998.046	-1294
998.123	-922
998.200	-813
998.277	-2103
998.355	-921
998.432	-1759
998.509	-1893
998.586	-1151
998.663	-1034
998.741	-1459
998.818	-1095
998.895	-909
998.972	-1447
999.049	-930
999.126	-2595
999.203	-523
999.280	-1381
999.357	-1687
999.434	-1841
999.511	-488
999.587	-786
999.664	-2411
999.741	-1434
999.818	-965
999.895	-1951
999.971	-2078
1000.048	-1527
1000.125	-1067
1000.202	-1714
1000.278	-1401
1000.355	-1479
1000.431	-763
1000.508	-1982
1000.584	-690
1000.661	-1136
1000.738	-1876
1000.814	-868
1000.890	-1245
1000.967	-2031
1001.043	-2017
1001.120	-2186
1001.196	-986
1001.272	-1883
1001.349	-1623
1001.425	-1386
1001.501	-1834
1001.577	-1388
1001.654	-1263
1001.730	-1314
1001.806	-1403
1001.882	-2070
1001.958	-927
1002.034	-2254
1002.110	-868
1002.186	-2335
1002.262	-1132
1002.338	-1613
1002.414	25
1002.490	-1370
1002.566	-1696
1002.642	-1213
1002.718	-346
1002.794	-2093
1002.870	-1668
1002.945	-1576
1003.021	-1010
1003.097	-1414
1003.173	-420
1003.248	-1687
1003.324	-1264
1003.400	-1240
1003.475	-728
1003.551	-1373
1003.626	-968
1003.702	-911
1003.777	-917
1003.853	-1996
1003.928	-1479
1004.004	-2245
1004.079	-725
1004.155	-1546
1004.230	-2324
1004.305	-622
1004.381	-1771
1004.456	-1215
1004.531	-608
1004.607	-2070
1004.682	-1438
1004.757	-1740
1004.832	-1687
1004.907	-919
1004.982	-491
1005.057	-1602
1005.133	-1480
1005.208	-1397
1005.283	-1543
1005.358	-931
1005.433	-801
1005.508	-1850
1005.583	-1613
1005.657	-1416
1005.732	-900
1005.807	-1595
1005.882	-1684
1005.957	-1465
1006.032	-1326
1006.106	-1467
1006.181	-1677
1006.256	-1779
1006.331	-1362
1006.405	-1860
1006.480	-826
1006.554	-1673
1006.629	-1140
1006.704	-1389
1006.778	-1000
1006.853	-412
1006.927	-1248
1007.002	-1879
1007.076	-957
1007.150	-1439
1007.225	-1523
1007.299	-1649
1007.373	-983
1007.448	-1364
1007.522	-549
1007.596	-1497
1007.671	-1548
1007.745	-1181
1007.819	-1893
1007.893	-2071
1007.967	-636
1008.041	-2185
1008.115	-1418
1008.190	-1389
1008.264	-425
1008.338	-2145
1008.412	-1590
1008.486	-1098
1008.560	-1510
1008.633	-2065
1008.707	-1694
1008.781	-711
1008.855	-889
1008.929	-804
1009.003	-1013
1009.076	-1559
1009.150	-469
1009.224	-1738
1009.298	-819
1009.371	-2138
1009.445	-1417
1009.519	-1709
1009.592	-2054
1009.666	-1274
1009.739	-1146
1009.813	-1807
1009.886	-459
1009.960	-2051
1010.033	-790
1010.107	-1783
1010.180	-2536
1010.253	-2095
1010.327	-1919
1010.400	-1953
1010.473	-1013
1010.547	164
1010.620	-1625
1010.693	-1156
1010.766	-1762
1010.840	-1121
1010.913	-1413
1010.986	-2037
1011.059	-634
1011.132	-2370
1011.205	-1317
1011.278	-1583
1011.351	-1388
1011.424	-1055
1011.497	-1510
1011.570	-1725
1011.643	-534
1011.716	-1708
1011.789	-1912
1011.862	97
1011.934	-745
1012.007	-2395
1012.080	-2119
1012.153	-1573
1012.225	-401
1012.298	-1549
1012.371	-1729
1012.443	-1228
1012.516	-2252
1012.588	-1003
1012.661	-1248
1012.733	-2007
1012.806	-423
1012.879	-1831
1012.951	-1747
1013.023	-820
1013.096	-1836
1013.168	-1491
1013.241	-602
1013.313	-1866
1013.385	-1612
1013.458	-1883
1013.530	-1582
1013.602	-1965
1013.674	-383
1013.746	-2068
1013.819	-2063
1013.891	-1108
1013.963	-1921
1014.035	-2163
1014.107	-1018
1014.179	-1678
1014.251	-1727
1014.323	-2029
1014.395	-1623
1014.467	-1177
1014.539	-1507
1014.611	-1673
1014.683	-872
1014.754	-1770
1014.826	-793
1014.898	-690
1014.970	-1788
1015.042	-1177
1015.113	-1059
1015.185	-1281
1015.257	-2053
1015.328	-1430
1015.400	-2543
1015.471	-2129
1015.543	-1774
1015.615	-2168
1015.686	-1735
1015.757	-2273
1015.829	-577
1015.901	-1461
1015.972	-954
1016.043	-1894
1016.115	-493
1016.186	-1310
1016.257	-2098
1016.328	-1477
1016.400	-999
1016.471	-1870
1016.542	-1005
1016.613	-1494
1016.685	-1174
1016.756	-1409
1016.827	-545
1016.898	-2653
1016.969	-1383
1017.040	-2016
1017.111	-1335
1017.182	-2067
1017.253	-1563
1017.324	-1875
1017.395	-1980
1017.466	-1222
1017.537	-1772
1017.608	-1271
1017.678	-1315
1017.749	-1660
1017.820	-703
1017.891	-1936
1017.961	-1354
1018.032	-2080
1018.103	-1365
1018.173	-1403
1018.244	-2015
1018.315	-1274
1018.385	-896
1018.456	-1197
1018.526	-2009
1018.597	-1613
1018.667	-1101
1018.738	-2118
1018.808	-1274
1018.878	-2178
1018.949	-1190
1019.019	-1679
1019.089	-1796
1019.160	-2323
1019.230	-1512
1019.300	-1434
1019.371	-1193
1019.441	-955
1019.511	-1545
1019.581	-2201
1019.651	-1192
1019.721	-1405
1019.791	-1500
1019.861	-2085
1019.931	-1576
1020.001	-1914
1020.071	-1726
1020.141	-1489
1020.211	-1055
1020.281	-1407
1020.351	-1480
1020.421	-1673
1020.491	-763
1020.560	-1839
1020.630	-659
1020.700	-2079
1020.770	-2040
1020.839	-1602
1020.909	-1327
1020.979	-1337
1021.048	-906
1021.118	-1676
1021.187	-1502
1021.257	-1936
1021.326	-1336
1021.396	-1893
1021.465	-898
1021.535	-1864
1021.604	-1414
1021.674	-1963
1021.743	-1462
1021.812	-1417
1021.882	-1748
1021.951	-1042
1022.020	-1505
1022.089	-783
1022.159	-1705
1022.228	-1216
1022.297	-1740
1022.366	-1259
1022.435	-1787
1022.504	-1793
1022.573	-1793
1022.642	-1169
1022.711	-1108
1022.781	-1698
1022.849	-1197
1022.918	-1905
1022.987	-1881
1023.056	-2302
1023.125	-1178
1023.194	-1901
1023.263	-1503
1023.331	-957
1023.400	-2048
1023.469	-2432
1023.538	-663
1023.606	-2191
1023.675	-1558
1023.744	-2413
1023.812	-1100
1023.881	-1936
1023.949	-1066
1024.018	-1629
1024.086	-1943
1024.155	-3006
1024.223	-1596
1024.292	-1499
1024.360	-1419
1024.429	-1805
1024.497	-1344
1024.565	-1855
1024.634	-1846
1024.702	-1958
1024.770	-2040
1024.838	-2611
1024.907	-1332
1024.975	-2401
1025.043	-1191
1025.111	-2083
1025.179	-1505
1025.247	-1844
1025.315	-1710
1025.383	-1274
1025.451	-1324
1025.519	-2513
1025.587	-1578
1025.655	-1756
1025.723	-1876
1025.791	-1646
1025.859	-1646
1025.927	-727
1025.995	-1318
1026.062	-1196
1026.130	-2070
1026.198	-2110
1026.266	-2048
1026.333	-1519
1026.401	-1577
1026.469	-2697
1026.536	-2181
1026.604	-2241
1026.671	-1999
1026.739	-1153
1026.806	-1716
1026.874	-2127
1026.941	-1399
1027.009	-1977
1027.076	-2337
1027.144	-816
1027.211	-2270
1027.278	-2202
1027.345	-1251
1027.413	-2159
1027.480	-2027
1027.547	-1826
1027.614	-1932
1027.682	-1906
1027.749	-1879
1027.816	-1857
1027.883	-1362
1027.950	-1557
1028.017	-1863
1028.084	-1410
1028.151	-1949
1028.218	-2254
1028.285	-1630
1028.352	-2290
1028.419	-2255
1028.486	-1605
1028.553	-1885
1028.619	-1965
1028.686	-2180
1028.753	-2707
1028.820	-1414
1028.886	-2339
1028.953	-1840
1029.020	-1613
1029.086	-2188
1029.153	-2411
1029.220	-1312
1029.286	-1757
1029.353	-1193
1029.419	-2300
1029.486	-2755
1029.552	-1848
1029.619	-1907
1029.685	-2107
1029.751	-1409
1029.818	-1323
1029.884	-802
1029.951	-1141
1030.017	-1546
1030.083	-1718
1030.149	-1738
1030.216	-2148
1030.282	-1524
1030.348	-2951
1030.414	-2194
1030.480	-2135
1030.546	-818
1030.612	-2093
1030.678	-1724
1030.744	-1889
1030.810	-1463
1030.876	-1356
1030.942	-1407
1031.008	-1907
1031.074	-2928
1031.140	-2192
1031.206	-1264
1031.272	-2250
1031.337	-2178
1031.403	-2306
1031.469	-1446
1031.534	-2704
1031.600	-1400
1031.666	-1864
1031.731	-1681
1031.797	-2167
1031.863	-2211
1031.928	-2113
1031.994	-1652
1032.059	-2365
1032.125	-2826
1032.190	-1987
1032.256	-1653
1032.321	-2806
1032.386	-1947
1032.452	-1482
1032.517	-1353
1032.582	-1993
1032.647	-1268
1032.713	-1796
1032.778	-1827
1032.843	-2006
1032.908	-1699
1032.974	-1952
1033.039	-1545
1033.104	-2184
1033.169	-1766
1033.234	-1583
1033.299	-1902
1033.364	-2548
1033.429	-1990
1033.494	-1854
1033.559	-1996
1033.624	-2115
1033.688	-1533
1033.753	-2314
1033.818	-1165
1033.883	-2075
1033.948	-1860
1034.013	-2130
1034.077	-2355
1034.142	-2181
1034.207	-2365
1034.271	-1802
1034.336	-1764
1034.400	-1443
1034.465	-936
1034.530	-1847
1034.594	-1519
1034.658	-1244
1034.723	-1567
1034.787	-1126
1034.852	-1872
1034.916	-2096
1034.981	-2111
1035.045	-1785
1035.109	-2438
1035.173	-1492
1035.238	-2769
1035.302	-1538
1035.366	-2311
1035.430	-2101
1035.495	-1979
1035.559	-1499
1035.623	-1826
1035.687	-2613
1035.751	-2024
1035.815	-1736
1035.879	-1617
1035.943	-1421
1036.007	-1407
1036.071	-2026
1036.135	-1543
1036.198	-2423
1036.262	-2013
1036.326	-1689
1036.390	-2188
1036.454	-1785
1036.517	-1773
1036.581	-2161
1036.645	-1765
1036.709	-1938
1036.772	-2690
1036.836	-2828
1036.900	-1512
1036.963	-2582
1037.026	-2446
1037.090	-1778
1037.154	-2020
1037.217	-1428
1037.280	-1727
1037.344	-3397
1037.407	-1812
1037.471	-2817
1037.534	-1449
1037.597	-2240
1037.661	-1610
1037.724	-1116
1037.787	-1954
1037.850	-1728
1037.913	-2009
1037.977	-1605
1038.040	-1753
1038.103	-2749
1038.166	-1980
1038.229	-2115
1038.292	-2419
1038.355	-1774
1038.418	-1583
1038.481	-1792
1038.544	-2003
1038.607	-2214
1038.670	-2680
1038.732	-1509
1038.795	-2025
1038.858	-2236
1038.921	-1637
1038.984	-1654
1039.046	-2066
1039.109	-2353
1039.172	-1785
1039.234	-2442
1039.297	-1752
1039.360	-1109
1039.422	-2088
1039.485	-1686
1039.547	-1672
1039.610	-1916
1039.672	-1055
1039.734	-1732
1039.797	-2075
1039.859	-2437
1039.922	-1060
1039.984	-2047
1040.046	-2267
1040.109	-1358
1040.171	-1462
1040.233	-1578
1040.295	-2225
1040.358	-1963
1040.420	-1571
1040.482	-2384
1040.544	-2192
1040.606	-2192
1040.668	-1490
1040.730	-2448
1040.792	-2097
1040.854	-2078
1040.916	-2020
1040.978	-1880
1041.040	-1734
1041.102	-1848
1041.164	-1652
1041.225	-2316
1041.287	-2537
1041.349	-1630
1041.411	-2209
1041.472	-2366
1041.534	-1784
1041.596	-2443
1041.657	-1838
1041.719	-2539
1041.781	-1768
1041.842	-2279
1041.904	-1894
1041.965	-2293
1042.027	-1783
1042.088	-1994
1042.150	-1740
1042.211	-1574
1042.272	-1371
1042.334	-3247
1042.395	-2615
1042.456	-1940
1042.518	-2175
1042.579	-1530
1042.640	-1980
1042.701	-1518
1042.763	-1932
1042.824	-2189
1042.885	-1683
1042.946	-2864
1043.007	-2013
1043.068	-2857
1043.129	-1688
1043.190	-2003
1043.251	-816
1043.312	-2545
1043.373	-1611
1043.434	-3040
1043.495	-1874
1043.556	-1115
1043.616	-2068
1043.677	-2243
1043.738	-2230
1043.799	-2513
1043.859	-877
1043.920	-2023
1043.981	-1727
1044.041	-2497
1044.102	-2849
1044.162	-1659
1044.223	-2090
1044.284	-1506
1044.344	-2365
1044.405	-2086
1044.465	-2243
1044.525	-2190
1044.586	-2056
1044.646	-1965
1044.707	-1819
1044.767	-1900
1044.827	-3104
1044.887	-2718
1044.948	-1617
1045.008	-1281
1045.068	-1254
1045.128	-1159
1045.188	-1449
1045.249	-1541
1045.309	-1729
1045.369	-1524
1045.429	-2233
1045.489	-1910
1045.549	-1190
1045.609	-1771
1045.669	-2277
1045.729	-1152
1045.789	-1954
1045.848	-2671
1045.908	-1663
1045.968	-1900
1046.028	-1468
1046.088	-1644
1046.147	-514
1046.207	-1985
1046.267	-1126
1046.326	-1407
1046.386	-1237
1046.446	-1054
1046.505	-469
1046.565	-701
1046.624	-333
1046.684	-1295
1046.743	-1277
1046.803	-981
1046.862	-823
1046.922	0
