'Start Wavelength	183.907
'End Wavelength	1046.922
'Gate Delay	5.000
'Gate Width (ms)	1.050
'Laser Output Level	0.000
'X Position	0.000
'Y Position	0.000
'Z Position	0.000
'Grid Point Number	1.000
'Shot Number	100.000
183.907	362.000
183.977	404.000
184.047	-462
184.116	193
184.186	223
184.256	-674
184.325	-405
184.395	-1148
184.465	323
184.534	-118
184.604	-901
184.674	194
184.743	-463
184.813	298
184.883	373
184.952	352
185.022	-283
185.092	156
185.161	-316
185.231	58
185.301	-120
185.370	351
185.440	-308
185.509	107
185.579	-495
185.649	-37
185.718	-866
185.788	-108
185.857	-425
185.927	-725
185.996	-374
186.066	-47
186.136	-584
186.205	-267
186.275	-668
186.344	249
186.414	-398
186.483	-925
186.553	162
186.622	501
186.692	-381
186.761	-527
186.831	-901
186.900	-187
186.970	431
187.039	373
187.109	13
187.178	-583
187.248	202
187.317	231
187.387	-427
187.456	471
187.526	31
187.595	-158
187.664	-644
187.734	251
187.803	56
187.873	41
187.942	76
188.012	351
188.081	-150
188.150	-541
188.220	403
188.289	-253
188.358	-493
188.428	-152
188.497	-295
188.567	-132
188.636	-967
188.705	132
188.775	-256
188.844	-664
188.913	-9
188.983	-503
189.052	-595
189.121	687
189.191	-86
189.260	676
189.329	-723
189.399	277
189.468	-160
189.537	-11
189.606	-6
189.676	-83
189.745	-285
189.814	219
189.883	-803
189.953	-237
190.022	-145
190.091	-607
190.161	258
190.230	471
190.299	-433
190.368	893
190.437	-632
190.507	-153
190.576	-768
190.645	444
190.714	-430
190.783	-93
190.853	-7
190.922	63
190.991	-215
191.060	596
191.129	-14
191.198	21
191.268	-3
191.337	-433
191.406	199
191.475	-292
191.544	-189
191.613	74
191.682	-110
191.752	-652
191.821	-1297
191.890	537
191.959	-292
192.028	656
192.097	-68
192.166	-164
192.235	-818
192.304	595
192.373	-548
192.442	-217
192.511	19
192.580	-421
192.650	-212
192.719	272
192.788	408
192.857	205
192.926	77
192.995	-521
193.064	67
193.133	-589
193.202	-167
193.271	-257
193.340	-300
193.409	-355
193.478	271
193.547	-437
193.615	-232
193.684	-212
193.753	-565
193.822	531
193.891	-213
193.960	297
194.029	-929
194.098	-203
194.167	-108
194.236	345
194.305	-478
194.374	-123
194.443	-854
194.512	-105
194.580	-219
194.649	712
194.718	-163
194.787	790
194.856	-158
194.925	676
194.994	173
195.062	43
195.131	132
195.200	-611
195.269	-311
195.338	335
195.407	-284
195.475	-542
195.544	-661
195.613	-532
195.682	-386
195.751	76
195.819	42
195.888	69
195.957	920
196.026	-93
196.094	297
196.163	-218
196.232	-243
196.301	-43
196.369	-413
196.438	293
196.507	162
196.576	-375
196.644	39
196.713	50
196.782	-387
196.850	305
196.919	-126
196.988	147
197.056	-445
197.125	274
197.194	185
197.262	-303
197.331	449
197.400	-225
197.468	45
197.537	-545
197.606	65
197.674	98
197.743	223
197.812	144
197.880	16
197.949	122
198.017	142
198.086	372
198.155	-445
198.223	708
198.292	-529
198.360	-838
198.429	81
198.497	354
198.566	-205
198.635	728
198.703	69
198.772	454
198.840	716
198.909	6
198.977	-311
199.046	-580
199.114	-33
199.183	-179
199.251	-495
199.320	-959
199.388	769
199.457	-487
199.525	-633
199.594	448
199.662	342
199.731	516
199.799	200
199.867	-309
199.936	-510
200.004	179
200.073	-548
200.141	-243
200.210	-330
200.278	-1199
200.346	-295
200.415	5
200.483	172
200.552	-970
200.620	-144
200.688	322
200.757	344
200.825	380
200.893	-211
200.962	212
201.030	199
201.098	-443
201.167	146
201.235	-103
201.303	-477
201.372	249
201.440	-977
201.508	-589
201.577	130
201.645	-59
201.713	-80
201.781	-473
201.850	-497
201.918	53
201.986	210
202.055	-231
202.123	256
202.191	104
202.259	261
202.327	318
202.396	-618
202.464	-244
202.532	-126
202.600	196
202.669	-423
202.737	402
202.805	-757
202.873	357
202.941	547
203.009	108
203.078	-192
203.146	-24
203.214	-512
203.282	-585
203.350	479
203.418	-211
203.487	42
203.555	186
203.623	86
203.691	-98
203.759	-559
203.827	200
203.895	-15
203.963	-209
204.031	-907
204.099	-170
204.168	-326
204.236	316
204.304	-382
204.372	50
204.440	148
204.508	429
204.576	-462
204.644	121
204.712	-459
204.780	223
204.848	-632
204.916	-9
204.984	654
205.052	39
205.120	-412
205.188	440
205.256	-458
205.324	-492
205.392	-30
205.460	248
205.528	-90
205.596	333
205.664	-726
205.732	-135
205.799	-451
205.867	664
205.935	-817
206.003	819
206.071	131
206.139	65
206.207	-49
206.275	-375
206.343	-676
206.411	280
206.478	-556
206.546	947
206.614	-626
206.682	-464
206.750	-532
206.818	174
206.885	401
206.953	82
207.021	439
207.089	315
207.157	-393
207.225	655
207.292	-445
207.360	130
207.428	-297
207.496	-364
207.563	-480
207.631	410
207.699	-285
207.767	-258
207.834	-1250
207.902	425
207.970	-112
208.038	-321
208.105	-379
208.173	26
208.241	108
208.309	-386
208.376	668
208.444	272
208.512	438
208.579	-526
208.647	280
208.715	920
208.782	-377
208.850	3
208.918	-97
208.985	575
209.053	275
209.120	-211
209.188	-470
209.256	-324
209.323	-693
209.391	-250
209.459	1013
209.526	295
209.594	-413
209.661	-512
209.729	108
209.796	287
209.864	667
209.932	-512
209.999	687
210.067	828
210.134	-13
210.202	-54
210.269	418
210.337	493
210.404	138
210.472	6
210.539	-509
210.607	40
210.674	-122
210.742	509
210.809	217
210.877	-496
210.944	724
211.012	-530
211.079	2186
211.146	-417
211.214	4
211.281	270
211.349	326
211.416	450
211.484	115
211.551	-267
211.618	40
211.686	-157
211.753	-967
211.821	66
211.888	-117
211.955	414
212.023	953
212.090	470
212.157	19
212.225	-84
212.292	438
212.359	784
212.427	2162
212.494	1041
212.561	647
212.629	605
212.696	-181
212.763	26
212.831	-80
212.898	282
212.965	-356
213.032	51
213.100	263
213.167	308
213.234	491
213.301	650
213.369	409
213.436	641
213.503	-312
213.570	1069
213.638	-260
213.705	433
213.772	-581
213.839	127
213.906	703
213.973	7
214.041	-170
214.108	821
214.175	-673
214.242	-73
214.309	194
214.376	125
214.444	113
214.511	147
214.578	-576
214.645	52
214.712	425
214.779	311
214.846	-466
214.913	1418
214.980	687
215.048	740
215.115	636
215.182	275
215.249	725
215.316	-75
215.383	1039
215.450	458
215.517	506
215.584	742
215.651	-567
215.718	-171
215.785	-336
215.852	258
215.919	1165
215.986	1523
216.053	334
216.120	-25
216.187	-53
216.254	595
216.321	357
216.388	615
216.455	-479
216.522	128
216.589	135
216.656	1596
216.722	382
216.789	771
216.856	1471
216.923	873
216.990	378
217.057	783
217.124	176
217.191	487
217.258	711
217.324	837
217.391	955
217.458	1229
217.525	13
217.592	488
217.659	-461
217.725	823
217.792	-179
217.859	664
217.926	-435
217.993	299
218.059	383
218.126	273
218.193	139
218.260	376
218.327	176
218.393	493
218.460	-166
218.527	110
218.594	-244
218.660	121
218.727	649
218.794	73
218.860	-289
218.927	4
218.994	153
219.061	539
219.127	319
219.194	94
219.261	-146
219.327	-105
219.394	557
219.461	-790
219.527	318
219.594	946
219.661	-329
219.727	-731
219.794	754
219.860	-468
219.927	351
219.994	542
220.060	670
220.127	633
220.193	726
220.260	265
220.326	665
220.393	1425
220.460	2173
220.526	360
220.593	376
220.659	2109
220.726	886
220.792	1156
220.859	1372
220.925	2082
220.992	2674
221.058	2899
221.125	1558
221.191	1255
221.258	-275
221.324	1399
221.391	111
221.457	-596
221.524	515
221.590	206
221.657	1013
221.723	811
221.789	595
221.856	897
221.922	-381
221.989	627
222.055	-586
222.121	-100
222.188	599
222.254	-168
222.321	458
222.387	-322
222.453	189
222.520	797
222.586	-745
222.652	571
222.719	-329
222.785	279
222.851	-541
222.918	-313
222.984	-107
223.050	151
223.116	-1244
223.183	980
223.249	-444
223.315	-296
223.382	315
223.448	84
223.514	-1126
223.580	47
223.647	-545
223.713	-48
223.779	641
223.845	69
223.911	360
223.978	-157
224.044	-596
224.110	-478
224.176	393
224.242	-204
224.309	-945
224.375	1044
224.441	-49
224.507	-270
224.573	-864
224.639	693
224.705	-342
224.772	40
224.838	402
224.904	-106
224.970	259
225.036	482
225.102	-604
225.168	244
225.234	141
225.300	288
225.366	-251
225.432	570
225.499	188
225.565	714
225.631	-189
225.697	-226
225.763	418
225.829	1031
225.895	-154
225.961	391
226.027	-19
226.093	472
226.159	857
226.225	758
226.291	2900
226.357	3882
226.423	2730
226.489	1588
226.554	799
226.620	757
226.686	210
226.752	1834
226.818	2490
226.884	4079
226.950	3469
227.016	2293
227.082	2434
227.148	824
227.214	797
227.279	1174
227.345	-113
227.411	305
227.477	371
227.543	1822
227.609	397
227.674	1005
227.740	-673
227.806	659
227.872	207
227.938	746
228.003	754
228.069	511
228.135	-453
228.201	295
228.267	-184
228.332	801
228.398	-978
228.464	511
228.530	-616
228.595	869
228.661	-503
228.727	82
228.792	1052
228.858	-12
228.924	-1992
228.990	2405
229.055	-1065
229.121	626
229.187	448
229.252	64
229.318	-565
229.384	123
229.449	-336
229.515	-838
229.581	-360
229.646	997
229.712	-16
229.777	436
229.843	-350
229.909	1195
229.974	844
230.040	793
230.105	379
230.171	-70
230.236	152
230.302	295
230.368	97
230.433	385
230.499	332
230.564	558
230.630	-768
230.695	289
230.761	1058
230.826	-723
230.892	399
230.957	-429
231.023	-834
231.088	617
231.154	169
231.219	780
231.284	-302
231.350	303
231.415	-667
231.481	41
231.546	-697
231.612	350
231.677	-226
231.742	-936
231.808	1124
231.873	-475
231.939	-1844
232.004	1103
232.069	568
232.135	-691
232.200	-217
232.265	931
232.331	-233
232.396	299
232.461	-914
232.527	-354
232.592	-991
232.657	684
232.723	-248
232.788	142
232.853	-2
232.918	351
232.984	-935
233.049	239
233.114	-472
233.179	341
233.245	179
233.310	1335
233.375	-1023
233.440	307
233.506	128
233.571	-415
233.636	-391
233.701	-5
233.766	-477
233.832	292
233.897	202
233.962	-1097
234.027	1355
234.092	624
234.157	31
234.222	-123
234.288	703
234.353	1769
234.418	1756
234.483	1643
234.548	962
234.613	-450
234.678	187
234.743	97
234.808	2343
234.873	-62
234.938	936
235.004	526
235.069	-21
235.134	-719
235.199	391
235.264	-347
235.329	-1366
235.394	1090
235.459	478
235.524	-314
235.589	503
235.654	666
235.719	-606
235.784	502
235.849	-14
235.913	1442
235.978	1100
236.043	1416
236.108	721
236.173	-249
236.238	-42
236.303	755
236.368	-88
236.433	1525
236.498	1702
236.563	1359
236.627	2056
236.692	6652
236.757	5570
236.822	2629
236.887	1454
236.952	1940
237.017	8
237.081	2106
237.146	871
237.211	3797
237.276	5997
237.341	9622
237.405	4821
237.470	2512
237.535	1060
237.600	911
237.664	1707
237.729	134
237.794	460
237.859	3003
237.923	1296
237.988	1243
238.053	2054
238.118	1078
238.182	2322
238.247	4301
238.312	-341
238.376	1396
238.441	-1148
238.506	1746
238.570	-206
238.635	1463
238.700	-444
238.764	-321
238.829	1023
238.893	1061
238.958	229
239.023	20
239.087	52
239.152	552
239.216	-462
239.281	1182
239.346	817
239.410	261
239.475	-576
239.539	3068
239.604	1188
239.668	1323
239.733	270
239.797	1212
239.862	1494
239.926	2801
239.991	1463
240.055	617
240.120	395
240.184	443
240.249	-197
240.313	373
240.378	287
240.442	965
240.507	2940
240.571	121
240.635	523
240.700	1576
240.764	510
240.829	171
240.893	-537
240.957	495
241.022	1372
241.086	3281
241.151	933
241.215	34
241.279	780
241.344	447
241.408	-190
241.472	161
241.537	1041
241.601	802
241.665	-1013
241.730	-596
241.794	539
241.858	158
241.922	276
241.987	526
242.051	143
242.115	-404
242.179	1162
242.244	-528
242.308	548
242.372	541
242.436	392
242.501	1048
242.565	-813
242.629	-122
242.693	1018
242.757	-794
242.822	715
242.886	639
242.950	537
243.014	-598
243.078	805
243.142	615
243.206	-592
243.271	1021
243.335	571
243.399	1251
243.463	1708
243.527	7504
243.591	1539
243.655	259
243.719	-495
243.783	1251
243.847	381
243.911	2384
243.975	1177
244.040	46
244.104	1191
244.168	641
244.232	52
244.296	1267
244.360	904
244.424	-125
244.488	559
244.552	556
244.615	-1335
244.679	1668
244.743	323
244.807	465
244.871	616
244.935	805
244.999	-1653
245.063	-407
245.127	80
245.191	638
245.255	237
245.319	307
245.383	-951
245.446	1601
245.510	-956
245.574	-172
245.638	17
245.702	-1588
245.766	1868
245.829	1011
245.893	-589
245.957	178
246.021	915
246.085	493
246.149	164
246.212	2470
246.276	2613
246.340	278
246.404	613
246.467	851
246.531	-772
246.595	1769
246.659	1337
246.722	-259
246.786	1224
246.850	1090
246.913	718
246.977	-155
247.041	-395
247.104	850
247.168	569
247.232	1550
247.295	3526
247.359	2096
247.423	355
247.486	1104
247.550	1139
247.614	203
247.677	923
247.741	916
247.804	-38
247.868	806
247.932	909
247.995	4244
248.059	1035
248.122	35
248.186	1588
248.249	2307
248.313	5822
248.376	6867
248.440	3378
248.503	878
248.567	1837
248.630	933
248.694	1941
248.757	3547
248.821	6572
248.884	5276
248.948	3038
249.011	5416
249.075	7490
249.138	6349
249.202	2560
249.265	1577
249.328	2534
249.392	292
249.455	1602
249.519	1078
249.582	663
249.645	2466
249.709	1678
249.772	935
249.835	1144
249.899	-84
249.962	1359
250.025	889
250.089	2058
250.152	4142
250.215	1960
250.279	997
250.342	1674
250.405	1560
250.468	317
250.532	1127
250.595	1741
250.658	6029
250.721	12188
250.785	4008
250.848	3342
250.911	1094
250.974	1398
251.038	2058
251.101	4217
251.164	1490
251.227	2017
251.290	1630
251.354	3067
251.417	10647
251.480	10261
251.543	6281
251.606	17988
251.669	14641
251.732	4757
251.795	5144
251.859	5547
251.922	12101
251.985	7414
252.048	3726
252.111	1826
252.174	1333
252.237	3628
252.300	8042
252.363	7777
252.426	16906
252.489	6112
252.552	4062
252.615	2150
252.678	3389
252.741	6194
252.804	6084
252.867	16284
252.930	10336
252.993	4664
253.056	3594
253.119	2197
253.182	1368
253.245	2559
253.308	2454
253.371	1773
253.434	1637
253.497	2032
253.559	4237
253.622	2765
253.685	3584
253.748	3197
253.811	966
253.874	1883
253.937	2235
254.000	1605
254.062	2549
254.125	3399
254.188	4478
254.251	3192
254.314	1878
254.376	2545
254.439	3124
254.502	3240
254.565	2384
254.628	5068
254.690	2497
254.753	626
254.816	402
254.878	1895
254.941	3310
255.004	1649
255.067	1538
255.129	1195
255.192	371
255.255	-638
255.317	462
255.380	548
255.443	126
255.505	225
255.568	157
255.631	-438
255.693	399
255.756	-220
255.819	1124
255.881	263
255.944	507
256.006	27
256.069	451
256.132	-467
256.194	772
256.257	2053
256.319	1332
256.382	984
256.444	1811
256.507	-246
256.569	-180
256.632	995
256.694	753
256.757	3758
256.819	10960
256.882	4290
256.944	2043
257.007	1883
257.069	1532
257.132	916
257.194	1824
257.257	213
257.319	579
257.381	582
257.444	3516
257.506	12639
257.569	15047
257.631	5809
257.693	3029
257.756	1239
257.818	1340
257.880	553
257.943	1328
258.005	-757
258.067	199
258.130	757
258.192	339
258.254	2010
258.317	1265
258.379	1444
258.441	1828
258.503	2392
258.566	2559
258.628	4146
258.690	-55
258.753	727
258.815	2003
258.877	123
258.939	411
259.001	1078
259.064	1348
259.126	-499
259.188	1299
259.250	1137
259.312	-335
259.375	1378
259.437	1186
259.499	722
259.561	900
259.623	-326
259.685	1184
259.747	394
259.809	3114
259.872	4872
259.934	9071
259.996	7781
260.058	3197
260.120	77
260.182	-327
260.244	661
260.306	128
260.368	790
260.430	-11
260.492	1433
260.554	3925
260.616	692
260.678	3224
260.740	4610
260.802	1555
260.864	658
260.926	-310
260.988	1343
261.050	-68
261.112	2165
261.174	7880
261.236	4755
261.298	1407
261.359	2130
261.421	4019
261.483	-421
261.545	1874
261.607	-605
261.669	639
261.731	1410
261.793	3908
261.854	244
261.916	757
261.978	444
262.040	1341
262.102	516
262.164	1287
262.225	1271
262.287	940
262.349	869
262.411	1600
262.472	946
262.534	731
262.596	2582
262.658	1832
262.719	-361
262.781	1070
262.843	1015
262.904	1606
262.966	501
263.028	724
263.090	4513
263.151	13063
263.213	4686
263.275	2545
263.336	-123
263.398	1065
263.459	-900
263.521	547
263.583	1173
263.644	1330
263.706	771
263.767	13
263.829	685
263.891	94
263.952	-701
264.014	-6
264.075	295
264.137	3778
264.198	2410
264.260	757
264.321	114
264.383	1585
264.444	6112
264.506	1272
264.567	173
264.629	1608
264.690	3999
264.752	1507
264.813	642
264.875	446
264.936	939
264.998	938
265.059	-71
265.120	528
265.182	118
265.243	5639
265.305	7263
265.366	2381
265.427	2
265.489	549
265.550	-855
265.611	966
265.673	185
265.734	-27
265.795	292
265.857	206
265.918	-467
265.979	2038
266.040	9134
266.102	9778
266.163	2665
266.224	1617
266.286	1027
266.347	-232
266.408	704
266.469	471
266.530	437
266.592	88
266.653	1456
266.714	1965
266.775	-22
266.836	306
266.898	-187
266.959	1148
267.020	465
267.081	1038
267.142	-411
267.203	-811
267.264	-699
267.326	922
267.387	-81
267.448	-693
267.509	-242
267.570	-261
267.631	-422
267.692	-527
267.753	752
267.814	-56
267.875	604
267.936	2646
267.997	1270
268.058	400
268.119	-771
268.180	722
268.241	-1013
268.302	-272
268.363	70
268.424	125
268.485	68
268.546	258
268.607	90
268.668	375
268.729	-951
268.790	-266
268.851	53
268.912	1088
268.972	1670
269.033	91
269.094	-48
269.155	12
269.216	-208
269.277	872
269.338	-295
269.398	-80
269.459	-330
269.520	950
269.581	392
269.642	1185
269.702	215
269.763	672
269.824	-191
269.885	212
269.945	508
270.006	159
270.067	-466
270.128	-342
270.188	153
270.249	-105
270.310	-131
270.370	-940
270.431	-493
270.492	-268
270.553	526
270.613	1024
270.674	2682
270.734	450
270.795	485
270.856	1125
270.916	537
270.977	-219
271.038	490
271.098	272
271.159	645
271.219	495
271.280	57
271.340	-344
271.401	-689
271.462	1792
271.522	793
271.583	569
271.643	16
271.704	595
271.764	381
271.825	2257
271.885	6575
271.946	8993
272.006	2759
272.066	4256
272.127	6684
272.187	2071
272.248	1412
272.308	858
272.369	4110
272.429	2753
272.489	2537
272.550	1761
272.610	1912
272.671	1351
272.731	981
272.791	1819
272.852	58
272.912	1526
272.972	-429
273.033	-190
273.093	211
273.153	2111
273.214	19
273.274	226
273.334	3023
273.394	7517
273.455	2392
273.515	2576
273.575	5467
273.635	2100
273.696	2462
273.756	6723
273.816	2272
273.876	1583
273.936	2886
273.997	5372
274.057	1147
274.117	1139
274.177	1546
274.237	8081
274.297	7205
274.358	4246
274.418	4772
274.478	3840
274.538	1382
274.598	593
274.658	4491
274.718	5624
274.778	2737
274.838	315
274.898	1683
274.958	7970
275.018	6581
275.078	4240
275.138	1125
275.198	617
275.258	-72
275.318	420
275.378	1697
275.438	2355
275.498	1331
275.558	3170
275.618	7851
275.678	4548
275.738	2508
275.798	3175
275.858	629
275.918	-253
275.978	216
276.038	872
276.098	-325
276.157	984
276.217	5034
276.277	1933
276.337	1331
276.397	263
276.457	630
276.517	790
276.576	-545
276.636	819
276.696	261
276.756	2823
276.815	1912
276.875	997
276.935	747
276.995	1261
277.055	-181
277.114	482
277.174	806
277.234	3755
277.293	1294
277.353	561
277.413	131
277.472	302
277.532	-81
277.592	614
277.651	1344
277.711	3489
277.771	1304
277.830	5763
277.890	5119
277.950	2165
278.009	7942
278.069	4044
278.128	2352
278.188	4290
278.248	1853
278.307	3347
278.367	2519
278.426	715
278.486	382
278.545	388
278.605	-469
278.664	-11
278.724	111
278.783	2240
278.843	7425
278.902	1409
278.962	811
279.021	1080
279.081	787
279.140	1089
279.199	761
279.259	571
279.318	1086
279.378	1475
279.437	1750
279.496	7124
279.556	23786
279.615	19917
279.675	4750
279.734	2512
279.793	3656
279.853	6397
279.912	2363
279.971	1417
280.031	458
280.090	1821
280.149	4701
280.208	3572
280.268	16462
280.327	19403
280.386	3857
280.445	2660
280.505	3042
280.564	2232
280.623	738
280.682	2512
280.742	3944
280.801	1090
280.860	760
280.919	543
280.978	-293
281.037	1034
281.097	104
281.156	545
281.215	44
281.274	89
281.333	3508
281.392	3066
281.451	105
281.510	486
281.569	2
281.628	-162
281.688	-162
281.747	666
281.806	94
281.865	185
281.924	623
281.983	760
282.042	-245
282.101	-96
282.160	365
282.219	-21
282.278	608
282.337	2006
282.396	1226
282.454	206
282.513	-71
282.572	3383
282.631	2642
282.690	284
282.749	-731
282.808	376
282.867	443
282.926	377
282.985	279
283.043	-870
283.102	-473
283.161	215
283.220	1056
283.279	5500
283.338	1541
283.396	-45
283.455	202
283.514	764
283.573	1111
283.631	895
283.690	684
283.749	374
283.808	518
283.866	2723
283.925	-33
283.984	-31
284.043	269
284.101	1438
284.160	-102
284.219	704
284.277	586
284.336	963
284.395	5861
284.453	4796
284.512	1439
284.570	2219
284.629	1461
284.688	647
284.746	1233
284.805	-21
284.863	1619
284.922	1977
284.981	2363
285.039	3091
285.098	6762
285.156	15033
285.215	29464
285.273	29757
285.332	18109
285.390	9571
285.449	5692
285.507	3923
285.566	2413
285.624	1321
285.683	1132
285.741	1378
285.799	1667
285.858	1142
285.916	684
285.975	480
286.033	-315
286.091	570
286.150	-801
286.208	106
286.267	669
286.325	944
286.383	1512
286.442	1310
286.500	146
286.558	613
286.616	-39
286.675	1561
286.733	352
286.791	522
286.850	-223
286.908	1439
286.966	3072
287.024	767
287.083	-237
287.141	836
287.199	599
287.257	1343
287.315	790
287.374	978
287.432	1726
287.490	1467
287.548	-90
287.606	-437
287.664	275
287.723	855
287.781	1243
287.839	841
287.897	678
287.955	921
288.013	1448
288.071	3361
288.129	14275
288.187	46137
288.245	23323
288.303	7580
288.361	2743
288.419	1870
288.477	1433
288.535	1460
288.593	111
288.651	107
288.709	232
288.767	655
288.825	283
288.883	371
288.941	-609
288.999	563
289.057	123
289.115	328
289.173	-754
289.231	-132
289.289	230
289.346	595
289.404	143
289.462	1365
289.520	1311
289.578	-215
289.636	-191
289.694	-705
289.751	-254
289.809	-67
289.867	2
289.925	692
289.983	681
290.040	10
290.098	277
290.156	417
290.214	799
290.271	288
290.329	73
290.387	-397
290.444	274
290.502	133
290.560	-7
290.617	-351
290.675	70
290.733	-147
290.790	487
290.848	1080
290.906	-9
290.963	660
291.021	972
291.078	398
291.136	-192
291.194	2158
291.251	7627
291.309	1780
291.366	592
291.424	334
291.481	-542
291.539	-47
291.596	351
291.654	-22
291.711	131
291.769	254
291.826	1069
291.884	925
291.941	-16
291.999	-616
292.056	-265
292.114	454
292.171	145
292.228	801
292.286	-169
292.343	1069
292.401	2025
292.458	664
292.515	-184
292.573	408
292.630	441
292.687	943
292.745	113
292.802	1291
292.859	4378
292.917	6360
292.974	3305
293.031	811
293.089	548
293.146	570
293.203	113
293.260	-21
293.318	483
293.375	2594
293.432	570
293.489	870
293.546	-320
293.604	1226
293.661	2171
293.718	8157
293.775	5768
293.832	2113
293.889	806
293.947	1095
294.004	1222
294.061	824
294.118	1708
294.175	6763
294.232	10167
294.289	4507
294.346	951
294.403	1959
294.460	669
294.517	635
294.574	348
294.631	753
294.688	1026
294.745	2461
294.802	10717
294.859	15946
294.916	6638
294.973	2243
295.030	913
295.087	1366
295.144	1140
295.201	1459
295.258	1694
295.315	1242
295.372	3004
295.429	7729
295.486	3286
295.542	2779
295.599	5469
295.656	13314
295.713	7439
295.770	8276
295.827	2892
295.883	1664
295.940	1408
295.997	3119
296.054	2311
296.111	906
296.167	1274
296.224	1190
296.281	234
296.338	1204
296.394	506
296.451	634
296.508	2687
296.564	7154
296.621	5496
296.678	9077
296.734	13965
296.791	6777
296.848	3109
296.904	2662
296.961	5525
297.018	8539
297.074	6703
297.131	3103
297.187	1783
297.244	2999
297.301	6678
297.357	14528
297.414	5436
297.470	2281
297.527	1501
297.583	1776
297.640	1483
297.696	672
297.753	716
297.809	928
297.866	-395
297.922	620
297.979	42
298.035	685
298.092	1905
298.148	4873
298.204	5301
298.261	2622
298.317	3564
298.374	11716
298.430	6947
298.486	3452
298.543	1980
298.599	2307
298.656	1718
298.712	4141
298.768	8082
298.824	5470
298.881	1935
298.937	1687
298.993	1167
299.050	1599
299.106	1022
299.162	1002
299.218	1695
299.275	864
299.331	1250
299.387	2611
299.443	8143
299.500	11593
299.556	5730
299.612	2291
299.668	1508
299.724	3148
299.780	4051
299.837	1888
299.893	1987
299.949	7313
300.005	10230
300.061	8884
300.117	14865
300.173	7413
300.229	3308
300.285	3352
300.341	5406
300.397	2711
300.453	973
300.510	1498
300.566	1355
300.622	1972
300.678	5204
300.734	11121
300.790	9328
300.845	9680
300.901	6372
300.957	9764
301.013	8023
301.069	3372
301.125	1498
301.181	1958
301.237	1461
301.293	1607
301.349	1595
301.405	545
301.461	803
301.516	2063
301.572	1480
301.628	3505
301.684	2200
301.740	3654
301.796	5677
301.851	4391
301.907	6401
301.963	7310
302.019	8573
302.074	23664
302.130	25706
302.186	13792
302.242	6796
302.297	3378
302.353	2515
302.409	5605
302.464	4366
302.520	4517
302.576	8584
302.631	13010
302.687	7619
302.743	4194
302.798	1236
302.854	1728
302.910	1360
302.965	2610
303.021	4093
303.076	3681
303.132	4082
303.187	6431
303.243	3337
303.299	2187
303.354	1267
303.410	2305
303.465	1423
303.521	1142
303.576	488
303.632	2087
303.687	2581
303.743	7882
303.798	8154
303.853	3640
303.909	2099
303.964	1490
304.020	2279
304.075	4643
304.130	3673
304.186	7492
304.241	8576
304.297	7063
304.352	3393
304.358	3265
304.407	2221
304.449	1820
304.463	1688
304.518	1960
304.539	2049
304.573	2183
304.629	1709
304.630	1714
304.684	2105
304.720	4433
304.739	5561
304.794	10496
304.811	9271
304.850	6273
304.902	3095
304.905	2897
304.960	2413
304.992	2317
305.015	2221
305.071	2404
305.083	2329
305.126	2071
305.173	1524
305.181	1440
305.236	578
305.264	777
305.292	958
305.347	1842
305.354	1876
305.402	2172
305.445	2024
305.457	1961
305.512	3142
305.535	3131
305.567	3166
305.622	2117
305.626	2175
305.678	4069
305.716	8310
305.733	9663
305.788	11609
305.807	10178
305.843	7916
305.897	9608
305.898	9617
305.953	9613
305.988	6502
306.008	4914
306.063	3456
306.078	3072
306.118	2265
306.168	1788
306.173	1742
306.228	1046
306.259	898
306.283	899
306.338	1644
306.349	1664
306.393	1655
306.440	1807
306.448	1831
306.503	2494
306.530	2538
306.558	3443
306.613	6749
306.620	7329
306.668	10181
306.711	11951
306.723	11866
306.778	9296
306.801	7239
306.833	5169
306.888	2371
306.892	2290
306.943	2011
306.982	1760
306.997	1708
307.052	1620
307.072	1621
307.107	2019
307.162	3160
307.163	3177
307.217	5411
307.253	6723
307.272	6929
307.327	6808
307.343	6397
307.381	5305
307.434	3389
307.436	3521
307.491	8477
307.524	13303
307.546	13896
307.600	12627
307.614	11167
307.655	7187
307.704	3671
307.710	3626
307.765	4554
307.795	5752
307.819	7214
307.874	12489
307.885	12799
307.929	9981
307.975	7004
307.984	7110
308.038	8676
308.065	10468
308.093	17879
308.148	36166
308.156	39804
308.202	58885
308.246	72825
308.257	70429
308.312	42972
308.336	30553
308.366	23847
308.421	14964
308.426	14135
308.475	8815
308.517	6052
308.530	5641
308.585	4919
308.607	4769
308.639	4758
308.694	4749
308.697	4807
308.748	11261
308.787	17092
308.803	16462
308.857	12119
308.877	10016
308.912	8938
308.967	8260
308.967	8249
309.021	9773
309.058	11576
309.076	14557
309.130	25088
309.148	29085
309.185	51522
309.238	88198
309.239	88457
309.293	90404
309.328	86028
309.348	75353
309.402	39557
309.418	29673
309.457	21389
309.508	12762
309.511	12499
309.566	9713
309.598	8893
309.620	9274
309.674	10808
309.688	11310
309.729	10468
309.778	8511
309.783	8368
309.837	6807
309.868	5992
309.892	8105
309.946	13690
309.959	15491
310.001	20597
310.049	24818
310.055	23948
310.109	14097
310.139	8462
310.163	6975
310.218	4693
310.229	4281
310.272	3796
310.319	3752
310.326	3717
310.381	3211
310.409	3022
310.435	2830
310.489	2474
310.499	2428
310.543	3012
310.589	3431
310.598	3432
310.652	3737
310.679	3718
310.706	3165
310.760	2112
310.769	1942
310.814	2018
310.859	2061
310.868	2065
310.923	2038
310.948	2201
310.977	2432
311.031	2418
311.038	2462
311.085	2425
311.128	2045
311.139	2067
311.193	2584
311.218	2687
311.247	2658
311.301	2676
311.308	2662
311.356	2674
311.398	2768
311.410	2603
311.464	1832
311.488	1396
311.518	1574
311.572	1960
311.578	2014
311.626	3131
311.668	4076
311.680	4070
311.734	3953
311.758	3904
311.788	4056
311.842	4336
311.847	4358
311.896	5451
311.937	6416
311.950	6413
312.004	6349
312.027	6294
312.058	4979
312.112	2625
312.117	2393
312.165	2870
312.207	3285
312.297	4578
312.386	3597
312.476	2617
312.566	6136
312.656	2565
312.745	2993
312.835	2907
312.925	2954
313.015	3502
313.104	2845
313.194	2844
313.284	3075
313.374	3171
313.463	3097
313.553	2318
313.643	2107
313.732	2139
313.822	2160
313.912	2485
314.001	2250
314.091	3344
314.180	5379
314.270	3520
314.360	4578
314.449	3755
314.539	2098
314.628	2729
314.718	2546
314.808	4414
314.897	2579
314.987	2532
315.076	2918
315.166	3829
315.255	4311
315.345	4323
315.434	3627
315.524	3712
315.613	3788
315.703	4781
315.792	5588
315.881	13067
315.971	4957
316.060	7245
316.150	12368
316.239	13683
316.328	5048
316.418	2493
316.507	2116
316.597	3580
316.686	3431
316.775	5983
316.865	13900
316.954	2479
317.043	1894
317.133	3197
317.222	2151
317.311	1820
317.400	1514
317.490	4380
317.579	3451
317.668	2637
317.757	4036
317.847	7240
317.936	22604
318.025	10800
318.114	6203
318.203	4171
318.293	5839
318.382	9720
318.471	7801
318.560	12129
318.649	28996
318.738	5424
318.828	4342
318.917	3809
319.006	5937
319.095	15484
319.184	35120
319.273	17831
319.362	7633
319.451	3444
319.540	3489
319.629	7118
319.718	11434
319.807	4848
319.896	10697
319.985	41923
320.074	14203
320.163	4652
320.252	8191
320.341	7062
320.430	5798
320.519	6011
320.608	3490
320.697	3780
320.786	2823
320.875	4886
320.964	4719
321.053	7737
321.142	10293
321.230	11711
321.319	8845
321.408	21591
321.497	9144
321.586	9398
321.675	12446
321.764	12264
321.852	7513
321.941	11632
322.030	7569
322.119	8512
322.207	22406
322.296	18694
322.385	9636
322.474	9151
322.562	24720
322.651	13325
322.740	9438
322.829	13987
322.917	18251
323.006	9705
323.095	6851
323.183	6017
323.272	8028
323.361	15413
323.449	50275
323.538	15372
323.626	36163
323.715	20085
323.804	8523
323.892	32311
323.981	16063
324.069	5960
324.158	18884
324.246	17288
324.335	5046
324.424	7878
324.512	3092
324.601	4102
324.689	8971
324.778	17992
324.866	13984
324.954	3754
325.043	2818
325.131	7111
325.220	14919
325.308	17129
325.397	10698
325.485	6997
325.574	1784
325.662	1889
325.750	2821
325.839	3083
325.927	2346
326.015	3524
326.104	6467
326.192	9252
326.280	2776
326.369	2043
326.457	3352
326.545	5805
326.634	2241
326.722	2835
326.810	2226
326.898	2138
326.987	2956
327.075	5468
327.163	8507
327.251	3710
327.340	6355
327.428	8665
327.516	2435
327.604	2054
327.692	2938
327.781	4038
327.869	6303
327.957	4170
328.045	2946
328.133	2529
328.221	3844
328.309	2109
328.397	1918
328.485	2994
328.574	3718
328.662	13074
328.750	8829
328.838	3228
328.926	2539
329.014	2409
329.102	2635
329.190	9779
329.278	5117
329.366	2127
329.454	2025
329.542	1518
329.630	985
329.718	1924
329.806	2175
329.893	2207
329.981	1594
330.069	1497
330.157	3484
330.245	8004
330.333	4125
330.421	1589
330.509	4323
330.597	14427
330.684	9661
330.772	3961
330.860	5853
330.948	9767
331.036	3295
331.123	1013
331.211	1870
331.299	3507
331.387	6844
331.475	13176
331.562	4098
331.650	1708
331.738	2067
331.825	3765
331.913	2350
332.001	2261
332.089	3535
332.176	7417
332.264	18846
332.352	12964
332.439	3353
332.527	2807
332.614	2086
332.702	3403
332.790	2206
332.877	8041
332.965	15360
333.052	3247
333.140	2291
333.228	6723
333.315	1871
333.403	2307
333.490	10667
333.578	7193
333.665	4967
333.753	3130
333.840	1524
333.928	3447
334.015	10938
334.103	14662
334.190	47139
334.278	11740
334.365	5974
334.452	3614
334.540	2348
334.627	3813
334.715	5247
334.802	10344
334.889	62535
334.977	57816
335.064	8236
335.151	3860
335.239	3680
335.326	4519
335.413	21770
335.501	29811
335.588	4416
335.675	3512
335.762	4231
335.850	8097
335.937	5450
336.024	14159
336.111	65086
336.199	25869
336.286	5848
336.373	2806
336.460	1406
336.547	1984
336.635	3319
336.722	2695
336.809	2894
336.896	3314
336.983	13712
337.070	32860
337.157	44538
337.245	38504
337.332	26764
337.419	4094
337.506	2375
337.593	2613
337.680	11186
337.767	35644
337.854	8948
337.941	11033
338.028	14451
338.115	4082
338.202	5719
338.289	10589
338.376	39865
338.463	11161
338.550	19893
338.637	21718
338.724	7794
338.811	13832
338.898	3281
338.984	2035
339.071	3374
339.158	3141
339.245	8658
339.332	5415
339.419	8873
339.506	7950
339.593	884
339.679	2142
339.766	2041
339.853	3122
339.940	5391
340.027	1941
340.113	2030
340.200	2479
340.287	2743
340.374	3009
340.460	4632
340.547	2002
340.634	4287
340.720	14348
340.807	7357
340.894	1938
340.980	2082
341.067	1275
341.154	2363
341.240	3758
341.327	7226
341.414	2405
341.500	1383
341.587	2178
341.674	2355
341.760	4941
341.847	4815
341.933	1941
342.020	502
342.106	1663
342.193	2364
342.279	3058
342.366	2289
342.452	5176
342.539	2642
342.625	5857
342.712	14805
342.798	6440
342.885	2310
342.971	935
343.058	1437
343.144	1403
343.230	1295
343.317	1525
343.403	741
343.490	1059
343.576	948
343.662	1761
343.749	1401
343.835	2695
343.921	3699
344.008	24237
344.094	55939
344.180	12267
344.267	4438
344.353	16695
344.439	20056
344.525	8511
344.612	5875
344.698	5341
344.784	3541
344.870	2445
344.957	2027
345.043	3072
345.129	1856
345.215	4465
345.301	2130
345.387	1115
345.474	1179
345.560	1389
345.646	1604
345.732	2304
345.818	1928
345.904	1859
345.990	1578
346.076	1927
346.162	5511
346.249	2003
346.335	1289
346.421	1682
346.507	4794
346.593	23054
346.679	4208
346.765	2907
346.851	1662
346.937	1316
347.023	1481
347.108	1861
347.194	868
347.280	1340
347.366	2262
347.452	5690
347.538	26269
347.624	20848
347.710	18663
347.796	2708
347.882	2420
347.967	1572
348.053	2984
348.139	2294
348.225	738
348.311	1524
348.397	695
348.482	1950
348.568	1652
348.654	838
348.740	2142
348.825	1325
348.911	4060
348.997	12258
349.083	25738
349.168	3978
349.254	2051
349.340	2155
349.425	567
349.511	1957
349.597	2763
349.682	3982
349.768	17176
349.854	7222
349.939	2088
350.025	1453
350.110	1960
350.196	1291
350.282	991
350.367	1921
350.453	3950
350.538	3654
350.624	1308
350.709	2230
350.795	788
350.880	1709
350.966	1881
351.051	3717
351.137	2679
351.222	1786
351.308	4925
351.393	15331
351.479	3502
351.564	1360
351.649	1389
351.735	1612
351.820	1350
351.906	1358
351.991	2040
352.076	9480
352.162	14892
352.247	2250
352.332	1775
352.418	3486
352.503	4613
352.588	22305
352.673	16508
352.759	3412
352.844	1229
352.929	1756
353.014	2186
353.100	1904
353.185	2370
353.270	4637
353.355	5100
353.441	1520
353.526	2388
353.611	4443
353.696	4864
353.781	3508
353.866	710
353.952	2421
354.037	3800
354.122	10711
354.207	9229
354.292	3597
354.377	1569
354.462	1083
354.547	1606
354.632	2258
354.717	2870
354.802	2083
354.887	1868
354.972	1212
355.057	1164
355.142	1026
355.227	1680
355.312	2429
355.397	6647
355.482	16728
355.567	7696
355.652	5359
355.737	5885
355.822	19566
355.907	15264
355.991	2848
356.076	946
356.161	1644
356.246	938
356.331	1433
356.416	2657
356.501	30804
356.585	30449
356.670	3496
356.755	4142
356.840	4049
356.924	17603
357.009	71887
357.094	27608
357.179	5002
357.263	3867
357.348	4143
357.433	3809
357.517	4011
357.602	3061
357.687	2151
357.771	2853
357.856	12220
357.941	7828
358.025	14465
358.110	68406
358.195	31514
358.279	4671
358.364	3039
358.448	12772
358.533	37000
358.617	25844
358.702	26347
358.787	9381
358.871	5006
358.956	4821
359.040	1050
359.125	1360
359.209	2032
359.294	5409
359.378	10631
359.462	3796
359.547	2577
359.631	1832
359.716	130
359.800	1661
359.885	4135
359.969	1414
360.053	1801
360.138	756
360.222	2422
360.306	5118
360.391	4256
360.475	7581
360.559	16242
360.644	13569
360.728	8835
360.812	15392
360.896	45948
360.981	19630
361.065	11084
361.149	2717
361.233	2352
361.318	1380
361.402	2257
361.486	2707
361.570	1617
361.654	2298
361.739	5154
361.823	28054
361.907	46161
361.991	7505
362.075	3883
362.159	9541
362.243	7677
362.327	6895
362.411	11063
362.495	6159
362.580	3059
362.664	1006
362.748	1638
362.832	2473
362.916	3311
363.000	16191
363.084	43977
363.168	54182
363.252	12203
363.336	5401
363.420	6104
363.503	29113
363.587	34338
363.671	5547
363.755	3112
363.839	6043
363.923	1980
364.007	5648
364.091	6273
364.175	10244
364.258	47923
364.342	33050
364.426	37685
364.510	18811
364.594	9854
364.677	10176
364.761	38550
364.845	27167
364.929	8761
365.013	7339
365.096	6371
365.180	6928
365.264	11443
365.347	47906
365.431	20574
365.515	5959
365.598	2070
365.682	3083
365.766	5286
365.849	7086
365.933	2261
366.017	5386
366.100	3890
366.184	1275
366.267	2404
366.351	894
366.435	797
366.518	465
366.602	1324
366.685	1279
366.769	1392
366.852	4693
366.936	8145
367.019	2967
367.103	2989
367.186	9759
367.270	1267
367.353	298
367.436	1129
367.520	1133
367.603	2408
367.687	1892
367.770	5951
367.853	2944
367.937	11669
368.020	18950
368.104	4003
368.187	3866
368.270	6817
368.353	5489
368.437	8721
368.520	28182
368.603	14332
368.687	12889
368.770	26321
368.853	6443
368.936	6899
369.020	7434
369.103	1723
369.186	753
369.269	1141
369.352	4008
369.436	6175
369.519	2783
369.602	391
369.685	2536
369.768	1566
369.851	1505
369.934	894
370.018	1249
370.101	2818
370.184	5374
370.267	2552
370.350	3889
370.433	7610
370.516	18622
370.599	24974
370.682	5811
370.765	15359
370.848	18247
370.931	32469
371.014	13682
371.097	1400
371.180	1851
371.263	687
371.346	140
371.429	1640
371.511	381
371.594	2836
371.677	6494
371.760	8705
371.843	4437
371.926	22876
372.009	55870
372.091	18526
372.174	10611
372.257	28431
372.340	9890
372.423	10166
372.505	13317
372.588	4590
372.671	9365
372.754	30681
372.836	15451
372.919	14666
373.002	30004
373.085	7380
373.167	4298
373.250	11722
373.332	28020
373.415	36879
373.498	75084
373.580	26783
373.663	33871
373.746	47445
373.828	10299
373.911	5472
373.993	5167
374.076	28558
374.159	26978
374.241	9584
374.324	27730
374.406	17939
374.489	19903
374.571	61061
374.654	24387
374.736	11110
374.819	36333
374.901	54368
374.983	55046
375.066	9751
375.148	3416
375.231	21486
375.313	44490
375.395	15694
375.478	2466
375.560	2320
375.643	1942
375.725	11468
375.807	49116
375.890	45816
375.972	23112
376.054	10904
376.136	22458
376.219	8064
376.301	13229
376.383	41288
376.465	16052
376.548	9526
376.630	11740
376.712	37476
376.794	16082
376.877	1569
376.959	228
377.041	1379
377.123	5839
377.205	8521
377.287	1104
377.369	585
377.452	1286
377.534	1165
377.616	948
377.698	955
377.780	838
377.862	1231
377.944	1896
378.026	-457
378.108	575
378.190	155
378.272	878
378.354	124
378.436	918
378.518	1567
378.600	13322
378.682	9426
378.764	18256
378.846	15320
378.928	3550
379.010	5330
379.091	3509
379.173	1407
379.255	-165
379.337	1622
379.419	7915
379.501	27682
379.583	10391
379.664	1760
379.746	5121
379.828	18806
379.910	25402
379.991	22620
380.073	3681
380.155	2376
380.237	1059
380.318	1040
380.400	84
380.482	3717
380.564	5765
380.645	4267
380.727	3426
380.809	3683
380.890	1425
380.972	62
381.053	1257
381.135	1754
381.217	5700
381.298	19080
381.380	8593
381.461	6988
381.543	35319
381.624	43906
381.706	6904
381.787	3642
381.869	4433
381.951	12697
382.032	54835
382.113	37180
382.195	5814
382.276	5047
382.358	7621
382.439	28872
382.521	33303
382.602	53919
382.684	22654
382.765	43935
382.846	35684
382.928	32102
383.009	15032
383.090	10058
383.172	44027
383.253	71941
383.334	28457
383.416	45356
383.497	22626
383.578	6656
383.659	10559
383.741	38574
383.822	110915
383.903	55702
383.984	26651
384.066	59947
384.147	36377
384.228	6717
384.309	4164
384.390	3085
384.471	2256
384.553	2955
384.634	4685
384.715	4313
384.796	1365
384.877	1953
384.958	16581
385.039	20152
385.120	5539
385.201	2618
385.282	4431
385.363	4720
385.444	2535
385.525	6069
385.606	23041
385.687	20872
385.768	4961
385.849	6603
385.930	24851
386.011	45271
386.092	11177
386.173	2623
386.254	2681
386.335	3712
386.416	2664
386.496	10930
386.577	19854
386.658	7911
386.739	3270
386.820	4790
386.901	3152
386.981	3986
387.062	1033
387.143	3334
387.224	18411
387.304	18795
387.385	6673
387.466	3706
387.547	6108
387.627	2611
387.708	6589
387.789	32507
387.869	38852
387.950	10413
388.031	1920
388.111	610
388.192	8601
388.273	14528
388.353	6462
388.434	2960
388.514	5356
388.595	27929
388.676	37065
388.756	19561
388.837	18051
388.917	10599
388.998	1353
389.078	2059
389.159	1883
389.239	444
389.320	3545
389.400	1337
389.480	6753
389.561	19774
389.641	9483
389.722	2705
389.802	4765
389.883	8495
389.963	24140
390.043	16439
390.124	5320
390.204	6800
390.284	21604
390.365	13476
390.445	19789
390.525	38950
390.605	30934
390.686	9683
390.766	3414
390.846	2377
390.927	410
391.007	372
391.087	2786
391.167	1481
391.247	459
391.328	4906
391.408	8036
391.488	4953
391.568	573
391.648	1973
391.728	3629
391.808	3421
391.888	3623
391.969	10317
392.049	16497
392.129	9029
392.209	8047
392.289	22277
392.369	13034
392.449	14033
392.529	8000
392.609	5316
392.689	6623
392.769	21135
392.849	18203
392.929	15040
393.009	33247
393.089	22405
393.169	16185
393.248	52509
393.328	225069
393.408	248792
393.488	61576
393.568	16233
393.648	7876
393.728	5201
393.807	2902
393.887	5209
393.967	4234
394.047	4313
394.127	5379
394.206	9759
394.286	34413
394.366	146509
394.446	161376
394.525	41320
394.605	10603
394.685	8160
394.764	19740
394.844	33715
394.924	22791
395.003	5855
395.083	3490
395.163	2774
395.242	3321
395.322	3263
395.402	1520
395.481	4322
395.561	11563
395.640	36158
395.720	27527
395.799	37462
395.879	31232
395.958	16348
396.038	53720
396.117	190403
396.197	211783
396.276	73370
396.356	25046
396.435	17803
396.515	11152
396.594	9709
396.673	16297
396.753	61054
396.832	210379
396.912	160690
396.991	35256
397.070	9342
397.150	3964
397.229	3774
397.308	6268
397.388	11341
397.467	5785
397.546	1706
397.625	286
397.705	3588
397.784	2580
397.863	1040
397.942	-185
398.022	1157
398.101	8613
398.180	33743
398.259	16956
398.338	4086
398.417	1602
398.497	1209
398.576	2382
398.655	-152
398.734	758
398.813	1754
398.892	9088
398.971	35341
399.050	16740
399.129	1252
399.208	1399
399.287	1373
399.366	433
399.445	532
399.524	564
399.603	359
399.682	2481
399.761	8530
399.840	35895
399.919	29017
399.998	3313
400.077	-292
400.156	-813
400.235	2936
400.313	248
400.392	1291
400.471	9925
400.550	16795
400.629	3288
400.708	1650
400.786	1240
400.865	8573
400.944	7820
401.023	4484
401.102	-291
401.180	624
401.259	321
401.338	719
401.416	1089
401.495	459
401.574	1900
401.652	587
401.731	1979
401.810	686
401.888	-50
401.967	-1018
402.046	434
402.124	2037
402.203	1643
402.281	674
402.360	1323
402.438	10570
402.517	6761
402.596	1726
402.674	1148
402.753	887
402.831	572
402.910	807
402.988	3291
403.066	13389
403.145	8089
403.223	4259
403.302	9181
403.380	7597
403.459	6446
403.537	2503
403.615	1113
403.694	-934
403.772	702
403.850	-570
403.929	-237
404.007	-43
404.085	2286
404.164	936
404.242	265
404.320	7108
404.398	23594
404.477	24695
404.555	47648
404.633	43956
404.711	20894
404.789	11324
404.868	1324
404.946	385
405.024	-258
405.102	-665
405.180	-559
405.258	-1349
405.336	504
405.415	-135
405.493	3153
405.571	1906
405.649	-519
405.727	-800
405.805	2794
405.883	472
405.961	1654
406.039	1935
406.117	-124
406.195	1877
406.273	8196
406.351	39759
406.429	24753
406.507	3789
406.585	828
406.663	1076
406.740	786
406.818	-130
406.896	-194
406.974	518
407.052	1087
407.130	22661
407.208	33686
407.285	6153
407.363	-444
407.441	850
407.519	-78
407.596	1218
407.674	3170
407.752	14946
407.830	17210
407.907	5436
407.985	313
408.063	1332
408.141	62
408.218	2972
408.296	919
408.373	-438
408.451	169
408.529	609
408.606	-586
408.684	197
408.762	-411
408.839	-382
408.917	-226
408.994	-705
409.072	-769
409.149	-623
409.227	1565
409.304	823
409.382	890
409.459	999
409.537	2056
409.614	1783
409.692	229
409.769	723
409.846	1844
409.924	3798
410.001	1195
410.079	1093
410.156	1073
410.233	1029
410.311	86
410.388	-559
410.465	204
410.543	-273
410.620	355
410.697	1357
410.775	481
410.852	-1748
410.929	1292
411.006	1799
411.083	-727
411.161	399
411.238	2943
411.315	1588
411.392	-928
411.469	1192
411.547	1879
411.624	-1138
411.701	-368
411.778	-420
411.855	2123
411.932	633
412.009	-1127
412.086	-181
412.163	273
412.240	522
412.317	2226
412.394	504
412.471	52
412.548	-468
412.625	263
412.702	677
412.779	1855
412.856	674
412.933	-604
413.010	-276
413.087	809
413.164	8392
413.241	12151
413.318	1851
413.395	1730
413.471	2076
413.548	867
413.625	56
413.702	-261
413.779	177
413.855	-662
413.932	-536
414.009	-1523
414.086	522
414.162	-196
414.239	1779
414.316	9185
414.393	21278
414.469	5235
414.546	4
414.623	-481
414.699	-784
414.776	-143
414.853	-501
414.929	775
415.006	-345
415.082	1038
415.159	374
415.236	14
415.312	371
415.389	1927
415.465	1529
415.542	192
415.618	-1180
415.695	1458
415.771	-465
415.848	134
415.924	283
416.000	937
416.077	841
416.153	-1780
416.230	-1570
416.306	-747
416.383	-402
416.459	-45
416.535	-1861
416.612	-553
416.688	-385
416.764	-1083
416.841	-1026
416.917	-587
416.993	388
417.069	551
417.146	322
417.222	1479
417.298	-378
417.374	-967
417.451	336
417.527	-928
417.603	372
417.679	-312
417.755	-36
417.831	-1045
417.908	-416
417.984	-750
418.060	-645
418.136	2247
418.212	2507
418.288	133
418.364	-209
418.440	-802
418.516	730
418.592	1162
418.668	4330
418.744	5131
418.820	3788
418.896	519
418.972	-1262
419.048	-835
419.124	2964
419.200	396
419.276	-420
419.352	-1736
419.428	-319
419.504	-773
419.579	-225
419.655	-730
419.731	41
419.807	2481
419.883	5978
419.959	4562
420.034	351
420.110	1391
420.186	11504
420.262	9299
420.337	579
420.413	-215
420.489	-153
420.565	95
420.640	-386
420.716	-575
420.792	-1242
420.867	860
420.943	-1138
421.019	606
421.094	180
421.170	-653
421.245	-808
421.321	431
421.397	-727
421.472	2938
421.548	7319
421.623	5567
421.699	1331
421.774	1517
421.850	1059
421.925	2900
422.001	2397
422.076	2599
422.152	2713
422.227	5204
422.302	7042
422.378	9630
422.453	18744
422.529	44150
422.604	105646
422.679	157768
422.755	116719
422.830	49507
422.905	21291
422.981	11399
423.056	7257
423.131	5396
423.207	3445
423.282	2908
423.357	6058
423.432	3042
423.508	2641
423.583	5107
423.658	3995
423.733	1330
423.808	1810
423.883	2547
423.959	1002
424.034	1281
424.109	1273
424.184	-308
424.259	177
424.334	-290
424.409	-328
424.484	-325
424.559	-572
424.634	-164
424.709	1289
424.784	1201
424.859	-279
424.934	701
425.009	7767
425.084	14593
425.159	3744
425.234	-159
425.309	-698
425.384	2253
425.459	3934
425.534	1770
425.609	-47
425.683	-771
425.758	-715
425.833	410
425.908	-255
425.983	3235
426.058	14975
426.132	5468
426.207	355
426.282	2990
426.357	1361
426.431	261
426.506	336
426.581	-214
426.655	369
426.730	120
426.805	-154
426.879	364
426.954	-304
427.029	1737
427.103	12530
427.178	33790
427.253	15255
427.327	1179
427.402	1812
427.476	7679
427.551	2529
427.625	334
427.700	790
427.774	-385
427.849	1127
427.923	-515
427.998	-258
428.072	-306
428.147	2427
428.221	11235
428.296	34077
428.370	16560
428.444	1773
428.519	2939
428.593	8007
428.667	6317
428.742	8329
428.816	7396
428.890	23611
428.965	36911
429.039	12217
429.113	9134
429.188	2879
429.262	-2
429.336	1268
429.410	6512
429.485	4742
429.559	6269
429.633	5052
429.707	137
429.781	3449
429.855	27549
429.930	40358
430.004	23165
430.078	37797
430.152	32346
430.226	43820
430.300	44260
430.374	6073
430.448	2397
430.522	10227
430.596	33570
430.670	19776
430.744	36933
430.818	54359
430.892	9547
430.966	375
431.040	-995
431.114	-1317
431.188	-1143
431.262	-373
431.336	-565
431.410	2353
431.484	8899
431.557	5312
431.631	-676
431.705	191
431.779	5250
431.853	29652
431.927	20347
432.000	1072
432.074	599
432.148	840
432.222	-39
432.295	-726
432.369	-992
432.443	300
432.516	12655
432.590	35623
432.664	12694
432.737	839
432.811	-1198
432.885	-771
432.958	-564
433.032	-1197
433.106	-608
433.179	-1006
433.253	-395
433.326	-1109
433.400	-1330
433.473	-325
433.547	-1296
433.620	-1325
433.694	-1081
433.767	750
433.841	-973
433.914	-816
433.988	72
434.061	-182
434.134	-715
434.208	-1578
434.281	-704
434.355	-1639
434.428	-145
434.501	-1000
434.575	-931
434.648	-594
434.721	-523
434.795	-1007
434.868	-1330
434.941	-1048
435.014	-968
435.088	-1747
435.161	-779
435.234	286
435.307	-232
435.381	75
435.454	-110
435.527	524
435.600	1158
435.673	-386
435.746	-125
435.819	71
435.892	-942
435.966	-733
436.039	-721
436.112	27
436.185	-936
436.258	-1464
436.331	-1901
436.404	-501
436.477	-422
436.550	-318
436.623	-911
436.696	-1102
436.769	-941
436.842	-19
436.915	-1003
436.987	-303
437.060	-922
437.133	-1035
437.206	-1497
437.279	-657
437.352	-1063
437.425	-168
437.498	-892
437.570	1593
437.643	672
437.716	-642
437.789	-1335
437.861	262
437.934	1906
438.007	460
438.080	-514
438.152	-854
438.225	1156
438.298	16531
438.370	47435
438.443	18383
438.516	2397
438.588	-447
438.661	-631
438.734	-345
438.806	-114
438.879	-378
438.951	-436
439.024	720
439.096	-403
439.169	-863
439.241	-748
439.314	-553
439.386	38
439.459	1399
439.531	2198
439.604	362
439.676	-808
439.749	-593
439.821	-1300
439.893	-648
439.966	-1135
440.038	-586
440.110	-1374
440.183	15
440.255	-1494
440.327	591
440.400	7123
440.472	31014
440.544	18581
440.617	855
440.689	585
440.761	998
440.833	1674
440.905	1033
440.978	-1583
441.050	-1042
441.122	-455
441.194	-947
441.266	-615
441.338	-242
441.411	590
441.483	8963
441.555	14102
441.627	1905
441.699	1788
441.771	1195
441.843	-190
441.915	-670
441.987	-1024
442.059	-1033
442.131	-294
442.203	1541
442.275	929
442.347	1230
442.419	2053
442.491	14129
442.563	37819
442.635	16301
442.706	9526
442.778	7173
442.850	685
442.922	-94
442.994	691
443.066	1859
443.137	936
443.209	436
443.281	587
443.353	3594
443.425	18993
443.496	65597
443.568	64215
443.640	23378
443.711	3662
443.783	476
443.855	-142
443.926	209
443.998	-158
444.070	1137
444.141	755
444.213	13
444.285	1117
444.356	1413
444.428	1460
444.499	99
444.571	-40
444.642	-813
444.714	-592
444.785	708
444.857	1554
444.928	6823
445.000	3547
445.071	4345
445.143	4905
445.214	2436
445.285	4725
445.357	16372
445.428	44816
445.500	99072
445.571	66352
445.642	34446
445.714	13910
445.785	13490
445.856	2610
445.928	1777
445.999	719
446.070	279
446.141	227
446.213	2288
446.284	157
446.355	1521
446.426	185
446.497	34
446.569	1153
446.640	2248
446.711	1516
446.782	356
446.853	738
446.924	1074
446.995	-438
447.066	672
447.138	1906
447.209	635
447.280	-1108
447.351	-463
447.422	-1432
447.493	-34
447.564	1059
447.635	356
447.706	94
447.777	-710
447.847	12
447.918	-297
447.989	-159
448.060	1020
448.131	4170
448.202	3028
448.273	2158
448.344	1308
448.414	66
448.485	-649
448.556	-242
448.627	-855
448.698	-62
448.768	-218
448.839	-524
448.910	1272
448.981	1763
449.051	-203
449.122	-372
449.193	213
449.263	-312
449.334	-1356
449.405	50
449.475	1822
449.546	791
449.616	2783
449.687	2169
449.758	-246
449.828	-568
449.899	-649
449.969	-808
450.040	-772
450.110	166
450.181	334
450.251	-925
450.322	315
450.392	-241
450.463	-43
450.533	-267
450.604	-242
450.674	-628
450.744	-315
450.815	-1521
450.885	137
450.955	-339
451.026	-751
451.096	21
451.166	52
451.237	2559
451.307	8244
451.377	2471
451.447	327
451.518	-488
451.588	-353
451.658	135
451.728	1347
451.799	8677
451.869	10860
451.939	1751
452.009	-135
452.079	-382
452.149	-218
452.219	1831
452.289	11193
452.360	8341
452.430	478
452.500	-204
452.570	1145
452.640	2682
452.710	7526
452.780	11550
452.850	6072
452.920	4369
452.990	1143
453.060	402
453.129	743
453.199	2502
453.269	9992
453.339	22541
453.409	35142
453.479	35320
453.549	54075
453.619	59740
453.688	21848
453.758	3782
453.828	578
453.898	419
453.968	50
454.037	283
454.087	-77
454.107	-243
454.168	17
454.177	32
454.247	55
454.249	74
454.316	-82
454.330	-12
454.386	90
454.411	1756
454.456	4234
454.492	5980
454.525	7515
454.574	3547
454.595	1841
454.655	1145
454.665	1054
454.734	1352
454.736	1441
454.804	2748
454.817	4205
454.873	9274
454.898	9993
454.943	11030
454.979	7090
455.013	3769
455.060	1969
455.082	1319
455.141	1971
455.152	2010
455.221	7895
455.222	8079
455.291	14819
455.303	14412
455.360	12211
455.384	15851
455.430	21062
455.465	16420
455.499	12308
455.546	11394
455.569	10544
455.627	6236
455.638	5597
455.707	1366
455.708	1387
455.777	1059
455.789	969
455.846	735
455.869	898
455.916	1012
455.950	1230
455.985	1321
456.031	1134
456.054	1121
456.112	1056
456.124	1014
456.193	1174
456.193	1149
456.262	1378
456.274	1513
456.332	2080
456.355	2068
456.401	1735
456.436	1743
456.470	1722
456.516	845
456.540	442
456.597	994
456.609	1084
456.678	685
456.678	666
456.747	680
456.759	615
456.817	501
456.840	664
456.886	790
456.920	983
456.955	1285
457.001	1351
457.024	1270
457.082	1888
457.093	2064
457.162	2838
457.163	2864
457.232	3544
457.243	3330
457.301	1762
457.324	1350
457.370	890
457.405	1172
457.439	1661
457.485	1622
457.508	1395
457.566	1600
457.577	1691
457.646	2718
457.647	2741
457.715	4281
457.727	4535
457.784	5894
457.808	7397
457.853	9216
457.889	10358
457.922	10162
457.969	7499
457.991	7637
458.050	8775
458.060	8968
458.129	14254
458.130	14427
458.198	13801
458.211	12620
458.267	8117
458.292	6148
458.336	4792
458.372	4660
458.405	5743
458.453	7818
458.474	9262
458.533	15506
458.543	16038
458.611	23456
458.614	23608
458.680	15197
458.694	12191
458.749	5996
458.775	4685
458.818	3463
458.855	3389
458.887	3685
458.936	3192
458.955	2777
459.016	2620
459.024	2663
459.093	3350
459.097	3355
459.162	2846
459.177	2865
459.230	3212
459.257	3663
459.299	4140
459.338	3993
459.368	3809
459.418	4155
459.437	4182
459.499	3522
459.505	3469
459.574	3394
459.579	3411
459.643	3182
459.659	3015
459.711	3231
459.740	3436
459.780	3306
459.820	3101
459.849	3345
459.900	4638
459.917	4724
459.981	4591
459.986	4585
460.054	4122
460.061	4115
460.123	4200
460.141	4231
460.191	4866
460.222	5242
460.260	5238
460.302	5357
460.328	5256
460.382	5179
460.397	5200
460.462	4453
460.465	4564
460.534	8258
460.543	8777
460.602	20346
460.623	24630
460.671	37135
460.703	48482
460.739	42862
460.783	32812
460.808	28138
460.864	8709
460.876	7219
460.944	5004
460.945	4966
461.013	4330
461.024	4223
461.081	4282
461.104	4628
461.150	5017
461.184	5010
461.218	4878
461.264	4197
461.286	4057
461.345	4226
461.355	4232
461.423	4515
461.425	4514
461.491	4624
461.505	4748
461.559	8646
461.585	10426
461.628	15111
461.665	19786
461.696	20600
461.745	23614
461.764	21200
461.825	8349
461.832	8042
461.901	5230
461.905	5172
461.969	4642
461.985	4508
462.037	4764
462.065	5190
462.105	5945
462.145	6361
462.173	8040
462.225	11408
462.241	12481
462.305	17706
462.310	17241
462.378	9556
462.385	8439
462.446	6079
462.465	5662
462.514	5390
462.545	5311
462.582	5184
462.625	5190
462.650	5216
462.705	5275
462.718	5518
462.785	6697
462.786	6723
462.854	8227
462.865	8459
462.922	10178
462.945	10960
462.990	8506
463.025	6113
463.058	5688
463.104	5230
463.126	5060
463.184	4983
463.194	5109
463.262	5734
463.264	5764
463.330	6299
463.344	6339
463.398	7163
463.424	7539
463.466	6485
463.504	5708
463.533	6236
463.583	6765
463.601	6860
463.663	7397
463.669	7598
463.737	9776
463.743	9998
463.805	14002
463.823	15046
463.873	21504
463.903	25759
463.940	26103
463.982	26861
464.008	22325
464.062	10846
464.076	10005
464.142	5544
464.144	5555
464.211	6983
464.221	7191
464.279	6622
464.301	6438
464.347	7290
464.381	7837
464.414	8073
464.461	8480
464.482	8847
464.540	9902
464.550	9595
464.617	6835
464.620	6745
464.685	9442
464.699	9959
464.753	11221
464.779	11898
464.820	13230
464.859	14631
464.888	14007
464.938	12469
464.956	12621
465.018	13261
465.023	13099
465.091	10564
465.098	10299
465.158	10402
465.177	10437
465.226	10386
465.257	10290
465.293	10787
465.336	11408
465.361	11883
465.416	12863
465.428	13669
465.495	17915
465.496	17998
465.563	26463
465.575	27950
465.631	32612
465.654	34691
465.698	22705
465.734	11916
465.765	11004
465.813	9919
465.833	9725
465.893	9405
465.900	9459
465.968	9741
465.972	9747
466.035	9711
466.052	9683
466.102	9640
466.131	9604
466.170	10055
466.210	10437
466.237	10621
466.290	10964
466.304	10793
466.369	9878
466.372	9913
466.439	10473
466.449	10511
466.506	11483
466.528	11873
466.573	16059
466.607	19111
466.641	25724
466.687	34927
466.708	38138
466.766	46940
466.775	43445
466.842	16419
466.845	15101
466.909	12621
466.925	12069
466.977	11694
467.004	11510
467.044	12683
467.083	13803
467.111	14947
467.163	17011
467.178	17629
467.242	20066
467.245	19962
467.312	17004
467.321	16582
467.379	16146
467.400	15940
467.446	17549
467.480	18656
467.559	16656
467.638	14431
467.717	15620
467.796	15656
467.875	16455
467.955	15753
468.034	23823
468.113	43364
468.192	60250
468.271	18429
468.350	15345
468.429	15765
468.508	15931
468.588	14939
468.667	14790
468.746	15653
468.825	14668
468.904	12741
468.983	16394
469.062	20552
469.141	24113
469.220	13635
469.299	14111
469.378	15237
469.456	18874
469.535	16236
469.614	16054
469.693	16121
469.772	20691
469.851	24431
469.930	17447
470.009	14276
470.088	13833
470.166	15173
470.245	15106
470.324	15512
470.403	14407
470.482	15090
470.560	14163
470.639	13997
470.718	15981
470.797	14296
470.875	16288
470.954	18871
471.033	22055
471.111	12118
471.190	13505
471.269	12237
471.347	12479
471.426	13153
471.505	15943
471.583	16249
471.662	15638
471.740	13677
471.819	13786
471.898	13220
471.976	14174
472.055	12323
472.133	15340
472.212	18296
472.290	17877
472.369	12920
472.447	12935
472.526	12281
472.604	12817
472.683	12414
472.761	13677
472.839	12418
472.918	12304
472.996	13516
473.075	14133
473.153	14818
473.231	12908
473.310	13784
473.388	13241
473.466	13122
473.545	14363
473.623	16236
473.701	16021
473.780	12901
473.858	12194
473.936	15134
474.014	12466
474.093	13470
474.171	19003
474.249	23318
474.327	16499
474.405	11513
474.484	11888
474.562	11053
474.640	11114
474.718	11547
474.796	11851
474.874	10984
474.952	9916
475.030	11465
475.108	11253
475.187	11578
475.265	11375
475.343	13571
475.421	14169
475.499	10872
475.577	13262
475.655	15281
475.733	25789
475.811	40714
475.889	37009
475.966	23328
476.044	12409
476.122	12448
476.200	14220
476.278	12254
476.356	11581
476.434	11975
476.512	13358
476.590	13486
476.667	13217
476.745	11630
476.823	13115
476.901	11132
476.979	12222
477.056	12712
477.134	12711
477.212	12811
477.290	12087
477.367	10786
477.445	11429
477.523	10254
477.601	11584
477.678	10901
477.756	13113
477.834	13653
477.911	11486
477.989	11087
478.066	10955
478.144	11893
478.222	11830
478.299	13485
478.377	12454
478.454	10456
478.532	10119
478.609	10535
478.687	12226
478.764	10285
478.842	11457
478.919	11421
478.997	11445
479.074	9717
479.152	12400
479.229	13711
479.307	9292
479.384	10560
479.461	10781
479.539	9929
479.616	13381
479.694	10408
479.771	11594
479.848	11809
479.926	14803
480.003	15142
480.080	11197
480.157	9688
480.235	9800
480.312	8741
480.389	11704
480.467	16398
480.544	19310
480.621	12197
480.698	11968
480.775	12618
480.853	12877
480.930	11120
481.007	12121
481.084	13018
481.161	15298
481.238	12469
481.315	10267
481.392	11117
481.470	10581
481.547	9950
481.624	10863
481.701	9706
481.778	10948
481.855	11273
481.932	16158
482.009	23676
482.086	17022
482.163	9830
482.240	11521
482.317	13257
482.393	12346
482.470	10064
482.547	10824
482.624	9444
482.701	10855
482.778	9439
482.855	9322
482.932	9474
483.009	9433
483.085	10513
483.162	12394
483.239	11763
483.316	9564
483.393	9897
483.469	10490
483.546	12130
483.623	12040
483.699	10454
483.776	9971
483.853	10882
483.930	16345
484.006	36167
484.083	56784
484.160	35765
484.236	53937
484.313	40912
484.389	31619
484.466	29045
484.543	26624
484.619	26573
484.696	28090
484.772	29317
484.849	30212
484.925	25850
485.002	26263
485.078	27181
485.155	26673
485.231	25372
485.308	25113
485.384	25328
485.461	29453
485.537	41518
485.614	44765
485.690	23308
485.766	23660
485.843	24266
485.919	29014
485.995	28136
486.072	21888
486.148	21896
486.224	21406
486.301	22256
486.377	24211
486.453	23697
486.530	24997
486.606	33378
486.682	35168
486.758	39889
486.835	42423
486.911	34651
486.987	48902
487.063	46909
487.139	50853
487.215	38975
487.292	28483
487.368	24131
487.444	26094
487.520	28813
487.596	27850
487.672	36962
487.748	68520
487.824	90654
487.900	41454
487.976	25724
488.052	25963
488.128	26923
488.204	23637
488.280	21885
488.356	26873
488.432	43898
488.508	58885
488.584	25487
488.660	20049
488.736	20514
488.812	21552
488.888	25255
488.964	29980
489.039	47800
489.115	65527
489.191	39668
489.267	21283
489.343	20050
489.418	18337
489.494	19104
489.570	17126
489.646	19574
489.722	18519
489.797	18481
489.873	27063
489.949	46284
490.024	37972
490.100	16931
490.176	18540
490.251	19538
490.327	21811
490.403	16521
490.478	17195
490.554	14802
490.629	15650
490.705	14008
490.781	16892
490.856	15936
490.932	17873
491.007	16613
491.083	16863
491.158	15015
491.234	20608
491.309	36833
491.385	34825
491.460	16165
491.536	17399
491.611	15263
491.686	17053
491.762	19700
491.837	31932
491.913	48460
491.988	63710
492.063	70735
492.139	27983
492.214	19479
492.289	13967
492.365	14099
492.440	15738
492.515	14420
492.590	15937
492.666	13003
492.741	17965
492.816	22178
492.891	15183
492.967	13914
493.042	12372
493.117	12237
493.192	13728
493.267	21204
493.342	52544
493.418	64635
493.493	16513
493.568	11529
493.643	12160
493.718	15075
493.793	19193
493.868	20135
493.943	13896
494.018	12552
494.093	12063
494.168	12511
494.243	10810
494.318	10451
494.393	11205
494.468	10435
494.543	10940
494.618	12067
494.693	10826
494.768	10638
494.842	12112
494.917	10428
494.992	12267
495.067	10199
495.142	10845
495.217	11537
495.292	10465
495.366	12984
495.441	14894
495.516	18423
495.591	23007
495.665	58767
495.740	117530
495.815	45583
495.890	15338
495.964	12314
496.039	15716
496.114	13995
496.188	15701
496.263	14994
496.338	12945
496.412	14420
496.487	17353
496.561	16550
496.636	16227
496.710	14787
496.785	15153
496.860	16962
496.934	14042
497.009	13677
497.083	12793
497.158	13106
497.232	15707
497.307	16835
497.381	13883
497.455	15566
497.530	21291
497.604	14750
497.679	15449
497.753	21953
497.827	23777
497.902	17802
497.976	23034
498.050	58911
498.125	205087
498.199	184739
498.273	27163
498.348	18822
498.422	16683
498.496	17271
498.570	16225
498.645	13302
498.719	14187
498.793	17362
498.867	27280
498.941	34534
499.016	94277
499.090	220283
499.164	71576
499.238	14289
499.312	14693
499.386	15588
499.460	15615
499.534	13669
499.609	16183
499.683	24078
499.757	22111
499.831	46961
499.905	161738
499.979	134181
500.053	30080
500.127	27226
500.201	19849
500.275	14327
500.349	15448
500.422	15017
500.496	21134
500.570	38699
500.644	97661
500.718	163267
500.792	35472
500.866	15810
500.940	19252
501.013	16318
501.087	16008
501.161	23938
501.235	30305
501.309	66273
501.382	163428
501.456	124758
501.530	35260
501.603	58714
501.677	22165
501.751	11492
501.825	16390
501.898	28657
501.972	72696
502.046	39668
502.119	16243
502.193	35177
502.266	76438
502.340	33843
502.413	38449
502.487	65403
502.561	36731
502.634	14174
502.708	12818
502.781	10560
502.855	10869
502.928	8835
503.002	10510
503.075	8965
503.149	10895
503.222	10010
503.295	12111
503.369	13640
503.442	18452
503.516	56130
503.589	127518
503.662	74570
503.736	29186
503.809	62185
503.882	47764
503.956	73986
504.029	60900
504.102	40583
504.175	48124
504.249	19899
504.322	16235
504.395	13657
504.468	10747
504.542	10661
504.615	8692
504.688	9768
504.761	8524
504.834	11302
504.907	11898
504.980	15999
505.053	11960
505.127	10841
505.200	16092
505.273	14942
505.346	9828
505.419	7529
505.492	9276
505.565	7166
505.638	7915
505.711	7725
505.784	7414
505.857	7009
505.930	10524
506.003	7351
506.076	10524
506.149	11314
506.221	12807
506.294	13415
506.367	29885
506.440	91584
506.513	43464
506.586	14581
506.659	9864
506.731	8361
506.804	9861
506.877	10946
506.950	10761
507.022	8805
507.095	10032
507.168	12366
507.241	8856
507.313	6621
507.386	8380
507.459	9938
507.531	8051
507.604	7291
507.677	9259
507.749	6148
507.822	11328
507.894	18897
507.967	22769
508.040	14023
508.112	13305
508.185	11598
508.257	11030
508.330	15473
508.402	11710
508.475	11220
508.547	12040
508.620	12090
508.692	17254
508.765	11859
508.837	10279
508.909	10175
508.982	10212
509.054	11106
509.127	10112
509.199	9307
509.271	8995
509.344	8891
509.416	9715
509.488	10004
509.560	11111
509.633	9983
509.705	11830
509.777	11913
509.849	14339
509.922	10804
509.994	11922
510.066	12290
510.138	11723
510.210	22974
510.283	19418
510.355	16089
510.427	15395
510.499	14201
510.571	13601
510.643	12819
510.715	18385
510.787	14103
510.859	14113
510.931	13671
511.003	17552
511.076	16681
511.148	12614
511.219	13512
511.291	20602
511.363	20732
511.435	11858
511.507	11606
511.579	12581
511.651	11947
511.723	11893
511.795	10312
511.867	11300
511.939	13338
512.010	22289
512.082	17415
512.154	11158
512.226	10914
512.298	18026
512.369	20920
512.441	17692
512.513	15308
512.585	13591
512.656	14828
512.728	15379
512.800	11972
512.871	13219
512.943	12868
513.015	11178
513.086	13420
513.158	12073
513.230	12509
513.301	15469
513.373	16121
513.444	12771
513.516	10593
513.588	11683
513.659	11509
513.731	12532
513.802	9827
513.874	20839
513.945	27502
514.016	13358
514.088	11084
514.159	11145
514.231	14676
514.302	19303
514.374	15917
514.445	14991
514.516	26399
514.588	17398
514.659	15363
514.730	22843
514.802	16471
514.873	10495
514.944	13668
515.016	13104
515.087	13204
515.158	17190
515.229	21992
515.301	11079
515.372	11436
515.443	9996
515.514	10390
515.585	9743
515.656	10921
515.728	10871
515.799	10056
515.870	11151
515.941	10860
516.012	10741
516.083	15312
516.154	14939
516.225	16704
516.296	15988
516.367	12737
516.438	13044
516.509	15075
516.580	20571
516.651	43315
516.722	117514
516.793	55232
516.864	20771
516.935	19746
517.006	20490
517.077	24273
517.148	47903
517.219	106125
517.289	146841
517.360	97119
517.431	36314
517.502	14063
517.573	16113
517.643	15085
517.714	17083
517.785	15611
517.856	15394
517.926	17702
517.997	17024
518.068	16981
518.138	21450
518.209	25233
518.280	73595
518.350	217695
518.421	76414
518.492	19464
518.562	18446
518.633	17386
518.703	17803
518.774	30169
518.845	55006
518.915	49710
518.986	23139
519.056	20220
519.127	29522
519.197	44225
519.268	99214
519.338	58414
519.408	19147
519.479	19993
519.549	14451
519.620	14359
519.690	12364
519.760	12311
519.831	11818
519.901	11571
519.971	11361
520.042	12187
520.112	13331
520.182	14466
520.253	15051
520.323	12273
520.393	14862
520.463	19111
520.534	13508
520.604	24692
520.674	15214
520.744	14676
520.814	26326
520.885	24056
520.955	37050
521.025	111919
521.095	40131
521.165	12064
521.235	12363
521.305	10452
521.375	10483
521.445	11543
521.515	12616
521.585	15467
521.655	12048
521.725	13409
521.795	12806
521.865	8672
521.935	16498
522.005	11918
522.075	9769
522.145	11484
522.215	11701
522.285	14158
522.355	20040
522.424	35062
522.494	26434
522.564	15345
522.634	25835
522.704	58876
522.774	21930
522.843	11275
522.913	10917
522.983	11958
523.053	9220
523.122	11638
523.192	13455
523.262	33129
523.331	28111
523.401	10110
523.471	8765
523.540	9816
523.610	7785
523.680	8472
523.749	9651
523.819	11463
523.888	10686
523.958	8307
524.027	9350
524.097	10715
524.166	9453
524.236	9318
524.305	11339
524.375	8402
524.444	8923
524.514	10388
524.583	9533
524.653	10475
524.722	12223
524.791	8367
524.861	10425
524.930	7699
524.999	8840
525.069	11575
525.138	10041
525.207	11723
525.277	10451
525.346	9754
525.415	10028
525.484	9546
525.554	10523
525.623	11005
525.692	11222
525.761	11130
525.830	11292
525.900	11033
525.969	16713
526.038	23307
526.107	41597
526.176	103426
526.245	76299
526.314	31812
526.383	60780
526.452	70540
526.522	123281
526.591	111974
526.660	37556
526.729	20681
526.797	25040
526.867	46045
526.935	173993
527.004	262625
527.073	124125
527.142	17961
527.211	11734
527.280	12511
527.349	12395
527.418	7171
527.487	9933
527.555	7475
527.624	7872
527.693	6267
527.762	8224
527.831	6671
527.899	8098
527.968	7813
528.037	7175
528.106	9232
528.174	13974
528.243	12058
528.312	16624
528.380	17675
528.449	8408
528.518	8071
528.586	6490
528.655	8280
528.723	7671
528.792	6576
528.861	8358
528.929	7087
528.998	7420
529.066	8102
529.135	11135
529.203	10086
529.272	10183
529.340	14045
529.409	13443
529.477	11145
529.545	13220
529.614	15284
529.682	15723
529.751	17249
529.819	20272
529.887	16985
529.956	15600
530.024	15793
530.092	12789
530.161	15118
530.229	17502
530.297	14918
530.365	15268
530.434	15076
530.502	14766
530.570	13972
530.638	12322
530.707	12376
530.775	13837
530.843	12440
530.911	13765
530.979	13720
531.047	15187
531.115	14735
531.183	13816
531.252	13823
531.320	13014
531.388	12758
531.456	16103
531.524	13181
531.592	16810
531.660	17224
531.728	15017
531.796	15257
531.864	15480
531.932	15224
532.000	15266
532.067	15776
532.135	18032
532.203	19268
532.271	18481
532.339	23312
532.407	37353
532.475	25295
532.542	20445
532.610	18756
532.678	23810
532.746	61598
532.814	111815
532.881	34608
532.949	18034
533.017	16287
533.084	15810
533.152	15453
533.220	14986
533.287	15937
533.355	15582
533.423	15579
533.490	15687
533.558	15496
533.625	15982
533.693	15536
533.761	15825
533.828	15484
533.896	16509
533.963	24118
534.031	26085
534.098	28149
534.166	18479
534.233	15999
534.300	17833
534.368	17094
534.435	14814
534.503	15328
534.570	16396
534.637	14485
534.705	15537
534.772	17059
534.840	20281
534.907	55617
534.974	59156
535.041	16424
535.109	14481
535.176	11637
535.243	12645
535.310	13390
535.378	12853
535.445	11619
535.512	12417
535.579	12406
535.646	10889
535.714	12508
535.781	15312
535.848	14465
535.915	16863
535.982	17403
536.049	16104
536.116	15435
536.183	13267
536.250	12185
536.317	11834
536.384	13216
536.451	14891
536.518	14871
536.585	12014
536.652	15363
536.719	17353
536.786	13697
536.853	12234
536.920	17330
536.987	20687
537.053	20099
537.120	63090
537.187	45969
537.254	11914
537.321	11516
537.388	11631
537.454	9101
537.521	10579
537.588	9394
537.654	12346
537.721	12025
537.788	12163
537.855	9209
537.921	11892
537.988	10777
538.055	11338
538.121	9588
538.188	11174
538.254	12821
538.321	18503
538.388	13913
538.454	11632
538.521	10429
538.587	9700
538.654	10682
538.720	10549
538.787	10284
538.853	11220
538.920	11209
538.986	11025
539.053	10273
539.119	11257
539.185	10360
539.252	13095
539.318	13683
539.385	13955
539.451	11140
539.517	12735
539.583	13888
539.650	24859
539.716	46877
539.782	14799
539.849	9771
539.915	11329
539.981	10156
540.047	12221
540.114	12192
540.180	13268
540.246	10676
540.312	12554
540.378	19134
540.444	19887
540.510	24195
540.576	50428
540.643	16639
540.709	9154
540.775	10680
540.841	11247
540.907	13555
540.973	17922
541.039	15325
541.105	14379
541.171	10270
541.237	9977
541.303	10916
541.369	13158
541.435	13795
541.500	18304
541.566	11521
541.632	10214
541.698	9201
541.764	9630
541.830	8558
541.896	8237
541.961	10081
542.027	9872
542.093	10278
542.159	11773
542.224	10156
542.290	15132
542.356	17439
542.421	19604
542.487	12552
542.553	11388
542.618	11470
542.684	10112
542.750	9853
542.815	12620
542.881	16814
542.947	45786
543.012	31001
543.078	10065
543.143	9169
543.209	11401
543.274	9730
543.340	12708
543.405	21285
543.471	27898
543.536	11011
543.602	11068
543.667	9102
543.732	11274
543.798	7942
543.863	11060
543.928	8860
543.994	8697
544.059	9174
544.124	10916
544.190	9201
544.255	10724
544.320	9758
544.386	10753
544.451	13169
544.516	13237
544.581	14525
544.646	32064
544.712	40487
544.777	13821
544.842	13214
544.907	13520
544.972	11921
545.037	12181
545.102	13406
545.168	12359
545.233	13684
545.298	14678
545.363	14224
545.428	16135
545.493	22652
545.558	38292
545.623	18738
545.688	12350
545.753	13402
545.818	12240
545.883	13901
545.947	13401
546.012	14438
546.077	14177
546.142	14474
546.207	14194
546.272	15996
546.337	16195
546.401	14984
546.466	14795
546.531	14138
546.596	15358
546.661	15981
546.725	15894
546.790	13671
546.855	15829
546.919	15098
546.984	16874
547.049	17201
547.113	21642
547.178	19796
547.243	23960
547.307	24989
547.372	27375
547.436	27544
547.501	25928
547.565	27733
547.630	28324
547.695	27465
547.759	29515
547.823	26210
547.888	25963
547.952	25289
548.017	27790
548.081	30110
548.146	32486
548.210	29923
548.274	29366
548.339	27186
548.403	25957
548.468	24328
548.532	25240
548.596	24856
548.660	26615
548.725	28257
548.789	31695
548.853	30750
548.917	29743
548.982	30924
549.046	29022
549.110	23495
549.174	25204
549.238	25972
549.303	28092
549.367	29574
549.431	27738
549.495	26923
549.559	27679
549.623	30523
549.687	34414
549.751	36976
549.815	38596
549.879	37298
549.943	36542
550.007	39327
550.071	36941
550.135	37545
550.199	33963
550.263	33261
550.327	33478
550.391	37193
550.455	37492
550.519	36708
550.582	39744
550.646	44954
550.710	45207
550.774	41032
550.838	43292
550.901	44525
550.965	46253
551.029	48057
551.093	51065
551.156	56415
551.220	73299
551.284	72646
551.347	55628
551.411	70641
551.475	67601
551.538	47551
551.602	43078
551.666	40330
551.729	38965
551.793	39288
551.856	40261
551.920	39138
551.983	39401
552.047	37414
552.110	38223
552.174	37616
552.237	39192
552.301	37370
552.364	35865
552.428	34841
552.491	36304
552.554	37068
552.618	36762
552.681	37243
552.745	36609
552.808	38524
552.871	41619
552.934	38923
552.998	37803
553.061	36605
553.124	36700
553.187	35716
553.251	37365
553.314	39425
553.377	40563
553.440	48129
553.503	82909
553.567	101797
553.630	46784
553.693	41305
553.756	40821
553.819	40441
553.882	39714
553.945	39823
554.008	39271
554.071	38279
554.134	39665
554.197	38174
554.260	38656
554.323	40348
554.386	38875
554.449	38316
554.512	40353
554.575	37933
554.638	38390
554.701	36783
554.764	37421
554.827	37014
554.889	34834
554.952	32662
555.015	34113
555.078	33664
555.141	34896
555.203	32469
555.266	32971
555.329	33316
555.391	32636
555.454	31815
555.517	31744
555.580	29021
555.642	28993
555.705	28557
555.768	29241
555.830	28632
555.893	27797
555.955	25702
556.018	26638
556.080	25752
556.143	25830
556.206	26174
556.268	26465
556.330	25593
556.393	25525
556.455	25354
556.518	28580
556.580	26934
556.643	23933
556.705	22620
556.767	21135
556.830	22068
556.892	22956
556.955	25531
557.017	22570
557.079	20763
557.142	21062
557.204	20967
557.266	27600
557.328	23017
557.391	18618
557.453	17457
557.515	19186
557.577	19940
557.639	20731
557.701	17451
557.764	17445
557.826	17953
557.888	19195
557.950	18477
558.012	20085
558.074	23268
558.136	40575
558.198	74483
558.260	32430
558.322	18884
558.384	20452
558.446	21071
558.508	22331
558.570	26001
558.632	34609
558.694	44361
558.756	54467
558.818	138603
558.880	279431
558.942	92448
559.003	79144
559.065	39313
559.127	22613
559.189	22254
559.251	25166
559.312	32944
559.374	72098
559.436	194581
559.498	87568
559.559	23384
559.621	22142
559.683	25791
559.744	42097
559.806	105945
559.868	135051
559.929	33235
559.991	25144
560.052	33846
560.114	76834
560.176	47314
560.237	49272
560.299	66811
560.360	22281
560.422	14856
560.483	14649
560.545	14248
560.606	14565
560.667	12787
560.729	13532
560.790	12393
560.852	13618
560.913	12066
560.974	12803
561.036	12999
561.097	12689
561.158	13085
561.220	13294
561.281	12526
561.342	13303
561.403	14573
561.465	16213
561.526	26446
561.587	28524
561.648	13641
561.709	13455
561.771	12894
561.832	12904
561.893	12285
561.954	12749
562.015	12168
562.076	12984
562.137	12390
562.198	12537
562.259	12544
562.320	12672
562.381	12655
562.442	15683
562.503	13832
562.564	13007
562.625	12881
562.686	12818
562.747	12085
562.808	12505
562.869	12781
562.930	14985
562.991	14512
563.051	13707
563.112	13282
563.173	13107
563.234	11792
563.294	12187
563.355	11738
563.416	13321
563.477	11945
563.537	13541
563.598	12884
563.659	13146
563.720	11978
563.780	13445
563.841	12392
563.901	13572
563.962	12478
564.023	13600
564.083	12160
564.144	12726
564.204	12743
564.265	13770
564.325	14287
564.386	22596
564.446	18499
564.507	11949
564.567	12259
564.628	12467
564.688	11649
564.749	11893
564.809	13658
564.869	14963
564.930	12231
564.990	13349
565.050	11701
565.111	12139
565.171	11528
565.231	11424
565.292	12727
565.352	10802
565.412	12324
565.472	12630
565.532	11979
565.593	11564
565.653	11405
565.713	12229
565.773	13499
565.833	13610
565.893	14133
565.953	12202
566.013	10990
566.074	12958
566.134	15535
566.194	19540
566.254	19164
566.314	14707
566.374	11792
566.434	12848
566.494	12207
566.554	11753
566.614	12036
566.673	11934
566.733	12744
566.793	12751
566.853	12021
566.913	12584
566.973	13145
567.033	12986
567.092	11601
567.152	12605
567.212	12664
567.272	13623
567.331	12970
567.391	12391
567.451	13015
567.511	16634
567.570	16622
567.630	12450
567.690	11832
567.749	11910
567.809	11426
567.868	13801
567.928	13058
567.988	12539
568.047	11757
568.107	12981
568.166	12165
568.226	12888
568.285	14716
568.345	13985
568.404	13585
568.464	13524
568.523	12522
568.582	12458
568.642	13089
568.701	13459
568.761	14358
568.820	16714
568.879	17713
568.939	18253
568.998	14756
569.057	13178
569.116	12468
569.176	12903
569.235	11138
569.294	11521
569.353	11244
569.413	12997
569.472	11416
569.531	11905
569.590	11041
569.649	11124
569.708	10171
569.767	12182
569.827	12077
569.886	10777
569.945	11187
570.004	11001
570.063	11388
570.122	11467
570.181	11382
570.240	13497
570.299	12360
570.358	12739
570.417	11283
570.475	11367
570.534	11932
570.593	11509
570.652	12351
570.711	11647
570.770	11227
570.829	11863
570.887	11050
570.946	11872
571.005	10892
571.064	11661
571.122	11811
571.181	12704
571.240	10413
571.299	10154
571.357	11185
571.416	12044
571.475	12781
571.533	12583
571.592	11621
571.650	11365
571.709	10648
571.768	10825
571.826	10303
571.885	11362
571.943	10104
572.002	10955
572.060	11836
572.119	10096
572.177	9717
572.236	10023
572.294	10113
572.352	11405
572.411	10233
572.469	9438
572.528	10230
572.586	9705
572.644	10773
572.703	11705
572.761	9993
572.819	10036
572.877	9969
572.936	9878
572.994	9833
573.052	9670
573.110	9336
573.169	9592
573.227	9853
573.285	10520
573.343	9458
573.401	9098
573.459	9754
573.517	9375
573.576	8915
573.634	10714
573.692	10362
573.750	9853
573.808	8707
573.866	10468
573.924	11545
573.982	12095
574.040	9782
574.098	9869
574.155	8764
574.213	9987
574.271	8717
574.329	9177
574.387	8750
574.445	9565
574.503	8481
574.560	9328
574.618	8858
574.676	9087
574.734	7706
574.792	9807
574.849	8163
574.907	7986
574.965	8527
575.022	8476
575.080	8801
575.138	9104
575.195	8328
575.253	8448
575.311	9468
575.368	8830
575.426	7993
575.483	8661
575.541	9030
575.598	7945
575.656	8963
575.713	8864
575.771	8784
575.828	9230
575.886	7879
575.943	9606
576.001	8800
576.058	9131
576.115	9716
576.173	10706
576.230	10256
576.287	11201
576.345	9665
576.402	9493
576.459	8838
576.517	9451
576.574	10194
576.631	10272
576.688	8999
576.746	9237
576.803	9074
576.860	9144
576.917	9700
576.974	9718
577.031	9473
577.089	9001
577.146	9107
577.203	9602
577.260	9666
577.317	10036
577.374	10070
577.431	11074
577.488	9617
577.545	8407
577.602	9373
577.659	10095
577.716	9505
577.773	11150
577.830	9467
577.886	10500
577.943	9024
578.000	9507
578.057	10526
578.114	11605
578.171	13337
578.227	16698
578.284	15601
578.341	13563
578.398	11447
578.454	10287
578.511	10057
578.568	11301
578.625	9338
578.681	9054
578.738	8871
578.794	9365
578.851	8937
578.908	10178
578.964	10706
579.021	11305
579.077	8778
579.134	9985
579.190	8460
579.247	9180
579.303	8618
579.360	8983
579.416	9592
579.473	8604
579.529	9528
579.586	9102
579.642	9133
579.698	9120
579.755	9434
579.811	11090
579.867	10069
579.924	11167
579.980	10814
580.036	14021
580.093	15439
580.149	23455
580.205	23253
580.261	18258
580.317	14406
580.374	13595
580.430	13183
580.486	11154
580.542	10055
580.598	10323
580.619	10210
580.654	10026
580.692	10694
580.710	11045
580.765	9363
580.767	9317
580.823	10717
580.838	10454
580.879	9800
580.911	9993
580.935	10154
580.984	9974
580.991	9960
581.047	11248
581.057	11204
581.103	11034
581.130	12151
581.159	13357
581.203	13711
581.215	13813
581.270	12778
581.276	12573
581.326	10707
581.349	11091
581.382	11671
581.422	10978
581.438	10705
581.494	11510
581.494	11487
581.550	9641
581.567	10016
581.606	10800
581.640	10223
581.661	9906
581.713	11988
581.717	12155
581.773	10253
581.786	10326
581.829	10620
581.859	10827
581.885	11033
581.932	11230
581.940	11275
581.996	11482
582.004	11426
582.052	11003
582.077	10723
582.107	10481
582.150	11236
582.163	11456
582.219	11599
582.223	11600
582.274	11569
582.296	11496
582.330	11541
582.368	11835
582.386	11939
582.441	10737
582.441	10737
582.497	11187
582.514	11292
582.552	11819
582.587	12128
582.608	12177
582.659	10987
582.663	10905
582.719	12109
582.732	11800
582.774	10886
582.805	11768
582.830	12461
582.877	12431
582.885	12456
582.941	12803
582.950	13097
582.996	14367
583.023	14923
583.052	15825
583.095	16579
583.107	16727
583.162	19735
583.168	19720
583.218	19206
583.240	17799
583.273	15638
583.313	14205
583.328	13772
583.384	14312
583.385	14265
583.439	12701
583.458	12656
583.494	12520
583.531	11935
583.549	11808
583.603	11697
583.605	11680
583.660	11760
583.676	11585
583.715	11275
583.748	11114
583.770	11055
583.820	11874
583.825	11947
583.881	12108
583.893	11943
583.936	11334
583.965	11110
583.991	10928
584.038	11939
584.046	12105
584.101	10835
584.110	10995
584.156	11938
584.183	11775
584.211	11571
584.255	11454
584.266	11383
584.321	11496
584.328	11504
584.376	11861
584.400	11814
584.431	11724
584.472	11869
584.486	11844
584.541	11756
584.545	11795
584.596	12575
584.617	12392
584.651	12419
584.689	13171
584.706	13260
584.761	12625
584.762	12619
584.816	12306
584.834	12550
584.871	13201
584.906	13380
584.926	13327
584.978	13061
584.980	13071
585.035	14059
585.051	14193
585.090	14490
585.123	14719
585.145	14742
585.195	14636
585.200	14673
585.254	16034
585.267	16075
585.309	16444
585.340	17747
585.364	18325
585.412	17747
585.419	17722
585.473	19475
585.484	19728
585.528	21986
585.556	25476
585.583	31029
585.628	41811
585.637	46098
585.692	85285
585.700	91929
585.747	116354
585.772	101452
585.801	66776
585.845	29853
585.856	25486
585.910	19241
585.917	18467
585.965	16647
585.989	16413
586.019	16438
586.061	16328
586.074	16164
586.128	15704
586.133	15634
586.183	16144
586.205	16553
586.237	16439
586.277	16209
586.292	16318
586.346	16197
586.349	16213
586.401	15923
586.421	15903
586.455	16522
586.493	17032
586.509	17923
586.564	22363
586.565	22511
586.618	31538
586.637	32211
586.672	26637
586.709	20328
586.727	18571
586.781	17252
586.781	17259
586.835	16241
586.853	15833
586.889	15179
586.925	14805
586.944	14586
586.996	14856
586.998	14899
587.052	15392
587.068	15797
587.106	16157
587.140	15691
587.161	15618
587.212	16387
587.215	16421
587.269	16717
587.284	16663
587.323	16546
587.356	16537
587.377	16736
587.427	17730
587.431	17779
587.485	17788
587.499	17752
587.539	17781
587.571	17630
587.593	17681
587.643	19054
587.648	19179
587.702	18619
587.715	18811
587.755	19251
587.786	19245
587.810	19435
587.858	19889
587.864	19990
587.917	20805
587.930	21085
587.971	22296
588.001	23036
588.025	23234
588.073	23135
588.079	23199
588.133	24206
588.145	24493
588.187	26204
588.217	26983
588.241	27691
588.288	29835
588.295	30209
588.348	33176
588.360	33854
588.402	36836
588.431	38793
588.456	40599
588.503	44520
588.510	45337
588.564	52070
588.575	53687
588.617	60434
588.646	66000
588.671	72901
588.718	87871
588.725	92131
588.778	130371
588.789	139966
588.832	223465
588.861	287548
588.886	388731
588.932	595136
588.939	610606
588.993	684183
589.004	684492
589.047	454500
589.075	298510
589.100	225922
589.147	119024
589.154	114328
589.207	87536
589.218	82715
589.261	78949
589.290	78038
589.314	82076
589.361	92421
589.368	97404
589.421	142964
589.433	154519
589.475	267425
589.504	355279
589.528	445027
589.576	611427
589.582	594963
589.635	371469
589.647	322444
589.689	178322
589.718	91129
589.742	75996
589.790	51364
589.795	50600
589.849	44945
589.861	43966
589.902	43772
589.932	42598
589.955	38596
590.004	30208
590.009	29932
590.062	27310
590.075	26689
590.115	25659
590.146	24888
590.168	24821
590.218	24670
590.222	24696
590.275	24566
590.289	24549
590.328	24871
590.360	24896
590.381	24302
590.431	22869
590.435	22848
590.488	22217
590.503	21991
590.541	22752
590.574	23335
590.594	23197
590.645	22681
590.647	22707
590.700	22725
590.716	22686
590.753	22326
590.787	21714
590.806	21740
590.859	22366
590.859	22395
590.912	22034
590.930	21931
590.965	22241
591.001	22437
591.018	22261
591.071	21741
591.072	21710
591.124	22916
591.143	23273
591.177	23167
591.214	23146
591.230	23140
591.283	23051
591.285	23007
591.336	23759
591.356	24114
591.389	24518
591.427	24709
591.442	24350
591.495	23088
591.498	22945
591.547	22333
591.569	22126
591.600	22141
591.640	21955
591.653	22216
591.706	23212
591.711	23285
591.759	24171
591.782	24633
591.811	25221
591.853	25841
591.864	25619
591.917	24263
591.924	24030
591.969	24133
591.995	24173
592.022	24545
592.066	24993
592.075	25259
592.127	26755
592.137	26973
592.180	28915
592.208	30120
592.233	28547
592.279	25335
592.285	25352
592.338	25248
592.350	25185
592.390	24118
592.421	23264
592.443	23906
592.491	25214
592.495	25251
592.548	25230
592.562	25185
592.600	25290
592.633	25311
592.653	24987
592.704	23904
592.705	24073
592.775	25725
592.846	25608
592.916	25642
592.987	26646
593.058	25608
593.128	24381
593.199	25756
593.270	25818
593.341	25407
593.411	25259
593.482	26107
593.553	26287
593.623	25589
593.694	25913
593.764	27649
593.835	26172
593.906	25873
593.976	26414
594.047	27622
594.117	31311
594.188	30964
594.258	27540
594.329	26610
594.399	28280
594.470	28085
594.540	28595
594.611	29176
594.681	27769
594.751	28280
594.822	30026
594.892	30862
594.963	31201
595.033	31385
595.103	31404
595.174	33358
595.244	40162
595.314	46396
595.384	33501
595.455	32588
595.525	34183
595.595	34284
595.665	35002
595.736	34618
595.806	35274
595.876	35217
595.946	36042
596.016	34953
596.087	37099
596.157	36422
596.227	36678
596.297	38913
596.367	39768
596.437	43185
596.507	48727
596.577	52827
596.647	43158
596.717	42299
596.787	43601
596.857	43060
596.927	43551
596.997	43538
597.067	44543
597.137	46283
597.207	45376
597.277	45459
597.347	44210
597.417	43387
597.487	43288
597.557	45135
597.626	45972
597.696	48074
597.766	50057
597.836	55552
597.906	46182
597.975	42459
598.045	42536
598.115	43067
598.185	45843
598.254	50228
598.324	52982
598.394	53062
598.464	53392
598.533	51095
598.603	50903
598.672	48828
598.742	49748
598.812	49600
598.881	50501
598.951	51287
599.020	50961
599.090	51659
599.159	54201
599.229	52066
599.299	51446
599.368	52684
599.437	52224
599.507	51164
599.576	51872
599.646	51853
599.715	51440
599.785	50278
599.854	50945
599.924	52419
599.993	52336
600.062	50977
600.132	51015
600.201	54344
600.270	59645
600.340	61355
600.409	60347
600.478	60287
600.547	61855
600.617	60154
600.686	53948
600.755	52173
600.824	52047
600.894	50763
600.963	51070
601.032	51264
601.101	51278
601.170	51407
601.239	51582
601.308	52306
601.378	53024
601.447	54251
601.516	53134
601.585	54666
601.654	56648
601.723	57752
601.792	57864
601.861	61110
601.930	65031
601.999	66358
602.068	62792
602.137	63957
602.206	65901
602.275	66320
602.343	67571
602.412	68219
602.481	67149
602.550	67589
602.619	68057
602.688	68729
602.756	69450
602.825	68212
602.894	71395
602.963	69633
603.032	72456
603.100	71800
603.169	70421
603.238	73218
603.307	70412
603.375	70910
603.444	74859
603.513	68772
603.581	70752
603.650	73502
603.719	64455
603.787	62568
603.856	63126
603.924	64108
603.993	67097
604.061	67076
604.130	71094
604.198	71526
604.267	73081
604.335	72783
604.404	74312
604.472	76309
604.541	75288
604.609	77601
604.678	78786
604.746	79246
604.815	83446
604.883	80477
604.951	80613
605.020	81558
605.088	78926
605.156	75023
605.225	75085
605.293	75832
605.361	76728
605.429	74875
605.498	76849
605.566	75538
605.634	80182
605.702	80817
605.771	82319
605.839	84945
605.907	79296
605.975	81252
606.043	76533
606.111	75429
606.180	82061
606.248	77034
606.316	77649
606.384	79813
606.452	71901
606.520	65656
606.588	63811
606.656	62342
606.724	62307
606.792	57924
606.860	53759
606.928	49758
606.996	47895
607.064	47232
607.132	48223
607.200	51496
607.267	53079
607.335	53561
607.403	54591
607.471	53133
607.539	52178
607.607	52045
607.674	46409
607.742	46627
607.810	47332
607.878	46710
607.946	46785
608.013	48933
608.081	49958
608.149	50185
608.216	49941
608.284	52857
608.352	51309
608.419	50977
608.487	56587
608.555	51361
608.622	50913
608.690	53669
608.757	56567
608.825	57460
608.893	57503
608.960	55880
609.028	56347
609.095	59288
609.163	53362
609.230	47509
609.298	46397
609.365	45839
609.432	49602
609.500	52781
609.567	60418
609.635	67580
609.702	70920
609.769	69067
609.837	55992
609.904	49260
609.971	48488
610.039	53316
610.106	66680
610.173	111678
610.241	236146
610.308	168335
610.375	83488
610.442	54621
610.509	49621
610.577	50137
610.644	49410
610.711	51568
610.778	52689
610.845	54237
610.912	58355
610.980	60238
611.047	64457
611.114	59816
611.181	56193
611.248	55219
611.315	60154
611.382	59610
611.449	60997
611.516	63236
611.583	62736
611.650	62626
611.717	63734
611.784	63951
611.851	65348
611.918	69439
611.984	79066
612.051	107421
612.118	199981
612.185	445745
612.252	288458
612.319	92499
612.386	79365
612.452	72937
612.519	72342
612.586	76607
612.653	71507
612.719	72666
612.786	69314
612.853	65085
612.919	63140
612.986	65692
613.053	62040
613.120	57591
613.186	56126
613.253	57401
613.319	57298
613.386	57703
613.453	58927
613.519	59961
613.586	61730
613.652	68711
613.719	62465
613.785	63306
613.852	59598
613.918	58781
613.985	61839
614.051	68148
614.118	83678
614.184	80706
614.250	60777
614.317	61044
614.383	58954
614.449	59852
614.516	59855
614.582	60895
614.648	59422
614.715	58297
614.781	57793
614.847	59135
614.914	59550
614.980	57901
615.046	58275
615.112	58936
615.179	58478
615.245	59938
615.311	57837
615.377	59134
615.443	60303
615.509	61104
615.575	63229
615.642	62071
615.708	63907
615.774	66690
615.840	70496
615.906	75745
615.972	87575
616.038	122823
616.104	241794
616.170	536064
616.236	457000
616.302	127681
616.368	96051
616.434	75730
616.500	73610
616.565	77276
616.631	88673
616.697	78599
616.763	79631
616.829	104042
616.895	162423
616.961	156083
617.026	83091
617.092	66072
617.158	66517
617.224	63969
617.289	60381
617.355	59344
617.421	58809
617.487	58931
617.552	55219
617.618	54757
617.684	54827
617.749	57473
617.815	54655
617.880	52506
617.946	53701
618.012	53501
618.077	55505
618.143	54637
618.208	54523
618.274	57009
618.339	58448
618.405	50588
618.470	51671
618.536	51165
618.601	54242
618.667	49426
618.732	47647
618.798	46869
618.863	46672
618.928	47184
618.994	48153
619.059	48716
619.124	52630
619.190	48840
619.255	46598
619.320	47423
619.386	46974
619.451	45394
619.516	46347
619.581	45470
619.647	47304
619.712	47092
619.777	46147
619.842	47435
619.907	47500
619.972	48377
620.038	47808
620.103	46603
620.168	46076
620.233	46705
620.298	46846
620.363	47575
620.428	48138
620.493	47886
620.558	49798
620.623	50099
620.688	49162
620.753	49395
620.818	49470
620.883	49944
620.948	49656
621.013	50600
621.078	48894
621.143	49717
621.207	54485
621.272	51893
621.337	50314
621.402	53058
621.467	56813
621.532	56969
621.596	53573
621.661	50413
621.726	49775
621.791	50225
621.855	51053
621.920	50994
621.985	52443
622.049	55749
622.114	54956
622.179	52829
622.243	54517
622.308	54122
622.373	57749
622.437	56172
622.502	52124
622.566	52925
622.631	52075
622.695	54717
622.760	53153
622.824	53285
622.889	53880
622.953	54933
623.018	61469
623.082	60344
623.147	55100
623.211	53776
623.276	53018
623.340	52511
623.404	51310
623.469	50594
623.533	51884
623.597	49708
623.662	50084
623.726	48452
623.790	45782
623.854	46483
623.919	46550
623.983	45534
624.047	47169
624.111	46589
624.176	45700
624.240	48132
624.304	49719
624.368	46572
624.432	46442
624.496	47036
624.560	49121
624.625	50051
624.689	48746
624.753	49983
624.817	48382
624.881	47118
624.945	44681
625.009	43634
625.073	43958
625.137	45158
625.201	48292
625.265	49809
625.329	44978
625.393	45786
625.456	44148
625.520	45689
625.584	47824
625.648	51939
625.712	63440
625.776	100254
625.839	105694
625.903	55989
625.967	41555
626.031	55755
626.095	73130
626.158	45478
626.222	35257
626.286	35918
626.349	32958
626.413	31576
626.477	34372
626.540	32067
626.604	31022
626.668	32763
626.731	31682
626.795	32274
626.858	31875
626.922	29843
626.986	30658
627.049	29121
627.113	30401
627.176	30246
627.240	29655
627.303	28559
627.366	29223
627.430	29351
627.493	28337
627.557	28969
627.620	29726
627.684	28840
627.747	29766
627.810	26169
627.874	25728
627.937	25677
628.000	27172
628.064	26531
628.127	22619
628.190	24608
628.253	24822
628.317	22665
628.380	22810
628.443	21204
628.506	22278
628.569	20792
628.632	20878
628.696	20700
628.759	20577
628.822	19588
628.885	19340
628.948	19714
629.011	19553
629.074	18879
629.137	18717
629.200	17959
629.263	20444
629.326	16749
629.389	17611
629.452	18407
629.515	17928
629.578	17508
629.641	19173
629.704	17232
629.767	18354
629.830	17348
629.892	17361
629.955	16160
630.018	19432
630.081	16554
630.144	19683
630.207	16248
630.269	18562
630.332	17995
630.395	16559
630.458	15753
630.520	14513
630.583	16458
630.646	15357
630.708	15496
630.771	14196
630.834	16867
630.896	15301
630.959	16253
631.021	15610
631.084	15168
631.146	16768
631.209	17749
631.272	15111
631.334	14368
631.397	15470
631.459	14085
631.522	15601
631.584	15846
631.646	16028
631.709	16546
631.771	17789
631.834	16053
631.896	15608
631.958	14015
632.021	14714
632.083	14035
632.145	15148
632.208	14156
632.270	15159
632.332	11947
632.395	13707
632.457	14779
632.519	13831
632.581	14583
632.643	13819
632.706	14202
632.768	12505
632.830	13760
632.892	12867
632.954	13784
633.016	14453
633.078	13311
633.141	13409
633.203	13115
633.265	14548
633.327	13020
633.389	13419
633.451	14623
633.513	14627
633.575	15682
633.637	14568
633.698	14259
633.760	14317
633.822	14990
633.884	14330
633.946	14702
634.008	14354
634.070	15087
634.132	15666
634.193	14689
634.255	15947
634.317	14819
634.379	15981
634.441	14656
634.502	13353
634.564	14364
634.626	13079
634.687	13795
634.749	12630
634.811	13379
634.873	11455
634.934	12417
634.996	12677
635.057	11258
635.119	11321
635.181	12526
635.242	13045
635.304	11335
635.365	14370
635.427	11929
635.488	12842
635.550	11901
635.611	12678
635.673	10121
635.734	14520
635.796	13369
635.857	14418
635.918	13357
635.980	14671
636.041	14570
636.102	14820
636.164	15292
636.225	15906
636.286	11555
636.348	13218
636.409	12637
636.470	12188
636.531	12345
636.593	13283
636.654	13558
636.715	11422
636.776	10712
636.838	10513
636.899	12533
636.960	11759
637.021	10041
637.082	11003
637.143	11691
637.204	9699
637.265	9977
637.326	11364
637.387	10944
637.448	9871
637.509	11629
637.570	11052
637.631	11023
637.692	9832
637.753	9343
637.814	11191
637.875	10815
637.936	11846
637.997	10472
638.058	10757
638.119	11321
638.179	9803
638.240	10019
638.301	10223
638.362	10350
638.423	10618
638.483	11658
638.544	9532
638.605	10732
638.666	8931
638.726	10459
638.787	11904
638.848	9669
638.908	8990
638.969	9712
639.030	9369
639.090	8761
639.151	9562
639.211	10673
639.272	11235
639.332	14663
639.393	11564
639.453	9843
639.514	10089
639.574	9740
639.635	8980
639.695	10099
639.756	8155
639.816	9773
639.877	10362
639.937	14026
639.997	16011
640.058	8969
640.118	8612
640.178	9198
640.239	8485
640.299	8560
640.359	9324
640.420	8495
640.480	9746
640.540	9470
640.600	9556
640.661	9385
640.721	9023
640.781	11868
640.841	9434
640.901	10192
640.961	9011
641.021	9464
641.082	9817
641.142	11037
641.202	10189
641.262	7543
641.322	9148
641.382	7617
641.442	8502
641.502	8369
641.562	8750
641.622	7724
641.682	8400
641.742	8820
641.802	9036
641.861	8914
641.921	8209
641.981	10607
642.041	9565
642.101	10008
642.161	7577
642.221	7511
642.280	7833
642.340	7510
642.400	6831
642.460	9304
642.519	7525
642.579	8210
642.639	8403
642.698	6422
642.758	9937
642.818	8415
642.877	7915
642.937	7804
642.997	9381
643.056	10624
643.116	8022
643.175	9744
643.235	7787
643.294	9357
643.354	8907
643.414	9559
643.473	9314
643.532	10606
643.592	12701
643.651	20219
643.711	34010
643.770	64675
643.830	151891
643.889	312289
643.948	74307
644.008	16803
644.067	11561
644.126	9724
644.186	9577
644.245	9145
644.304	7182
644.363	9317
644.423	6140
644.482	7965
644.541	8313
644.600	6585
644.659	9683
644.719	9508
644.778	13647
644.837	19943
644.896	38320
644.955	80821
645.014	29144
645.073	10692
645.132	8142
645.191	9647
645.250	7438
645.309	9766
645.368	9010
645.427	9831
645.486	11646
645.545	19658
645.604	8630
645.663	8480
645.722	7353
645.781	7917
645.840	8276
645.898	9241
645.957	13480
646.016	17915
646.075	30770
646.134	59150
646.192	155478
646.251	219674
646.310	32561
646.369	13280
646.427	10369
646.486	6927
646.545	7742
646.603	7996
646.662	7595
646.721	7397
646.779	6288
646.838	5342
646.896	7991
646.955	9578
647.014	12895
647.072	21155
647.131	51934
647.189	25690
647.248	7939
647.306	6717
647.365	5837
647.423	4946
647.481	7619
647.540	4470
647.598	6273
647.657	5352
647.715	6131
647.773	4814
647.832	6998
647.890	5133
647.948	5378
648.007	5785
648.065	4890
648.123	4879
648.181	7250
648.240	7014
648.298	5783
648.356	5308
648.414	5626
648.472	5277
648.531	5538
648.589	5715
648.647	4129
648.705	5753
648.763	5576
648.821	5803
648.879	4647
648.937	5961
648.995	5331
649.053	6719
649.111	9456
649.169	15482
649.227	24564
649.285	47945
649.343	136531
649.401	63857
649.459	18229
649.516	12078
649.574	8514
649.632	17300
649.690	19556
649.748	10800
649.806	12276
649.863	21441
649.921	37752
649.979	24165
650.037	6595
650.094	3150
650.152	4938
650.210	4753
650.268	6568
650.325	5094
650.383	5189
650.440	3719
650.498	4389
650.556	3839
650.613	4965
650.671	3833
650.728	3302
650.786	5263
650.843	4453
650.901	2749
650.958	3708
651.016	4122
651.073	3502
651.131	3733
651.188	2964
651.246	3735
651.303	2356
651.360	4106
651.418	2753
651.475	4236
651.532	2938
651.590	4030
651.647	2092
651.704	3573
651.762	3593
651.819	3628
651.876	3474
651.933	3892
651.990	3589
652.048	2150
652.105	3172
652.162	3987
652.219	2921
652.276	2873
652.333	4361
652.390	2419
652.448	3400
652.505	3405
652.562	3793
652.619	3950
652.676	5390
652.733	6040
652.790	3386
652.847	1523
652.904	3602
652.961	2193
653.017	3049
653.074	3186
653.131	2689
653.188	2261
653.245	2757
653.302	2826
653.359	3418
653.415	3884
653.472	2205
653.529	3313
653.586	2566
653.642	1774
653.699	3343
653.756	2568
653.813	2440
653.869	3086
653.926	1797
653.983	1365
654.039	3014
654.096	2435
654.152	3542
654.209	1909
654.266	3262
654.322	2114
654.379	3486
654.435	4870
654.492	3143
654.548	4123
654.605	6151
654.661	4355
654.717	3065
654.774	4249
654.830	3328
654.887	2439
654.943	3950
655.000	4162
655.056	3126
655.112	3117
655.168	2001
655.225	3215
655.281	3882
655.337	3940
655.394	7777
655.450	5609
655.506	4355
655.562	6806
655.618	6155
655.675	2242
655.731	3091
655.787	3497
655.843	4149
655.899	2604
655.955	2542
656.011	3792
656.067	2529
656.123	4026
656.179	3935
656.235	4636
656.291	2447
656.347	4993
656.403	3005
656.459	3275
656.515	3451
656.571	4033
656.627	3010
656.683	2549
656.739	3999
656.795	4121
656.850	2824
656.906	3737
656.962	3535
657.018	2218
657.074	3051
657.129	3807
657.185	4459
657.241	7251
657.297	4501
657.352	2426
657.408	2531
657.464	3551
657.519	3369
657.575	1532
657.630	2855
657.686	2616
657.742	1714
657.797	2532
657.853	2165
657.908	4194
657.964	1188
658.019	2491
658.075	2061
658.130	3260
658.186	812
658.241	2272
658.297	1826
658.352	1950
658.407	3027
658.463	1908
658.518	2688
658.573	3213
658.629	2068
658.684	2210
658.739	3275
658.795	1969
658.850	2174
658.905	1911
658.960	2076
659.016	1687
659.071	2225
659.126	2958
659.181	1964
659.236	4642
659.291	4405
659.346	2996
659.401	3307
659.457	4791
659.512	3488
659.567	3688
659.622	2183
659.677	1982
659.732	2268
659.787	3042
659.842	2700
659.897	4016
659.952	3002
660.007	3087
660.061	2326
660.116	1602
660.171	1493
660.226	3199
660.281	3024
660.336	2058
660.391	2851
660.445	1489
660.500	2709
660.555	3024
660.610	2263
660.664	3032
660.719	2806
660.774	2251
660.828	2006
660.883	2038
660.938	2602
660.992	1541
661.047	2446
661.101	1440
661.156	2256
661.211	2059
661.265	2064
661.320	2832
661.374	2444
661.429	1705
661.483	3394
661.538	1967
661.592	1676
661.647	2853
661.701	2249
661.755	1949
661.810	3542
661.864	2217
661.919	1712
661.973	2486
662.027	1746
662.081	1716
662.136	2221
662.190	2543
662.244	3112
662.299	2630
662.353	2571
662.407	1849
662.461	2276
662.515	2248
662.569	2033
662.624	2869
662.678	2404
662.732	1841
662.786	1767
662.840	2677
662.894	2352
662.948	1829
663.002	1395
663.056	1586
663.110	2013
663.164	2334
663.218	2351
663.272	1722
663.326	2587
663.380	2541
663.434	1968
663.488	1455
663.542	2456
663.595	2039
663.649	1764
663.703	1987
663.757	2252
663.811	1851
663.864	1182
663.918	1732
663.972	1828
664.026	1591
664.079	2215
664.133	1548
664.187	1846
664.240	1616
664.294	2058
664.348	1835
664.401	1943
664.455	1643
664.508	1683
664.562	1978
664.615	2408
664.669	760
664.722	2427
664.776	2309
664.829	2353
664.883	2551
664.936	2495
664.990	1753
665.043	2865
665.097	2890
665.150	3505
665.203	1743
665.257	1787
665.310	2422
665.363	2657
665.417	2547
665.470	2906
665.523	2025
665.576	2025
665.630	1789
665.683	2326
665.736	2101
665.789	3011
665.842	1365
665.895	1997
665.949	2497
666.002	1397
666.055	2100
666.108	3068
666.161	1510
666.214	2662
666.267	1843
666.320	2728
666.373	2714
666.426	2769
666.479	1623
666.532	3032
666.585	2544
666.638	3880
666.691	2810
666.744	3108
666.796	3099
666.849	3403
666.902	3160
666.955	2106
667.008	1875
667.060	2304
667.113	1188
667.166	1772
667.219	2059
667.271	2489
667.324	2083
667.377	3134
667.430	1899
667.482	3344
667.535	2664
667.587	2624
667.640	1941
667.693	2528
667.745	4723
667.798	4965
667.850	3120
667.903	2256
667.955	2349
668.008	2447
668.060	2548
668.113	2795
668.165	2722
668.218	3472
668.270	2292
668.322	2915
668.375	2843
668.427	2641
668.479	1751
668.532	2171
668.584	2952
668.636	1481
668.689	2932
668.741	2133
668.793	3565
668.845	3048
668.898	2707
668.950	2396
669.002	2490
669.054	2205
669.106	2036
669.158	3345
669.211	1988
669.263	2758
669.315	3205
669.367	3020
669.419	3541
669.471	3973
669.523	2959
669.575	4015
669.627	2868
669.679	2302
669.731	3173
669.783	3104
669.835	3475
669.886	2769
669.938	2656
669.990	2396
670.042	2618
670.094	2679
670.146	3200
670.197	3656
670.249	3092
670.301	4673
670.353	6499
670.404	8094
670.456	13036
670.508	18150
670.560	31521
670.611	54552
670.663	95815
670.715	224890
670.766	331845
670.818	101927
670.869	20164
670.921	11194
670.972	7261
671.024	6090
671.075	4900
671.127	4693
671.178	4047
671.230	4219
671.281	4082
671.333	3304
671.384	2927
671.436	3703
671.487	4231
671.538	4924
671.590	5253
671.641	8665
671.692	12357
671.744	23060
671.795	15851
671.846	6475
671.897	3859
671.949	2602
672.000	2770
672.051	3043
672.102	3044
672.153	2694
672.204	1504
672.256	3060
672.307	3143
672.358	3203
672.409	2905
672.460	2723
672.511	2094
672.562	2165
672.613	2395
672.664	2839
672.715	2738
672.766	2346
672.817	2095
672.868	2013
672.919	2134
672.970	2556
673.021	2159
673.071	1367
673.122	2571
673.173	2788
673.224	2606
673.275	1996
673.326	1969
673.376	2518
673.427	1659
673.478	2067
673.528	2479
673.579	1796
673.630	2187
673.680	2522
673.731	1216
673.782	1045
673.832	2323
673.883	2197
673.934	2426
673.984	1697
674.035	1934
674.085	1773
674.136	2164
674.186	2255
674.237	2445
674.287	4657
674.338	2579
674.388	1753
674.438	961
674.489	1932
674.539	2115
674.589	2198
674.640	1837
674.690	1615
674.740	1714
674.791	2153
674.841	2344
674.891	2260
674.942	1831
674.992	1571
675.042	1749
675.092	610
675.142	1047
675.193	1411
675.243	2095
675.293	1999
675.343	1944
675.393	1641
675.443	2670
675.493	1230
675.543	1646
675.593	1347
675.643	1228
675.693	1035
675.743	1777
675.793	2150
675.843	1332
675.893	1828
675.943	1779
675.993	1816
676.043	742
676.093	2249
676.142	1065
676.192	1433
676.242	1598
676.292	1358
676.341	1665
676.391	1840
676.441	1439
676.491	776
676.540	139
676.590	1262
676.640	1443
676.689	1385
676.739	774
676.789	1429
676.838	1646
676.888	1852
676.937	667
676.987	1007
677.037	1065
677.086	586
677.136	1464
677.185	836
677.235	901
677.284	1263
677.333	1147
677.383	1249
677.432	522
677.482	2200
677.531	899
677.580	1741
677.630	1175
677.679	1553
677.728	1111
677.778	1182
677.827	766
677.876	1178
677.925	249
677.975	1018
678.024	358
678.073	335
678.122	1165
678.171	1305
678.220	1093
678.269	1731
678.319	1673
678.368	1187
678.417	1561
678.466	1226
678.515	2285
678.564	1849
678.613	1218
678.662	945
678.711	1351
678.760	536
678.809	1222
678.857	927
678.906	1027
678.955	1029
679.004	1489
679.053	1020
679.102	682
679.151	1368
679.199	1051
679.248	739
679.297	998
679.346	1456
679.394	1488
679.443	688
679.492	1542
679.540	1975
679.589	920
679.638	636
679.686	480
679.735	1292
679.784	1024
679.832	1032
679.881	473
679.929	1512
679.978	937
680.026	873
680.075	1186
680.123	651
680.172	993
680.220	1111
680.268	755
680.317	923
680.365	350
680.414	953
680.462	993
680.510	924
680.559	694
680.607	905
680.655	488
680.703	510
680.752	393
680.800	596
680.848	312
680.896	504
680.945	929
680.993	742
681.041	811
681.089	1044
681.137	-288
681.185	1288
681.233	952
681.258	770
681.281	561
681.329	324
681.377	318
681.380	390
681.425	1003
681.473	1647
681.502	1618
681.521	1527
681.569	1654
681.617	949
681.624	1106
681.665	1828
681.713	1490
681.745	1914
681.761	2059
681.809	1780
681.857	2334
681.867	2215
681.904	1648
681.952	1929
681.989	1839
682.000	1765
682.048	1701
682.096	1020
682.111	1412
682.143	2149
682.191	1895
682.233	2168
682.239	2169
682.286	2022
682.334	2324
682.354	2328
682.382	2238
682.430	2698
682.476	2585
682.477	2551
682.525	2653
682.572	2647
682.598	2571
682.620	2446
682.667	2266
682.715	3627
682.720	3594
682.763	2934
682.810	3183
682.841	3308
682.857	3324
682.905	2947
682.952	3560
682.963	3440
683.000	2900
683.047	3250
683.085	4235
683.095	4455
683.142	3803
683.190	3650
683.206	3493
683.237	3171
683.284	3845
683.328	4423
683.332	4438
683.379	4231
683.426	4022
683.449	3941
683.473	3825
683.521	4385
683.568	4116
683.571	4169
683.615	4508
683.662	4008
683.693	4568
683.709	4821
683.757	4270
683.804	4396
683.814	4385
683.851	4312
683.898	4929
683.936	5572
683.945	5685
683.992	5298
684.039	4910
684.057	4986
684.086	5103
684.133	5609
684.179	5073
684.180	5031
684.227	5413
684.274	5615
684.300	5404
684.321	5163
684.368	5385
684.415	5491
684.422	5473
684.462	5294
684.509	4896
684.543	5370
684.556	5521
684.603	5449
684.649	5439
684.665	5631
684.696	6019
684.743	6023
684.786	6282
684.790	6282
684.837	6743
684.883	7012
684.908	6575
684.930	6240
684.977	7229
685.023	7696
685.029	7732
685.070	7395
685.117	6716
685.150	6865
685.164	7015
685.210	7615
685.257	7674
685.272	7941
685.303	8306
685.350	7572
685.393	7623
685.396	7620
685.443	7475
685.490	8307
685.514	8008
685.536	7675
685.583	7643
685.629	8112
685.636	7911
685.675	6638
685.722	7148
685.757	7943
685.768	8226
685.815	8144
685.861	8207
685.878	8294
685.908	8388
685.954	8431
686.000	8768
686.000	8769
686.047	8569
686.093	9977
686.121	10325
686.139	10258
686.185	9103
686.232	8619
686.242	8605
686.278	8614
686.324	8250
686.363	8382
686.370	8433
686.416	8555
686.463	8673
686.484	8873
686.509	9089
686.555	8390
686.601	8752
686.606	8810
686.647	9230
686.693	9073
686.727	9056
686.739	9068
686.785	9118
686.831	8793
686.848	9146
686.877	9627
686.923	9026
686.969	8603
686.969	8601
687.015	8990
687.061	9137
687.090	9391
687.107	9482
687.153	9708
687.199	9876
687.211	9705
687.245	9355
687.291	9572
687.332	9751
687.336	9765
687.382	10461
687.428	9815
687.453	10206
687.474	10351
687.520	9853
687.565	9425
687.574	9310
687.611	9268
687.657	9954
687.695	10336
687.702	10443
687.748	10499
687.794	11488
687.816	11421
687.839	10951
687.885	11188
687.931	10431
687.937	10334
687.976	10132
688.022	10500
688.058	10151
688.067	10065
688.113	10477
688.158	10024
688.179	10170
688.204	10504
688.249	10661
688.295	11187
688.300	11275
688.340	11855
688.386	11747
688.421	11483
688.431	11401
688.477	11504
688.522	11807
688.542	11931
688.567	12095
688.613	11616
688.658	11733
688.663	11741
688.703	11810
688.749	11525
688.784	11311
688.794	11304
688.839	11690
688.884	11718
688.905	11606
688.930	11360
688.975	11384
689.020	11476
689.026	11450
689.065	11811
689.110	11759
689.146	12536
689.155	12655
689.201	11819
689.246	12107
689.267	12035
689.291	12070
689.336	12696
689.381	12504
689.388	12420
689.426	12008
689.471	12568
689.509	12103
689.516	12005
689.561	12368
689.606	11885
689.630	11765
689.651	11793
689.696	11601
689.741	12128
689.750	12153
689.785	12418
689.830	12644
689.871	12550
689.875	12533
689.920	12478
689.965	12549
689.992	12266
690.010	12243
690.054	12352
690.099	12693
690.112	12698
690.144	12653
690.189	13034
690.233	12948
690.233	12966
690.278	13085
690.323	13054
690.354	13077
690.367	13258
690.412	13869
690.457	14025
690.474	14285
690.501	14567
690.546	14950
690.590	15359
690.595	15349
690.635	16116
690.680	16843
690.716	17647
690.724	18111
690.769	20654
690.813	23246
690.836	24193
690.857	26989
690.902	33525
690.946	40078
690.957	41747
690.991	56991
691.035	77943
691.077	97176
691.080	97137
691.124	90273
691.168	82869
691.198	79181
691.213	73606
691.257	56420
691.301	38943
691.318	32241
691.346	29552
691.390	25329
691.434	20474
691.439	19974
691.478	19361
691.522	18075
691.559	17200
691.567	17204
691.611	17532
691.655	16729
691.680	16680
691.699	16630
691.743	16335
691.787	15924
691.800	15725
691.831	15580
691.875	15962
691.919	15965
691.921	15934
691.964	16088
692.008	16288
692.041	16167
692.052	16144
692.096	16241
692.139	16207
692.162	16260
692.183	16285
692.227	16145
692.271	15824
692.282	15810
692.315	16125
692.359	15863
692.402	16059
692.403	16092
692.447	16270
692.490	16154
692.523	15963
692.534	15975
692.578	16450
692.622	16565
692.643	16571
692.666	16538
692.709	16463
692.753	16399
692.763	16323
692.797	16070
692.840	15903
692.884	15614
692.884	15654
692.928	16591
692.971	17367
693.004	17810
693.015	17819
693.059	17921
693.102	17957
693.124	17833
693.146	18167
693.189	19382
693.233	20454
693.245	20542
693.276	21029
693.320	21948
693.363	22785
693.365	22776
693.407	24968
693.450	27474
693.485	28852
693.493	29885
693.537	35291
693.580	40932
693.605	44006
693.624	50645
693.667	66404
693.710	82287
693.725	87813
693.753	116404
693.797	161800
693.840	207205
693.845	211980
693.883	199652
693.926	184652
693.966	171923
693.970	168354
694.013	127804
694.056	87203
694.086	59266
694.099	56479
694.142	47009
694.185	37572
694.206	33095
694.229	31704
694.272	28498
694.315	25960
694.326	25135
694.358	24266
694.401	23058
694.444	21633
694.446	21532
694.487	21198
694.530	20608
694.566	20025
694.573	19935
694.616	18836
694.659	18076
694.686	17571
694.702	17666
694.745	17684
694.787	17737
694.806	17642
694.830	17604
694.873	17678
694.916	17552
694.926	17495
694.959	17411
695.002	17537
695.044	17143
695.046	17105
695.087	17331
695.130	17040
695.166	17058
695.172	17106
695.215	16906
695.258	16905
695.286	16727
695.301	16832
695.343	17255
695.386	17537
695.406	17576
695.428	17565
695.471	17597
695.514	17502
695.526	17433
695.556	17685
695.599	18235
695.641	18510
695.646	18523
695.684	18293
695.726	17796
695.766	17087
695.769	17127
695.811	17311
695.854	17605
695.886	17599
695.896	17540
695.938	17205
695.981	16682
696.005	16568
696.023	17001
696.065	17773
696.108	18340
696.125	18645
696.150	18729
696.192	18711
696.235	18604
696.245	18512
696.277	18826
696.319	19247
696.361	19859
696.365	19841
696.404	19867
696.446	20016
696.485	19933
696.488	19980
696.530	19943
696.572	19994
696.604	19982
696.614	19886
696.656	19150
696.698	18386
696.724	17944
696.740	18073
696.783	18315
696.825	18534
696.844	18530
696.867	18396
696.909	18112
696.951	17886
696.964	17739
696.992	17961
697.034	18240
697.076	18515
697.083	18519
697.118	18706
697.160	18778
697.202	19023
697.203	18975
697.244	18802
697.286	18671
697.323	18372
697.327	18392
697.369	18214
697.411	18025
697.442	17827
697.453	17963
697.494	18294
697.536	18640
697.562	18819
697.578	18838
697.620	18754
697.661	18605
697.682	18525
697.703	18690
697.744	18835
697.786	19095
697.801	19084
697.828	19226
697.869	19420
697.911	19636
697.921	19638
697.952	19434
697.994	19025
698.035	18711
698.040	18613
698.077	18609
698.118	18575
698.160	18494
698.160	18441
698.201	18628
698.243	18720
698.279	18794
698.284	18855
698.325	18911
698.367	18997
698.399	18970
698.408	18979
698.449	18819
698.491	18636
698.518	18471
698.532	18621
698.573	18913
698.614	19214
698.638	19336
698.656	19443
698.697	19548
698.738	19665
698.757	19675
698.779	19742
698.820	19735
698.862	19753
698.877	19702
698.903	19928
698.944	20202
698.985	20483
698.996	20506
699.026	20388
699.067	20148
699.116	19807
699.235	19854
699.354	19090
699.474	19007
699.593	20252
699.713	19621
699.832	19825
699.951	19246
700.070	19695
700.190	17863
700.309	18933
700.428	18932
700.547	19167
700.667	18477
700.786	19053
700.905	18514
701.024	18841
701.143	18371
701.262	16920
701.381	16967
701.500	17488
701.619	18056
701.738	17658
701.857	17373
701.976	16531
702.095	16855
702.214	18387
702.333	17882
702.452	17015
702.571	16761
702.690	17737
702.809	16423
702.928	15854
703.047	16000
703.165	16849
703.284	16465
703.403	16784
703.522	16918
703.640	16947
703.759	18223
703.878	21613
703.997	17205
704.115	15778
704.234	15767
704.353	15796
704.471	15666
704.590	14986
704.708	15558
704.827	14843
704.946	16358
705.064	16505
705.183	16167
705.301	18982
705.420	26439
705.538	23124
705.656	20836
705.775	20125
705.893	29516
706.012	34647
706.130	20458
706.249	20347
706.367	20676
706.485	21328
706.604	20625
706.722	20160
706.840	22229
706.958	23784
707.077	20369
707.195	19430
707.313	18309
707.431	18120
707.549	17563
707.668	18548
707.786	18613
707.904	17679
708.022	17721
708.140	18034
708.258	17127
708.376	18297
708.494	17277
708.612	19632
708.730	26530
708.848	25234
708.966	22712
709.084	21111
709.202	21165
709.320	21185
709.438	21820
709.556	21674
709.674	21364
709.791	21370
709.909	20120
710.027	20412
710.145	20470
710.263	21394
710.380	20066
710.498	20135
710.616	19824
710.733	20280
710.851	19531
710.969	19925
711.086	19568
711.204	19540
711.322	19448
711.439	19136
711.557	20301
711.674	20006
711.792	18606
711.909	19900
712.027	20786
712.144	17446
712.262	18636
712.379	20551
712.497	28177
712.614	27863
712.732	23897
712.849	22601
712.966	22481
713.084	25302
713.201	23473
713.318	23437
713.436	22499
713.553	23260
713.670	22885
713.787	24324
713.905	23226
714.022	21945
714.139	22504
714.256	23101
714.373	25287
714.490	31122
714.608	54167
714.725	180951
714.842	183633
714.959	28322
715.076	21192
715.193	21206
715.310	20651
715.427	20093
715.544	19477
715.661	19274
715.778	20357
715.895	21705
716.011	20028
716.128	20198
716.245	19489
716.362	19430
716.479	19685
716.596	19337
716.713	19793
716.829	19004
716.946	18961
717.063	17277
717.180	16971
717.296	18323
717.413	17592
717.530	17298
717.646	17346
717.763	17608
717.880	16636
717.996	16476
718.113	17532
718.229	16434
718.346	15737
718.462	15533
718.579	17259
718.695	20568
718.812	19921
718.928	19043
719.045	17024
719.161	15307
719.277	15300
719.394	15362
719.510	17287
719.626	17153
719.743	19542
719.859	19169
719.975	23690
720.092	58624
720.208	119158
720.324	24599
720.440	16889
720.557	18203
720.673	19573
720.789	25061
720.905	44416
721.021	20466
721.137	15478
721.253	15574
721.369	16235
721.486	16109
721.602	20221
721.718	15403
721.834	13324
721.950	14155
722.066	13537
722.181	13450
722.297	14883
722.413	14129
722.529	13812
722.645	13209
722.761	12784
722.877	12612
722.993	13194
723.108	14356
723.224	13435
723.340	13695
723.456	12764
723.571	13442
723.687	12202
723.803	12611
723.918	12356
724.034	12466
724.150	13402
724.265	13737
724.381	20968
724.497	23981
724.612	12319
724.728	11591
724.843	11359
724.959	13799
725.074	20471
725.190	22359
725.305	12484
725.421	12635
725.536	11530
725.651	11295
725.767	10978
725.882	11256
725.997	11939
726.113	11094
726.228	11392
726.343	11402
726.459	10363
726.574	11107
726.689	11152
726.804	10898
726.920	11177
727.035	11180
727.150	11359
727.265	10986
727.380	10613
727.495	11117
727.610	10163
727.725	10265
727.841	11226
727.956	17419
728.071	15864
728.186	9982
728.301	9646
728.416	10767
728.531	10313
728.645	8913
728.760	9979
728.875	9274
728.990	10212
729.105	10568
729.220	10627
729.335	9406
729.449	10389
729.564	9079
729.679	9508
729.794	9210
729.908	10478
730.023	9955
730.138	9138
730.253	9163
730.367	8554
730.482	9627
730.596	9038
730.711	9965
730.826	8990
730.940	10268
731.055	9718
731.169	8044
731.284	9121
731.398	9644
731.513	10454
731.627	9982
731.742	10360
731.856	12019
731.970	10020
732.085	11057
732.199	12441
732.313	13860
732.428	26634
732.542	64534
732.656	38907
732.771	12626
732.885	10092
732.999	10932
733.113	11208
733.227	10868
733.342	10526
733.456	9559
733.570	10084
733.684	9131
733.798	10350
733.912	10065
734.026	8961
734.140	9448
734.254	11117
734.368	13888
734.482	16475
734.596	9632
734.710	10049
734.824	9635
734.938	8750
735.052	9664
735.166	9706
735.280	10109
735.393	9555
735.507	9290
735.621	11429
735.735	14731
735.849	9401
735.962	9262
736.076	9525
736.190	9632
736.303	10642
736.417	12900
736.531	8867
736.644	9329
736.758	8833
736.872	8878
736.985	8524
737.099	7428
737.212	8630
737.326	7837
737.439	8499
737.553	8516
737.666	8344
737.780	7876
737.893	8518
738.007	7685
738.120	8361
738.233	7893
738.347	7780
738.460	8694
738.573	8019
738.687	8674
738.800	8889
738.913	9290
739.026	8440
739.140	8338
739.253	7702
739.366	7968
739.479	8082
739.592	7570
739.705	7409
739.818	8318
739.932	7436
740.045	8063
740.158	8618
740.271	8904
740.384	8317
740.497	7976
740.610	8468
740.723	7874
740.836	8142
740.949	8668
741.062	9399
741.174	8689
741.287	8218
741.400	7516
741.513	7525
741.626	8746
741.739	7753
741.851	7207
741.964	8163
742.077	7685
742.189	7710
742.302	7925
742.415	7731
742.527	7753
742.640	7929
742.753	7341
742.865	7329
742.978	7417
743.090	6671
743.203	7858
743.316	7019
743.428	7301
743.541	7548
743.653	8084
743.766	7649
743.878	6930
743.990	8917
744.103	8491
744.215	7112
744.327	7553
744.440	8914
744.552	9321
744.664	7470
744.777	7403
744.889	7121
745.001	7848
745.113	6685
745.226	6939
745.338	7501
745.450	7853
745.562	7405
745.674	6394
745.786	7407
745.898	7727
746.010	7965
746.122	6544
746.234	6789
746.347	7733
746.459	7380
746.570	7043
746.682	8537
746.794	8849
746.906	7672
747.018	7366
747.130	7428
747.242	7390
747.354	6999
747.466	8007
747.577	7753
747.689	8151
747.801	7480
747.913	6823
748.024	6593
748.136	6992
748.248	6809
748.359	7813
748.471	7646
748.583	7482
748.694	7373
748.806	7967
748.918	8461
749.029	7147
749.141	8045
749.252	7604
749.364	7706
749.475	9138
749.587	9038
749.698	7733
749.809	7072
749.921	7036
750.032	7364
750.144	7017
750.255	6334
750.366	7133
750.478	7461
750.589	7165
750.700	7319
750.811	6455
750.923	7529
751.034	9298
751.145	10375
751.256	7438
751.367	7278
751.479	7351
751.590	6651
751.701	6832
751.812	6640
751.923	7992
752.034	6615
752.145	7046
752.256	7111
752.367	6907
752.478	7284
752.589	7578
752.700	8273
752.811	7402
752.922	7009
753.032	8428
753.143	8293
753.254	7697
753.365	8229
753.476	7752
753.586	7079
753.697	7262
753.808	8471
753.919	7235
754.029	7534
754.140	7871
754.251	7574
754.361	8034
754.472	8280
754.582	7697
754.693	7908
754.804	7779
754.914	7737
755.025	8094
755.135	8457
755.246	8917
755.356	8336
755.466	8916
755.577	8794
755.687	8711
755.798	8466
755.908	8192
756.018	9123
756.129	9338
756.239	9238
756.349	9093
756.460	9223
756.570	9701
756.680	9264
756.790	9063
756.900	9202
757.011	9310
757.121	9225
757.231	9312
757.341	9645
757.451	9639
757.561	8981
757.671	9033
757.781	9651
757.891	10464
758.001	10986
758.111	10754
758.221	11023
758.331	10519
758.441	10531
758.551	11643
758.661	11767
758.771	11053
758.880	11652
758.990	12072
759.100	11602
759.210	12765
759.320	12484
759.429	12863
759.539	12485
759.649	13109
759.758	14576
759.868	13759
759.978	13410
760.087	14271
760.197	13663
760.307	14982
760.416	14814
760.526	15316
760.635	14928
760.745	15868
760.854	16222
760.964	16511
761.073	16529
761.182	16343
761.292	17798
761.401	18082
761.511	17502
761.620	18356
761.729	19209
761.839	19760
761.948	21009
762.057	20074
762.166	21306
762.276	20715
762.385	23100
762.494	23546
762.603	23755
762.712	25111
762.822	25374
762.931	28298
763.040	27745
763.149	29675
763.258	29697
763.367	31808
763.476	33914
763.585	34918
763.694	36182
763.803	38680
763.912	41454
764.021	43289
764.130	46142
764.238	49905
764.347	53368
764.456	57740
764.565	61431
764.674	68319
764.783	72877
764.891	81073
765.000	90479
765.109	101634
765.217	115945
765.326	133806
765.435	155967
765.543	182820
765.652	221020
765.761	272210
765.869	334176
765.978	422590
766.086	531193
766.195	641573
766.303	677189
766.412	507324
766.520	493625
766.629	635154
766.737	611000
766.846	509295
766.954	405769
767.062	321876
767.171	258444
767.279	207367
767.387	171551
767.496	145816
767.604	124879
767.712	110688
767.820	99968
767.928	91502
768.037	83689
768.145	78892
768.253	77261
768.361	73927
768.469	74346
768.577	74582
768.685	80160
768.793	84198
768.901	92619
769.009	106430
769.117	125399
769.225	156749
769.333	205456
769.441	280307
769.549	394370
769.657	552369
769.765	627156
769.873	473031
769.981	557067
770.088	525362
770.196	399469
770.304	294932
770.412	225510
770.519	178721
770.627	144284
770.735	119681
770.842	102145
770.950	89328
771.058	77878
771.165	70357
771.273	62762
771.380	56413
771.488	52538
771.595	49603
771.703	44373
771.810	42361
771.918	38492
772.025	36418
772.133	35156
772.240	33168
772.348	32905
772.455	29905
772.562	29229
772.670	27448
772.777	27063
772.884	25633
772.991	24251
773.099	24142
773.206	21299
773.313	22389
773.420	21978
773.528	20603
773.635	19777
773.742	19980
773.849	18502
773.956	18158
774.063	17947
774.170	16720
774.277	17828
774.384	16622
774.491	16492
774.598	15731
774.705	16062
774.812	15588
774.919	15254
775.026	14844
775.133	14677
775.239	13799
775.346	13528
775.453	13850
775.560	12751
775.667	13277
775.773	13127
775.880	13265
775.987	12889
776.093	11969
776.200	11648
776.307	10956
776.413	12816
776.520	11911
776.627	11127
776.733	11220
776.840	9769
776.946	11402
777.053	11173
777.159	12099
777.266	10236
777.372	11683
777.478	12006
777.585	10206
777.691	9637
777.798	10104
777.904	10453
778.010	11534
778.117	9696
778.223	9001
778.329	9159
778.435	8851
778.542	8398
778.648	8726
778.754	8046
778.860	8314
778.966	8904
779.072	8513
779.178	8565
779.284	8176
779.391	8770
779.497	9611
779.603	12525
779.708	15597
779.815	32260
779.920	103409
780.026	183965
780.132	39381
780.238	12436
780.344	10368
780.450	9527
780.556	7387
780.661	6728
780.767	7682
780.873	6374
780.979	6372
781.085	6902
781.190	7367
781.296	6633
781.402	6398
781.507	6402
781.613	6173
781.719	6048
781.824	6351
781.930	7198
782.035	6404
782.141	6202
782.246	5793
782.352	5735
782.457	6452
782.563	5844
782.668	5874
782.773	6453
782.879	5190
782.984	5861
783.090	6326
783.195	6676
783.300	5817
783.405	6311
783.511	4976
783.616	5866
783.721	5155
783.826	6150
783.932	6035
784.037	5697
784.142	5092
784.247	5332
784.352	5597
784.457	4732
784.562	5186
784.667	5524
784.772	4615
784.877	4274
784.982	5722
785.087	5210
785.192	5331
785.297	4218
785.402	5138
785.507	4583
785.611	5111
785.716	4550
785.821	4549
785.926	4416
786.031	4201
786.135	4931
786.240	5120
786.345	2925
786.450	4353
786.554	3572
786.659	3505
786.763	3479
786.868	4329
786.973	4610
787.077	3628
787.182	4429
787.286	3829
787.391	4368
787.495	3884
787.600	4165
787.704	3505
787.809	4401
787.913	4784
788.017	4731
788.122	4721
788.226	4188
788.330	3536
788.435	4361
788.539	3443
788.643	3697
788.747	3383
788.852	4105
788.956	3199
789.060	4835
789.164	3986
789.268	2744
789.372	3554
789.476	3255
789.580	3516
789.684	3137
789.788	3780
789.892	3113
789.996	4464
790.100	2890
790.204	3534
790.308	4041
790.412	3285
790.516	3943
790.620	3672
790.724	4565
790.828	3126
790.931	3524
791.035	5133
791.139	3739
791.242	2723
791.346	4989
791.450	4120
791.554	3530
791.657	2712
791.761	4362
791.864	4025
791.968	3670
792.072	3706
792.175	3740
792.279	3538
792.382	3325
792.486	3222
792.589	2354
792.693	3170
792.796	3162
792.899	4404
793.003	3427
793.106	2072
793.209	3073
793.313	4427
793.416	2546
793.519	3724
793.623	4581
793.726	3870
793.829	3258
793.932	4310
794.035	2669
794.138	4560
794.242	4717
794.345	4849
794.448	8282
794.551	16465
794.654	57496
794.757	117051
794.860	25217
794.963	6792
795.066	3393
795.169	4635
795.272	4170
795.375	3883
795.477	3712
795.580	3013
795.683	2867
795.786	3716
795.889	2229
795.991	3853
796.094	4081
796.197	2240
796.300	3892
796.402	2671
796.505	2128
796.608	2985
796.710	3053
796.813	2699
796.915	2868
797.018	2482
797.120	1951
797.223	1801
797.326	3627
797.428	2837
797.530	2491
797.633	2095
797.735	2820
797.838	3324
797.940	3979
798.042	2401
798.145	2443
798.247	3387
798.349	1266
798.452	3246
798.554	2102
798.656	1733
798.758	2531
798.860	2580
798.962	2483
799.065	1872
799.167	1758
799.269	2840
799.371	2753
799.473	2486
799.575	2068
799.677	2989
799.779	4093
799.881	1471
799.983	3054
800.085	2600
800.187	1953
800.289	1448
800.390	1410
800.492	2587
800.594	3324
800.696	1428
800.798	2580
800.899	2364
801.001	1600
801.103	2187
801.205	1837
801.306	1450
801.408	1417
801.509	1628
801.611	2076
801.713	2195
801.814	1543
801.916	2193
802.017	3004
802.119	1658
802.220	1454
802.322	918
802.423	4533
802.525	1997
802.626	2681
802.727	1897
802.829	2045
802.930	-293
803.031	2532
803.133	1481
803.234	1627
803.335	2180
803.436	546
803.538	2215
803.639	1495
803.740	2384
803.841	1069
803.942	2139
804.043	1470
804.144	654
804.245	1502
804.346	1106
804.447	606
804.548	1317
804.649	1942
804.750	1144
804.851	540
804.952	1171
805.053	1827
805.154	1295
805.255	1584
805.355	1605
805.456	1103
805.557	1065
805.658	878
805.758	2037
805.859	1472
805.960	1313
806.061	571
806.161	1501
806.262	1525
806.362	1192
806.463	1248
806.564	1691
806.664	1001
806.765	1450
806.865	2301
806.966	1551
807.066	1418
807.166	2212
807.267	2682
807.367	778
807.468	1680
807.568	233
807.668	1903
807.769	876
807.869	1302
807.969	1765
808.069	1130
808.170	1008
808.270	1047
808.370	1924
808.470	1927
808.570	502
808.670	1102
808.770	1627
808.870	718
808.970	1407
809.070	1179
809.170	763
809.271	1067
809.370	1194
809.470	1584
809.570	1019
809.670	1313
809.770	918
809.870	1972
809.970	903
810.070	784
810.169	1739
810.269	-133
810.369	1709
810.469	895
810.568	1645
810.668	982
810.768	300
810.867	1623
810.967	-37
811.066	1213
811.166	874
811.265	2007
811.365	1156
811.464	551
811.564	990
811.663	1042
811.763	627
811.862	814
811.962	1655
812.061	1170
812.160	859
812.260	1393
812.359	1444
812.458	2391
812.557	4412
812.657	4467
812.756	2519
812.855	556
812.954	868
813.053	859
813.153	1242
813.252	840
813.351	736
813.450	1063
813.549	490
813.648	1660
813.747	576
813.846	1691
813.945	873
814.044	1403
814.143	1484
814.242	1664
814.341	404
814.439	1127
814.538	1939
814.637	1829
814.736	1492
814.835	1388
814.933	367
815.032	1161
815.131	1510
815.229	733
815.328	2477
815.427	1283
815.525	2304
815.624	1404
815.722	1187
815.821	2095
815.919	1738
816.018	1000
816.116	1928
816.215	1022
816.313	1196
816.412	1888
816.510	1962
816.609	3222
816.707	1614
816.805	1582
816.904	1874
817.002	2204
817.100	2965
817.198	2870
817.296	1307
817.395	2573
817.493	2563
817.591	1974
817.689	2210
817.787	2026
817.885	3185
817.983	4364
818.081	6683
818.179	15682
818.277	38752
818.375	37431
818.473	10211
818.571	4849
818.669	4003
818.767	4165
818.865	3349
818.963	2757
819.061	4455
819.158	6553
819.256	15182
819.354	31391
819.452	76858
819.549	52671
819.647	14654
819.745	5750
819.842	4498
819.940	2644
820.038	2142
820.135	2103
820.233	3506
820.330	1506
820.428	1555
820.525	2917
820.623	1956
820.720	1164
820.818	1857
820.915	1917
821.012	2107
821.110	-75
821.207	2301
821.304	1015
821.402	1262
821.499	1737
821.596	2546
821.693	2078
821.791	2408
821.888	2395
821.985	3068
822.082	1307
822.179	2105
822.276	1612
822.373	1779
822.470	1487
822.567	1631
822.664	872
822.761	1017
822.858	990
822.955	1023
823.052	1614
823.149	1498
823.246	929
823.343	883
823.440	2189
823.536	1396
823.633	709
823.730	1154
823.827	815
823.923	1104
824.020	1690
824.117	1377
824.213	488
824.310	1957
824.407	1511
824.503	1429
824.600	1261
824.696	1004
824.793	1314
824.889	1165
824.986	1310
825.082	338
825.179	1288
825.275	115
825.371	831
825.468	1700
825.564	-164
825.660	1270
825.757	257
825.853	330
825.949	534
826.045	566
826.142	805
826.238	1221
826.334	725
826.430	180
826.526	519
826.622	360
826.718	1343
826.814	560
826.910	1362
827.006	627
827.102	7
827.198	1137
827.294	380
827.390	1894
827.486	1480
827.582	-333
827.678	26
827.774	1638
827.869	304
827.965	1883
828.061	875
828.157	1150
828.252	1020
828.348	574
828.444	1756
828.539	340
828.635	361
828.731	1824
828.826	660
828.922	534
829.017	119
829.113	941
829.208	90
829.304	754
829.399	1702
829.495	258
829.590	1542
829.685	322
829.781	795
829.876	-19
829.971	350
830.066	646
830.162	252
830.257	-109
830.352	580
830.447	982
830.543	1271
830.638	101
830.733	1982
830.828	33
830.923	1545
831.018	266
831.113	908
831.208	-610
831.303	317
831.398	650
831.493	-66
831.588	1179
831.683	183
831.778	1449
831.873	506
831.967	1034
832.062	261
832.157	362
832.252	1836
832.346	322
832.441	1607
832.536	869
832.631	2687
832.725	2310
832.820	95
832.914	777
833.009	-691
833.104	1053
833.198	782
833.293	344
833.387	1548
833.482	1055
833.576	237
833.670	885
833.765	1298
833.859	-226
833.954	1562
834.048	806
834.142	605
834.237	17
834.331	711
834.425	440
834.519	710
834.613	732
834.708	-40
834.802	596
834.896	211
834.990	539
835.084	740
835.178	-171
835.272	-38
835.366	880
835.460	726
835.554	344
835.648	486
835.742	246
835.836	-86
835.930	-986
836.024	222
836.117	607
836.211	78
836.305	970
836.399	1922
836.493	-192
836.586	410
836.680	120
836.774	-491
836.867	669
836.961	-252
837.055	30
837.148	-149
837.242	361
837.335	-516
837.429	287
837.522	-40
837.616	75
837.709	2615
837.803	1041
837.896	879
837.989	579
838.083	919
838.176	1980
838.269	1745
838.363	739
838.456	148
838.549	985
838.642	881
838.735	2399
838.829	1756
838.922	-442
839.015	495
839.108	-308
839.201	1103
839.294	470
839.387	339
839.480	199
839.573	1082
839.666	1192
839.759	231
839.852	78
839.945	725
840.038	75
840.131	481
840.223	1078
840.316	953
840.409	251
840.502	391
840.594	343
840.687	-701
840.780	540
840.873	368
840.965	996
841.058	1033
841.150	2119
841.243	682
841.336	806
841.428	-632
841.521	135
841.613	-257
841.706	882
841.798	-207
841.890	135
841.983	-200
842.075	1137
842.167	256
842.260	320
842.352	1179
842.444	1303
842.537	3044
842.629	4821
842.721	1023
842.813	1198
842.905	-540
842.997	1006
843.090	932
843.182	1300
843.274	2139
843.366	6300
843.458	11536
843.550	7854
843.642	844
843.734	801
843.826	1357
843.918	911
844.009	765
844.101	527
844.193	-72
844.285	111
844.377	395
844.469	844
844.560	129
844.652	667
844.744	863
844.835	897
844.927	286
845.019	718
845.110	763
845.202	613
845.293	704
845.385	-787
845.476	-285
845.568	1154
845.659	-311
845.751	678
845.842	376
845.934	12
846.025	-629
846.116	-33
846.208	222
846.299	887
846.390	627
846.482	715
846.573	423
846.664	1369
846.755	448
846.846	2003
846.937	-1482
847.029	382
847.120	-83
847.211	228
847.302	1519
847.393	-369
847.484	697
847.575	245
847.666	375
847.757	-832
847.847	1081
847.938	526
848.029	550
848.120	296
848.211	-55
848.302	-207
848.392	529
848.483	778
848.574	-111
848.664	279
848.755	304
848.846	161
848.936	-14
849.027	-63
849.118	21
849.208	-783
849.299	764
849.389	1347
849.480	500
849.570	2345
849.661	4297
849.751	6886
849.841	2581
849.932	-212
850.022	453
850.112	652
850.203	612
850.293	26
850.383	250
850.474	-608
850.564	343
850.654	463
850.744	-55
850.834	-75
850.924	-450
851.014	-192
851.104	-1167
851.194	96
851.284	694
851.374	905
851.464	-344
851.554	42
851.644	197
851.734	1305
851.824	1313
851.914	1658
852.004	4470
852.094	3512
852.183	883
852.273	768
852.363	51
852.452	123
852.542	318
852.632	-496
852.721	-160
852.811	-565
852.901	-564
852.990	230
853.080	69
853.169	-445
853.259	799
853.348	-1359
853.438	-263
853.527	1439
853.617	789
853.706	1774
853.795	2858
853.885	8032
853.974	14774
854.063	28428
854.152	46440
854.242	17377
854.331	2818
854.420	2077
854.509	221
854.598	498
854.687	172
854.777	546
854.866	123
854.955	797
855.044	-571
855.133	-74
855.222	380
855.311	-9
855.400	1
855.488	599
855.577	-637
855.666	604
855.755	-138
855.844	552
855.933	73
856.021	-37
856.110	31
856.199	-304
856.288	-531
856.376	-332
856.465	225
856.554	-191
856.642	-370
856.731	210
856.819	598
856.908	-456
856.996	-304
857.085	-490
857.173	-168
857.262	77
857.350	-294
857.438	-224
857.527	357
857.615	-96
857.703	66
857.792	-856
857.880	-446
857.968	-688
858.056	-100
858.145	-266
858.233	-529
858.321	-956
858.409	232
858.497	-243
858.585	-815
858.673	506
858.761	-508
858.849	-117
858.937	-215
859.025	-93
859.113	59
859.201	-262
859.289	-431
859.377	-855
859.465	99
859.552	19
859.640	-863
859.728	-412
859.816	-297
859.903	-3
859.991	-1305
860.079	-27
860.166	-208
860.254	-499
860.342	-29
860.429	-399
860.517	-344
860.604	13
860.692	-70
860.779	-21
860.867	342
860.954	-252
861.042	377
861.129	248
861.216	35
861.304	-539
861.391	-692
861.478	-563
861.565	-115
861.653	408
861.740	-397
861.827	-433
861.914	-156
862.001	-25
862.089	-366
862.176	-179
862.263	-1195
862.350	34
862.437	-440
862.524	243
862.611	-440
862.698	-58
862.785	184
862.871	319
862.958	-557
863.045	-115
863.132	350
863.219	-59
863.306	-953
863.392	-385
863.479	-867
863.566	-359
863.652	353
863.739	-609
863.826	665
863.912	-763
863.999	-584
864.086	-454
864.172	-981
864.259	-109
864.345	-214
864.432	-93
864.518	-781
864.604	93
864.691	-154
864.777	322
864.863	590
864.950	50
865.036	-790
865.122	1545
865.209	1407
865.295	1044
865.381	587
865.467	133
865.553	1745
865.639	519
865.726	2107
865.812	4417
865.898	7458
865.984	11354
866.070	23297
866.156	24542
866.242	6495
866.328	1969
866.414	995
866.499	604
866.585	664
866.671	1114
866.757	1030
866.843	473
866.928	727
867.014	656
867.100	1260
867.186	765
867.271	683
867.357	1023
867.442	1200
867.528	1391
867.614	621
867.699	-15
867.785	1298
867.870	588
867.956	1205
868.041	1315
868.127	962
868.212	2019
868.297	1086
868.383	256
868.468	1302
868.553	1308
868.639	1083
868.724	3076
868.809	2534
868.894	1073
868.979	146
869.065	127
869.150	506
869.235	106
869.320	464
869.405	539
869.490	-1
869.575	152
869.660	312
869.745	464
869.830	-323
869.915	-66
870.000	747
870.085	-347
870.169	1150
870.254	1149
870.339	62
870.424	-39
870.509	294
870.593	-61
870.678	167
870.763	397
870.847	-239
870.932	484
871.016	26
871.101	-91
871.186	218
871.270	298
871.355	-214
871.439	137
871.523	328
871.608	-48
871.692	492
871.777	119
871.861	168
871.945	-459
872.030	471
872.114	529
872.198	34
872.282	-142
872.367	64
872.451	-540
872.535	21
872.619	360
872.703	-161
872.787	604
872.871	-898
872.955	-335
873.039	-637
873.123	105
873.207	286
873.291	-270
873.375	-871
873.459	-665
873.543	-800
873.627	-534
873.711	-391
873.794	-450
873.878	-381
873.962	440
874.045	-580
874.129	-324
874.137	-320
874.213	-277
874.245	-328
874.296	-413
874.352	-575
874.380	-656
874.460	-285
874.464	-271
874.547	-627
874.568	-503
874.631	-143
874.676	-371
874.714	-561
874.784	430
874.798	621
874.881	551
874.892	463
874.965	-76
874.999	118
875.048	337
875.107	-440
875.131	-750
875.215	59
875.215	59
875.298	-369
875.323	-271
875.381	7
875.430	-117
875.465	-212
875.538	-363
875.548	-369
875.631	230
875.646	69
875.714	-890
875.753	-802
875.798	-640
875.861	-583
875.881	-575
875.964	-224
875.968	-222
876.047	-49
876.076	-125
876.130	-402
876.183	-517
876.213	-514
876.291	68
876.296	91
876.379	23
876.398	-32
876.462	-30
876.506	-3
876.545	-31
876.613	-164
876.628	-174
876.711	388
876.721	368
876.794	150
876.828	58
876.877	-53
876.935	-360
876.960	-478
877.043	346
877.043	346
877.125	520
877.150	528
877.208	423
877.258	268
877.291	282
877.365	563
877.374	565
877.456	-187
877.472	-224
877.539	-152
877.579	229
877.622	513
877.687	-10
877.704	-149
877.787	252
877.794	240
877.869	253
877.901	360
877.952	533
878.008	455
878.034	372
878.115	42
878.117	38
878.199	219
878.222	131
878.282	22
878.329	452
878.364	737
878.437	367
878.447	295
878.529	-40
878.544	10
878.611	379
878.651	166
878.694	-49
878.758	30
878.776	137
878.858	460
878.865	538
878.941	644
878.972	515
879.023	577
879.078	-51
879.105	-265
879.185	670
879.187	686
879.269	266
879.292	180
879.351	65
879.399	-231
879.433	-532
879.506	285
879.516	402
879.598	49
879.613	77
879.680	155
879.720	98
879.762	210
879.827	66
879.844	-36
879.926	7
879.933	40
880.007	426
880.040	381
880.089	531
880.147	74
880.171	-225
880.253	471
880.254	467
880.335	338
880.360	649
880.417	1329
880.467	1381
880.499	1402
880.574	1494
880.580	1484
880.662	368
880.680	270
880.744	192
880.787	249
880.825	174
880.893	91
880.907	141
880.989	335
881.000	390
881.070	650
881.106	719
881.152	673
881.213	427
881.233	341
881.315	196
881.319	181
881.396	561
881.426	675
881.478	537
881.532	616
881.559	807
881.639	1006
881.641	1004
881.722	1074
881.745	1015
881.803	1010
881.852	642
881.885	205
881.958	37
881.966	114
882.047	1269
882.064	1304
882.129	843
882.171	863
882.210	1234
882.277	1506
882.291	1408
882.372	651
882.383	539
882.454	533
882.489	674
882.535	757
882.596	874
882.616	826
882.697	724
882.702	696
882.778	667
882.808	669
882.859	502
882.914	503
882.940	564
883.020	379
883.021	382
883.102	442
883.127	520
883.183	760
883.233	873
883.264	787
883.339	541
883.345	565
883.426	868
883.445	958
883.507	1052
883.551	853
883.587	702
883.657	931
883.668	950
883.749	804
883.763	767
883.830	841
883.869	795
883.910	740
883.975	1021
883.991	1086
884.072	1076
884.081	1016
884.152	704
884.187	802
884.233	907
884.292	1212
884.314	1320
884.394	1238
884.398	1241
884.475	926
884.504	667
884.555	838
884.610	1159
884.636	1080
884.716	1033
884.716	1038
884.797	1172
884.821	1059
884.877	870
884.927	932
884.958	914
885.033	984
885.038	981
885.118	690
885.139	595
885.199	608
885.244	698
885.279	697
885.350	674
885.359	707
885.439	962
885.456	947
885.520	812
885.561	814
885.600	981
885.667	1378
885.680	1337
885.760	1063
885.773	980
885.840	1455
885.878	1736
885.920	1215
885.984	427
886.000	492
886.080	788
886.089	812
886.160	1102
886.195	1279
886.240	1583
886.300	1912
886.320	1847
886.400	1542
886.406	1517
886.480	1181
886.511	1002
886.560	916
886.616	817
886.640	924
886.720	1195
886.722	1196
886.800	1306
886.827	1343
886.879	1267
886.932	1191
886.959	1455
887.038	2180
887.039	2185
887.119	1865
887.143	1758
887.198	1238
887.248	790
887.278	984
887.354	1315
887.358	1334
887.437	1728
887.459	1803
887.517	1761
887.564	1810
887.596	1694
887.669	1134
887.676	1134
887.755	1304
887.774	1349
887.835	1690
887.880	1850
887.914	1606
887.985	1002
887.994	1020
888.073	1278
888.090	1336
888.153	1508
888.195	1497
888.232	1346
888.300	1219
888.311	1357
888.391	2208
888.405	2358
888.470	1907
888.510	1602
888.549	1472
888.615	1279
888.628	1389
888.708	1994
888.720	2076
888.787	2081
888.825	2069
888.866	1659
888.930	1050
888.945	1157
889.024	1669
889.035	1729
889.103	1797
889.140	1842
889.182	1876
889.245	1885
889.261	1872
889.340	1797
889.349	1780
889.419	1405
889.454	1216
889.498	1588
889.559	2094
889.577	2133
889.656	2280
889.664	2289
889.735	1906
889.768	1714
889.814	2228
889.873	2896
889.978	1514
890.083	897
890.187	1781
890.292	1958
890.397	1575
890.501	1960
890.606	1529
890.710	2057
890.815	2674
890.919	1934
891.024	1449
891.128	1935
891.233	1990
891.337	1987
891.442	1960
891.546	2155
891.650	1592
891.755	1714
891.859	2636
891.963	1952
892.068	1865
892.172	2155
892.276	1767
892.380	2409
892.484	1600
892.589	1897
892.693	2349
892.797	1618
892.901	2068
893.005	1617
893.109	1411
893.213	1650
893.317	1415
893.421	1656
893.525	1299
893.629	1661
893.733	1912
893.837	1668
893.941	1486
894.045	2377
894.148	2804
894.252	4883
894.356	3322
894.460	1820
894.564	1288
894.667	1745
894.771	1374
894.875	925
894.978	1295
895.082	1605
895.186	2048
895.289	2593
895.393	932
895.496	1743
895.600	1067
895.703	1950
895.807	2268
895.910	2093
896.014	1917
896.117	1710
896.221	1506
896.324	988
896.427	2033
896.531	1294
896.634	1704
896.737	1855
896.840	950
896.944	1450
897.047	1891
897.150	1348
897.253	1201
897.356	1894
897.460	814
897.563	1121
897.666	1170
897.769	1896
897.872	1235
897.975	1761
898.078	1040
898.181	1425
898.284	400
898.387	2563
898.490	1826
898.593	1992
898.695	988
898.798	1433
898.901	2141
899.004	1759
899.107	801
899.209	2313
899.312	825
899.415	2769
899.518	1924
899.620	1664
899.723	1971
899.826	1441
899.928	2073
900.031	1429
900.133	725
900.236	1778
900.338	1657
900.441	2415
900.543	1692
900.646	968
900.748	2166
900.851	2403
900.953	938
901.055	1520
901.158	1564
901.260	1348
901.362	1107
901.465	1851
901.567	1181
901.669	2371
901.771	992
901.873	2204
901.976	1031
902.078	1796
902.180	1000
902.282	1079
902.384	1597
902.486	1876
902.588	1865
902.690	1857
902.792	1017
902.894	1662
902.996	768
903.098	1224
903.200	1837
903.302	1573
903.404	2100
903.505	1369
903.607	1858
903.709	1574
903.811	1396
903.913	1351
904.014	1604
904.116	2256
904.218	1545
904.319	1415
904.421	1511
904.523	2079
904.624	1014
904.726	1583
904.827	1437
904.929	1639
905.030	1134
905.132	1668
905.233	1376
905.335	1440
905.436	1714
905.537	1246
905.639	1503
905.740	1579
905.841	1692
905.943	1531
906.044	1700
906.145	1684
906.247	843
906.348	2089
906.449	1283
906.550	1406
906.651	1068
906.752	2837
906.854	1952
906.955	689
907.056	1595
907.157	1408
907.258	1202
907.359	2038
907.460	1384
907.561	1423
907.662	1429
907.762	1447
907.863	404
907.964	1766
908.065	1679
908.166	1719
908.267	1348
908.367	583
908.468	1763
908.569	1922
908.670	2132
908.770	1702
908.871	1606
908.971	1771
909.072	2171
909.173	850
909.273	1081
909.374	1557
909.474	2414
909.575	1744
909.675	1001
909.776	1750
909.876	1192
909.977	828
910.077	632
910.177	1686
910.278	1661
910.378	1660
910.478	1197
910.579	1857
910.679	963
910.779	1839
910.879	1740
910.980	1862
911.080	1231
911.180	930
911.280	1438
911.380	1639
911.480	1171
911.580	961
911.680	1033
911.780	1400
911.880	1547
911.980	1819
912.080	1647
912.180	1178
912.280	409
912.380	1873
912.480	1272
912.580	1085
912.679	1072
912.779	1979
912.879	1144
912.979	1659
913.078	428
913.178	1676
913.278	357
913.377	813
913.477	1121
913.577	1179
913.676	2010
913.776	1508
913.875	1251
913.975	2198
914.074	1347
914.174	1803
914.273	214
914.373	1906
914.472	1521
914.572	1153
914.671	911
914.770	1203
914.870	1292
914.969	1334
915.068	526
915.167	2472
915.267	402
915.366	1623
915.465	871
915.564	1174
915.663	1064
915.763	2193
915.862	992
915.961	1450
916.060	1205
916.159	1591
916.258	840
916.357	1241
916.456	2235
916.555	1702
916.654	291
916.752	1198
916.851	1676
916.950	1249
917.049	1068
917.148	1940
917.247	1884
917.345	961
917.444	1213
917.543	2450
917.642	952
917.740	1373
917.839	1014
917.937	2337
918.036	1841
918.135	1151
918.233	945
918.332	694
918.430	425
918.529	1503
918.627	677
918.726	875
918.824	1313
918.923	1550
919.021	1321
919.119	1515
919.218	1291
919.316	1025
919.414	588
919.512	1742
919.611	1472
919.709	1149
919.807	1268
919.905	1631
920.003	855
920.102	2064
920.200	1771
920.298	1356
920.396	1251
920.494	1596
920.592	3
920.690	1669
920.788	1208
920.886	1789
920.984	1197
921.082	1740
921.180	1727
921.277	2481
921.375	1082
921.473	1653
921.571	1082
921.669	2134
921.766	1242
921.864	2360
921.962	1617
922.060	1836
922.157	1899
922.255	1573
922.352	1627
922.450	2704
922.548	1442
922.645	1802
922.743	1688
922.840	3109
922.938	2747
923.035	3271
923.133	2749
923.230	2675
923.327	2765
923.425	3693
923.522	3511
923.619	3307
923.717	2946
923.814	3303
923.911	2970
924.008	2773
924.106	2296
924.203	2721
924.300	1912
924.397	2749
924.494	2022
924.591	3334
924.688	2548
924.786	2548
924.883	2709
924.979	3342
925.077	2534
925.173	2918
925.270	2423
925.367	2419
925.464	2769
925.561	3645
925.658	2811
925.755	2773
925.852	2726
925.948	2727
926.045	2772
926.142	2712
926.239	2592
926.335	2134
926.432	2618
926.529	2196
926.625	2914
926.722	2353
926.818	1712
926.915	2465
927.011	2506
927.108	3011
927.204	2601
927.301	2370
927.397	1952
927.494	3290
927.590	2108
927.687	2519
927.783	1959
927.879	2099
927.976	2386
928.072	1825
928.168	2024
928.264	2297
928.361	1830
928.457	3039
928.553	2285
928.649	2473
928.745	3183
928.841	2362
928.937	1979
929.033	3468
929.129	1900
929.225	1372
929.321	2141
929.417	2329
929.513	1972
929.609	3090
929.705	1737
929.801	2658
929.897	1986
929.993	2948
930.089	2330
930.184	2675
930.280	2928
930.376	2884
930.471	2012
930.567	2164
930.663	2467
930.758	1716
930.854	2113
930.950	2184
931.045	1559
931.141	2354
931.236	2587
931.332	2920
931.427	1420
931.523	2924
931.618	2157
931.714	1784
931.809	1605
931.905	2327
932.000	1529
932.095	1456
932.191	2891
932.286	2252
932.381	2125
932.476	2355
932.572	1572
932.667	2003
932.762	1578
932.857	2007
932.952	1322
933.047	2750
933.142	906
933.237	2234
933.332	3068
933.427	2360
933.522	2699
933.617	966
933.712	894
933.807	2383
933.902	1884
933.997	2637
934.092	1268
934.187	1502
934.282	2193
934.376	1422
934.471	1404
934.566	1113
934.661	2157
934.755	1867
934.850	2468
934.945	2388
935.039	858
935.134	1503
935.228	1382
935.323	3011
935.417	1551
935.512	1989
935.606	288
935.701	1819
935.795	1835
935.890	2015
935.984	1537
936.079	2128
936.173	1918
936.267	2741
936.362	1199
936.456	1697
936.550	2295
936.644	1823
936.738	1752
936.833	1730
936.927	1916
937.021	2110
937.115	1032
937.209	1386
937.303	1281
937.397	2330
937.491	881
937.585	1800
937.679	2038
937.773	2677
937.867	793
937.961	1608
938.055	2029
938.149	2946
938.243	1624
938.337	1593
938.430	1090
938.524	2732
938.618	1377
938.712	2417
938.805	2416
938.899	2168
938.993	1758
939.086	981
939.180	897
939.274	2111
939.367	1330
939.461	2847
939.554	1590
939.648	1822
939.741	1767
939.835	2323
939.928	1658
940.022	2007
940.115	1475
940.208	2388
940.302	2253
940.395	2503
940.488	1355
940.582	1379
940.675	1747
940.768	2104
940.861	1177
940.954	1938
941.048	1244
941.141	1050
941.234	944
941.327	1678
941.420	1604
941.513	2067
941.606	1154
941.699	2495
941.792	1579
941.885	1842
941.978	605
942.071	1749
942.164	753
942.257	1211
942.349	831
942.442	2015
942.535	1246
942.628	2759
942.721	1959
942.813	1040
942.906	2629
942.999	1118
943.091	851
943.184	1962
943.277	1027
943.369	2143
943.462	745
943.554	1746
943.647	1055
943.739	1858
943.832	1613
943.924	765
944.017	1077
944.109	1953
944.201	1722
944.294	2477
944.386	1821
944.478	1439
944.571	1558
944.663	1243
944.755	1155
944.847	1569
944.940	1953
945.032	246
945.124	1730
945.216	2386
945.308	1850
945.400	1941
945.492	1250
945.584	1486
945.676	1327
945.768	1252
945.860	1852
945.952	1203
946.044	1214
946.136	1311
946.228	1364
946.320	1517
946.412	1325
946.503	1074
946.595	1444
946.687	1487
946.779	1077
946.870	1754
946.962	1197
947.054	1644
947.145	1788
947.237	1422
947.329	1697
947.420	1172
947.512	1521
947.603	1509
947.695	1449
947.786	1329
947.878	1345
947.969	1059
948.061	767
948.152	1740
948.243	966
948.335	2298
948.426	1153
948.517	1083
948.609	1792
948.700	1115
948.791	1340
948.882	1947
948.973	829
949.065	1176
949.156	1093
949.247	618
949.338	928
949.429	599
949.520	1324
949.611	1547
949.702	1712
949.793	1949
949.884	1673
949.975	1039
950.066	1463
950.157	1224
950.247	1274
950.338	974
950.429	1758
950.520	1274
950.611	1639
950.701	1527
950.792	1426
950.883	1906
950.973	2027
951.064	1353
951.155	1457
951.245	1728
951.336	1097
951.427	1681
951.517	1099
951.608	1804
951.698	1032
951.788	1436
951.879	1347
951.969	1618
952.060	1761
952.150	1648
952.240	1856
952.331	452
952.421	2603
952.511	757
952.602	1654
952.692	552
952.782	713
952.872	956
952.962	1337
953.052	1800
953.143	1104
953.233	2508
953.323	1421
953.413	673
953.503	1578
953.593	1150
953.683	992
953.773	1080
953.863	1262
953.953	929
954.042	2068
954.132	1480
954.222	907
954.312	1566
954.402	1166
954.492	1452
954.581	1661
954.671	1300
954.761	797
954.850	3341
954.940	556
955.030	2096
955.119	1365
955.209	1128
955.298	712
955.388	1656
955.477	1885
955.567	1488
955.656	1226
955.746	1671
955.835	981
955.925	188
956.014	1535
956.103	1381
956.193	1049
956.282	1993
956.371	1585
956.461	1886
956.550	1008
956.639	1011
956.728	724
956.817	2161
956.906	1589
956.995	2348
957.085	1885
957.174	2287
957.263	1263
957.352	1446
957.441	480
957.530	1827
957.619	1879
957.708	1461
957.796	1404
957.885	1817
957.974	1321
958.063	1971
958.152	1370
958.241	1425
958.329	1701
958.418	1180
958.507	1772
958.596	2269
958.684	1385
958.773	2058
958.861	1451
958.950	1929
959.039	1859
959.127	2653
959.216	2094
959.304	2560
959.393	1850
959.481	3011
959.570	1316
959.658	1734
959.746	1594
959.835	2001
959.923	2629
960.011	1476
960.100	1730
960.188	2181
960.276	2059
960.365	1333
960.453	1772
960.541	1747
960.629	1824
960.717	1525
960.805	979
960.893	1765
960.981	680
961.069	2015
961.158	1970
961.245	2530
961.333	1376
961.421	1202
961.509	897
961.597	1467
961.685	2072
961.773	1208
961.861	1444
961.949	2225
962.036	338
962.124	1275
962.212	1124
962.299	560
962.387	750
962.475	1257
962.562	724
962.650	1568
962.738	437
962.825	1336
962.913	1056
963.000	759
963.088	884
963.175	955
963.263	1110
963.350	711
963.438	746
963.525	858
963.612	1559
963.700	2044
963.787	4604
963.874	2608
963.962	2189
964.049	1446
964.136	1620
964.223	267
964.310	714
964.398	1352
964.485	1053
964.572	1499
964.659	943
964.746	1783
964.833	1655
964.920	727
965.007	1137
965.094	1074
965.181	-504
965.268	708
965.355	840
965.441	423
965.528	-219
965.615	1321
965.702	627
965.789	666
965.875	1244
965.962	449
966.049	1071
966.136	1523
966.222	363
966.309	1339
966.395	-399
966.482	644
966.569	120
966.655	671
966.742	393
966.828	1073
966.915	287
967.001	1474
967.087	252
967.174	1162
967.260	1607
967.347	1002
967.433	1964
967.519	3070
967.605	479
967.692	1414
967.778	524
967.864	999
967.950	344
968.036	562
968.123	701
968.209	1321
968.295	51
968.381	2360
968.467	308
968.553	-585
968.639	968
968.725	1042
968.811	1209
968.897	1600
968.983	490
969.069	136
969.154	902
969.240	1867
969.326	-167
969.412	510
969.497	912
969.583	3
969.669	2357
969.755	1557
969.840	277
969.926	1443
970.012	195
970.097	1416
970.183	586
970.268	598
970.354	1258
970.439	801
970.525	3003
970.610	1121
970.696	935
970.781	991
970.866	-851
970.952	1462
971.037	325
971.122	968
971.208	1464
971.293	1239
971.378	-604
971.463	459
971.549	744
971.634	574
971.719	517
971.804	959
971.889	1433
971.974	-330
972.059	358
972.144	1402
972.229	-353
972.314	722
972.399	290
972.484	516
972.569	829
972.654	-1
972.739	1533
972.824	572
972.908	1007
972.993	572
973.078	325
973.163	143
973.247	31
973.332	-750
973.417	1492
973.501	-141
973.586	161
973.671	482
973.755	-216
973.840	794
973.924	592
974.009	184
974.093	-216
974.178	1553
974.262	1143
974.346	888
974.431	-188
974.515	556
974.600	428
974.684	1156
974.768	-73
974.852	1446
974.937	-546
975.021	1109
975.105	-118
975.189	1366
975.273	836
975.358	-187
975.442	-610
975.526	1207
975.610	-670
975.694	-348
975.778	1519
975.862	-155
975.946	-491
976.030	1686
976.114	-274
976.198	127
976.281	-306
976.365	864
976.449	-249
976.533	785
976.617	-166
976.700	749
976.784	531
976.868	-155
976.951	-45
977.035	141
977.119	498
977.202	522
977.286	637
977.369	560
977.453	1842
977.536	-93
977.620	-331
977.703	812
977.787	-788
977.870	1250
977.953	1226
978.037	-477
978.120	1157
978.203	73
978.287	933
978.370	388
978.453	-589
978.536	287
978.620	1075
978.703	422
978.786	893
978.869	-183
978.952	-494
979.035	1690
979.118	561
979.201	773
979.284	277
979.367	-119
979.450	368
979.533	163
979.616	352
979.699	184
979.782	819
979.865	178
979.948	-658
980.030	124
980.113	-335
980.196	-452
980.279	481
980.361	153
980.444	-628
980.526	344
980.609	33
980.692	207
980.774	477
980.857	-524
980.939	1133
981.022	-168
981.104	180
981.187	-299
981.269	1150
981.352	375
981.434	-352
981.516	-689
981.599	1939
981.681	689
981.763	-35
981.846	116
981.928	-810
982.010	-33
982.092	198
982.174	1511
982.256	-717
982.339	928
982.421	207
982.503	250
982.585	-362
982.667	262
982.749	255
982.831	338
982.913	-301
982.995	577
983.077	-533
983.158	1738
983.240	-1540
983.322	446
983.404	45
983.486	430
983.568	-29
983.649	-24
983.731	608
983.813	241
983.894	239
983.976	-216
984.058	-197
984.139	1003
984.221	-443
984.302	220
984.384	-667
984.465	-758
984.547	394
984.628	-407
984.710	966
984.791	907
984.872	-752
984.954	-382
985.035	366
985.116	-112
985.198	90
985.279	1283
985.360	-704
985.441	478
985.522	173
985.604	151
985.685	-1832
985.766	907
985.847	1165
985.928	-645
986.009	-138
986.090	-102
986.171	359
986.252	-170
986.333	-605
986.414	-139
986.495	183
986.576	424
986.656	402
986.737	675
986.818	442
986.899	167
986.980	745
987.060	1304
987.141	-235
987.222	1
987.302	-167
987.383	302
987.464	289
987.544	587
987.625	377
987.705	884
987.786	328
987.866	1116
987.947	151
988.027	483
988.108	-1408
988.188	-53
988.268	32
988.349	370
988.429	1072
988.509	461
988.589	1
988.670	-850
988.750	1419
988.830	-89
988.910	819
988.990	201
989.070	-128
989.151	566
989.231	113
989.311	717
989.391	40
989.471	218
989.551	-120
989.631	92
989.711	310
989.791	-224
989.870	-321
989.950	1409
990.030	-602
990.110	453
990.190	-288
990.269	-836
990.349	-94
990.429	459
990.509	509
990.588	-45
990.668	566
990.747	-17
990.827	-656
990.907	752
990.986	-249
991.066	858
991.145	-747
991.225	486
991.304	-878
991.383	-281
991.463	-883
991.542	-119
991.622	-170
991.701	94
991.780	-399
991.859	-789
991.939	-442
992.018	305
992.097	428
992.176	-338
992.256	-394
992.335	-984
992.414	676
992.493	425
992.572	-570
992.651	747
992.730	-799
992.809	903
992.888	-676
992.967	-874
993.046	131
993.125	-591
993.203	432
993.282	402
993.361	354
993.440	36
993.519	-1731
993.597	162
993.676	-965
993.755	511
993.834	-340
993.912	-995
993.991	172
994.069	-331
994.148	-401
994.226	208
994.305	-47
994.384	-1188
994.462	361
994.540	-648
994.619	-578
994.697	296
994.776	-833
994.854	396
994.932	-1293
995.011	-174
995.089	-200
995.167	-493
995.245	-294
995.324	-1121
995.402	146
995.480	-395
995.558	-753
995.636	-1071
995.714	-38
995.792	620
995.870	-749
995.948	-501
996.026	-743
996.104	-284
996.182	-632
996.260	-250
996.338	-519
996.416	-1316
996.494	-542
996.572	259
996.649	-798
996.727	-1280
996.805	-167
996.883	-37
996.960	-937
997.038	44
997.116	290
997.193	-866
997.271	87
997.348	-784
997.426	-898
997.504	-1302
997.581	235
997.658	-368
997.736	-790
997.813	-498
997.891	-56
997.968	-1290
998.046	162
998.123	-433
998.200	-403
998.277	-1271
998.355	415
998.432	-957
998.509	-187
998.586	-96
998.663	8
998.741	-786
998.818	-600
998.895	-554
998.972	-42
999.049	-433
999.126	-1573
999.203	-1344
999.280	-816
999.357	-913
999.434	-595
999.511	-484
999.587	-187
999.664	-523
999.741	-285
999.818	18
999.895	-412
999.971	-572
1000.048	-901
1000.125	-221
1000.202	-697
1000.278	-346
1000.355	-334
1000.431	-502
1000.508	-1143
1000.584	-431
1000.661	-1209
1000.738	-1120
1000.814	-616
1000.890	-201
1000.967	-1330
1001.043	-221
1001.120	-1764
1001.196	-711
1001.272	-897
1001.349	-733
1001.425	-404
1001.501	-582
1001.577	-1674
1001.654	-136
1001.730	-658
1001.806	-864
1001.882	-1024
1001.958	-78
1002.034	-764
1002.110	-154
1002.186	-1200
1002.262	-1374
1002.338	-1584
1002.414	-714
1002.490	-42
1002.566	-683
1002.642	-523
1002.718	-588
1002.794	-1240
1002.870	-1618
1002.945	-1039
1003.021	-854
1003.097	-720
1003.173	-680
1003.248	-1486
1003.324	-787
1003.400	-265
1003.475	-1675
1003.551	-801
1003.626	-1029
1003.702	-1661
1003.777	-223
1003.853	-1529
1003.928	-1203
1004.004	-1017
1004.079	-821
1004.155	-1533
1004.230	-1882
1004.305	-28
1004.381	-1483
1004.456	-1084
1004.531	-634
1004.607	-890
1004.682	-1045
1004.757	-1079
1004.832	-1278
1004.907	-1045
1004.982	-778
1005.057	-1552
1005.133	-766
1005.208	-963
1005.283	-1597
1005.358	-331
1005.433	-1457
1005.508	-803
1005.583	-2307
1005.657	-1207
1005.732	-49
1005.807	-909
1005.882	-1398
1005.957	-1274
1006.032	-633
1006.106	-929
1006.181	-873
1006.256	-914
1006.331	-1614
1006.405	-84
1006.480	-651
1006.554	-1673
1006.629	-504
1006.704	-1851
1006.778	-1180
1006.853	-450
1006.927	-1344
1007.002	-2200
1007.076	-1717
1007.150	-557
1007.225	-1581
1007.299	-1379
1007.373	-2091
1007.448	-1319
1007.522	400
1007.596	-1572
1007.671	-1677
1007.745	-1008
1007.819	-1578
1007.893	-2784
1007.967	-1074
1008.041	-2298
1008.115	-556
1008.190	-1958
1008.264	-1089
1008.338	-2629
1008.412	-1304
1008.486	-1067
1008.560	-1594
1008.633	-1231
1008.707	-1048
1008.781	-1628
1008.855	-1054
1008.929	-1813
1009.003	-1549
1009.076	-1721
1009.150	-1164
1009.224	-1710
1009.298	-975
1009.371	-1131
1009.445	-1001
1009.519	-1822
1009.592	-1915
1009.666	-1811
1009.739	-1113
1009.813	-2765
1009.886	-548
1009.960	-2820
1010.033	-799
1010.107	-459
1010.180	-2128
1010.253	-1378
1010.327	-1774
1010.400	-1991
1010.473	-744
1010.547	-172
1010.620	-1664
1010.693	-1844
1010.766	-1466
1010.840	-1310
1010.913	-909
1010.986	-2110
1011.059	-1644
1011.132	-632
1011.205	-693
1011.278	-2263
1011.351	-1176
1011.424	-1939
1011.497	-1554
1011.570	-1422
1011.643	-645
1011.716	-2288
1011.789	-1135
1011.862	-972
1011.934	-850
1012.007	-2086
1012.080	-1787
1012.153	-1453
1012.225	148
1012.298	-2719
1012.371	-2005
1012.443	-1491
1012.516	-1578
1012.588	-1567
1012.661	-1035
1012.733	-1792
1012.806	-1022
1012.879	-2582
1012.951	-1705
1013.023	-1225
1013.096	-608
1013.168	-1901
1013.241	-1263
1013.313	-1715
1013.385	-1696
1013.458	-1692
1013.530	-695
1013.602	-2752
1013.674	-1422
1013.746	-2184
1013.819	-2469
1013.891	-1763
1013.963	-1059
1014.035	-2028
1014.107	-818
1014.179	-1361
1014.251	-1587
1014.323	-1215
1014.395	-1624
1014.467	-1690
1014.539	-1050
1014.611	-2054
1014.683	-1979
1014.754	-1481
1014.826	-2423
1014.898	-1508
1014.970	-2278
1015.042	-926
1015.113	-1341
1015.185	-1805
1015.257	-2445
1015.328	-2034
1015.400	-1946
1015.471	-2428
1015.543	-1714
1015.615	-1212
1015.686	-1536
1015.757	-2135
1015.829	-144
1015.901	-1796
1015.972	-548
1016.043	-1912
1016.115	-1336
1016.186	-1747
1016.257	-1512
1016.328	-1132
1016.400	-1418
1016.471	-2506
1016.542	-1256
1016.613	-1228
1016.685	-1330
1016.756	-1620
1016.827	-1478
1016.898	-2462
1016.969	-1250
1017.040	-2332
1017.111	-1993
1017.182	-1895
1017.253	-1459
1017.324	-1896
1017.395	-1917
1017.466	-1197
1017.537	-816
1017.608	-2399
1017.678	-1847
1017.749	-2534
1017.820	-953
1017.891	-2545
1017.961	-1592
1018.032	-2027
1018.103	-1997
1018.173	-1537
1018.244	-2137
1018.315	-1541
1018.385	23
1018.456	-2075
1018.526	-2079
1018.597	-2087
1018.667	-1026
1018.738	-1408
1018.808	-1626
1018.878	-2278
1018.949	-993
1019.019	-1805
1019.089	-1101
1019.160	-1751
1019.230	-1305
1019.300	-1219
1019.371	-2599
1019.441	-2199
1019.511	-1843
1019.581	-2263
1019.651	-1277
1019.721	-2200
1019.791	-1371
1019.861	-1493
1019.931	-1541
1020.001	-2031
1020.071	-2265
1020.141	-2171
1020.211	-2044
1020.281	-2178
1020.351	-2006
1020.421	-1831
1020.491	-790
1020.560	-1850
1020.630	-1540
1020.700	-1993
1020.770	-2151
1020.839	-2061
1020.909	-1765
1020.979	-1533
1021.048	-1681
1021.118	-1585
1021.187	-1233
1021.257	-2508
1021.326	-1329
1021.396	-1813
1021.465	-1868
1021.535	-1833
1021.604	-1205
1021.674	-1679
1021.743	-1308
1021.812	-1788
1021.882	-1370
1021.951	-2150
1022.020	-1159
1022.089	-2081
1022.159	-2058
1022.228	-1662
1022.297	-2784
1022.366	-1210
1022.435	-1765
1022.504	-2043
1022.573	-2557
1022.642	-2055
1022.711	-2145
1022.781	-1274
1022.849	-1751
1022.918	-1749
1022.987	-1481
1023.056	-1591
1023.125	-1919
1023.194	-1994
1023.263	-2136
1023.331	-2078
1023.400	-2310
1023.469	-2061
1023.538	-1008
1023.606	-1688
1023.675	-1055
1023.744	-2200
1023.812	-1544
1023.881	-1899
1023.949	-1512
1024.018	-2510
1024.086	-2108
1024.155	-2127
1024.223	-1673
1024.292	-2040
1024.360	-1285
1024.429	-1927
1024.497	-2456
1024.565	-2007
1024.634	-1315
1024.702	-2086
1024.770	-716
1024.838	-2254
1024.907	-2103
1024.975	-2294
1025.043	-1675
1025.111	-2245
1025.179	-2041
1025.247	-1841
1025.315	-2003
1025.383	-1885
1025.451	-2417
1025.519	-1125
1025.587	-1448
1025.655	-1780
1025.723	-1706
1025.791	-1221
1025.859	-1451
1025.927	-1845
1025.995	-2125
1026.062	-1783
1026.130	-1733
1026.198	-1949
1026.266	-1604
1026.333	-1346
1026.401	-988
1026.469	-2057
1026.536	-2158
1026.604	-2557
1026.671	-2432
1026.739	-2373
1026.806	-1983
1026.874	-2115
1026.941	-1985
1027.009	-1643
1027.076	-1820
1027.144	-2204
1027.211	-2624
1027.278	-2806
1027.345	-1948
1027.413	-2536
1027.480	-1945
1027.547	-2239
1027.614	-1845
1027.682	-2191
1027.749	-2176
1027.816	-2268
1027.883	-1470
1027.950	-2000
1028.017	-2005
1028.084	-1280
1028.151	-2400
1028.218	-3366
1028.285	-1801
1028.352	-2446
1028.419	-1981
1028.486	-2337
1028.553	-1796
1028.619	-1972
1028.686	-1866
1028.753	-2175
1028.820	-2875
1028.886	-2131
1028.953	-1640
1029.020	-2710
1029.086	-1084
1029.153	-1761
1029.220	-1764
1029.286	-2270
1029.353	-1732
1029.419	-2843
1029.486	-1544
1029.552	-1997
1029.619	-1907
1029.685	-2502
1029.751	-1532
1029.818	-1393
1029.884	-2120
1029.951	-1905
1030.017	-2521
1030.083	-1992
1030.149	-1528
1030.216	-2380
1030.282	-2066
1030.348	-2568
1030.414	-2490
1030.480	-2624
1030.546	-1182
1030.612	-1526
1030.678	-2625
1030.744	-2511
1030.810	-2552
1030.876	-1556
1030.942	-2449
1031.008	-1652
1031.074	-2433
1031.140	-2285
1031.206	-1474
1031.272	-3001
1031.337	-2019
1031.403	-1978
1031.469	-2331
1031.534	-2161
1031.600	-2242
1031.666	-2384
1031.731	-1221
1031.797	-2313
1031.863	-2557
1031.928	-2481
1031.994	-2157
1032.059	-2867
1032.125	-2406
1032.190	-2486
1032.256	-2167
1032.321	-2032
1032.386	-1891
1032.452	-1601
1032.517	-1566
1032.582	-2105
1032.647	-2187
1032.713	-1959
1032.778	-1965
1032.843	-1865
1032.908	-2459
1032.974	-2541
1033.039	-1883
1033.104	-1598
1033.169	-2135
1033.234	-2976
1033.299	-1394
1033.364	-2629
1033.429	-1985
1033.494	-1869
1033.559	-1966
1033.624	-2328
1033.688	-1071
1033.753	-3077
1033.818	-2244
1033.883	-2497
1033.948	-1811
1034.013	-2165
1034.077	-1773
1034.142	-2082
1034.207	-1619
1034.271	-1591
1034.336	-1629
1034.400	-1699
1034.465	-2233
1034.530	-1350
1034.594	-2509
1034.658	-2264
1034.723	-2205
1034.787	-2939
1034.852	-1910
1034.916	-2182
1034.981	-2870
1035.045	-1714
1035.109	-1781
1035.173	-2026
1035.238	-2337
1035.302	-2607
1035.366	-2153
1035.430	-2502
1035.495	-2681
1035.559	-1958
1035.623	-2113
1035.687	-2785
1035.751	-2394
1035.815	-2677
1035.879	-2345
1035.943	-1858
1036.007	-1991
1036.071	-3326
1036.135	-1528
1036.198	-2561
1036.262	-2189
1036.326	-2074
1036.390	-2260
1036.454	-2281
1036.517	-1910
1036.581	-2635
1036.645	-1728
1036.709	-2947
1036.772	-1890
1036.836	-2466
1036.900	-1931
1036.963	-2908
1037.026	-2334
1037.090	-2647
1037.154	-1899
1037.217	-2235
1037.280	-2023
1037.344	-4103
1037.407	-1867
1037.471	-2540
1037.534	-2251
1037.597	-3065
1037.661	-2180
1037.724	-2059
1037.787	-2722
1037.850	-3169
1037.913	-2293
1037.977	-2310
1038.040	-1668
1038.103	-2726
1038.166	-2516
1038.229	-1851
1038.292	-2499
1038.355	-2457
1038.418	-2001
1038.481	-2229
1038.544	-2916
1038.607	-2868
1038.670	-1827
1038.732	-2203
1038.795	-2545
1038.858	-2548
1038.921	-1713
1038.984	-2545
1039.046	-2443
1039.109	-2799
1039.172	-2748
1039.234	-2378
1039.297	-1995
1039.360	-2269
1039.422	-2428
1039.485	-2330
1039.547	-2869
1039.610	-2562
1039.672	-2326
1039.734	-2652
1039.797	-2699
1039.859	-2425
1039.922	-2638
1039.984	-2834
1040.046	-1731
1040.109	-2980
1040.171	-3012
1040.233	-2774
1040.295	-2203
1040.358	-2693
1040.420	-2640
1040.482	-2593
1040.544	-2344
1040.606	-3002
1040.668	-1823
1040.730	-2680
1040.792	-1625
1040.854	-2322
1040.916	-2567
1040.978	-2471
1041.040	-2261
1041.102	-2430
1041.164	-3236
1041.225	-1914
1041.287	-2217
1041.349	-2606
1041.411	-2471
1041.472	-2755
1041.534	-3237
1041.596	-2886
1041.657	-2318
1041.719	-2256
1041.781	-2133
1041.842	-3297
1041.904	-1916
1041.965	-3381
1042.027	-2471
1042.088	-2139
1042.150	-2474
1042.211	-2374
1042.272	-2838
1042.334	-3045
1042.395	-2722
1042.456	-2946
1042.518	-1834
1042.579	-1758
1042.640	-1810
1042.701	-3017
1042.763	-2560
1042.824	-3345
1042.885	-2546
1042.946	-3516
1043.007	-1992
1043.068	-2802
1043.129	-2344
1043.190	-2322
1043.251	-2189
1043.312	-2991
1043.373	-1559
1043.434	-2430
1043.495	-2114
1043.556	-2246
1043.616	-2078
1043.677	-2916
1043.738	-2825
1043.799	-2517
1043.859	-2436
1043.920	-2299
1043.981	-2047
1044.041	-2706
1044.102	-1743
1044.162	-2304
1044.223	-2944
1044.284	-3059
1044.344	-2052
1044.405	-2769
1044.465	-2107
1044.525	-3067
1044.586	-1636
1044.646	-1738
1044.707	-2300
1044.767	-2382
1044.827	-2764
1044.887	-1974
1044.948	-1703
1045.008	-1909
1045.068	-1950
1045.128	-2266
1045.188	-2921
1045.249	-2085
1045.309	-2865
1045.369	-2621
1045.429	-2231
1045.489	-3154
1045.549	-2345
1045.609	-1945
1045.669	-2855
1045.729	-2790
1045.789	-2285
1045.848	-1752
1045.908	-1790
1045.968	-1380
1046.028	-2212
1046.088	-2001
1046.147	-1861
1046.207	-2655
1046.267	-2030
1046.326	-1354
1046.386	-2457
1046.446	-1612
1046.505	-1903
1046.565	-1656
1046.624	-474
1046.684	-1533
1046.743	-749
1046.803	-2064
1046.862	-957
1046.922	0
