'Start Wavelength	183.907
'End Wavelength	1046.922
'Gate Delay	5.000
'Gate Width (ms)	1.050
'Laser Output Level	0.000
'X Position	0.000
'Y Position	0.000
'Z Position	0.000
'Grid Point Number	1.000
'Shot Number	100.000
183.907	990.000
183.977	30.000
184.047	-42
184.116	467
184.186	380
184.256	294
184.325	288
184.395	-34
184.465	1417
184.534	478
184.604	397
184.674	162
184.743	-347
184.813	963
184.883	64
184.952	887
185.022	665
185.092	425
185.161	-135
185.231	-670
185.301	410
185.370	885
185.440	-282
185.509	84
185.579	190
185.649	55
185.718	601
185.788	870
185.857	498
185.927	-372
185.996	-140
186.066	408
186.136	626
186.205	-445
186.275	286
186.344	74
186.414	-155
186.483	176
186.553	1045
186.622	1139
186.692	-101
186.761	-161
186.831	1232
186.900	160
186.970	367
187.039	706
187.109	864
187.178	151
187.248	460
187.317	524
187.387	-592
187.456	235
187.526	17
187.595	318
187.664	-439
187.734	283
187.803	123
187.873	714
187.942	-341
188.012	380
188.081	-156
188.150	582
188.220	542
188.289	170
188.358	300
188.428	1027
188.497	-113
188.567	562
188.636	-81
188.705	158
188.775	-475
188.844	-704
188.913	1068
188.983	311
189.052	88
189.121	102
189.191	-429
189.260	1278
189.329	496
189.399	11
189.468	433
189.537	-265
189.606	233
189.676	985
189.745	-675
189.814	906
189.883	-77
189.953	505
190.022	-100
190.091	472
190.161	-471
190.230	959
190.299	394
190.368	-493
190.437	-525
190.507	-176
190.576	229
190.645	-160
190.714	323
190.783	102
190.853	429
190.922	452
190.991	218
191.060	-51
191.129	-11
191.198	892
191.268	-3
191.337	-707
191.406	287
191.475	508
191.544	-87
191.613	1085
191.682	397
191.752	285
191.821	219
191.890	-122
191.959	729
192.028	488
192.097	397
192.166	1443
192.235	-810
192.304	989
192.373	210
192.442	805
192.511	53
192.580	96
192.650	-116
192.719	944
192.788	-371
192.857	698
192.926	222
192.995	401
193.064	-15
193.133	92
193.202	148
193.271	770
193.340	529
193.409	-177
193.478	1345
193.547	703
193.615	682
193.684	524
193.753	411
193.822	1002
193.891	-112
193.960	625
194.029	-135
194.098	142
194.167	534
194.236	1001
194.305	4
194.374	284
194.443	-43
194.512	766
194.580	64
194.649	542
194.718	86
194.787	791
194.856	-328
194.925	-253
194.994	604
195.062	578
195.131	110
195.200	759
195.269	-175
195.338	1286
195.407	225
195.475	140
195.544	852
195.613	378
195.682	190
195.751	928
195.819	-121
195.888	388
195.957	553
196.026	332
196.094	1187
196.163	153
196.232	273
196.301	63
196.369	469
196.438	23
196.507	272
196.576	-284
196.644	258
196.713	-115
196.782	442
196.850	678
196.919	555
196.988	891
197.056	75
197.125	1089
197.194	561
197.262	818
197.331	-172
197.400	584
197.468	518
197.537	-9
197.606	800
197.674	598
197.743	-180
197.812	-566
197.880	229
197.949	720
198.017	1110
198.086	569
198.155	312
198.223	729
198.292	629
198.360	1056
198.429	289
198.497	437
198.566	1070
198.635	1074
198.703	571
198.772	237
198.840	-394
198.909	421
198.977	-19
199.046	595
199.114	-295
199.183	104
199.251	258
199.320	290
199.388	482
199.457	322
199.525	-265
199.594	28
199.662	747
199.731	-189
199.799	261
199.867	314
199.936	-397
200.004	748
200.073	779
200.141	219
200.210	283
200.278	277
200.346	825
200.415	1158
200.483	669
200.552	967
200.620	271
200.688	433
200.757	880
200.825	-321
200.893	223
200.962	676
201.030	832
201.098	470
201.167	1232
201.235	704
201.303	814
201.372	235
201.440	195
201.508	349
201.577	140
201.645	806
201.713	376
201.781	492
201.850	941
201.918	111
201.986	571
202.055	842
202.123	436
202.191	628
202.259	112
202.327	304
202.396	359
202.464	748
202.532	556
202.600	1125
202.669	339
202.737	364
202.805	549
202.873	795
202.941	-76
203.009	367
203.078	890
203.146	107
203.214	412
203.282	-200
203.350	642
203.418	623
203.487	-94
203.555	63
203.623	152
203.691	389
203.759	-209
203.827	192
203.895	608
203.963	780
204.031	-79
204.099	980
204.168	254
204.236	502
204.304	107
204.372	670
204.440	287
204.508	-54
204.576	-178
204.644	23
204.712	-320
204.780	98
204.848	680
204.916	29
204.984	155
205.052	41
205.120	218
205.188	481
205.256	25
205.324	320
205.392	-204
205.460	533
205.528	430
205.596	-174
205.664	637
205.732	-193
205.799	352
205.867	1414
205.935	16
206.003	521
206.071	-431
206.139	-288
206.207	643
206.275	460
206.343	412
206.411	-125
206.478	-146
206.546	575
206.614	-492
206.682	578
206.750	541
206.818	642
206.885	788
206.953	-118
207.021	431
207.089	850
207.157	-171
207.225	517
207.292	-5
207.360	815
207.428	488
207.496	87
207.563	2
207.631	594
207.699	-235
207.767	857
207.834	67
207.902	750
207.970	445
208.038	127
208.105	138
208.173	738
208.241	5
208.309	856
208.376	261
208.444	995
208.512	-486
208.579	-336
208.647	216
208.715	1916
208.782	490
208.850	134
208.918	-32
208.985	634
209.053	56
209.120	142
209.188	-589
209.256	919
209.323	90
209.391	159
209.459	421
209.526	1460
209.594	129
209.661	525
209.729	155
209.796	600
209.864	1034
209.932	-650
209.999	1533
210.067	1157
210.134	340
210.202	66
210.269	257
210.337	1192
210.404	-151
210.472	1236
210.539	717
210.607	-92
210.674	762
210.742	279
210.809	657
210.877	878
210.944	569
211.012	-328
211.079	1461
211.146	494
211.214	110
211.281	665
211.349	852
211.416	283
211.484	220
211.551	145
211.618	-93
211.686	1069
211.753	-199
211.821	194
211.888	328
211.955	853
212.023	662
212.090	453
212.157	121
212.225	-372
212.292	1158
212.359	1816
212.427	1983
212.494	1593
212.561	730
212.629	39
212.696	-87
212.763	-62
212.831	51
212.898	81
212.965	-214
213.032	887
213.100	79
213.167	1013
213.234	1031
213.301	1323
213.369	328
213.436	366
213.503	41
213.570	717
213.638	369
213.705	342
213.772	-266
213.839	915
213.906	792
213.973	1265
214.041	173
214.108	796
214.175	1003
214.242	202
214.309	667
214.376	942
214.444	235
214.511	300
214.578	-7
214.645	773
214.712	407
214.779	388
214.846	-336
214.913	1281
214.980	1151
215.048	1225
215.115	1952
215.182	1111
215.249	398
215.316	722
215.383	1431
215.450	1009
215.517	647
215.584	1396
215.651	175
215.718	481
215.785	1044
215.852	151
215.919	1172
215.986	1537
216.053	550
216.120	-56
216.187	814
216.254	711
216.321	496
216.388	306
216.455	672
216.522	-29
216.589	286
216.656	848
216.722	1258
216.789	1512
216.856	875
216.923	813
216.990	1006
217.057	535
217.124	1177
217.191	952
217.258	1053
217.324	1712
217.391	1200
217.458	661
217.525	1452
217.592	844
217.659	172
217.725	1607
217.792	605
217.859	1442
217.926	366
217.993	643
218.059	457
218.126	-152
218.193	160
218.260	-210
218.327	44
218.393	199
218.460	705
218.527	-664
218.594	205
218.660	140
218.727	1269
218.794	-493
218.860	123
218.927	-152
218.994	-275
219.061	-454
219.127	-214
219.194	1073
219.261	822
219.327	92
219.394	1614
219.461	-16
219.527	360
219.594	306
219.661	212
219.727	-427
219.794	1551
219.860	185
219.927	788
219.994	1856
220.060	1785
220.127	2697
220.193	1758
220.260	844
220.326	1116
220.393	1609
220.460	2653
220.526	1845
220.593	821
220.659	1872
220.726	1695
220.792	2174
220.859	2198
220.925	3610
220.992	5073
221.058	3922
221.125	2917
221.191	1843
221.258	394
221.324	1325
221.391	340
221.457	635
221.524	1257
221.590	661
221.657	1555
221.723	1185
221.789	838
221.856	1545
221.922	428
221.989	717
222.055	-91
222.121	261
222.188	1547
222.254	873
222.321	733
222.387	57
222.453	-118
222.520	848
222.586	536
222.652	354
222.719	-111
222.785	822
222.851	-174
222.918	461
222.984	567
223.050	199
223.116	-1305
223.183	1224
223.249	-488
223.315	22
223.382	592
223.448	495
223.514	-225
223.580	1089
223.647	-697
223.713	-778
223.779	-411
223.845	676
223.911	-338
223.978	9
224.044	322
224.110	84
224.176	438
224.242	678
224.309	-57
224.375	766
224.441	-78
224.507	61
224.573	-833
224.639	883
224.705	-608
224.772	87
224.838	-229
224.904	319
224.970	-464
225.036	-151
225.102	-871
225.168	319
225.234	41
225.300	-335
225.366	-329
225.432	-30
225.499	117
225.565	554
225.631	170
225.697	-320
225.763	390
225.829	262
225.895	1099
225.961	1028
226.027	870
226.093	649
226.159	916
226.225	3008
226.291	4851
226.357	7089
226.423	3500
226.489	1694
226.554	1331
226.620	1035
226.686	1311
226.752	2384
226.818	4111
226.884	8233
226.950	7539
227.016	3737
227.082	2253
227.148	1945
227.214	899
227.279	476
227.345	878
227.411	1204
227.477	1941
227.543	3900
227.609	3879
227.674	2828
227.740	855
227.806	783
227.872	145
227.938	563
228.003	745
228.069	563
228.135	-202
228.201	17
228.267	97
228.332	-870
228.398	-30
228.464	-56
228.530	-271
228.595	534
228.661	-287
228.727	-193
228.792	1268
228.858	-49
228.924	-864
228.990	1838
229.055	-30
229.121	975
229.187	-88
229.252	-114
229.318	-954
229.384	416
229.449	59
229.515	-1144
229.581	-1624
229.646	1636
229.712	-183
229.777	-770
229.843	-284
229.909	767
229.974	1370
230.040	-184
230.105	-30
230.171	-386
230.236	211
230.302	354
230.368	-140
230.433	-278
230.499	836
230.564	259
230.630	-565
230.695	182
230.761	914
230.826	-972
230.892	844
230.957	-1006
231.023	-875
231.088	-241
231.154	-80
231.219	894
231.284	-323
231.350	848
231.415	-325
231.481	398
231.546	18
231.612	-10
231.677	-56
231.742	-1520
231.808	363
231.873	-843
231.939	-1595
232.004	1983
232.069	762
232.135	-596
232.200	-206
232.265	341
232.331	-587
232.396	220
232.461	-962
232.527	-1195
232.592	-757
232.657	207
232.723	-437
232.788	-274
232.853	50
232.918	85
232.984	-721
233.049	249
233.114	-585
233.179	-158
233.245	758
233.310	589
233.375	-1010
233.440	-26
233.506	-322
233.571	-675
233.636	68
233.701	335
233.766	-300
233.832	152
233.897	-118
233.962	-870
234.027	916
234.092	115
234.157	-101
234.222	-451
234.288	-36
234.353	1200
234.418	1158
234.483	805
234.548	567
234.613	45
234.678	-126
234.743	-518
234.808	2255
234.873	-408
234.938	1038
235.004	373
235.069	-99
235.134	375
235.199	374
235.264	-348
235.329	-1492
235.394	712
235.459	513
235.524	-503
235.589	434
235.654	-467
235.719	-692
235.784	169
235.849	-482
235.913	225
235.978	764
236.043	503
236.108	-174
236.173	-225
236.238	-481
236.303	-594
236.368	563
236.433	1018
236.498	552
236.563	1741
236.627	3014
236.692	10395
236.757	9984
236.822	4026
236.887	1160
236.952	2501
237.017	-145
237.081	1730
237.146	1240
237.211	6059
237.276	10392
237.341	15099
237.405	7992
237.470	3725
237.535	2174
237.600	925
237.664	951
237.729	372
237.794	447
237.859	3577
237.923	1239
237.988	332
238.053	987
238.118	79
238.182	1208
238.247	2620
238.312	-116
238.376	901
238.441	-1398
238.506	1602
238.570	-718
238.635	1928
238.700	589
238.764	17
238.829	410
238.893	311
238.958	474
239.023	749
239.087	-37
239.152	582
239.216	-855
239.281	716
239.346	-96
239.410	109
239.475	-485
239.539	1252
239.604	1041
239.668	879
239.733	-100
239.797	3667
239.862	7817
239.926	5582
239.991	3354
240.055	1638
240.120	576
240.184	1667
240.249	-263
240.313	616
240.378	356
240.442	1005
240.507	937
240.571	-14
240.635	-769
240.700	783
240.764	25
240.829	-700
240.893	-1252
240.957	374
241.022	501
241.086	1708
241.151	-279
241.215	-364
241.279	-45
241.344	-88
241.408	354
241.472	5
241.537	1087
241.601	981
241.665	-620
241.730	-8
241.794	840
241.858	-850
241.922	-112
241.987	-30
242.051	-337
242.115	-866
242.179	616
242.244	85
242.308	1332
242.372	449
242.436	-30
242.501	94
242.565	-1150
242.629	-103
242.693	406
242.757	-183
242.822	299
242.886	630
242.950	1170
243.014	-547
243.078	444
243.142	-111
243.206	-278
243.271	566
243.335	47
243.399	876
243.463	2492
243.527	8334
243.591	2323
243.655	664
243.719	-243
243.783	1317
243.847	642
243.911	2006
243.975	618
244.040	443
244.104	1335
244.168	-267
244.232	459
244.296	-68
244.360	1564
244.424	174
244.488	581
244.552	181
244.615	-1570
244.679	508
244.743	-295
244.807	-52
244.871	605
244.935	-311
244.999	-1476
245.063	-1088
245.127	788
245.191	852
245.255	43
245.319	191
245.383	-900
245.446	1467
245.510	-254
245.574	-157
245.638	707
245.702	-729
245.766	1720
245.829	2009
245.893	-1186
245.957	-1059
246.021	717
246.085	79
246.149	-7
246.212	2212
246.276	2388
246.340	950
246.404	79
246.467	891
246.531	-478
246.595	1378
246.659	1190
246.722	-779
246.786	627
246.850	794
246.913	54
246.977	-133
247.041	353
247.104	-17
247.168	744
247.232	1078
247.295	3510
247.359	2871
247.423	561
247.486	1453
247.550	821
247.614	429
247.677	720
247.741	-173
247.804	-290
247.868	1571
247.932	819
247.995	3659
248.059	524
248.122	-445
248.186	1996
248.249	1178
248.313	6228
248.376	7698
248.440	3608
248.503	493
248.567	1628
248.630	1027
248.694	2632
248.757	3773
248.821	7102
248.884	4777
248.948	2715
249.011	6004
249.075	8310
249.138	7388
249.202	3232
249.265	695
249.328	1957
249.392	385
249.455	770
249.519	630
249.582	830
249.645	2070
249.709	1382
249.772	1122
249.835	1555
249.899	573
249.962	1207
250.025	235
250.089	1770
250.152	3907
250.215	1424
250.279	-15
250.342	513
250.405	828
250.468	-516
250.532	949
250.595	2643
250.658	5625
250.721	14542
250.785	4027
250.848	2370
250.911	431
250.974	1276
251.038	1460
251.101	3409
251.164	1534
251.227	1778
251.290	1699
251.354	1846
251.417	11088
251.480	11350
251.543	7254
251.606	21372
251.669	16879
251.732	5769
251.795	5356
251.859	6204
251.922	13674
251.985	8394
252.048	3813
252.111	2132
252.174	640
252.237	3922
252.300	8325
252.363	7800
252.426	19216
252.489	7363
252.552	2958
252.615	503
252.678	3110
252.741	6195
252.804	6918
252.867	18608
252.930	12100
252.993	5301
253.056	3643
253.119	1956
253.182	832
253.245	1320
253.308	2279
253.371	641
253.434	1235
253.497	1287
253.559	3910
253.622	2214
253.685	2177
253.748	2125
253.811	1798
253.874	1595
253.937	1104
254.000	906
254.062	1659
254.125	3854
254.188	4077
254.251	3235
254.314	1329
254.376	1314
254.439	3449
254.502	1947
254.565	1115
254.628	5358
254.690	1477
254.753	630
254.816	373
254.878	249
254.941	1907
255.004	2838
255.067	1100
255.129	168
255.192	580
255.255	-535
255.317	897
255.380	-141
255.443	-416
255.505	-975
255.568	-65
255.631	535
255.693	259
255.756	-478
255.819	1196
255.881	-309
255.944	441
256.006	-1206
256.069	-252
256.132	-604
256.194	665
256.257	875
256.319	741
256.382	144
256.444	2009
256.507	1076
256.569	448
256.632	678
256.694	759
256.757	5240
256.819	19723
256.882	7091
256.944	2568
257.007	1704
257.069	1104
257.132	164
257.194	1573
257.257	87
257.319	29
257.381	203
257.444	4445
257.506	18620
257.569	24723
257.631	7924
257.693	3391
257.756	1216
257.818	992
257.880	292
257.943	1224
258.005	-474
258.067	41
258.130	283
258.192	851
258.254	345
258.317	108
258.379	302
258.441	1663
258.503	2491
258.566	1091
258.628	2616
258.690	735
258.753	997
258.815	1300
258.877	598
258.939	280
259.001	28
259.064	451
259.126	-712
259.188	180
259.250	624
259.312	970
259.375	817
259.437	917
259.499	172
259.561	629
259.623	845
259.685	9
259.747	404
259.809	1654
259.872	2990
259.934	5071
259.996	6406
260.058	2224
260.120	-649
260.182	696
260.244	192
260.306	-231
260.368	-109
260.430	-69
260.492	1023
260.554	3434
260.616	454
260.678	2914
260.740	2684
260.802	249
260.864	1233
260.926	-682
260.988	1353
261.050	255
261.112	1282
261.174	6185
261.236	1994
261.298	595
261.359	399
261.421	2452
261.483	-197
261.545	1114
261.607	-1547
261.669	374
261.731	656
261.793	2565
261.854	-185
261.916	945
261.978	668
262.040	675
262.102	763
262.164	-321
262.225	80
262.287	638
262.349	995
262.411	1530
262.472	727
262.534	-552
262.596	482
262.658	923
262.719	-989
262.781	1190
262.843	453
262.904	867
262.966	-30
263.028	919
263.090	3475
263.151	11520
263.213	3908
263.275	2627
263.336	-370
263.398	1210
263.459	-197
263.521	77
263.583	2464
263.644	1271
263.706	-571
263.767	-726
263.829	-2
263.891	-953
263.952	-647
264.014	-28
264.075	656
264.137	3866
264.198	1493
264.260	-518
264.321	311
264.383	1332
264.444	5325
264.506	1568
264.567	412
264.629	1604
264.690	4041
264.752	2372
264.813	507
264.875	223
264.936	1373
264.998	382
265.059	493
265.120	504
265.182	966
265.243	9510
265.305	12108
265.366	3420
265.427	708
265.489	1435
265.550	-740
265.611	658
265.673	-58
265.734	47
265.795	750
265.857	-115
265.918	91
265.979	2573
266.040	15614
266.102	16596
266.163	3944
266.224	2160
266.286	596
266.347	395
266.408	455
266.469	283
266.530	443
266.592	-919
266.653	975
266.714	2814
266.775	-125
266.836	67
266.898	-713
266.959	186
267.020	922
267.081	191
267.142	-65
267.203	-397
267.264	-877
267.326	681
267.387	-658
267.448	-265
267.509	-814
267.570	-476
267.631	-677
267.692	-665
267.753	230
267.814	-867
267.875	481
267.936	2850
267.997	1441
268.058	837
268.119	-153
268.180	618
268.241	-1260
268.302	-327
268.363	-76
268.424	884
268.485	-156
268.546	-999
268.607	-229
268.668	-144
268.729	-904
268.790	-446
268.851	-242
268.912	650
268.972	1475
269.033	641
269.094	-259
269.155	176
269.216	-879
269.277	-240
269.338	-813
269.398	180
269.459	-856
269.520	-43
269.581	-286
269.642	774
269.702	339
269.763	-60
269.824	-792
269.885	-223
269.945	1422
270.006	526
270.067	-688
270.128	-1199
270.188	-633
270.249	-6
270.310	-686
270.370	57
270.431	176
270.492	-565
270.553	-401
270.613	411
270.674	2590
270.734	339
270.795	195
270.856	550
270.916	-833
270.977	-178
271.038	169
271.098	-250
271.159	71
271.219	192
271.280	-825
271.340	-332
271.401	-332
271.462	107
271.522	-264
271.583	922
271.643	116
271.704	-60
271.764	35
271.825	1305
271.885	6463
271.946	9995
272.006	2576
272.066	3682
272.127	7333
272.187	5156
272.248	1941
272.308	213
272.369	4882
272.429	2611
272.489	1680
272.550	1533
272.610	1830
272.671	885
272.731	907
272.791	906
272.852	485
272.912	430
272.972	296
273.033	386
273.093	-192
273.153	887
273.214	-104
273.274	242
273.334	3042
273.394	7505
273.455	2905
273.515	1890
273.575	6268
273.635	2860
273.696	2511
273.756	5690
273.816	1684
273.876	999
273.936	1008
273.997	2943
274.057	819
274.117	564
274.177	673
274.237	8167
274.297	7673
274.358	3105
274.418	4345
274.478	4199
274.538	857
274.598	562
274.658	2126
274.718	3325
274.778	854
274.838	434
274.898	422
274.958	4147
275.018	5824
275.078	4542
275.138	1331
275.198	602
275.258	341
275.318	841
275.378	451
275.438	1810
275.498	447
275.558	1434
275.618	4810
275.678	4884
275.738	2405
275.798	2142
275.858	289
275.918	-179
275.978	664
276.038	932
276.098	971
276.157	952
276.217	4564
276.277	2217
276.337	413
276.397	440
276.457	375
276.517	658
276.576	254
276.636	0
276.696	332
276.756	3125
276.815	1851
276.875	-137
276.935	207
276.995	617
277.055	122
277.114	1226
277.174	766
277.234	4134
277.293	987
277.353	747
277.413	169
277.472	-44
277.532	79
277.592	180
277.651	2074
277.711	6070
277.771	1651
277.830	7903
277.890	6151
277.950	2671
278.009	12617
278.069	4891
278.128	4076
278.188	6257
278.248	2017
278.307	5414
278.367	3968
278.426	1743
278.486	76
278.545	138
278.605	270
278.664	-321
278.724	406
278.783	2373
278.843	7009
278.902	1953
278.962	183
279.021	1373
279.081	-120
279.140	397
279.199	630
279.259	528
279.318	231
279.378	1962
279.437	2028
279.496	8910
279.556	24451
279.615	20512
279.675	5264
279.734	3100
279.793	3563
279.853	7530
279.912	1954
279.971	1949
280.031	719
280.090	3341
280.149	6085
280.208	3729
280.268	16223
280.327	19664
280.386	3672
280.445	2948
280.505	2984
280.564	1012
280.623	139
280.682	1696
280.742	4023
280.801	617
280.860	242
280.919	140
280.978	283
281.037	-85
281.097	104
281.156	174
281.215	-369
281.274	534
281.333	4400
281.392	3343
281.451	745
281.510	80
281.569	-231
281.628	-255
281.688	-214
281.747	861
281.806	-151
281.865	60
281.924	-246
281.983	122
282.042	222
282.101	-114
282.160	551
282.219	-843
282.278	71
282.337	2053
282.396	1789
282.454	613
282.513	399
282.572	3992
282.631	1905
282.690	338
282.749	-322
282.808	-40
282.867	207
282.926	60
282.985	-695
283.043	416
283.102	-343
283.161	38
283.220	1410
283.279	4743
283.338	1847
283.396	326
283.455	764
283.514	69
283.573	938
283.631	1058
283.690	879
283.749	-310
283.808	1521
283.866	1981
283.925	-517
283.984	1381
284.043	-51
284.101	1461
284.160	-68
284.219	542
284.277	208
284.336	1313
284.395	5760
284.453	5127
284.512	1599
284.570	1580
284.629	786
284.688	1480
284.746	1098
284.805	1682
284.863	2383
284.922	2888
284.981	3189
285.039	5604
285.098	9350
285.156	22908
285.215	46192
285.273	45456
285.332	27129
285.390	13744
285.449	7850
285.507	5573
285.566	4130
285.624	1947
285.683	2349
285.741	1433
285.799	881
285.858	1130
285.916	744
285.975	933
286.033	-61
286.091	-88
286.150	-598
286.208	204
286.267	578
286.325	287
286.383	1719
286.442	1615
286.500	459
286.558	58
286.616	428
286.675	1370
286.733	735
286.791	504
286.850	683
286.908	257
286.966	2241
287.024	1039
287.083	-457
287.141	249
287.199	834
287.257	1162
287.315	510
287.374	462
287.432	1384
287.490	1803
287.548	847
287.606	713
287.664	186
287.723	1187
287.781	1447
287.839	987
287.897	918
287.955	1253
288.013	1140
288.071	3486
288.129	16104
288.187	54344
288.245	25496
288.303	7322
288.361	3061
288.419	1932
288.477	932
288.535	925
288.593	1006
288.651	88
288.709	-395
288.767	-441
288.825	-272
288.883	-63
288.941	-230
288.999	-242
289.057	217
289.115	-37
289.173	-588
289.231	-222
289.289	-86
289.346	144
289.404	176
289.462	744
289.520	557
289.578	114
289.636	68
289.694	586
289.751	-273
289.809	722
289.867	289
289.925	754
289.983	839
290.040	407
290.098	11
290.156	456
290.214	1204
290.271	294
290.329	205
290.387	405
290.444	-163
290.502	5
290.560	548
290.617	-58
290.675	-513
290.733	186
290.790	910
290.848	660
290.906	59
290.963	-157
291.021	188
291.078	-218
291.136	542
291.194	2285
291.251	6130
291.309	2226
291.366	214
291.424	723
291.481	90
291.539	-283
291.596	858
291.654	81
291.711	98
291.769	1306
291.826	1270
291.884	1039
291.941	105
291.999	-200
292.056	405
292.114	133
292.171	370
292.228	877
292.286	899
292.343	1147
292.401	556
292.458	995
292.515	225
292.573	1198
292.630	824
292.687	1725
292.745	203
292.802	1187
292.859	3998
292.917	5341
292.974	2792
293.031	942
293.089	242
293.146	1187
293.203	846
293.260	274
293.318	215
293.375	1798
293.432	625
293.489	1066
293.546	261
293.604	413
293.661	1846
293.718	9062
293.775	4341
293.832	1150
293.889	1792
293.947	1544
294.004	32
294.061	1297
294.118	1754
294.175	6214
294.232	9292
294.289	4504
294.346	1260
294.403	1783
294.460	543
294.517	312
294.574	103
294.631	422
294.688	1090
294.745	2205
294.802	9512
294.859	14296
294.916	5115
294.973	2055
295.030	1247
295.087	1136
295.144	1011
295.201	565
295.258	181
295.315	1033
295.372	2449
295.429	7468
295.486	2882
295.542	2224
295.599	4979
295.656	11501
295.713	6544
295.770	7844
295.827	3155
295.883	1875
295.940	977
295.997	1600
296.054	1769
296.111	376
296.167	1011
296.224	813
296.281	206
296.338	-75
296.394	139
296.451	402
296.508	3032
296.564	6770
296.621	3805
296.678	7571
296.734	12234
296.791	5375
296.848	2220
296.904	1849
296.961	4959
297.018	7915
297.074	6831
297.131	2549
297.187	652
297.244	1661
297.301	6357
297.357	14261
297.414	4992
297.470	2750
297.527	1321
297.583	1070
297.640	1591
297.696	654
297.753	722
297.809	311
297.866	236
297.922	253
297.979	-71
298.035	76
298.092	1128
298.148	4605
298.204	5187
298.261	1799
298.317	2515
298.374	9652
298.430	5298
298.486	2346
298.543	683
298.599	713
298.656	1088
298.712	2685
298.768	6901
298.824	6044
298.881	1028
298.937	997
298.993	223
299.050	1566
299.106	595
299.162	581
299.218	1327
299.275	1010
299.331	526
299.387	2140
299.443	9212
299.500	16779
299.556	11041
299.612	4341
299.668	3638
299.724	9441
299.780	12392
299.837	4873
299.893	3357
299.949	12354
300.005	17583
300.061	11942
300.117	19782
300.173	9880
300.229	3670
300.285	2836
300.341	4029
300.397	2708
300.453	1332
300.510	757
300.566	1344
300.622	2837
300.678	14743
300.734	23127
300.790	12904
300.845	11687
300.901	11234
300.957	17724
301.013	10174
301.069	4071
301.125	1921
301.181	1530
301.237	1305
301.293	259
301.349	837
301.405	1077
301.461	911
301.516	1624
301.572	838
301.628	1634
301.684	1469
301.740	1790
301.796	5367
301.851	3217
301.907	5429
301.963	5423
302.019	6968
302.074	22318
302.130	22826
302.186	10808
302.242	3990
302.297	2793
302.353	2222
302.409	4522
302.464	4957
302.520	3398
302.576	7740
302.631	10948
302.687	5697
302.743	2763
302.798	906
302.854	491
302.910	1146
302.965	1770
303.021	3446
303.076	2498
303.132	2576
303.187	4352
303.243	2216
303.299	1521
303.354	604
303.410	246
303.465	321
303.521	1017
303.576	1177
303.632	1038
303.687	1771
303.743	7416
303.798	6615
303.853	2751
303.909	578
303.964	991
304.020	1915
304.075	3402
304.130	2458
304.186	4784
304.241	5898
304.297	4352
304.352	2137
304.358	2093
304.407	1738
304.449	1009
304.463	764
304.518	962
304.539	831
304.573	613
304.629	815
304.630	839
304.684	1921
304.720	4412
304.739	5679
304.794	8395
304.811	7303
304.850	4695
304.902	1976
304.905	1800
304.960	746
304.992	935
305.015	1061
305.071	1028
305.083	1064
305.126	1190
305.173	416
305.181	294
305.236	-7
305.264	187
305.292	376
305.347	585
305.354	695
305.402	1380
305.445	1392
305.457	1416
305.512	1847
305.535	1921
305.567	1918
305.622	1018
305.626	1059
305.678	2100
305.716	6438
305.733	8123
305.788	10069
305.807	8316
305.843	5174
305.897	6530
305.898	6545
305.953	7388
305.988	4747
306.008	3221
306.063	1963
306.078	1851
306.118	1565
306.168	361
306.173	261
306.228	654
306.259	708
306.283	695
306.338	718
306.349	626
306.393	310
306.440	1356
306.448	1579
306.503	1536
306.530	1213
306.558	810
306.613	2809
306.620	2950
306.668	3940
306.711	6366
306.723	6934
306.778	5944
306.801	4696
306.833	3023
306.888	1517
306.892	1467
306.943	1207
306.982	840
306.997	606
307.052	778
307.072	712
307.107	835
307.162	1149
307.163	1152
307.217	1188
307.253	1482
307.272	1668
307.327	1771
307.343	1758
307.381	1606
307.434	1329
307.436	1346
307.491	2437
307.524	4446
307.546	5435
307.600	6185
307.614	5548
307.655	3425
307.704	1853
307.710	1748
307.765	1351
307.795	1971
307.819	2416
307.874	3937
307.885	3976
307.929	4205
307.975	4492
307.984	4582
308.038	6210
308.065	7101
308.093	10361
308.148	22060
308.156	25349
308.202	41292
308.246	50573
308.257	50946
308.312	29998
308.336	21961
308.366	15308
308.421	9443
308.426	9042
308.475	5783
308.517	3912
308.530	3357
308.585	2890
308.607	2673
308.639	2659
308.694	2478
308.697	2527
308.748	3676
308.787	5149
308.803	5422
308.857	4479
308.877	4027
308.912	3485
308.967	3578
308.967	3595
309.021	4672
309.058	5844
309.076	7181
309.130	12345
309.148	15008
309.185	26795
309.238	49903
309.239	50008
309.293	56208
309.328	50795
309.348	45286
309.402	23459
309.418	18439
309.457	12186
309.508	7230
309.511	6985
309.566	5257
309.598	5130
309.620	4941
309.674	4889
309.688	4996
309.729	5207
309.778	4811
309.783	4754
309.837	4105
309.868	3818
309.892	4006
309.946	4851
309.959	5482
310.001	7060
310.049	8066
310.055	7920
310.109	5155
310.139	3411
310.163	2422
310.218	1463
310.229	1270
310.272	1028
310.319	1050
310.326	1080
310.381	1098
310.409	1306
310.435	1200
310.489	934
310.499	871
310.543	740
310.589	737
310.598	819
310.652	1160
310.679	1435
310.706	1280
310.760	900
310.769	818
310.814	647
310.859	491
310.868	514
310.923	761
310.948	924
310.977	1122
311.031	1287
311.038	1335
311.085	967
311.128	483
311.139	521
311.193	864
311.218	985
311.247	1137
311.301	1313
311.308	1354
311.356	1227
311.398	1076
311.410	1081
311.464	1009
311.488	1028
311.518	926
311.572	690
311.578	671
311.626	1009
311.668	1278
311.680	1277
311.734	1243
311.758	1232
311.788	1037
311.842	765
311.847	736
311.896	1484
311.937	2173
311.950	1988
312.004	1174
312.027	826
312.058	725
312.112	561
312.117	554
312.165	800
312.207	1027
312.297	1110
312.386	1569
312.476	990
312.566	2026
312.656	1099
312.745	745
312.835	1168
312.925	1239
313.015	993
313.104	1107
313.194	1055
313.284	1003
313.374	771
313.463	1179
313.553	1148
313.643	1610
313.732	927
313.822	948
313.912	1946
314.001	1803
314.091	2576
314.180	1684
314.270	1413
314.360	1950
314.449	2101
314.539	908
314.628	1590
314.718	495
314.808	970
314.897	1718
314.987	2146
315.076	1833
315.166	2132
315.255	1428
315.345	1318
315.434	1700
315.524	1403
315.613	1397
315.703	1634
315.792	4238
315.881	9538
315.971	3130
316.060	2056
316.150	2050
316.239	2050
316.328	1338
316.418	1349
316.507	1227
316.597	2224
316.686	2042
316.775	1854
316.865	2508
316.954	937
317.043	1491
317.133	1224
317.222	1124
317.311	1795
317.400	472
317.490	2175
317.579	871
317.668	1224
317.757	2393
317.847	6315
317.936	15368
318.025	5436
318.114	3586
318.203	2166
318.293	2416
318.382	3337
318.471	2941
318.560	4816
318.649	8879
318.738	1985
318.828	1936
318.917	1431
319.006	1185
319.095	3374
319.184	9789
319.273	5162
319.362	2312
319.451	831
319.540	1500
319.629	1598
319.718	2602
319.807	1708
319.896	4146
319.985	13453
320.074	4623
320.163	1212
320.252	670
320.341	2119
320.430	2033
320.519	2096
320.608	688
320.697	1232
320.786	742
320.875	2504
320.964	2508
321.053	2880
321.142	2936
321.230	4025
321.319	4296
321.408	6256
321.497	3874
321.586	3566
321.675	2083
321.764	3568
321.852	3228
321.941	3981
322.030	2351
322.119	3014
322.207	5593
322.296	4704
322.385	4657
322.474	4700
322.562	7953
322.651	4867
322.740	3724
322.829	4346
322.917	3104
323.006	1910
323.095	2338
323.183	1573
323.272	2016
323.361	3382
323.449	6951
323.538	3034
323.626	5159
323.715	3152
323.804	1254
323.892	4406
323.981	2827
324.069	2606
324.158	3106
324.246	2571
324.335	2077
324.424	1541
324.512	1345
324.601	1424
324.689	3124
324.778	3371
324.866	2115
324.954	980
325.043	1048
325.131	1053
325.220	2630
325.308	2416
325.397	2498
325.485	1194
325.574	903
325.662	1213
325.750	468
325.839	1877
325.927	1005
326.015	674
326.104	688
326.192	1040
326.280	1189
326.369	665
326.457	1312
326.545	2115
326.634	433
326.722	792
326.810	705
326.898	1058
326.987	2157
327.075	1330
327.163	2062
327.251	876
327.340	2619
327.428	3544
327.516	2539
327.604	991
327.692	1288
327.781	718
327.869	2052
327.957	1040
328.045	1583
328.133	709
328.221	493
328.309	1129
328.397	1356
328.485	1526
328.574	2122
328.662	4094
328.750	1974
328.838	979
328.926	1075
329.014	1333
329.102	1794
329.190	2515
329.278	1601
329.366	1456
329.454	1153
329.542	1350
329.630	278
329.718	1383
329.806	981
329.893	1492
329.981	345
330.069	1749
330.157	1545
330.245	2418
330.333	1545
330.421	835
330.509	1329
330.597	3206
330.684	2312
330.772	1403
330.860	1903
330.948	2447
331.036	1045
331.123	430
331.211	1054
331.299	820
331.387	2826
331.475	2847
331.562	1676
331.650	1438
331.738	755
331.825	1494
331.913	1166
332.001	890
332.089	719
332.176	1149
332.264	2660
332.352	2350
332.439	1445
332.527	787
332.614	981
332.702	1694
332.790	1053
332.877	1847
332.965	2350
333.052	1143
333.140	1445
333.228	1719
333.315	712
333.403	929
333.490	2152
333.578	1192
333.665	2634
333.753	1872
333.840	1294
333.928	1279
334.015	3057
334.103	5025
334.190	12632
334.278	5303
334.365	5876
334.452	5849
334.540	2785
334.627	2677
334.715	3420
334.802	5266
334.889	14766
334.977	17918
335.064	8860
335.151	3573
335.239	2575
335.326	2738
335.413	8785
335.501	10134
335.588	2023
335.675	2324
335.762	4196
335.850	4723
335.937	5915
336.024	11153
336.111	24673
336.199	19368
336.286	7217
336.373	3737
336.460	2092
336.547	2401
336.635	2347
336.722	1221
336.809	1325
336.896	1868
336.983	4868
337.070	10793
337.157	13819
337.245	7354
337.332	3996
337.419	1029
337.506	1525
337.593	1869
337.680	4374
337.767	10466
337.854	2581
337.941	2661
338.028	2794
338.115	691
338.202	2718
338.289	2458
338.376	4946
338.463	2570
338.550	6062
338.637	5183
338.724	1686
338.811	2687
338.898	1887
338.984	1330
339.071	1261
339.158	752
339.245	1375
339.332	1732
339.419	1929
339.506	1971
339.593	249
339.679	1461
339.766	796
339.853	1469
339.940	1564
340.027	1544
340.113	1665
340.200	1510
340.287	1313
340.374	774
340.460	754
340.547	57
340.634	1940
340.720	4013
340.807	1868
340.894	2066
340.980	1394
341.067	617
341.154	1877
341.240	1271
341.327	1921
341.414	2380
341.500	1743
341.587	1196
341.674	1949
341.760	2080
341.847	2581
341.933	1344
342.020	890
342.106	1812
342.193	1175
342.279	1345
342.366	880
342.452	1684
342.539	1482
342.625	1547
342.712	3539
342.798	2012
342.885	1285
342.971	1089
343.058	561
343.144	709
343.230	1602
343.317	1351
343.403	870
343.490	1391
343.576	147
343.662	785
343.749	551
343.835	1365
343.921	1880
344.008	9265
344.094	18087
344.180	3857
344.267	1836
344.353	5517
344.439	4445
344.525	2147
344.612	2569
344.698	2096
344.784	782
344.870	1246
344.957	979
345.043	2174
345.129	627
345.215	2176
345.301	1527
345.387	467
345.474	768
345.560	607
345.646	828
345.732	1758
345.818	781
345.904	1222
345.990	1326
346.076	1485
346.162	905
346.249	1308
346.335	782
346.421	2639
346.507	2734
346.593	7509
346.679	575
346.765	2425
346.851	761
346.937	130
347.023	1961
347.108	995
347.194	1453
347.280	1356
347.366	902
347.452	5434
347.538	10479
347.624	7910
347.710	5802
347.796	1668
347.882	980
347.967	1810
348.053	1283
348.139	878
348.225	987
348.311	558
348.397	1178
348.482	1709
348.568	1788
348.654	1573
348.740	4344
348.825	3647
348.911	2792
348.997	5922
349.083	8401
349.168	2021
349.254	1237
349.340	1291
349.425	1463
349.511	2064
349.597	1658
349.682	2721
349.768	4912
349.854	2464
349.939	1821
350.025	1024
350.110	1121
350.196	1281
350.282	1284
350.367	964
350.453	912
350.538	1479
350.624	781
350.709	1763
350.795	709
350.880	836
350.966	2228
351.051	1549
351.137	939
351.222	1288
351.308	2006
351.393	3971
351.479	1181
351.564	540
351.649	882
351.735	1280
351.820	1246
351.906	1336
351.991	1349
352.076	2948
352.162	4120
352.247	2029
352.332	1419
352.418	1633
352.503	1959
352.588	6115
352.673	4012
352.759	651
352.844	859
352.929	1334
353.014	701
353.100	1800
353.185	1465
353.270	862
353.355	2315
353.441	1636
353.526	639
353.611	1249
353.696	1130
353.781	2050
353.866	595
353.952	1850
354.037	1812
354.122	2658
354.207	1971
354.292	1479
354.377	922
354.462	1370
354.547	649
354.632	2078
354.717	1572
354.802	1256
354.887	1256
354.972	1023
355.057	869
355.142	965
355.227	1581
355.312	1329
355.397	1625
355.482	4092
355.567	1822
355.652	2505
355.737	2262
355.822	5906
355.907	4392
355.991	1697
356.076	591
356.161	1527
356.246	242
356.331	953
356.416	1918
356.501	11898
356.585	9126
356.670	395
356.755	3098
356.840	2277
356.924	7587
357.009	20811
357.094	7480
357.179	2408
357.263	1522
357.348	1827
357.433	1997
357.517	1492
357.602	1652
357.687	906
357.771	2553
357.856	4649
357.941	2691
358.025	7187
358.110	22335
358.195	9384
358.279	1845
358.364	1254
358.448	4987
358.533	10559
358.617	6828
358.702	7181
358.787	2572
358.871	1325
358.956	2483
359.040	1371
359.125	1137
359.209	719
359.294	2075
359.378	3774
359.462	1635
359.547	2033
359.631	1305
359.716	747
359.800	2195
359.885	2346
359.969	1184
360.053	2419
360.138	1066
360.222	847
360.306	1471
360.391	1788
360.475	3106
360.559	4580
360.644	3887
360.728	2091
360.812	6894
360.896	15253
360.981	5750
361.065	2454
361.149	1694
361.233	1867
361.318	1848
361.402	2312
361.486	1581
361.570	1302
361.654	2434
361.739	2343
361.823	10311
361.907	16238
361.991	3010
362.075	2587
362.159	2418
362.243	6700
362.327	11755
362.411	21871
362.495	7545
362.580	3347
362.664	3552
362.748	2746
362.832	5419
362.916	9118
363.000	33805
363.084	56311
363.168	29848
363.252	7658
363.336	3778
363.420	4176
363.503	11312
363.587	12106
363.671	3379
363.755	2560
363.839	3991
363.923	2280
364.007	3198
364.091	3530
364.175	7930
364.258	26725
364.342	39769
364.426	76030
364.510	37633
364.594	11821
364.677	7642
364.761	14430
364.845	10517
364.929	3364
365.013	2912
365.096	2461
365.180	2327
365.264	6518
365.347	17848
365.431	7194
365.515	1661
365.598	902
365.682	3251
365.766	1803
365.849	2992
365.933	1447
366.017	3454
366.100	1007
366.184	1261
366.267	2122
366.351	1300
366.435	1078
366.518	534
366.602	2037
366.685	1196
366.769	1882
366.852	2550
366.936	2718
367.019	2021
367.103	1096
367.186	3227
367.270	1715
367.353	1447
367.436	2524
367.520	1319
367.603	2296
367.687	976
367.770	1776
367.853	3115
367.937	5987
368.020	7858
368.104	1396
368.187	2929
368.270	2949
368.353	2330
368.437	2093
368.520	4664
368.603	2558
368.687	4831
368.770	7148
368.853	2647
368.936	2832
369.020	2941
369.103	2064
369.186	897
369.269	1555
369.352	2374
369.436	1903
369.519	2190
369.602	-135
369.685	2187
369.768	429
369.851	2028
369.934	1425
370.018	682
370.101	851
370.184	3412
370.267	1954
370.350	2809
370.433	2944
370.516	8552
370.599	11928
370.682	1973
370.765	5369
370.848	6529
370.931	9421
371.014	4595
371.097	818
371.180	2172
371.263	1814
371.346	417
371.429	1395
371.511	1798
371.594	1605
371.677	2281
371.760	4104
371.843	2137
371.926	10337
372.009	18707
372.091	8256
372.174	5274
372.257	11492
372.340	3450
372.423	3239
372.505	4537
372.588	2173
372.671	4363
372.754	9624
372.836	5264
372.919	5913
373.002	9425
373.085	2015
373.167	2331
373.250	4553
373.332	11050
373.415	15750
373.498	24824
373.580	10700
373.663	18260
373.746	19452
373.828	4183
373.911	3229
373.993	3143
374.076	10171
374.159	8564
374.241	4313
374.324	9121
374.406	6583
374.489	9446
374.571	23313
374.654	8689
374.736	6244
374.819	14429
374.901	20861
374.983	19448
375.066	5042
375.148	2753
375.231	9597
375.313	15473
375.395	5592
375.478	2892
375.560	2666
375.643	2663
375.725	5779
375.807	16843
375.890	14426
375.972	3621
376.054	3108
376.136	4490
376.219	3093
376.301	7257
376.383	13530
376.465	4966
376.548	3060
376.630	4734
376.712	13178
376.794	5696
376.877	1657
376.959	1100
377.041	1861
377.123	2579
377.205	2807
377.287	1005
377.369	1675
377.452	1165
377.534	1851
377.616	1031
377.698	773
377.780	1244
377.862	1939
377.944	1964
378.026	1578
378.108	2059
378.190	1764
378.272	2031
378.354	1449
378.436	1276
378.518	1486
378.600	3848
378.682	3553
378.764	5214
378.846	5281
378.928	2274
379.010	1391
379.091	2458
379.173	1058
379.255	462
379.337	1624
379.419	3704
379.501	9266
379.583	4463
379.664	1872
379.746	2501
379.828	7234
379.910	7512
379.991	7412
380.073	1175
380.155	2008
380.237	1520
380.318	1325
380.400	797
380.482	2319
380.564	2358
380.645	1729
380.727	2071
380.809	2789
380.890	1791
380.972	1086
381.053	1063
381.135	1744
381.217	2586
381.298	7194
381.380	2407
381.461	3676
381.543	12023
381.624	13299
381.706	3008
381.787	1933
381.869	2693
381.951	7356
382.032	20182
382.113	14154
382.195	1629
382.276	4279
382.358	4801
382.439	11224
382.521	13792
382.602	20051
382.684	8894
382.765	14063
382.846	11006
382.928	12933
383.009	6168
383.090	5333
383.172	17477
383.253	26692
383.334	11073
383.416	16276
383.497	8626
383.578	3390
383.659	5094
383.741	16554
383.822	41277
383.903	18701
383.984	9859
384.066	20459
384.147	10259
384.228	4573
384.309	3083
384.390	2132
384.471	2680
384.553	3061
384.634	2531
384.715	3031
384.796	2213
384.877	2249
384.958	6314
385.039	5396
385.120	2636
385.201	2969
385.282	2700
385.363	3523
385.444	1828
385.525	4096
385.606	9807
385.687	8209
385.768	3343
385.849	3284
385.930	11684
386.011	18266
386.092	4916
386.173	3413
386.254	2747
386.335	3392
386.416	3175
386.496	5039
386.577	7042
386.658	3116
386.739	2837
386.820	3845
386.901	2467
386.981	4147
387.062	3410
387.143	3175
387.224	8245
387.304	7752
387.385	5248
387.466	3443
387.547	4567
387.627	4573
387.708	6267
387.789	13589
387.869	13960
387.950	6125
388.031	2817
388.111	1058
388.192	4746
388.273	5644
388.353	3284
388.434	3755
388.514	4516
388.595	13007
388.676	13537
388.756	7312
388.837	7519
388.917	4270
388.998	1334
389.078	2418
389.159	2321
389.239	930
389.320	3903
389.400	1141
389.480	4438
389.561	7634
389.641	4741
389.722	2682
389.802	2066
389.883	4802
389.963	9619
390.043	5417
390.124	1694
390.204	4081
390.284	7076
390.365	4149
390.445	7304
390.525	9506
390.605	7520
390.686	3979
390.766	4144
390.846	3201
390.927	1859
391.007	1182
391.087	2377
391.167	1626
391.247	1454
391.328	2949
391.408	4468
391.488	4322
391.568	1190
391.648	2973
391.728	3051
391.808	4545
391.888	3180
391.969	6226
392.049	6399
392.129	5133
392.209	5245
392.289	10436
392.369	7145
392.449	6805
392.529	4490
392.609	6255
392.689	6312
392.769	11640
392.849	11246
392.929	12507
393.009	19420
393.089	18644
393.169	30126
393.248	80106
393.328	201351
393.408	198413
393.488	75057
393.568	26475
393.648	13999
393.728	9621
393.807	6168
393.887	7237
393.967	5577
394.047	4797
394.127	4812
394.206	7384
394.286	20880
394.366	74278
394.446	70599
394.525	16420
394.605	5719
394.685	6073
394.764	9316
394.844	14680
394.924	11905
395.003	4764
395.083	2535
395.163	3957
395.242	2997
395.322	3370
395.402	1238
395.481	4492
395.561	6107
395.640	18734
395.720	23062
395.799	19771
395.879	11833
395.958	8255
396.038	28669
396.117	94200
396.197	94233
396.276	28300
396.356	10489
396.435	8668
396.515	9468
396.594	11229
396.673	24776
396.753	79752
396.832	183333
396.912	127284
396.991	35387
397.070	15131
397.150	8129
397.229	8773
397.308	15733
397.388	26942
397.467	12272
397.546	4416
397.625	2235
397.705	4717
397.784	2760
397.863	2681
397.942	2724
398.022	2349
398.101	5601
398.180	12729
398.259	6192
398.338	3378
398.417	1894
398.497	1724
398.576	2842
398.655	1262
398.734	3465
398.813	2378
398.892	5651
398.971	13968
399.050	6558
399.129	1927
399.208	2701
399.287	2555
399.366	1815
399.445	1435
399.524	1988
399.603	866
399.682	1951
399.761	4771
399.840	14790
399.919	10775
399.998	2561
400.077	659
400.156	893
400.235	4672
400.313	1498
400.392	1082
400.471	4289
400.550	5632
400.629	1007
400.708	2433
400.786	1244
400.865	3548
400.944	3191
401.023	3535
401.102	1624
401.180	2018
401.259	1105
401.338	1989
401.416	1854
401.495	995
401.574	3254
401.652	1548
401.731	1448
401.810	1181
401.888	1236
401.967	1223
402.046	1327
402.124	2061
402.203	555
402.281	1526
402.360	1839
402.438	4330
402.517	1280
402.596	1529
402.674	674
402.753	1515
402.831	1662
402.910	2669
402.988	2658
403.066	7105
403.145	5640
403.223	3898
403.302	6191
403.380	5946
403.459	5037
403.537	2227
403.615	2068
403.694	647
403.772	1946
403.850	1523
403.929	1808
404.007	665
404.085	3040
404.164	1551
404.242	1616
404.320	5344
404.398	11866
404.477	11409
404.555	18597
404.633	14683
404.711	9251
404.789	6231
404.868	2151
404.946	1022
405.024	1694
405.102	1166
405.180	777
405.258	900
405.336	2060
405.415	670
405.493	2757
405.571	2315
405.649	1911
405.727	309
405.805	2389
405.883	1097
405.961	2711
406.039	1034
406.117	221
406.195	1899
406.273	3641
406.351	13121
406.429	8596
406.507	1862
406.585	780
406.663	1763
406.740	2131
406.818	691
406.896	719
406.974	2104
407.052	1384
407.130	8345
407.208	9991
407.285	3401
407.363	839
407.441	1228
407.519	1084
407.596	2010
407.674	5822
407.752	18955
407.830	14566
407.907	3308
407.985	427
408.063	1354
408.141	1059
408.218	2425
408.296	1059
408.373	963
408.451	2791
408.529	1963
408.606	1304
408.684	2039
408.762	1651
408.839	1124
408.917	1493
408.994	1953
409.072	1218
409.149	2061
409.227	4115
409.304	5723
409.382	5564
409.459	6079
409.537	8666
409.614	6856
409.692	5114
409.769	5058
409.846	8669
409.924	10628
410.001	4509
410.079	4108
410.156	4468
410.233	3478
410.311	2007
410.388	1524
410.465	2438
410.543	1748
410.620	2884
410.697	2030
410.775	2120
410.852	574
410.929	3338
411.006	3075
411.083	1953
411.161	1748
411.238	2695
411.315	1986
411.392	1369
411.469	2744
411.547	1687
411.624	108
411.701	1583
411.778	1643
411.855	1138
411.932	1583
412.009	319
412.086	2338
412.163	1838
412.240	1281
412.317	2316
412.394	1370
412.471	1384
412.548	618
412.625	1652
412.702	1703
412.779	1695
412.856	1492
412.933	656
413.010	1519
413.087	1739
413.164	2105
413.241	4299
413.318	789
413.395	1779
413.471	1520
413.548	1058
413.625	1782
413.702	756
413.779	1554
413.855	681
413.932	74
414.009	-692
414.086	1214
414.162	903
414.239	1282
414.316	3476
414.393	6927
414.469	1839
414.546	936
414.623	725
414.699	1034
414.776	-105
414.853	187
414.929	852
415.006	1000
415.082	496
415.159	1237
415.236	1569
415.312	1443
415.389	1014
415.465	1320
415.542	709
415.618	208
415.695	1780
415.771	323
415.848	1319
415.924	1218
416.000	982
416.077	1846
416.153	157
416.230	426
416.306	694
416.383	453
416.459	2003
416.535	898
416.612	678
416.688	397
416.764	813
416.841	287
416.917	259
416.993	833
417.069	1171
417.146	739
417.222	1330
417.298	850
417.374	336
417.451	1144
417.527	1445
417.603	742
417.679	1803
417.755	833
417.831	655
417.908	1168
417.984	720
418.060	498
418.136	1651
418.212	1220
418.288	1349
418.364	1116
418.440	817
418.516	1747
418.592	730
418.668	1840
418.744	2236
418.820	1874
418.896	1429
418.972	223
419.048	1215
419.124	2358
419.200	321
419.276	1306
419.352	595
419.428	1456
419.504	1243
419.579	1433
419.655	627
419.731	465
419.807	2419
419.883	2398
419.959	2113
420.034	1207
420.110	2127
420.186	4128
420.262	4276
420.337	1839
420.413	619
420.489	1960
420.565	2869
420.640	1257
420.716	3127
420.792	-135
420.867	2538
420.943	1619
421.019	2951
421.094	1855
421.170	2367
421.245	2896
421.321	3239
421.397	2858
421.472	7504
421.548	14495
421.623	10012
421.699	4820
421.774	4981
421.850	5749
421.925	7425
422.001	8092
422.076	9633
422.152	11370
422.227	15128
422.302	22862
422.378	33055
422.453	52910
422.529	95023
422.604	135230
422.679	127680
422.755	129471
422.830	95378
422.905	55097
422.981	34932
423.056	24461
423.131	18372
423.207	13782
423.282	10382
423.357	9560
423.432	7206
423.508	8001
423.583	6365
423.658	5727
423.733	4742
423.808	4643
423.883	4250
423.959	4895
424.034	5167
424.109	5506
424.184	2895
424.259	3019
424.334	3040
424.409	2226
424.484	1486
424.559	2175
424.634	1775
424.709	1709
424.784	2047
424.859	1258
424.934	1853
425.009	3826
425.084	4720
425.159	2473
425.234	2611
425.309	1749
425.384	2835
425.459	1852
425.534	2023
425.609	1527
425.683	1208
425.758	1958
425.833	1616
425.908	2020
425.983	2248
426.058	4971
426.132	2741
426.207	1317
426.282	2063
426.357	755
426.431	1506
426.506	2049
426.581	1424
426.655	1567
426.730	564
426.805	1534
426.879	2279
426.954	1293
427.029	1962
427.103	6029
427.178	11804
427.253	5004
427.327	1210
427.402	1427
427.476	2593
427.551	1370
427.625	1408
427.700	517
427.774	645
427.849	755
427.923	1782
427.998	1450
428.072	1103
428.147	3918
428.221	15467
428.296	45439
428.370	22643
428.444	4024
428.519	2706
428.593	2953
428.667	3542
428.742	3478
428.816	7913
428.890	30030
428.965	41877
429.039	11257
429.113	4741
429.188	2052
429.262	1385
429.336	2054
429.410	3221
429.485	2409
429.559	3315
429.633	2259
429.707	1980
429.781	5056
429.855	29265
429.930	38576
430.004	13487
430.078	14761
430.152	22491
430.226	59120
430.300	55212
430.374	10776
430.448	4250
430.522	5688
430.596	11579
430.670	13136
430.744	38645
430.818	43025
430.892	7996
430.966	2081
431.040	1503
431.114	562
431.188	663
431.262	470
431.336	379
431.410	3003
431.484	2966
431.557	3018
431.631	637
431.705	2386
431.779	11747
431.853	42865
431.927	27117
432.000	4035
432.074	1714
432.148	1284
432.222	967
432.295	400
432.369	817
432.443	1364
432.516	5262
432.590	11912
432.664	3514
432.737	270
432.811	-220
432.885	-113
432.958	965
433.032	98
433.106	-138
433.179	491
433.253	704
433.326	174
433.400	203
433.473	688
433.547	-615
433.620	836
433.694	1103
433.767	1047
433.841	-228
433.914	932
433.988	253
434.061	1061
434.134	412
434.208	105
434.281	242
434.355	864
434.428	976
434.501	883
434.575	365
434.648	434
434.721	413
434.795	1130
434.868	554
434.941	610
435.014	-136
435.088	344
435.161	539
435.234	1189
435.307	929
435.381	1216
435.454	2808
435.527	4415
435.600	4790
435.673	3431
435.746	1978
435.819	2040
435.892	1433
435.966	1290
436.039	1311
436.112	1367
436.185	647
436.258	988
436.331	-380
436.404	627
436.477	-38
436.550	629
436.623	626
436.696	-200
436.769	407
436.842	603
436.915	385
436.987	885
437.060	541
437.133	644
437.206	50
437.279	407
437.352	1035
437.425	126
437.498	454
437.570	1012
437.643	1157
437.716	170
437.789	463
437.861	1073
437.934	825
438.007	600
438.080	392
438.152	1277
438.225	739
438.298	7106
438.370	18822
438.443	7121
438.516	1763
438.588	254
438.661	552
438.734	1037
438.806	-299
438.879	666
438.951	89
439.024	440
439.096	-81
439.169	-17
439.241	473
439.314	484
439.386	633
439.459	328
439.531	-155
439.604	-171
439.676	823
439.749	566
439.821	205
439.893	214
439.966	35
440.038	346
440.110	459
440.183	170
440.255	-411
440.327	784
440.400	2897
440.472	10700
440.544	6926
440.617	937
440.689	1883
440.761	1554
440.833	1369
440.905	831
440.978	212
441.050	593
441.122	1165
441.194	20
441.266	-21
441.338	237
441.411	1378
441.483	3933
441.555	4557
441.627	1917
441.699	1355
441.771	1385
441.843	677
441.915	1047
441.987	1035
442.059	895
442.131	1856
442.203	2146
442.275	1799
442.347	3516
442.419	7478
442.491	35118
442.563	73512
442.635	31934
442.706	8306
442.778	5208
442.850	2158
442.922	1518
442.994	1838
443.066	2274
443.137	2580
443.209	2383
443.281	5648
443.353	11436
443.425	40066
443.496	110876
443.568	113566
443.640	48896
443.711	12217
443.783	5629
443.855	3496
443.926	1934
443.998	2314
444.070	2277
444.141	2288
444.213	770
444.285	1222
444.356	1342
444.428	1598
444.499	832
444.571	1336
444.642	634
444.714	826
444.785	1511
444.857	2250
444.928	3152
445.000	3361
445.071	3556
445.143	4496
445.214	5816
445.285	9707
445.357	24475
445.428	75668
445.500	136987
445.571	105565
445.642	72151
445.714	26704
445.785	11464
445.856	4507
445.928	3062
445.999	1898
446.070	1284
446.141	2416
446.213	2226
446.284	904
446.355	1895
446.426	1016
446.497	1132
446.569	770
446.640	1738
446.711	896
446.782	485
446.853	983
446.924	945
446.995	1336
447.066	1106
447.138	774
447.209	1581
447.280	-179
447.351	441
447.422	178
447.493	-142
447.564	514
447.635	309
447.706	-214
447.777	106
447.847	270
447.918	-613
447.989	276
448.060	920
448.131	1765
448.202	824
448.273	704
448.344	487
448.414	935
448.485	817
448.556	309
448.627	-151
448.698	1029
448.768	55
448.839	-149
448.910	327
448.981	1025
449.051	227
449.122	-465
449.193	685
449.263	504
449.334	136
449.405	841
449.475	1249
449.546	982
449.616	1514
449.687	1456
449.758	232
449.828	540
449.899	-146
449.969	461
450.040	289
450.110	664
450.181	574
450.251	-8
450.322	662
450.392	476
450.463	-68
450.533	790
450.604	-192
450.674	280
450.744	1068
450.815	855
450.885	1001
450.955	928
451.026	541
451.096	118
451.166	725
451.237	1431
451.307	3250
451.377	1578
451.447	332
451.518	713
451.588	161
451.658	590
451.728	953
451.799	2885
451.869	3750
451.939	764
452.009	92
452.079	302
452.149	1154
452.219	1188
452.289	2912
452.360	2679
452.430	899
452.500	698
452.570	1682
452.640	5273
452.710	13015
452.780	14806
452.850	8488
452.920	4303
452.990	2385
453.060	1809
453.129	1341
453.199	1280
453.269	4866
453.339	9138
453.409	13454
453.479	12625
453.549	17799
453.619	17974
453.688	7798
453.758	1878
453.828	600
453.898	679
453.968	89
454.037	388
454.087	1052
454.107	1314
454.168	274
454.177	112
454.247	380
454.249	400
454.316	603
454.330	548
454.386	272
454.411	771
454.456	1424
454.492	1831
454.525	2183
454.574	1523
454.595	1246
454.655	612
454.665	500
454.734	1185
454.736	1224
454.804	1766
454.817	2192
454.873	3408
454.898	3513
454.943	3591
454.979	2289
455.013	1215
455.060	980
455.082	936
455.141	1716
455.152	1845
455.221	3174
455.222	3263
455.291	5906
455.303	5961
455.360	5764
455.384	7246
455.430	8851
455.465	6911
455.499	5289
455.546	4412
455.569	3856
455.627	3505
455.638	3521
455.707	872
455.708	887
455.777	427
455.789	567
455.846	1357
455.869	1450
455.916	1476
455.950	1223
455.985	1021
456.031	845
456.054	729
456.112	1183
456.124	1261
456.193	1011
456.193	996
456.262	1590
456.274	1689
456.332	2125
456.355	1889
456.401	1174
456.436	1331
456.470	1571
456.516	1507
456.540	1424
456.597	1254
456.609	1225
456.678	1409
456.678	1397
456.747	1482
456.759	1458
456.817	1367
456.840	1238
456.886	858
456.920	1294
456.955	1809
457.001	1657
457.024	1507
457.082	1662
457.093	1733
457.162	2412
457.163	2429
457.232	2274
457.243	2254
457.301	2226
457.324	2062
457.370	1942
457.405	2207
457.439	2306
457.485	2262
457.508	2422
457.566	3094
457.577	3246
457.646	5037
457.647	5070
457.715	10630
457.727	12057
457.784	21597
457.808	27516
457.853	33483
457.889	38661
457.922	37489
457.969	26032
457.991	27187
458.050	32802
458.060	34150
458.129	57207
458.130	57933
458.198	52264
458.211	47358
458.267	28787
458.292	19924
458.336	13648
458.372	12622
458.405	17462
458.453	27277
458.474	34473
458.533	59715
458.543	61315
458.611	87748
458.614	88346
458.680	53368
458.694	41867
458.749	21101
458.775	14690
458.818	8398
458.855	6877
458.887	6100
458.936	5451
458.955	5097
459.016	3707
459.024	3627
459.093	3659
459.097	3667
459.162	3262
459.177	3273
459.230	3753
459.257	3979
459.299	3859
459.338	3761
459.368	3878
459.418	3896
459.437	3634
459.499	3041
459.505	3050
459.574	2623
459.579	2656
459.643	3155
459.659	3191
459.711	3018
459.740	2831
459.780	2668
459.820	2885
459.849	3159
459.900	3553
459.917	3582
459.981	3397
459.986	3345
460.054	2866
460.061	2856
460.123	3545
460.141	3755
460.191	4052
460.222	4158
460.260	4105
460.302	4212
460.328	4345
460.382	4090
460.397	4180
460.462	5086
460.465	5284
460.534	10175
460.543	10801
460.602	28662
460.623	35550
460.671	54815
460.703	71837
460.739	62552
460.783	45873
460.808	38445
460.864	10985
460.876	8950
460.944	4742
460.945	4698
461.013	4071
461.024	4030
461.081	3739
461.104	3711
461.150	3526
461.184	3350
461.218	3543
461.264	3820
461.286	3812
461.345	3637
461.355	3639
461.423	3973
461.425	3972
461.491	3482
461.505	3543
461.559	5135
461.585	5574
461.628	7655
461.665	9786
461.696	10220
461.745	11810
461.764	10611
461.825	4750
461.832	4654
461.901	4123
461.905	4087
461.969	3379
461.985	3371
462.037	3911
462.065	4131
462.105	4192
462.145	4170
462.173	4972
462.225	6473
462.241	6928
462.305	9344
462.310	9143
462.378	5433
462.385	4989
462.446	4075
462.465	3837
462.514	3847
462.545	3764
462.582	3600
462.625	3529
462.650	3473
462.705	3358
462.718	3471
462.785	4166
462.786	4177
462.854	4792
462.865	4837
462.922	5332
462.945	5675
462.990	4866
463.025	4016
463.058	3856
463.104	3800
463.126	3699
463.184	3330
463.194	3393
463.262	3681
463.264	3702
463.330	4478
463.344	4586
463.398	4728
463.424	4728
463.466	4420
463.504	4446
463.533	4438
463.583	4015
463.601	3984
463.663	4115
463.669	4186
463.737	4850
463.743	4903
463.805	7432
463.823	8210
463.873	11095
463.903	12884
463.940	12726
463.982	12632
464.008	10442
464.062	5203
464.076	5158
464.142	5029
464.144	5009
464.211	4179
464.221	4087
464.279	3997
464.301	3812
464.347	4426
464.381	5099
464.414	5218
464.461	5284
464.482	5143
464.540	4787
464.550	4733
464.617	4297
464.620	4278
464.685	5632
464.699	5883
464.753	6269
464.779	6468
464.820	7577
464.859	8732
464.888	7999
464.938	6644
464.956	6914
465.018	7689
465.023	7632
465.091	6665
465.098	6577
465.158	6671
465.177	6660
465.226	6293
465.257	6093
465.293	6275
465.336	6404
465.361	6730
465.416	7513
465.428	7817
465.495	9240
465.496	9279
465.563	12990
465.575	13626
465.631	16312
465.654	17485
465.698	11997
465.734	7177
465.765	6629
465.813	5755
465.833	5734
465.893	5893
465.900	5897
465.968	5853
465.972	5834
466.035	6013
466.052	6057
466.102	5927
466.131	5845
466.170	5877
466.210	5887
466.237	6016
466.290	6252
466.304	6253
466.369	6169
466.372	6187
466.439	6420
466.449	6438
466.506	6414
466.528	6392
466.573	8945
466.607	10844
466.641	13745
466.687	17750
466.708	19304
466.766	23585
466.775	21867
466.842	8539
466.845	7893
466.909	7687
466.925	7633
466.977	7137
467.004	6898
467.044	7270
467.083	7597
467.111	8451
467.163	10018
467.178	10228
467.242	11025
467.245	11003
467.312	10131
467.321	10000
467.379	9729
467.400	9603
467.446	9702
467.480	9745
467.559	9392
467.638	8407
467.717	8806
467.796	9349
467.875	9585
467.955	9785
468.034	13814
468.113	25273
468.192	32226
468.271	14721
468.350	17552
468.429	21506
468.508	21806
468.588	14960
468.667	11863
468.746	10531
468.825	10464
468.904	9395
468.983	9236
469.062	12203
469.141	13941
469.220	8622
469.299	8992
469.378	7821
469.456	10825
469.535	9446
469.614	9180
469.693	8886
469.772	10805
469.851	13495
469.930	9481
470.009	7922
470.088	8663
470.166	8541
470.245	10641
470.324	9031
470.403	9137
470.482	8626
470.560	8760
470.639	7657
470.718	9429
470.797	8438
470.875	9412
470.954	10493
471.033	10175
471.111	6925
471.190	7855
471.269	7265
471.347	6867
471.426	7426
471.505	8551
471.583	9372
471.662	8701
471.740	7606
471.819	8786
471.898	7707
471.976	7593
472.055	7633
472.133	8802
472.212	11506
472.290	9673
472.369	7635
472.447	7891
472.526	6797
472.604	7803
472.683	6985
472.761	7721
472.839	7472
472.918	8652
472.996	7455
473.075	9228
473.153	7900
473.231	7358
473.310	8002
473.388	7959
473.466	7140
473.545	8812
473.623	9991
473.701	9095
473.780	8128
473.858	6951
473.936	8880
474.014	8202
474.093	9170
474.171	12457
474.249	13355
474.327	9644
474.405	6969
474.484	7462
474.562	7196
474.640	7217
474.718	6311
474.796	7310
474.874	6681
474.952	6407
475.030	6089
475.108	5789
475.187	6765
475.265	7038
475.343	8003
475.421	8371
475.499	6299
475.577	8000
475.655	8412
475.733	12878
475.811	20278
475.889	17549
475.966	12716
476.044	7428
476.122	7363
476.200	7947
476.278	7117
476.356	6856
476.434	6630
476.512	7906
476.590	7685
476.667	8198
476.745	6912
476.823	8160
476.901	6773
476.979	7219
477.056	6589
477.134	7318
477.212	7642
477.290	7063
477.367	6334
477.445	7057
477.523	6301
477.601	5897
477.678	6219
477.756	8074
477.834	7513
477.911	5835
477.989	6810
478.066	6277
478.144	6954
478.222	7197
478.299	8530
478.377	8044
478.454	7163
478.532	5841
478.609	6216
478.687	7923
478.764	5994
478.842	6239
478.919	5916
478.997	6892
479.074	5047
479.152	7467
479.229	8865
479.307	5795
479.384	6031
479.461	5881
479.539	5561
479.616	6630
479.694	5589
479.771	6184
479.848	6426
479.926	6799
480.003	8868
480.080	6126
480.157	5547
480.235	5809
480.312	6309
480.389	6324
480.467	8032
480.544	10327
480.621	7612
480.698	7466
480.775	6725
480.853	7979
480.930	5728
481.007	7118
481.084	9355
481.161	14540
481.238	9947
481.315	6417
481.392	5819
481.470	6065
481.547	6083
481.624	5638
481.701	5811
481.778	6924
481.855	7145
481.932	8995
482.009	12666
482.086	9667
482.163	8034
482.240	9198
482.317	10903
482.393	9600
482.470	7165
482.547	8015
482.624	7139
482.701	7307
482.778	6437
482.855	6036
482.932	6290
483.009	6358
483.085	9198
483.162	12190
483.239	11477
483.316	7631
483.393	9063
483.469	8241
483.546	7702
483.623	7796
483.699	6521
483.776	5798
483.853	7210
483.930	9048
484.006	17921
484.083	28470
484.160	19322
484.236	29348
484.313	21074
484.389	16884
484.466	16813
484.543	16627
484.619	19140
484.696	21231
484.772	17515
484.849	16162
484.925	13442
485.002	14605
485.078	14146
485.155	13078
485.231	13752
485.308	13017
485.384	13421
485.461	14810
485.537	21145
485.614	22707
485.690	12994
485.766	12150
485.843	12529
485.919	14751
485.995	14327
486.072	11962
486.148	10374
486.224	11735
486.301	11533
486.377	12344
486.453	11819
486.530	13946
486.606	18144
486.682	18194
486.758	20115
486.835	21942
486.911	18250
486.987	26271
487.063	24126
487.139	27248
487.215	25435
487.292	20136
487.368	18065
487.444	20445
487.520	27065
487.596	36669
487.672	75628
487.748	219197
487.824	323138
487.900	100968
487.976	32524
488.052	21274
488.128	18995
488.204	15195
488.280	14553
488.356	16483
488.432	23762
488.508	31020
488.584	13827
488.660	11628
488.736	12071
488.812	11838
488.888	13187
488.964	16068
489.039	22692
489.115	30596
489.191	20730
489.267	12146
489.343	10434
489.418	10710
489.494	9896
489.570	8474
489.646	11292
489.722	11214
489.797	9782
489.873	14279
489.949	23714
490.024	19296
490.100	9514
490.176	10169
490.251	11003
490.327	12436
490.403	8676
490.478	9743
490.554	7968
490.629	9773
490.705	7833
490.781	9559
490.856	8123
490.932	9496
491.007	8865
491.083	9038
491.158	8433
491.234	11832
491.309	18137
491.385	17278
491.460	7831
491.536	8929
491.611	8497
491.686	9188
491.762	9300
491.837	15289
491.913	22306
491.988	28030
492.063	32206
492.139	13802
492.214	9573
492.289	7399
492.365	6363
492.440	7957
492.515	7217
492.590	8203
492.666	6839
492.741	8781
492.816	11292
492.891	7961
492.967	8574
493.042	7019
493.117	5676
493.192	8216
493.267	11790
493.342	31807
493.418	39402
493.493	9090
493.568	6329
493.643	7140
493.718	8638
493.793	9882
493.868	9868
493.943	7477
494.018	6522
494.093	6774
494.168	6591
494.243	5862
494.318	5879
494.393	6570
494.468	5766
494.543	5296
494.618	6162
494.693	5335
494.768	5474
494.842	6078
494.917	5856
494.992	6331
495.067	5047
495.142	5320
495.217	6527
495.292	5814
495.366	6345
495.441	6709
495.516	8775
495.591	10683
495.665	26311
495.740	54140
495.815	20125
495.890	7586
495.964	5250
496.039	8909
496.114	8925
496.188	13661
496.263	10649
496.338	6173
496.412	7157
496.487	8568
496.561	7434
496.636	7841
496.710	6970
496.785	8442
496.860	8749
496.934	6043
497.009	6870
497.083	5114
497.158	6492
497.232	7132
497.307	8169
497.381	7209
497.455	7855
497.530	10081
497.604	7981
497.679	7216
497.753	11300
497.827	12491
497.902	9097
497.976	13608
498.050	37127
498.125	138749
498.199	120710
498.273	13850
498.348	8907
498.422	8036
498.496	8175
498.570	7633
498.645	7021
498.719	6339
498.793	8908
498.867	13568
498.941	18796
499.016	58099
499.090	147504
499.164	43318
499.238	8015
499.312	7235
499.386	7372
499.460	8512
499.534	8524
499.609	8858
499.683	12309
499.757	11938
499.831	26697
499.905	100491
499.979	81193
500.053	13928
500.127	13290
500.201	8306
500.275	7600
500.349	7340
500.422	8134
500.496	11057
500.570	19736
500.644	53553
500.718	97059
500.792	19882
500.866	8559
500.940	9587
501.013	8283
501.087	7751
501.161	12858
501.235	14214
501.309	34070
501.382	87702
501.456	67182
501.530	16652
501.603	27872
501.677	11271
501.751	5672
501.825	9095
501.898	14625
501.972	35188
502.046	20477
502.119	7877
502.193	16609
502.266	36597
502.340	17577
502.413	17388
502.487	31569
502.561	17682
502.634	8248
502.708	7082
502.781	5440
502.855	6643
502.928	4990
503.002	5738
503.075	5295
503.149	5874
503.222	5367
503.295	5643
503.369	7939
503.442	10309
503.516	27803
503.589	63674
503.662	39233
503.736	17652
503.809	35486
503.882	29832
503.956	49277
504.029	62565
504.102	119937
504.175	164707
504.249	59787
504.322	23589
504.395	14515
504.468	10451
504.542	8131
504.615	6758
504.688	6203
504.761	5532
504.834	8184
504.907	6488
504.980	7244
505.053	5822
505.127	3933
505.200	8521
505.273	6915
505.346	5589
505.419	4029
505.492	5339
505.565	3916
505.638	3597
505.711	4464
505.784	4018
505.857	4245
505.930	5024
506.003	3029
506.076	6114
506.149	5115
506.221	5775
506.294	7597
506.367	14237
506.440	46437
506.513	21127
506.586	6855
506.659	4318
506.731	3728
506.804	4183
506.877	5298
506.950	4722
507.022	4725
507.095	3626
507.168	6334
507.241	5306
507.313	2840
507.386	3254
507.459	5457
507.531	4090
507.604	3896
507.677	3699
507.749	1876
507.822	5702
507.894	8942
507.967	12014
508.040	6525
508.112	7398
508.185	5981
508.257	4597
508.330	8522
508.402	5450
508.475	5521
508.547	6476
508.620	6183
508.692	8198
508.765	5603
508.837	4633
508.909	5815
508.982	4572
509.054	5632
509.127	4902
509.199	4717
509.271	4694
509.344	4271
509.416	5520
509.488	4044
509.560	5194
509.633	4754
509.705	5832
509.777	5800
509.849	7270
509.922	4823
509.994	4727
510.066	5849
510.138	5044
510.210	12986
510.283	8627
510.355	8218
510.427	7714
510.499	6844
510.571	6147
510.643	6104
510.715	8935
510.787	6314
510.859	7622
510.931	7308
511.003	7737
511.076	7763
511.148	5067
511.219	6123
511.291	9308
511.363	10403
511.435	6936
511.507	5114
511.579	6533
511.651	6430
511.723	5433
511.795	5572
511.867	5748
511.939	6451
512.010	9378
512.082	8344
512.154	4627
512.226	5229
512.298	9287
512.369	9992
512.441	8900
512.513	7244
512.585	6653
512.656	7948
512.728	7123
512.800	6127
512.871	6337
512.943	5555
513.015	4607
513.086	7125
513.158	6132
513.230	4727
513.301	7239
513.373	8566
513.444	5596
513.516	5037
513.588	5828
513.659	7679
513.731	6458
513.802	4774
513.874	10401
513.945	12136
514.016	6391
514.088	5628
514.159	5285
514.231	8099
514.302	10031
514.374	8771
514.445	6759
514.516	13459
514.588	8838
514.659	7279
514.730	10561
514.802	8583
514.873	4556
514.944	8069
515.016	6601
515.087	6995
515.158	7688
515.229	11724
515.301	5615
515.372	6779
515.443	4838
515.514	5441
515.585	5191
515.656	6846
515.728	6693
515.799	4825
515.870	6039
515.941	6887
516.012	5088
516.083	8821
516.154	7157
516.225	8895
516.296	8750
516.367	7516
516.438	6511
516.509	8245
516.580	11094
516.651	26240
516.722	75413
516.793	32742
516.864	9982
516.935	10726
517.006	11796
517.077	14455
517.148	28606
517.219	83547
517.289	113376
517.360	51375
517.431	18713
517.502	6817
517.573	8301
517.643	7923
517.714	9838
517.785	8972
517.856	8485
517.926	11434
517.997	11984
518.068	11198
518.138	14600
518.209	18972
518.280	60180
518.350	193495
518.421	65774
518.492	17932
518.562	19516
518.633	25232
518.703	35494
518.774	84218
518.845	212359
518.915	183734
518.986	52486
519.056	24808
519.127	22666
519.197	26443
519.268	52953
519.338	32914
519.408	11436
519.479	11369
519.549	8460
519.620	8648
519.690	7018
519.760	7593
519.831	6934
519.901	6180
519.971	6618
520.042	6077
520.112	6239
520.182	8095
520.253	7830
520.323	5343
520.393	7139
520.463	10689
520.534	5794
520.604	12318
520.674	8346
520.744	7346
520.814	11745
520.885	11469
520.955	19423
521.025	58779
521.095	19282
521.165	7759
521.235	6333
521.305	4860
521.375	5236
521.445	5993
521.515	6095
521.585	9038
521.655	4901
521.725	6712
521.795	6669
521.865	3725
521.935	9690
522.005	6222
522.075	5423
522.145	6694
522.215	6601
522.285	8051
522.355	9847
522.424	16524
522.494	12411
522.564	8697
522.634	12265
522.704	28759
522.774	9044
522.843	6755
522.913	6901
522.983	7147
523.053	5503
523.122	6803
523.192	6794
523.262	15302
523.331	12539
523.401	6381
523.471	5318
523.540	5932
523.610	4390
523.680	5103
523.749	5927
523.819	7753
523.888	6679
523.958	4492
524.027	5516
524.097	5629
524.166	5717
524.236	4485
524.305	7065
524.375	4501
524.444	4354
524.514	7628
524.583	5854
524.653	5405
524.722	7807
524.791	5192
524.861	7852
524.930	4842
524.999	5418
525.069	7656
525.138	6635
525.207	7342
525.277	6805
525.346	7558
525.415	8350
525.484	7600
525.554	10389
525.623	12721
525.692	14903
525.761	14602
525.830	18300
525.900	22463
525.969	36411
526.038	69208
526.107	149211
526.176	405110
526.245	294323
526.314	89191
526.383	206547
526.452	265284
526.522	405844
526.591	338373
526.660	58007
526.729	34169
526.797	39591
526.867	66570
526.935	225502
527.004	624442
527.073	339933
527.142	43062
527.211	19833
527.280	14506
527.349	11847
527.418	8677
527.487	8979
527.555	6005
527.624	6490
527.693	4850
527.762	7521
527.831	5339
527.899	7019
527.968	5954
528.037	3819
528.106	6461
528.174	7979
528.243	7432
528.312	8600
528.380	9264
528.449	5235
528.518	6962
528.586	3787
528.655	6307
528.723	4691
528.792	3730
528.861	3777
528.929	3389
528.998	6113
529.066	6551
529.135	9137
529.203	7978
529.272	8820
529.340	12790
529.409	12189
529.477	8960
529.545	10824
529.614	13451
529.682	11939
529.751	13886
529.819	17319
529.887	16076
529.956	14309
530.024	14703
530.092	12655
530.161	13805
530.229	14631
530.297	14300
530.365	15270
530.434	14847
530.502	14155
530.570	13599
530.638	11204
530.707	12498
530.775	12691
530.843	11534
530.911	12387
530.979	13689
531.047	14776
531.115	13617
531.183	13055
531.252	12423
531.320	11664
531.388	11822
531.456	14365
531.524	12713
531.592	15539
531.660	17839
531.728	14194
531.796	13840
531.864	13655
531.932	14037
532.000	14453
532.067	15722
532.135	16523
532.203	17650
532.271	18176
532.339	20235
532.407	25031
532.475	19685
532.542	16930
532.610	17149
532.678	19258
532.746	38394
532.814	62753
532.881	25402
532.949	18428
533.017	16540
533.084	15555
533.152	14119
533.220	14713
533.287	14280
533.355	15590
533.423	15920
533.490	15601
533.558	16476
533.625	14840
533.693	15068
533.761	14788
533.828	14055
533.896	13831
533.963	18770
534.031	18441
534.098	22531
534.166	18531
534.233	16813
534.300	18572
534.368	17399
534.435	16738
534.503	16782
534.570	18489
534.637	19570
534.705	23383
534.772	26140
534.840	45981
534.907	186508
534.974	203693
535.041	30353
535.109	16726
535.176	14938
535.243	15154
535.310	13236
535.378	13043
535.445	13823
535.512	13258
535.579	13955
535.646	12491
535.714	13777
535.781	14301
535.848	14361
535.915	15917
535.982	14925
536.049	13968
536.116	13971
536.183	12395
536.250	11264
536.317	11923
536.384	12128
536.451	13783
536.518	14157
536.585	11682
536.652	15588
536.719	14337
536.786	11919
536.853	11565
536.920	13642
536.987	15444
537.053	15489
537.120	36922
537.187	29578
537.254	13096
537.321	11203
537.388	13028
537.454	11851
537.521	11357
537.588	10577
537.654	12062
537.721	11653
537.788	13146
537.855	11032
537.921	11901
537.988	11235
538.055	11814
538.121	10516
538.188	10854
538.254	11694
538.321	14145
538.388	12310
538.454	11657
538.521	11961
538.587	11604
538.654	11059
538.720	10887
538.787	11546
538.853	11184
538.920	12116
538.986	10236
539.053	9974
539.119	10639
539.185	10847
539.252	12289
539.318	12341
539.385	14270
539.451	11596
539.517	13268
539.583	12690
539.650	16675
539.716	26439
539.782	12837
539.849	9187
539.915	11201
539.981	10129
540.047	10716
540.114	11363
540.180	12542
540.246	9771
540.312	12985
540.378	15450
540.444	15208
540.510	16345
540.576	28795
540.643	14374
540.709	9753
540.775	10545
540.841	10187
540.907	12174
540.973	14213
541.039	12545
541.105	12935
541.171	11124
541.237	10819
541.303	12519
541.369	13746
541.435	12759
541.500	14025
541.566	9305
541.632	11083
541.698	10722
541.764	11524
541.830	9277
541.896	9497
541.961	10475
542.027	10071
542.093	11207
542.159	11516
542.224	10463
542.290	12495
542.356	12290
542.421	14286
542.487	11285
542.553	10647
542.618	10464
542.684	10028
542.750	10209
542.815	11296
542.881	13547
542.947	25740
543.012	19006
543.078	9952
543.143	9666
543.209	10507
543.274	9857
543.340	10807
543.405	16056
543.471	17488
543.536	11223
543.602	10117
543.667	8971
543.732	11830
543.798	10021
543.863	11653
543.928	9661
543.994	10847
544.059	10827
544.124	10641
544.190	10399
544.255	11766
544.320	11428
544.386	10397
544.451	12597
544.516	12683
544.581	12453
544.646	20607
544.712	24908
544.777	12561
544.842	12246
544.907	12007
544.972	12529
545.037	12573
545.102	13698
545.168	12395
545.233	13215
545.298	13014
545.363	12678
545.428	14118
545.493	18105
545.558	23684
545.623	15491
545.688	12569
545.753	13476
545.818	14332
545.883	14930
545.947	15673
546.012	16203
546.077	15808
546.142	17260
546.207	16804
546.272	19174
546.337	18623
546.401	19031
546.466	20533
546.531	20502
546.596	20686
546.661	22573
546.725	24128
546.790	23440
546.855	26859
546.919	28040
546.984	31008
547.049	32808
547.113	38102
547.178	41571
547.243	47099
547.307	53750
547.372	59799
547.436	60716
547.501	61504
547.565	65994
547.630	61627
547.695	59065
547.759	60241
547.823	59954
547.888	60897
547.952	63460
548.017	65069
548.081	69689
548.146	69192
548.210	68015
548.274	73000
548.339	70409
548.403	64894
548.468	60342
548.532	60120
548.596	61852
548.660	62149
548.725	69581
548.789	73410
548.853	72246
548.917	68952
548.982	68092
549.046	61445
549.110	54864
549.174	57117
549.238	65718
549.303	70336
549.367	74060
549.431	68825
549.495	65663
549.559	64828
549.623	77265
549.687	85465
549.751	83014
549.815	97921
549.879	100023
549.943	94541
550.007	99245
550.071	98167
550.135	89474
550.199	84522
550.263	82690
550.327	81143
550.391	84803
550.455	91753
550.519	95233
550.582	102181
550.646	115524
550.710	115738
550.774	113196
550.838	115479
550.901	117362
550.965	126068
551.029	130597
551.093	140326
551.156	153881
551.220	179768
551.284	192305
551.347	150037
551.411	135229
551.475	129962
551.538	125512
551.602	116993
551.666	111022
551.729	103069
551.793	102042
551.856	102185
551.920	98781
551.983	100248
552.047	97490
552.110	100265
552.174	101704
552.237	103843
552.301	95221
552.364	92492
552.428	90297
552.491	93664
552.554	94766
552.618	93119
552.681	94990
552.745	89844
552.808	95554
552.871	99907
552.934	98352
552.998	94578
553.061	93491
553.124	91373
553.187	90844
553.251	94103
553.314	95269
553.377	95592
553.440	104360
553.503	125258
553.567	134421
553.630	106045
553.693	104783
553.756	101564
553.819	99537
553.882	96903
553.945	98817
554.008	98256
554.071	100131
554.134	100834
554.197	95808
554.260	93935
554.323	96369
554.386	96938
554.449	100243
554.512	100825
554.575	96333
554.638	95348
554.701	94747
554.764	95490
554.827	91494
554.889	88359
554.952	83684
555.015	81679
555.078	81906
555.141	85203
555.203	81515
555.266	81900
555.329	81374
555.391	77921
555.454	77449
555.517	74547
555.580	71735
555.642	69386
555.705	68278
555.768	67720
555.830	66021
555.893	62684
555.955	61796
556.018	61227
556.080	61443
556.143	62377
556.206	61279
556.268	60126
556.330	60291
556.393	57087
556.455	56054
556.518	55817
556.580	55731
556.643	50710
556.705	49740
556.767	48264
556.830	49228
556.892	47771
556.955	48619
557.017	47001
557.079	44434
557.142	44267
557.204	43916
557.266	46062
557.328	42265
557.391	39232
557.453	38272
557.515	38729
557.577	39049
557.639	40015
557.701	38237
557.764	38336
557.826	38649
557.888	41190
557.950	42195
558.012	46408
558.074	58856
558.136	124965
558.198	262063
558.260	92883
558.322	42628
558.384	42125
558.446	45330
558.508	48092
558.570	53926
558.632	63702
558.694	84099
558.756	135436
558.818	363691
558.880	696714
558.942	275302
559.003	278061
559.065	126809
559.127	54793
559.189	52331
559.251	59751
559.312	89002
559.374	200341
559.436	537409
559.498	249638
559.559	60910
559.621	52505
559.683	62446
559.744	103416
559.806	300304
559.868	393396
559.929	88020
559.991	60078
560.052	97236
560.114	256326
560.176	154044
560.237	152731
560.299	223265
560.360	50282
560.422	24826
560.483	22341
560.545	20711
560.606	20224
560.667	19114
560.729	18726
560.790	17331
560.852	18566
560.913	16684
560.974	17192
561.036	16609
561.097	17026
561.158	16454
561.220	17296
561.281	15121
561.342	15892
561.403	16943
561.465	16456
561.526	20625
561.587	21489
561.648	14954
561.709	14590
561.771	13888
561.832	14926
561.893	13792
561.954	14226
562.015	13802
562.076	13863
562.137	13210
562.198	12462
562.259	13765
562.320	14441
562.381	14622
562.442	13846
562.503	13469
562.564	13017
562.625	13654
562.686	12446
562.747	13166
562.808	13577
562.869	12180
562.930	13736
562.991	12429
563.051	12687
563.112	12466
563.173	12502
563.234	12189
563.294	12230
563.355	11953
563.416	11935
563.477	12355
563.537	12904
563.598	12523
563.659	11953
563.720	11365
563.780	13069
563.841	11895
563.901	11355
563.962	11643
564.023	11067
564.083	11346
564.144	11209
564.204	12051
564.265	11472
564.325	12151
564.386	14747
564.446	14661
564.507	11287
564.567	10781
564.628	11474
564.688	10722
564.749	10760
564.809	11322
564.869	11779
564.930	11139
564.990	11142
565.050	10674
565.111	11028
565.171	10793
565.231	11056
565.292	11297
565.352	10300
565.412	10588
565.472	10992
565.532	10121
565.593	10666
565.653	10667
565.713	10796
565.773	11324
565.833	11724
565.893	12439
565.953	9849
566.013	10660
566.074	11113
566.134	11685
566.194	13845
566.254	13538
566.314	11550
566.374	9578
566.434	10073
566.494	10472
566.554	9858
566.614	10504
566.673	10925
566.733	11391
566.793	10089
566.853	11770
566.913	9554
566.973	10532
567.033	11055
567.092	11787
567.152	10165
567.212	10882
567.272	11023
567.331	11297
567.391	11154
567.451	11397
567.511	13049
567.570	13142
567.630	11789
567.690	11012
567.749	10299
567.809	10753
567.868	10604
567.928	10780
567.988	11287
568.047	11046
568.107	10571
568.166	10512
568.226	11625
568.285	10314
568.345	10659
568.404	11106
568.464	11065
568.523	10004
568.582	10728
568.642	10397
568.701	11412
568.761	11211
568.820	12466
568.879	11529
568.939	11992
568.998	11066
569.057	10571
569.116	10729
569.176	11024
569.235	9646
569.294	10928
569.353	10253
569.413	10193
569.472	10118
569.531	9435
569.590	10542
569.649	9999
569.708	10370
569.767	10675
569.827	11026
569.886	11342
569.945	9737
570.004	10666
570.063	10524
570.122	11087
570.181	10724
570.240	11417
570.299	10391
570.358	11776
570.417	10200
570.475	11118
570.534	10792
570.593	11645
570.652	11616
570.711	12453
570.770	10473
570.829	11200
570.887	10840
570.946	11361
571.005	10156
571.064	11031
571.122	11336
571.181	12050
571.240	10557
571.299	10606
571.357	10381
571.416	10982
571.475	11815
571.533	10965
571.592	11725
571.650	11692
571.709	10988
571.768	12169
571.826	12967
571.885	12231
571.943	10939
572.002	11135
572.060	11173
572.119	10828
572.177	11134
572.236	10506
572.294	10781
572.352	11753
572.411	11368
572.469	11058
572.528	11041
572.586	11226
572.644	10590
572.703	10747
572.761	9788
572.819	10290
572.877	11040
572.936	9633
572.994	10602
573.052	10132
573.110	9376
573.169	11085
573.227	8897
573.285	10236
573.343	10727
573.401	9705
573.459	10628
573.517	10153
573.576	11104
573.634	10319
573.692	10603
573.750	10117
573.808	9589
573.866	9824
573.924	10883
573.982	10320
574.040	9573
574.098	9436
574.155	9744
574.213	9297
574.271	8799
574.329	10696
574.387	8570
574.445	8923
574.503	8708
574.560	7946
574.618	8507
574.676	8204
574.734	8713
574.792	9424
574.849	8208
574.907	8255
574.965	8011
575.022	7905
575.080	7285
575.138	8831
575.195	8173
575.253	7697
575.311	7662
575.368	8085
575.426	7281
575.483	8126
575.541	8560
575.598	8224
575.656	7608
575.713	8062
575.771	8735
575.828	8508
575.886	7591
575.943	7972
576.001	7338
576.058	6995
576.115	7607
576.173	8948
576.230	8414
576.287	9313
576.345	7973
576.402	8086
576.459	7573
576.517	6872
576.574	7502
576.631	8382
576.688	8927
576.746	8350
576.803	8232
576.860	7615
576.917	7393
576.974	9004
577.031	7978
577.089	8168
577.146	7234
577.203	7531
577.260	8011
577.317	8376
577.374	8588
577.431	8092
577.488	7684
577.545	7742
577.602	7884
577.659	7010
577.716	7927
577.773	8923
577.830	8009
577.886	8073
577.943	7752
578.000	7280
578.057	7293
578.114	8084
578.171	8630
578.227	10426
578.284	9574
578.341	9229
578.398	7841
578.454	7817
578.511	8114
578.568	8342
578.625	7934
578.681	7953
578.738	7595
578.794	7300
578.851	8637
578.908	7430
578.964	8462
579.021	8987
579.077	7432
579.134	7700
579.190	7862
579.247	7697
579.303	7451
579.360	8116
579.416	7583
579.473	7639
579.529	7049
579.586	7995
579.642	7426
579.698	7697
579.755	8214
579.811	8615
579.867	9216
579.924	8403
579.980	8804
580.036	9304
580.093	10447
580.149	14649
580.205	14911
580.261	11548
580.317	11027
580.374	10328
580.430	10100
580.486	9253
580.542	9328
580.598	8706
580.619	8825
580.654	9038
580.692	8803
580.710	8705
580.765	9210
580.767	9232
580.823	10168
580.838	10122
580.879	10047
580.911	9654
580.935	9365
580.984	9567
580.991	9610
581.047	9879
581.057	9880
581.103	9927
581.130	10554
581.159	11216
581.203	11269
581.215	11286
581.270	10346
581.276	10283
581.326	9845
581.349	9851
581.382	9807
581.422	9932
581.438	10020
581.494	9704
581.494	9703
581.550	10011
581.567	10182
581.606	10599
581.640	9936
581.661	9553
581.713	10869
581.717	10982
581.773	10614
581.786	10782
581.829	11240
581.859	10822
581.885	10554
581.932	10469
581.940	10432
581.996	10543
582.004	10587
582.052	10886
582.077	10606
582.107	10283
582.150	10540
582.163	10646
582.219	10687
582.223	10737
582.274	11271
582.296	11108
582.330	10894
582.368	10877
582.386	10927
582.441	11799
582.441	11801
582.497	10910
582.514	10947
582.552	11184
582.587	11773
582.608	12077
582.659	11967
582.663	11963
582.719	11975
582.732	11853
582.774	11672
582.805	12181
582.830	12472
582.877	13025
582.885	13176
582.941	13683
582.950	14080
582.996	15782
583.023	16159
583.052	16822
583.095	17086
583.107	17025
583.162	17490
583.168	17417
583.218	16711
583.240	15651
583.273	14105
583.313	14346
583.328	14478
583.384	13416
583.385	13383
583.439	12301
583.458	12133
583.494	12117
583.531	12541
583.549	12670
583.603	12447
583.605	12440
583.660	11979
583.676	12130
583.715	12481
583.748	12396
583.770	12446
583.820	12569
583.825	12537
583.881	12212
583.893	11948
583.936	11449
583.965	11464
583.991	11267
584.038	12137
584.046	12343
584.101	11537
584.110	11680
584.156	12153
584.183	11992
584.211	11928
584.255	12053
584.266	12093
584.321	13265
584.328	13239
584.376	13383
584.400	13686
584.431	13691
584.472	13407
584.486	13391
584.541	14167
584.545	14182
584.596	13979
584.617	13850
584.651	14238
584.689	15177
584.706	15323
584.761	15056
584.762	15052
584.816	15277
584.834	15438
584.871	15627
584.906	16407
584.926	16755
584.978	16428
584.980	16419
585.035	16807
585.051	16927
585.090	17445
585.123	18149
585.145	18446
585.195	19065
585.200	19179
585.254	20868
585.267	21419
585.309	22887
585.340	23704
585.364	24598
585.412	27768
585.419	28194
585.473	33467
585.484	35070
585.528	42952
585.556	51951
585.583	64507
585.628	99588
585.637	109637
585.692	214683
585.700	232326
585.747	306432
585.772	246226
585.801	152337
585.845	63280
585.856	48318
585.910	30350
585.917	28962
585.965	24565
585.989	23559
586.019	22535
586.061	21151
586.074	20771
586.128	20400
586.133	20250
586.183	18707
586.205	18526
586.237	18423
586.277	18579
586.292	18533
586.346	17775
586.349	17745
586.401	17974
586.421	18331
586.455	18131
586.493	17584
586.509	17803
586.564	18489
586.565	18547
586.618	21437
586.637	21529
586.672	21114
586.709	20854
586.727	20808
586.781	22043
586.781	22043
586.835	18521
586.853	18040
586.889	16973
586.925	16109
586.944	16293
586.996	17344
586.998	17349
587.052	16410
587.068	16337
587.106	16536
587.140	16611
587.161	16570
587.212	16261
587.215	16275
587.269	16817
587.284	16953
587.323	17066
587.356	16942
587.377	17199
587.427	18161
587.431	18189
587.485	17971
587.499	17991
587.539	18138
587.571	18409
587.593	18616
587.643	19459
587.648	19600
587.702	19683
587.715	19795
587.755	19238
587.786	19112
587.810	19426
587.858	19690
587.864	19760
587.917	20391
587.930	20546
587.971	20611
588.001	20702
588.025	20803
588.073	20789
588.079	20839
588.133	20964
588.145	21138
588.187	21556
588.217	21521
588.241	21770
588.288	22592
588.295	22744
588.348	23727
588.360	23976
588.402	25251
588.431	25992
588.456	26127
588.503	26794
588.510	27127
588.564	29627
588.575	30336
588.617	32397
588.646	33656
588.671	35331
588.718	39369
588.725	40559
588.778	51650
588.789	54645
588.832	81653
588.861	103437
588.886	144179
588.932	235995
588.939	244863
588.993	299496
589.004	297427
589.047	172890
589.075	100395
589.100	75855
589.147	45113
589.154	43923
589.207	37670
589.218	36532
589.261	37170
589.290	38133
589.314	38776
589.361	40850
589.368	42455
589.421	57669
589.433	61660
589.475	104062
589.504	138526
589.528	179923
589.576	266143
589.582	259358
589.635	145151
589.647	122328
589.689	68386
589.718	38930
589.742	35220
589.790	28868
589.795	28703
589.849	27118
589.861	26963
589.902	26668
589.932	25895
589.955	25027
590.004	23281
590.009	23297
590.062	23561
590.075	23607
590.115	23345
590.146	23009
590.168	23013
590.218	23154
590.222	23205
590.275	23665
590.289	23699
590.328	23837
590.360	23869
590.381	23796
590.431	23762
590.435	23812
590.488	24100
590.503	24137
590.541	24442
590.574	24849
590.594	25125
590.645	25574
590.647	25626
590.700	26309
590.716	26426
590.753	26366
590.787	26310
590.806	26574
590.859	27605
590.859	27637
590.912	27472
590.930	27506
590.965	27319
591.001	27029
591.018	27340
591.071	27964
591.072	27935
591.124	27687
591.143	27495
591.177	27777
591.214	28125
591.230	28311
591.283	28765
591.285	28745
591.336	28760
591.356	28783
591.389	28821
591.427	28668
591.442	28403
591.495	27450
591.498	27349
591.547	28378
591.569	28798
591.600	28912
591.640	28944
591.653	29150
591.706	29815
591.711	29858
591.759	29652
591.782	29479
591.811	29992
591.853	30734
591.864	30852
591.917	31152
591.924	31165
591.969	31517
591.995	31650
592.022	31614
592.066	31480
592.075	31700
592.127	32815
592.137	32991
592.180	33673
592.208	34033
592.233	34042
592.279	33898
592.285	34006
592.338	34652
592.350	34741
592.390	34281
592.421	33889
592.443	34373
592.491	35350
592.495	35422
592.548	35898
592.562	35990
592.600	35617
592.633	35238
592.653	35235
592.704	34933
592.705	35162
592.775	36677
592.846	37152
592.916	37145
592.987	37548
593.058	38413
593.128	38316
593.199	38644
593.270	38643
593.341	39889
593.411	39550
593.482	41372
593.553	41885
593.623	42728
593.694	44485
593.764	45228
593.835	43905
593.906	45070
593.976	46356
594.047	47143
594.117	49557
594.188	49282
594.258	49770
594.329	49650
594.399	50146
594.470	51714
594.540	54559
594.611	54395
594.681	54083
594.751	54126
594.822	56170
594.892	56963
594.963	58022
595.033	59251
595.103	61600
595.174	62344
595.244	64991
595.314	66171
595.384	66271
595.455	67351
595.525	71334
595.595	73146
595.665	72299
595.736	70744
595.806	72943
595.876	73247
595.946	73510
596.016	77208
596.087	80265
596.157	78389
596.227	80393
596.297	83807
596.367	87773
596.437	92864
596.507	93986
596.577	93379
596.647	97073
596.717	99596
596.787	101626
596.857	101331
596.927	103405
596.997	101810
597.067	102865
597.137	105659
597.207	106482
597.277	107392
597.347	104275
597.417	101118
597.487	101574
597.557	103603
597.626	106108
597.696	107493
597.766	107945
597.836	103164
597.906	99382
597.975	97055
598.045	99065
598.115	103072
598.185	109143
598.254	118794
598.324	129227
598.394	129060
598.464	127209
598.533	125954
598.603	120194
598.672	115316
598.742	118704
598.812	119793
598.881	123114
598.951	122390
599.020	125228
599.090	127720
599.159	130690
599.229	125975
599.299	125510
599.368	128592
599.437	128149
599.507	121038
599.576	118783
599.646	117980
599.715	117514
599.785	116549
599.854	115571
599.924	114573
599.993	116927
600.062	117717
600.132	121326
600.201	127849
600.270	142060
600.340	149233
600.409	147052
600.478	148336
600.547	150309
600.617	142150
600.686	121976
600.755	116525
600.824	112476
600.894	112614
600.963	113172
601.032	113394
601.101	114533
601.170	111943
601.239	111748
601.308	113022
601.378	115187
601.447	117007
601.516	117158
601.585	119838
601.654	122649
601.723	123552
601.792	127819
601.861	130193
601.930	137167
601.999	141440
602.068	138572
602.137	140774
602.206	142142
602.275	143982
602.343	145192
602.412	145948
602.481	148083
602.550	146870
602.619	151069
602.688	151139
602.756	154834
602.825	152939
602.894	157742
602.963	157387
603.032	161092
603.100	161167
603.169	158238
603.238	163830
603.307	157589
603.375	160582
603.444	165855
603.513	156071
603.581	162235
603.650	165961
603.719	148398
603.787	145382
603.856	148140
603.924	151028
603.993	155789
604.061	159756
604.130	165475
604.198	168820
604.267	170694
604.335	173478
604.404	176127
604.472	179383
604.541	180309
604.609	184425
604.678	187537
604.746	189988
604.815	195408
604.883	192338
604.951	192021
605.020	195102
605.088	189435
605.156	185016
605.225	184819
605.293	185715
605.361	187107
605.429	186926
605.498	192647
605.566	191024
605.634	202069
605.702	202841
605.771	208714
605.839	211881
605.907	203239
605.975	203793
606.043	196637
606.111	193984
606.180	203914
606.248	193077
606.316	190829
606.384	195565
606.452	178305
606.520	167334
606.588	172819
606.656	174301
606.724	170539
606.792	161738
606.860	149127
606.928	136351
606.996	131602
607.064	129609
607.132	132961
607.200	139908
607.267	143748
607.335	146164
607.403	151620
607.471	143495
607.539	141432
607.607	143089
607.674	126381
607.742	127024
607.810	124607
607.878	125099
607.946	126322
608.013	131997
608.081	134748
608.149	136292
608.216	139581
608.284	144133
608.352	142824
608.419	142454
608.487	142070
608.555	137604
608.622	142658
608.690	147676
608.757	162375
608.825	164333
608.893	160174
608.960	153163
609.028	147182
609.095	146581
609.163	144902
609.230	132628
609.298	121156
609.365	129334
609.432	137506
609.500	148510
609.567	167603
609.635	189498
609.702	197932
609.769	190477
609.837	149742
609.904	130991
609.971	132487
610.039	139398
610.106	154992
610.173	219270
610.241	382809
610.308	258847
610.375	156948
610.442	139166
610.509	133117
610.577	137017
610.644	137695
610.711	142860
610.778	145867
610.845	152222
610.912	160454
610.980	165458
611.047	165399
611.114	164820
611.181	160106
611.248	158670
611.315	167510
611.382	171223
611.449	178140
611.516	179754
611.583	177407
611.650	179141
611.717	179929
611.784	183359
611.851	186050
611.918	189467
611.984	205556
612.051	237867
612.118	339241
612.185	599905
612.252	429484
612.319	230357
612.386	216320
612.452	205999
612.519	200009
612.586	195084
612.653	201618
612.719	207753
612.786	201616
612.853	190797
612.919	185910
612.986	189262
613.053	181514
613.120	169363
613.186	166977
613.253	167514
613.319	167159
613.386	168464
613.453	171211
613.519	171221
613.586	168224
613.652	170491
613.719	169491
613.785	174104
613.852	173713
613.918	172915
613.985	176648
614.051	182058
614.118	181813
614.184	175160
614.250	173838
614.317	175805
614.383	175377
614.449	178462
614.516	179385
614.582	179333
614.648	178623
614.715	173942
614.781	171542
614.847	171703
614.914	171669
614.980	167064
615.046	169678
615.112	173592
615.179	174804
615.245	175440
615.311	174016
615.377	174746
615.443	178720
615.509	177563
615.575	180470
615.642	178404
615.708	184070
615.774	187528
615.840	194797
615.906	195914
615.972	210352
616.038	252200
616.104	381235
616.170	656461
616.236	562899
616.302	268516
616.368	237323
616.434	203176
616.500	196637
616.565	205053
616.631	225816
616.697	207862
616.763	210098
616.829	251022
616.895	352344
616.961	328603
617.026	211488
617.092	186418
617.158	184531
617.224	182490
617.289	173861
617.355	168840
617.421	167790
617.487	168233
617.552	162941
617.618	161151
617.684	163869
617.749	164061
617.815	158262
617.880	157115
617.946	156823
618.012	158362
618.077	163430
618.143	157331
618.208	159753
618.274	166732
618.339	168880
618.405	147915
618.470	147480
618.536	147204
618.601	148484
618.667	138038
618.732	136257
618.798	133753
618.863	133150
618.928	132406
618.994	132979
619.059	131137
619.124	133852
619.190	131400
619.255	132939
619.320	133862
619.386	134472
619.451	130906
619.516	130939
619.581	132906
619.647	137497
619.712	137940
619.777	133059
619.842	131804
619.907	136782
619.972	137036
620.038	135953
620.103	135110
620.168	133869
620.233	138193
620.298	138132
620.363	137393
620.428	140616
620.493	143545
620.558	145376
620.623	145539
620.688	146296
620.753	144336
620.818	146970
620.883	150101
620.948	148783
621.013	147216
621.078	147795
621.143	144949
621.207	148559
621.272	146193
621.337	143358
621.402	143747
621.467	143099
621.532	143768
621.596	143939
621.661	140258
621.726	139650
621.791	140430
621.855	141235
621.920	141255
621.985	143055
622.049	145907
622.114	143763
622.179	143948
622.243	146439
622.308	148371
622.373	154757
622.437	151004
622.502	146634
622.566	145778
622.631	143455
622.695	147694
622.760	145927
622.824	146360
622.889	146730
622.953	145968
623.018	152620
623.082	152713
623.147	152040
623.211	150103
623.276	150401
623.340	143037
623.404	143893
623.469	142720
623.533	144306
623.597	141027
623.662	141018
623.726	135212
623.790	127665
623.854	126101
623.919	128497
623.983	128773
624.047	129943
624.111	130742
624.176	133029
624.240	130155
624.304	135362
624.368	131935
624.432	132390
624.496	132253
624.560	137108
624.625	136215
624.689	136700
624.753	141515
624.817	136030
624.881	132537
624.945	124745
625.009	121808
625.073	123956
625.137	123818
625.201	127622
625.265	128257
625.329	123835
625.393	124178
625.456	124202
625.520	124751
625.584	127314
625.648	129834
625.712	131314
625.776	132660
625.839	129577
625.903	110609
625.967	102137
626.031	110185
626.095	123253
626.158	112361
626.222	98541
626.286	92407
626.349	90840
626.413	83832
626.477	84753
626.540	83873
626.604	83650
626.668	81587
626.731	81363
626.795	79360
626.858	79231
626.922	77364
626.986	77886
627.049	75768
627.113	79569
627.176	78748
627.240	75589
627.303	74475
627.366	73649
627.430	72442
627.493	71296
627.557	71280
627.620	72776
627.684	73900
627.747	74261
627.810	66311
627.874	64254
627.937	59579
628.000	61760
628.064	61046
628.127	54816
628.190	56292
628.253	54364
628.317	51529
628.380	51030
628.443	49357
628.506	49067
628.569	47382
628.632	45121
628.696	45088
628.759	44691
628.822	42567
628.885	42365
628.948	42565
629.011	41992
629.074	39268
629.137	39739
629.200	38657
629.263	38138
629.326	36230
629.389	37201
629.452	37238
629.515	35693
629.578	34392
629.641	36208
629.704	34669
629.767	35482
629.830	34171
629.892	34354
629.955	32364
630.018	34352
630.081	32355
630.144	33033
630.207	30608
630.269	33385
630.332	30716
630.395	30767
630.458	29553
630.520	27782
630.583	30303
630.646	29982
630.708	29323
630.771	29556
630.834	31326
630.896	29751
630.959	29587
631.021	28730
631.084	29370
631.146	29998
631.209	29325
631.272	27969
631.334	29436
631.397	28557
631.459	27759
631.522	29389
631.584	28112
631.646	29254
631.709	28975
631.771	28487
631.834	28522
631.896	28262
631.958	26452
632.021	27985
632.083	25661
632.145	27751
632.208	26866
632.270	27942
632.332	25857
632.395	26152
632.457	26705
632.519	26189
632.581	26801
632.643	25111
632.706	25490
632.768	25330
632.830	26276
632.892	25665
632.954	26815
633.016	26551
633.078	26172
633.141	27423
633.203	26312
633.265	25445
633.327	26093
633.389	24709
633.451	25661
633.513	25305
633.575	26869
633.637	24869
633.698	26052
633.760	26656
633.822	27369
633.884	27592
633.946	27029
634.008	26554
634.070	27119
634.132	27937
634.193	27003
634.255	29051
634.317	28695
634.379	29711
634.441	27329
634.502	26252
634.564	25639
634.626	25729
634.687	24912
634.749	25273
634.811	23900
634.873	24290
634.934	24326
634.996	25630
635.057	23781
635.119	24313
635.181	24742
635.242	25524
635.304	22691
635.365	27339
635.427	24051
635.488	25520
635.550	23265
635.611	25026
635.673	22564
635.734	25934
635.796	24152
635.857	26733
635.918	25892
635.980	28146
636.041	27016
636.102	29566
636.164	28333
636.225	29236
636.286	24571
636.348	24888
636.409	24529
636.470	23609
636.531	24126
636.593	23841
636.654	23682
636.715	23977
636.776	23855
636.838	23369
636.899	23768
636.960	22765
637.021	22018
637.082	21943
637.143	23024
637.204	21745
637.265	21486
637.326	22152
637.387	22859
637.448	22520
637.509	22695
637.570	22398
637.631	23421
637.692	21379
637.753	20997
637.814	22066
637.875	21910
637.936	23274
637.997	20119
638.058	22367
638.119	22032
638.179	21821
638.240	21551
638.301	22706
638.362	20971
638.423	21673
638.483	23269
638.544	20875
638.605	21823
638.666	21478
638.726	22248
638.787	21074
638.848	20985
638.908	20843
638.969	20759
639.030	20606
639.090	19941
639.151	20595
639.211	22075
639.272	21549
639.332	21601
639.393	22159
639.453	20428
639.514	21700
639.574	20176
639.635	20614
639.695	20192
639.756	19692
639.816	20599
639.877	19680
639.937	21196
639.997	20683
640.058	19265
640.118	19465
640.178	19745
640.239	20305
640.299	20593
640.359	19063
640.420	20202
640.480	22150
640.540	21715
640.600	21738
640.661	20796
640.721	20006
640.781	21931
640.841	21625
640.901	20671
640.961	20600
641.021	20132
641.082	19544
641.142	19831
641.202	20336
641.262	18034
641.322	21498
641.382	18561
641.442	20059
641.502	19094
641.562	21278
641.622	18922
641.682	20510
641.742	19401
641.802	20189
641.861	19558
641.921	18298
641.981	18396
642.041	18377
642.101	17245
642.161	16841
642.221	17387
642.280	18751
642.340	16935
642.400	17261
642.460	18457
642.519	19076
642.579	17974
642.639	19779
642.698	16227
642.758	20783
642.818	19046
642.877	17307
642.937	17971
642.997	19024
643.056	18569
643.116	18059
643.175	20366
643.235	18691
643.294	18439
643.354	19579
643.414	20397
643.473	21517
643.532	21382
643.592	25410
643.651	32714
643.711	47808
643.770	76524
643.830	165795
643.889	313475
643.948	95444
644.008	29737
644.067	23259
644.126	18867
644.186	20156
644.245	19016
644.304	16996
644.363	20516
644.423	16770
644.482	17572
644.541	19670
644.600	15750
644.659	21503
644.719	20840
644.778	26154
644.837	35367
644.896	62597
644.955	123501
645.014	49898
645.073	20278
645.132	18613
645.191	18339
645.250	17728
645.309	19498
645.368	19198
645.427	21753
645.486	27321
645.545	39865
645.604	19773
645.663	17870
645.722	16822
645.781	17306
645.840	18664
645.898	20016
645.957	24909
646.016	28472
646.075	44170
646.134	73090
646.192	174049
646.251	240419
646.310	50955
646.369	23445
646.427	22122
646.486	17491
646.545	17370
646.603	15665
646.662	16919
646.721	15931
646.779	15371
646.838	13705
646.896	17806
646.955	19169
647.014	25145
647.072	36919
647.131	86608
647.189	46146
647.248	16291
647.306	15774
647.365	14806
647.423	11981
647.481	15181
647.540	11749
647.598	14277
647.657	12952
647.715	13991
647.773	12668
647.832	13119
647.890	11379
647.948	12466
648.007	12347
648.065	10808
648.123	12176
648.181	12843
648.240	11532
648.298	11034
648.356	10519
648.414	11873
648.472	11149
648.531	11510
648.589	10716
648.647	10216
648.705	10266
648.763	10635
648.821	10455
648.879	10944
648.937	10773
648.995	11938
649.053	12253
649.111	16347
649.169	21620
649.227	35206
649.285	64750
649.343	167325
649.401	82340
649.459	17780
649.516	13954
649.574	10808
649.632	12712
649.690	14255
649.748	14295
649.806	15947
649.863	27377
649.921	62429
649.979	42670
650.037	11763
650.094	7859
650.152	9856
650.210	8898
650.268	9349
650.325	9245
650.383	9594
650.440	6754
650.498	8587
650.556	7441
650.613	7303
650.671	8044
650.728	7632
650.786	7975
650.843	8766
650.901	5824
650.958	7419
651.016	7095
651.073	7737
651.131	6624
651.188	6628
651.246	5779
651.303	5602
651.360	6554
651.418	6202
651.475	6699
651.532	5766
651.590	6097
651.647	5896
651.704	5871
651.762	5776
651.819	6147
651.876	5809
651.933	5613
651.990	6381
652.048	4054
652.105	5520
652.162	6134
652.219	5400
652.276	6475
652.333	6583
652.390	4671
652.448	5479
652.505	5394
652.562	5104
652.619	4680
652.676	6691
652.733	6901
652.790	5272
652.847	3687
652.904	5509
652.961	3297
653.017	4273
653.074	4849
653.131	5326
653.188	4269
653.245	4992
653.302	4959
653.359	4623
653.415	5211
653.472	4538
653.529	5509
653.586	4235
653.642	3263
653.699	5240
653.756	3473
653.813	4581
653.869	5135
653.926	5063
653.983	3911
654.039	4890
654.096	4196
654.152	5142
654.209	3661
654.266	4562
654.322	3622
654.379	5311
654.435	4696
654.492	4221
654.548	3871
654.605	4286
654.661	5367
654.717	4469
654.774	3950
654.830	4164
654.887	4413
654.943	4905
655.000	4236
655.056	4604
655.112	4235
655.168	3374
655.225	3694
655.281	4161
655.337	3869
655.394	3897
655.450	4919
655.506	4156
655.562	3794
655.618	5434
655.675	3100
655.731	4145
655.787	3768
655.843	4680
655.899	3934
655.955	4062
656.011	3592
656.067	2655
656.123	4042
656.179	3957
656.235	4754
656.291	3805
656.347	5474
656.403	3698
656.459	3596
656.515	4326
656.571	3193
656.627	3613
656.683	3650
656.739	4459
656.795	3759
656.850	3857
656.906	4156
656.962	4567
657.018	3322
657.074	5438
657.129	6373
657.185	7830
657.241	14992
657.297	8991
657.352	4252
657.408	4487
657.464	3689
657.519	4275
657.575	2747
657.630	3508
657.686	3385
657.742	3580
657.797	3641
657.853	3737
657.908	4012
657.964	3086
658.019	3352
658.075	3665
658.130	2679
658.186	3860
658.241	3891
658.297	3520
658.352	2510
658.407	4014
658.463	2450
658.518	4496
658.573	3268
658.629	3517
658.684	2456
658.739	4639
658.795	2452
658.850	4371
658.905	2350
658.960	3241
659.016	3435
659.071	4418
659.126	3234
659.181	3937
659.236	4265
659.291	4505
659.346	2701
659.401	3436
659.457	4368
659.512	3277
659.567	4268
659.622	3407
659.677	3306
659.732	2902
659.787	3420
659.842	3223
659.897	3772
659.952	3161
660.007	3285
660.061	3863
660.116	2227
660.171	2525
660.226	2968
660.281	4686
660.336	2363
660.391	3706
660.445	2121
660.500	3393
660.555	2626
660.610	3113
660.664	3473
660.719	3454
660.774	3738
660.828	4081
660.883	3047
660.938	3836
660.992	2423
661.047	3825
661.101	2696
661.156	3037
661.211	2096
661.265	2885
661.320	2538
661.374	3528
661.429	2507
661.483	3509
661.538	2202
661.592	3208
661.647	2845
661.701	4660
661.755	2610
661.810	3666
661.864	2244
661.919	2998
661.973	2925
662.027	3420
662.081	2907
662.136	3152
662.190	3028
662.244	3964
662.299	2536
662.353	3682
662.407	2399
662.461	2481
662.515	3127
662.569	3514
662.624	3454
662.678	2841
662.732	2452
662.786	2573
662.840	1710
662.894	2904
662.948	2752
663.002	3487
663.056	3414
663.110	2076
663.164	2927
663.218	3638
663.272	2793
663.326	3205
663.380	2942
663.434	2161
663.488	2082
663.542	3210
663.595	2929
663.649	3223
663.703	3085
663.757	2807
663.811	2501
663.864	2634
663.918	2540
663.972	2843
664.026	2677
664.079	2676
664.133	3139
664.187	2481
664.240	2488
664.294	2602
664.348	2528
664.401	2714
664.455	2425
664.508	2758
664.562	2602
664.615	3130
664.669	2193
664.722	2802
664.776	2516
664.829	3425
664.883	2517
664.936	2192
664.990	2562
665.043	3919
665.097	2161
665.150	3582
665.203	1881
665.257	2156
665.310	2806
665.363	2690
665.417	3050
665.470	2221
665.523	2579
665.576	3300
665.630	2867
665.683	2834
665.736	2858
665.789	2857
665.842	1979
665.895	2982
665.949	3024
666.002	3986
666.055	2575
666.108	3378
666.161	2409
666.214	3498
666.267	2823
666.320	3032
666.373	2672
666.426	3545
666.479	2150
666.532	3557
666.585	2596
666.638	3665
666.691	2053
666.744	3726
666.796	3182
666.849	2959
666.902	2218
666.955	3290
667.008	2943
667.060	2886
667.113	2513
667.166	3215
667.219	3151
667.271	3710
667.324	2999
667.377	3045
667.430	2647
667.482	2543
667.535	2976
667.587	3394
667.640	3638
667.693	2743
667.745	3375
667.798	3369
667.850	2452
667.903	3634
667.955	2453
668.008	3120
668.060	2292
668.113	3356
668.165	3062
668.218	3098
668.270	3191
668.322	3844
668.375	2773
668.427	3201
668.479	2568
668.532	2912
668.584	2961
668.636	1908
668.689	3049
668.741	2993
668.793	2963
668.845	2849
668.898	2573
668.950	3215
669.002	2447
669.054	2533
669.106	3054
669.158	2590
669.211	2196
669.263	2193
669.315	3060
669.367	3080
669.419	2467
669.471	2974
669.523	1981
669.575	2750
669.627	2578
669.679	3101
669.731	2708
669.783	2444
669.835	2395
669.886	2804
669.938	1857
669.990	2906
670.042	2330
670.094	3368
670.146	1620
670.197	3578
670.249	2999
670.301	3559
670.353	3435
670.404	5643
670.456	6604
670.508	9394
670.560	15376
670.611	27226
670.663	46247
670.715	112703
670.766	176060
670.818	51974
670.869	10630
670.921	5822
670.972	4804
671.024	3774
671.075	2851
671.127	3495
671.178	2544
671.230	3351
671.281	2406
671.333	3424
671.384	3269
671.436	4295
671.487	4457
671.538	6438
671.590	8497
671.641	12739
671.692	23843
671.744	45416
671.795	29107
671.846	10031
671.897	5406
671.949	3055
672.000	3421
672.051	3028
672.102	2686
672.153	1894
672.204	1949
672.256	2097
672.307	2138
672.358	2364
672.409	1771
672.460	1778
672.511	1960
672.562	1489
672.613	839
672.664	1643
672.715	2114
672.766	2084
672.817	2111
672.868	1331
672.919	1576
672.970	700
673.021	1960
673.071	986
673.122	796
673.173	1570
673.224	1459
673.275	1671
673.326	1413
673.376	2669
673.427	648
673.478	1319
673.528	2206
673.579	1900
673.630	1532
673.680	2614
673.731	1267
673.782	1837
673.832	1343
673.883	1751
673.934	1014
673.984	2101
674.035	1462
674.085	1575
674.136	655
674.186	2114
674.237	1618
674.287	1596
674.338	1533
674.388	1633
674.438	265
674.489	2116
674.539	1781
674.589	1500
674.640	1705
674.690	1382
674.740	915
674.791	1194
674.841	1043
674.891	1215
674.942	1979
674.992	1400
675.042	1039
675.092	896
675.142	517
675.193	779
675.243	772
675.293	1720
675.343	845
675.393	1565
675.443	1465
675.493	1149
675.543	1229
675.593	1323
675.643	1482
675.693	1511
675.743	921
675.793	1867
675.843	927
675.893	931
675.943	1091
675.993	646
676.043	1149
676.093	1393
676.142	452
676.192	1617
676.242	1157
676.292	1064
676.341	612
676.391	1211
676.441	772
676.491	179
676.540	403
676.590	1348
676.640	1370
676.689	1194
676.739	509
676.789	1322
676.838	564
676.888	1169
676.937	104
676.987	960
677.037	326
677.086	701
677.136	464
677.185	362
677.235	-614
677.284	1678
677.333	50
677.383	638
677.432	101
677.482	598
677.531	374
677.580	847
677.630	632
677.679	1322
677.728	649
677.778	199
677.827	413
677.876	354
677.925	510
677.975	510
678.024	706
678.073	1198
678.122	1239
678.171	1095
678.220	566
678.269	1508
678.319	383
678.368	1640
678.417	1128
678.466	508
678.515	407
678.564	926
678.613	528
678.662	1624
678.711	-16
678.760	1228
678.809	720
678.857	95
678.906	1107
678.955	971
679.004	243
679.053	1267
679.102	334
679.151	802
679.199	303
679.248	789
679.297	78
679.346	1037
679.394	74
679.443	1292
679.492	272
679.540	547
679.589	685
679.638	724
679.686	666
679.735	1071
679.784	792
679.832	1086
679.881	232
679.929	511
679.978	-31
680.026	1231
680.075	570
680.123	878
680.172	61
680.220	827
680.268	-10
680.317	397
680.365	-214
680.414	384
680.462	573
680.510	1282
680.559	195
680.607	469
680.655	-205
680.703	30
680.752	367
680.800	88
680.848	-400
680.896	330
680.945	599
680.993	237
681.041	-363
681.089	439
681.137	597
681.185	173
681.233	366
681.258	138
681.281	-127
681.329	115
681.377	509
681.380	569
681.425	698
681.473	1441
681.502	1323
681.521	1145
681.569	1529
681.617	179
681.624	441
681.665	1756
681.713	2046
681.745	2223
681.761	2233
681.809	883
681.857	1840
681.867	1893
681.904	1845
681.952	2076
681.989	1773
682.000	1626
682.048	2732
682.096	1525
682.111	1877
682.143	2437
682.191	1534
682.233	2797
682.239	2947
682.286	2533
682.334	2368
682.354	2397
682.382	2286
682.430	2533
682.476	2792
682.477	2753
682.525	3150
682.572	2507
682.598	2740
682.620	2839
682.667	4230
682.715	4124
682.720	4133
682.763	3794
682.810	4023
682.841	3986
682.857	3904
682.905	4003
682.952	4007
682.963	4081
683.000	4092
683.047	3385
683.085	4737
683.095	5081
683.142	4808
683.190	4584
683.206	4565
683.237	4349
683.284	4707
683.328	4684
683.332	4648
683.379	5270
683.426	4400
683.449	4687
683.473	4923
683.521	5003
683.568	5305
683.571	5323
683.615	4962
683.662	6577
683.693	6306
683.709	6076
683.757	5660
683.804	5845
683.814	5915
683.851	6110
683.898	6163
683.936	6573
683.945	6643
683.992	6328
684.039	6589
684.057	6539
684.086	6293
684.133	7171
684.179	6277
684.180	6220
684.227	7128
684.274	7328
684.300	7755
684.321	8004
684.368	7242
684.415	6878
684.422	6953
684.462	7424
684.509	7864
684.543	7909
684.556	7828
684.603	7972
684.649	7384
684.665	7819
684.696	8708
684.743	8333
684.786	8790
684.790	8787
684.837	7760
684.883	8851
684.908	8549
684.930	8337
684.977	8342
685.023	8847
685.029	8920
685.070	9104
685.117	9316
685.150	9110
685.164	9057
685.210	8821
685.257	9341
685.272	9406
685.303	9369
685.350	10184
685.393	9593
685.396	9515
685.443	8986
685.490	9337
685.514	9362
685.536	9517
685.583	9372
685.629	9954
685.636	9821
685.675	8819
685.722	10422
685.757	9835
685.768	9623
685.815	10079
685.861	10503
685.878	10585
685.908	10740
685.954	10557
686.000	10575
686.000	10563
686.047	9869
686.093	11194
686.121	11222
686.139	11219
686.185	11016
686.232	11869
686.242	11837
686.278	11535
686.324	11341
686.363	11113
686.370	11094
686.416	11745
686.463	12174
686.484	11945
686.509	11588
686.555	11643
686.601	11804
686.606	11814
686.647	11966
686.693	11997
686.727	11966
686.739	11925
686.785	12113
686.831	12290
686.848	12164
686.877	11942
686.923	12309
686.969	11861
686.969	11857
687.015	12709
687.061	12722
687.090	12982
687.107	13054
687.153	13136
687.199	13570
687.211	13280
687.245	12376
687.291	13119
687.332	12706
687.336	12715
687.382	13463
687.428	13425
687.453	13759
687.474	13790
687.520	13763
687.565	13861
687.574	13724
687.611	13797
687.657	14961
687.695	15426
687.702	15539
687.748	16428
687.794	17505
687.816	17845
687.839	17459
687.885	15859
687.931	15724
687.937	15615
687.976	15537
688.022	15298
688.058	14983
688.067	14918
688.113	15130
688.158	14914
688.179	14892
688.204	15074
688.249	15358
688.295	15765
688.300	15779
688.340	15785
688.386	15846
688.421	15250
688.431	15118
688.477	15921
688.522	15572
688.542	15951
688.567	16554
688.613	16492
688.658	16707
688.663	16752
688.703	16909
688.749	16715
688.784	16634
688.794	16620
688.839	16801
688.884	16297
688.905	16325
688.930	16481
688.975	16386
689.020	17216
689.026	17182
689.065	17081
689.110	16885
689.146	16628
689.155	16622
689.201	16966
689.246	17304
689.267	17641
689.291	17761
689.336	16896
689.381	17451
689.388	17234
689.426	16626
689.471	17138
689.509	17288
689.516	17348
689.561	17569
689.606	17640
689.630	17838
689.651	17787
689.696	17555
689.741	17310
689.750	17267
689.785	17792
689.830	17843
689.871	17894
689.875	17867
689.920	18019
689.965	17543
689.992	17418
690.010	17588
690.054	17641
690.099	18196
690.112	18327
690.144	18494
690.189	18563
690.233	17967
690.233	17991
690.278	18374
690.323	18176
690.354	18568
690.367	18801
690.412	18466
690.457	18700
690.474	18877
690.501	19229
690.546	19380
690.590	19382
690.595	19341
690.635	19348
690.680	19573
690.716	20326
690.724	20723
690.769	21650
690.813	23096
690.836	23690
690.857	25472
690.902	29126
690.946	32993
690.957	33902
690.991	42620
691.035	53987
691.077	65011
691.080	64805
691.124	57221
691.168	50393
691.198	45749
691.213	43233
691.257	35597
691.301	27813
691.318	24687
691.346	23976
691.390	22872
691.434	21981
691.439	21777
691.478	21208
691.522	21790
691.559	21311
691.567	21287
691.611	21628
691.655	21464
691.680	21197
691.699	21193
691.743	21198
691.787	22062
691.800	22034
691.831	21903
691.875	21953
691.919	21922
691.921	21869
691.964	21607
692.008	21618
692.041	21832
692.052	21907
692.096	21527
692.139	21629
692.162	21262
692.183	21035
692.227	21511
692.271	21264
692.282	21271
692.315	21281
692.359	20502
692.402	20447
692.403	20494
692.447	21062
692.490	21395
692.523	21643
692.534	21689
692.578	21862
692.622	21587
692.643	21780
692.666	22112
692.709	21912
692.753	22390
692.763	22369
692.797	22399
692.840	22269
692.884	22062
692.884	22111
692.928	22608
692.971	22868
693.004	23045
693.015	23081
693.059	22773
693.102	22877
693.124	22697
693.146	22807
693.189	23050
693.233	23397
693.245	23390
693.276	23754
693.320	24341
693.363	25133
693.365	25091
693.407	26202
693.450	27705
693.485	28591
693.493	29055
693.537	31336
693.580	33520
693.605	34895
693.624	38688
693.667	47157
693.710	56076
693.725	59083
693.753	75544
693.797	101418
693.840	127106
693.845	129852
693.883	115461
693.926	98905
693.966	83986
693.970	82405
694.013	64337
694.056	46414
694.086	33689
694.099	32941
694.142	30408
694.185	28145
694.206	26940
694.229	26725
694.272	26064
694.315	25586
694.326	25321
694.358	25028
694.401	24939
694.444	24601
694.446	24531
694.487	24564
694.530	24451
694.566	24381
694.573	24441
694.616	24313
694.659	24417
694.686	24320
694.702	24389
694.745	24569
694.787	24426
694.806	24455
694.830	24664
694.873	24684
694.916	25045
694.926	24964
694.959	25078
695.002	25571
695.044	25386
695.046	25345
695.087	25622
695.130	25414
695.166	25451
695.172	25576
695.215	25826
695.258	25950
695.286	26050
695.301	26220
695.343	26606
695.386	26863
695.406	26930
695.428	27215
695.471	27420
695.514	28162
695.526	28212
695.556	29403
695.599	31058
695.641	32539
695.646	32653
695.684	32065
695.726	30908
695.766	30143
695.769	30198
695.811	29611
695.854	29413
695.886	28858
695.896	28963
695.938	29465
695.981	29601
696.005	29677
696.023	30245
696.065	31641
696.108	32899
696.125	33319
696.150	33393
696.192	33327
696.235	33269
696.245	33233
696.277	34043
696.319	34726
696.361	35593
696.365	35558
696.404	35040
696.446	34584
696.485	34011
696.488	34098
696.530	34036
696.572	33969
696.604	33849
696.614	33840
696.656	33414
696.698	33131
696.724	32712
696.740	32888
696.783	33353
696.825	33721
696.844	33817
696.867	33802
696.909	33442
696.951	33232
696.964	33090
696.992	33564
697.034	34039
697.076	34551
697.083	34555
697.118	34961
697.160	35232
697.202	35679
697.203	35592
697.244	35602
697.286	35772
697.323	35634
697.327	35720
697.369	35773
697.411	35782
697.442	35678
697.453	35825
697.494	36024
697.536	36280
697.562	36308
697.578	36366
697.620	36390
697.661	36180
697.682	36098
697.703	36741
697.744	37656
697.786	38674
697.801	38912
697.828	38736
697.869	38328
697.911	37906
697.921	37709
697.952	37752
697.994	37688
698.035	37599
698.040	37477
698.077	37579
698.118	37747
698.160	37763
698.160	37660
698.201	38470
698.243	39143
698.279	39644
698.284	39805
698.325	40295
698.367	40827
698.399	41058
698.408	41271
698.449	41799
698.491	42307
698.518	42545
698.532	42691
698.573	42762
698.614	42867
698.638	42778
698.656	42794
698.697	42612
698.738	42387
698.757	42186
698.779	42296
698.820	42250
698.862	42222
698.877	42095
698.903	42330
698.944	42522
698.985	42713
698.996	42651
699.026	42523
699.067	42184
699.116	41667
699.235	43430
699.354	40416
699.474	40966
699.593	39948
699.713	40372
699.832	40778
699.951	41666
700.070	40643
700.190	39629
700.309	37739
700.428	38600
700.547	37583
700.667	37566
700.786	37445
700.905	36483
701.024	36100
701.143	36566
701.262	37096
701.381	37673
701.500	37200
701.619	37085
701.738	36448
701.857	37628
701.976	35350
702.095	36205
702.214	37041
702.333	35004
702.452	36789
702.571	36810
702.690	35572
702.809	36295
702.928	34182
703.047	33817
703.165	33259
703.284	34583
703.403	33590
703.522	34222
703.640	33045
703.759	33321
703.878	32398
703.997	32715
704.115	32691
704.234	32375
704.353	34080
704.471	30196
704.590	31054
704.708	31127
704.827	31272
704.946	30650
705.064	30457
705.183	30671
705.301	31231
705.420	33460
705.538	30689
705.656	30077
705.775	29471
705.893	33965
706.012	33418
706.130	30003
706.249	31125
706.367	28583
706.485	30149
706.604	28934
706.722	28725
706.840	32155
706.958	38174
707.077	32177
707.195	28342
707.313	28445
707.431	26377
707.549	27018
707.668	25563
707.786	29569
707.904	27132
708.022	28465
708.140	26901
708.258	26062
708.376	27172
708.494	25684
708.612	27280
708.730	28696
708.848	27235
708.966	28077
709.084	26727
709.202	27897
709.320	25807
709.438	27902
709.556	26797
709.674	26568
709.791	25080
709.909	25131
710.027	25851
710.145	24576
710.263	25515
710.380	26286
710.498	25123
710.616	24586
710.733	23515
710.851	24768
710.969	24948
711.086	24273
711.204	23675
711.322	24392
711.439	23576
711.557	23041
711.674	23062
711.792	23424
711.909	23177
712.027	24201
712.144	22279
712.262	22745
712.379	23931
712.497	24138
712.614	24042
712.732	24384
712.849	22917
712.966	23515
713.084	24634
713.201	21989
713.318	22966
713.436	23903
713.553	22979
713.670	23294
713.787	22692
713.905	22166
714.022	22698
714.139	23228
714.256	24895
714.373	27106
714.490	37127
714.608	73207
714.725	242208
714.842	241944
714.959	39241
715.076	25169
715.193	22448
715.310	23161
715.427	21294
715.544	21575
715.661	20625
715.778	21518
715.895	21902
716.011	21223
716.128	20851
716.245	20878
716.362	20660
716.479	19469
716.596	19885
716.713	21406
716.829	20436
716.946	19498
717.063	18860
717.180	20002
717.296	18757
717.413	19205
717.530	18281
717.646	17759
717.763	18083
717.880	18352
717.996	18202
718.113	17701
718.229	18023
718.346	17884
718.462	17430
718.579	18180
718.695	18616
718.812	18314
718.928	18586
719.045	16896
719.161	16930
719.277	17776
719.394	18648
719.510	17819
719.626	18613
719.743	19122
719.859	23142
719.975	32851
720.092	93034
720.208	194244
720.324	35385
720.440	19441
720.557	18718
720.673	18378
720.789	18572
720.905	20574
721.021	16862
721.137	16751
721.253	14779
721.369	16432
721.486	16385
721.602	16872
721.718	15985
721.834	16320
721.950	16385
722.066	16025
722.181	15204
722.297	15720
722.413	16252
722.529	15316
722.645	15601
722.761	14722
722.877	15511
722.993	16065
723.108	17087
723.224	15961
723.340	14964
723.456	15126
723.571	15215
723.687	13345
723.803	14688
723.918	15582
724.034	14375
724.150	15075
724.265	14950
724.381	15841
724.497	15798
724.612	15198
724.728	14649
724.843	13231
724.959	14544
725.074	15038
725.190	14656
725.305	14160
725.421	13508
725.536	14890
725.651	14684
725.767	14590
725.882	13894
725.997	13371
726.113	13935
726.228	13437
726.343	13291
726.459	13945
726.574	13429
726.689	13151
726.804	12727
726.920	13632
727.035	13208
727.150	14224
727.265	13653
727.380	14269
727.495	14447
727.610	13859
727.725	13096
727.841	13646
727.956	14601
728.071	14546
728.186	13597
728.301	12784
728.416	13421
728.531	14003
728.645	12188
728.760	13063
728.875	12441
728.990	12770
729.105	12407
729.220	12574
729.335	12653
729.449	12811
729.564	12434
729.679	13045
729.794	12050
729.908	13063
730.023	12100
730.138	12324
730.253	12916
730.367	12807
730.482	11461
730.596	13426
730.711	13438
730.826	15675
730.940	16318
731.055	14660
731.169	14081
731.284	14654
731.398	14033
731.513	14742
731.627	14715
731.742	17355
731.856	18850
731.970	17956
732.085	20115
732.199	23236
732.313	29976
732.428	61233
732.542	164912
732.656	102088
732.771	29204
732.885	22813
732.999	21192
733.113	23754
733.227	23388
733.342	24482
733.456	23403
733.570	22118
733.684	22237
733.798	21688
733.912	21372
734.026	21143
734.140	21144
734.254	22310
734.368	21487
734.482	22641
734.596	20477
734.710	21290
734.824	20161
734.938	19584
735.052	20425
735.166	20300
735.280	19938
735.393	19429
735.507	19909
735.621	20196
735.735	19328
735.849	21846
735.962	18390
736.076	20134
736.190	18286
736.303	19493
736.417	20203
736.531	17148
736.644	18783
736.758	17778
736.872	18141
736.985	18123
737.099	18214
737.212	18061
737.326	17239
737.439	17539
737.553	16940
737.666	17977
737.780	17213
737.893	18534
738.007	16230
738.120	17240
738.233	16528
738.347	17491
738.460	16455
738.573	17572
738.687	16301
738.800	16483
738.913	18026
739.026	17136
739.140	16839
739.253	16777
739.366	15232
739.479	16544
739.592	15863
739.705	15404
739.818	16579
739.932	15223
740.045	15564
740.158	15424
740.271	15729
740.384	16898
740.497	14432
740.610	16695
740.723	15199
740.836	14967
740.949	14454
741.062	16072
741.174	14995
741.287	15166
741.400	15551
741.513	14467
741.626	14995
741.739	15117
741.851	14981
741.964	15479
742.077	15181
742.189	13200
742.302	14602
742.415	14312
742.527	13977
742.640	14563
742.753	13375
742.865	13894
742.978	14333
743.090	13478
743.203	13788
743.316	13459
743.428	13704
743.541	13975
743.653	13037
743.766	14018
743.878	14178
743.990	12136
744.103	13258
744.215	13636
744.327	12607
744.440	14812
744.552	12693
744.664	13087
744.777	14226
744.889	13833
745.001	12958
745.113	13127
745.226	14056
745.338	12781
745.450	13249
745.562	12611
745.674	11823
745.786	13834
745.898	13205
746.010	12171
746.122	12579
746.234	13390
746.347	12644
746.459	12869
746.570	11297
746.682	13072
746.794	13416
746.906	12360
747.018	12330
747.130	12528
747.242	11571
747.354	11970
747.466	12524
747.577	12065
747.689	12782
747.801	12491
747.913	11759
748.024	12107
748.136	11181
748.248	11341
748.359	11713
748.471	12108
748.583	10992
748.694	11215
748.806	11834
748.918	11718
749.029	11340
749.141	12430
749.252	12296
749.364	11889
749.475	11763
749.587	11594
749.698	11144
749.809	12260
749.921	11549
750.032	11498
750.144	10733
750.255	10815
750.366	10967
750.478	11605
750.589	11253
750.700	10966
750.811	10767
750.923	10785
751.034	10966
751.145	11770
751.256	10549
751.367	11064
751.479	10654
751.590	10088
751.701	9951
751.812	10963
751.923	9822
752.034	12032
752.145	11752
752.256	11129
752.367	11112
752.478	11580
752.589	10502
752.700	11722
752.811	10844
752.922	11154
753.032	10931
753.143	11301
753.254	9857
753.365	12036
753.476	11121
753.586	10595
753.697	10027
753.808	10750
753.919	9871
754.029	10441
754.140	10794
754.251	10953
754.361	11127
754.472	12159
754.582	10744
754.693	10781
754.804	11337
754.914	10960
755.025	9796
755.135	11678
755.246	11575
755.356	10654
755.466	10406
755.577	11143
755.687	10416
755.798	10505
755.908	10697
756.018	11712
756.129	10792
756.239	11559
756.349	11003
756.460	10936
756.570	10125
756.680	10970
756.790	11223
756.900	12927
757.011	11060
757.121	10606
757.231	11141
757.341	12412
757.451	11158
757.561	11463
757.671	11496
757.781	11614
757.891	11781
758.001	11432
758.111	11871
758.221	12605
758.331	12739
758.441	12080
758.551	11608
758.661	12720
758.771	12518
758.880	11992
758.990	12665
759.100	12703
759.210	13704
759.320	13218
759.429	13431
759.539	13955
759.649	12645
759.758	13752
759.868	14853
759.978	14086
760.087	14683
760.197	15358
760.307	14101
760.416	14696
760.526	13510
760.635	15636
760.745	14912
760.854	15709
760.964	16134
761.073	16393
761.182	15423
761.292	16776
761.401	16980
761.511	16579
761.620	16225
761.729	17563
761.839	17019
761.948	17599
762.057	16826
762.166	19107
762.276	17445
762.385	19191
762.494	18562
762.603	19095
762.712	19662
762.822	20725
762.931	20797
763.040	21793
763.149	22317
763.258	22881
763.367	24779
763.476	25831
763.585	25481
763.694	27484
763.803	27488
763.912	29326
764.021	30662
764.130	32671
764.238	34961
764.347	37280
764.456	38356
764.565	42660
764.674	44763
764.783	49747
764.891	53142
765.000	60802
765.109	66040
765.217	74965
765.326	85009
765.435	99927
765.543	116677
765.652	143306
765.761	173787
765.869	218708
765.978	278207
766.086	352967
766.195	442366
766.303	486525
766.412	368781
766.520	348211
766.629	457094
766.737	425236
766.846	346804
766.954	274479
767.062	218020
767.171	173655
767.279	142769
767.387	117473
767.496	99380
767.604	87661
767.712	77156
767.820	69443
767.928	64487
768.037	58811
768.145	56777
768.253	54699
768.361	51620
768.469	52176
768.577	52327
768.685	55814
768.793	58399
768.901	62095
769.009	71648
769.117	83847
769.225	104160
769.333	136709
769.441	184137
769.549	265849
769.657	377925
769.765	446805
769.873	337750
769.981	402174
770.088	368994
770.196	275293
770.304	202799
770.412	154355
770.519	120981
770.627	99142
770.735	82420
770.842	71239
770.950	62389
771.058	55830
771.165	50040
771.273	47044
771.380	43491
771.488	43660
771.595	42628
771.703	38317
771.810	36039
771.918	34177
772.025	34301
772.133	33984
772.240	31588
772.348	33535
772.455	31114
772.562	29733
772.670	27844
772.777	27593
772.884	27027
772.991	25889
773.099	26258
773.206	24152
773.313	23778
773.420	24738
773.528	23170
773.635	22561
773.742	23744
773.849	21732
773.956	22133
774.063	21196
774.170	21242
774.277	21925
774.384	20213
774.491	20017
774.598	20656
774.705	19158
774.812	19231
774.919	19569
775.026	19220
775.133	18665
775.239	17575
775.346	17911
775.453	17478
775.560	17713
775.667	18218
775.773	17658
775.880	17671
775.987	17387
776.093	17225
776.200	16720
776.307	15187
776.413	16014
776.520	16687
776.627	16546
776.733	14174
776.840	13577
776.946	17204
777.053	14771
777.159	14625
777.266	13841
777.372	14793
777.478	14538
777.585	14419
777.691	14283
777.798	14750
777.904	15190
778.010	13676
778.117	14490
778.223	13669
778.329	13285
778.435	11694
778.542	13659
778.648	12919
778.754	12187
778.860	12958
778.966	12551
779.072	11761
779.178	12718
779.284	12085
779.391	11857
779.497	13543
779.603	16265
779.708	17173
779.815	28305
779.920	77939
780.026	138978
780.132	33569
780.238	16027
780.344	12670
780.450	15080
780.556	11062
780.661	10943
780.767	13393
780.873	10330
780.979	11027
781.085	11805
781.190	10376
781.296	11054
781.402	9637
781.507	10786
781.613	9005
781.719	10296
781.824	10700
781.930	9960
782.035	9733
782.141	11672
782.246	9453
782.352	9477
782.457	10107
782.563	10300
782.668	10363
782.773	8869
782.879	8688
782.984	10309
783.090	9660
783.195	9998
783.300	10445
783.405	9640
783.511	8295
783.616	9357
783.721	8771
783.826	9332
783.932	8350
784.037	9579
784.142	9491
784.247	8791
784.352	8934
784.457	8130
784.562	9644
784.667	9300
784.772	8106
784.877	7391
784.982	9393
785.087	9712
785.192	7577
785.297	8194
785.402	8728
785.507	8086
785.611	7661
785.716	7232
785.821	7572
785.926	8548
786.031	8114
786.135	8123
786.240	7682
786.345	7498
786.450	6468
786.554	9151
786.659	6702
786.763	7089
786.868	8008
786.973	8944
787.077	6859
787.182	7129
787.286	7484
787.391	9580
787.495	6019
787.600	6873
787.704	7357
787.809	7093
787.913	6842
788.017	7260
788.122	8175
788.226	7195
788.330	5189
788.435	7749
788.539	7159
788.643	6650
788.747	6028
788.852	7219
788.956	6735
789.060	8195
789.164	7032
789.268	6076
789.372	6795
789.476	7045
789.580	5969
789.684	5535
789.788	7933
789.892	6787
789.996	6094
790.100	5552
790.204	6310
790.308	8069
790.412	5087
790.516	5331
790.620	7006
790.724	8160
790.828	6113
790.931	4841
791.035	6962
791.139	6506
791.242	5296
791.346	6831
791.450	6180
791.554	5687
791.657	5037
791.761	6787
791.864	6286
791.968	6496
792.072	6845
792.175	5426
792.279	5400
792.382	6157
792.486	5224
792.589	4813
792.693	6770
792.796	4653
792.899	5998
793.003	7057
793.106	4451
793.209	6247
793.313	5691
793.416	4467
793.519	5842
793.623	6475
793.726	6621
793.829	5857
793.932	4487
794.035	4945
794.138	7390
794.242	8677
794.345	5843
794.448	8998
794.551	13783
794.654	44508
794.757	90673
794.860	21141
794.963	7558
795.066	6019
795.169	6332
795.272	6197
795.375	6473
795.477	4521
795.580	5085
795.683	3898
795.786	5740
795.889	5054
795.991	5607
796.094	5977
796.197	3977
796.300	6446
796.402	5144
796.505	3838
796.608	4191
796.710	5084
796.813	4973
796.915	5351
797.018	4856
797.120	5352
797.223	3789
797.326	5892
797.428	4198
797.530	4375
797.633	4219
797.735	5865
797.838	4629
797.940	5627
798.042	4560
798.145	4693
798.247	4782
798.349	4087
798.452	4244
798.554	4693
798.656	3850
798.758	5913
798.860	3968
798.962	5026
799.065	4380
799.167	4152
799.269	4513
799.371	5551
799.473	5497
799.575	3702
799.677	3913
799.779	5376
799.881	2784
799.983	5007
800.085	4155
800.187	4634
800.289	2878
800.390	4512
800.492	5128
800.594	4585
800.696	2924
800.798	4703
800.899	3402
801.001	4401
801.103	3414
801.205	4694
801.306	3874
801.408	3832
801.509	3944
801.611	4911
801.713	4270
801.814	4585
801.916	3441
802.017	3331
802.119	3807
802.220	4904
802.322	2430
802.423	5024
802.525	3012
802.626	4213
802.727	3995
802.829	4467
802.930	2541
803.031	4885
803.133	3152
803.234	3915
803.335	3704
803.436	3866
803.538	3146
803.639	2990
803.740	4565
803.841	3433
803.942	4645
804.043	4567
804.144	2951
804.245	4151
804.346	3761
804.447	3071
804.548	3576
804.649	4441
804.750	2075
804.851	3175
804.952	3458
805.053	4315
805.154	3045
805.255	5566
805.355	3222
805.456	3536
805.557	2840
805.658	3490
805.758	3794
805.859	3746
805.960	3266
806.061	3361
806.161	3768
806.262	3798
806.362	2601
806.463	3160
806.564	3577
806.664	4304
806.765	3488
806.865	3438
806.966	2763
807.066	3299
807.166	4854
807.267	4430
807.367	2847
807.468	3924
807.568	1978
807.668	3913
807.769	3927
807.869	2784
807.969	3945
808.069	3744
808.170	3555
808.270	3445
808.370	3747
808.470	3900
808.570	1317
808.670	2262
808.770	3304
808.870	2577
808.970	3233
809.070	2179
809.170	2682
809.271	4689
809.370	2385
809.470	4597
809.570	2549
809.670	3252
809.770	3527
809.870	3846
809.970	3978
810.070	3910
810.169	3187
810.269	2275
810.369	3604
810.469	3164
810.568	2744
810.668	2585
810.768	2717
810.867	3307
810.967	2091
811.066	2924
811.166	2306
811.265	3987
811.365	2902
811.464	2914
811.564	2565
811.663	3315
811.763	2087
811.862	4145
811.962	3725
812.061	2991
812.160	2567
812.260	3615
812.359	3166
812.458	3115
812.557	4907
812.657	3895
812.756	4100
812.855	3529
812.954	3368
813.053	3361
813.153	2525
813.252	1987
813.351	3074
813.450	3644
813.549	2521
813.648	3256
813.747	2871
813.846	3587
813.945	2604
814.044	3386
814.143	3059
814.242	3998
814.341	1997
814.439	4132
814.538	3838
814.637	4194
814.736	4111
814.835	4309
814.933	3564
815.032	5138
815.131	4974
815.229	8371
815.328	11875
815.427	9569
815.525	7902
815.624	7901
815.722	7261
815.821	9060
815.919	7958
816.018	7180
816.116	8611
816.215	7869
816.313	8257
816.412	10632
816.510	10422
816.609	10803
816.707	9469
816.805	9797
816.904	8624
817.002	10373
817.100	9101
817.198	10341
817.296	8930
817.395	10685
817.493	9344
817.591	8935
817.689	8798
817.787	9062
817.885	8191
817.983	8830
818.081	10364
818.179	11819
818.277	18368
818.375	15635
818.473	10686
818.571	8413
818.669	9072
818.767	10052
818.865	8772
818.963	7221
819.061	8986
819.158	9600
819.256	12041
819.354	13603
819.452	24902
819.549	16808
819.647	10712
819.745	8987
819.842	8142
819.940	8972
820.038	7035
820.135	7396
820.233	7871
820.330	7524
820.428	6639
820.525	9417
820.623	7866
820.720	6953
820.818	8068
820.915	8554
821.012	7186
821.110	6607
821.207	8405
821.304	6486
821.402	7941
821.499	8457
821.596	5919
821.693	7163
821.791	7480
821.888	7577
821.985	8291
822.082	6642
822.179	6873
822.276	7472
822.373	7352
822.470	6517
822.567	7076
822.664	6002
822.761	6865
822.858	7414
822.955	6286
823.052	6168
823.149	6510
823.246	8053
823.343	5444
823.440	6752
823.536	6579
823.633	7262
823.730	6064
823.827	7184
823.923	7282
824.020	6240
824.117	7389
824.213	6004
824.310	6575
824.407	5421
824.503	6683
824.600	7050
824.696	4435
824.793	7582
824.889	6215
824.986	5776
825.082	4581
825.179	5633
825.275	6285
825.371	7219
825.468	4467
825.564	4206
825.660	6411
825.757	8940
825.853	5885
825.949	4891
826.045	5089
826.142	6012
826.238	6420
826.334	5488
826.430	5768
826.526	5070
826.622	3766
826.718	6055
826.814	5887
826.910	6465
827.006	2986
827.102	3827
827.198	6378
827.294	5502
827.390	6372
827.486	5310
827.582	2509
827.678	4459
827.774	6195
827.869	3807
827.965	5142
828.061	4858
828.157	5736
828.252	5953
828.348	4966
828.444	5457
828.539	3913
828.635	5726
828.731	5285
828.826	4671
828.922	4324
829.017	5181
829.113	5592
829.208	4248
829.304	3718
829.399	6666
829.495	4260
829.590	4386
829.685	3692
829.781	5979
829.876	5518
829.971	2520
830.066	2828
830.162	4607
830.257	6164
830.352	4085
830.447	3867
830.543	3831
830.638	3573
830.733	6128
830.828	3499
830.923	5410
831.018	3485
831.113	5792
831.208	3092
831.303	2908
831.398	3108
831.493	4518
831.588	6157
831.683	4198
831.778	2887
831.873	3631
831.967	4393
832.062	4480
832.157	3242
832.252	4607
832.346	3973
832.441	4405
832.536	4443
832.631	5385
832.725	4243
832.820	4109
832.914	4217
833.009	2967
833.104	2140
833.198	3681
833.293	3163
833.387	4575
833.482	4527
833.576	3372
833.670	2936
833.765	3418
833.859	3244
833.954	4492
834.048	3312
834.142	3241
834.237	2192
834.331	2738
834.425	4132
834.519	3083
834.613	3273
834.708	3124
834.802	3669
834.896	3988
834.990	3381
835.084	3126
835.178	2788
835.272	3338
835.366	3543
835.460	4897
835.554	2971
835.648	2613
835.742	2074
835.836	2935
835.930	2109
836.024	4728
836.117	3319
836.211	3477
836.305	3663
836.399	3290
836.493	1664
836.586	3887
836.680	2868
836.774	2508
836.867	3237
836.961	1937
837.055	2006
837.148	2639
837.242	2663
837.335	3547
837.429	3422
837.522	2605
837.616	2376
837.709	3364
837.803	2652
837.896	3570
837.989	3311
838.083	3208
838.176	2867
838.269	1680
838.363	3656
838.456	2963
838.549	2618
838.642	2804
838.735	2411
838.829	4178
838.922	2223
839.015	3035
839.108	1989
839.201	3104
839.294	3025
839.387	3151
839.480	1802
839.573	3352
839.666	1196
839.759	2902
839.852	1506
839.945	3220
840.038	2332
840.131	2210
840.223	2980
840.316	3835
840.409	2727
840.502	3304
840.594	3287
840.687	2152
840.780	2193
840.873	1686
840.965	1086
841.058	2758
841.150	3538
841.243	2011
841.336	2469
841.428	2490
841.521	2587
841.613	2537
841.706	2324
841.798	3124
841.890	1915
841.983	2170
842.075	2717
842.167	2126
842.260	2873
842.352	3829
842.444	3078
842.537	2618
842.629	2107
842.721	2229
842.813	2760
842.905	2337
842.997	1645
843.090	2639
843.182	2601
843.274	1413
843.366	3134
843.458	4346
843.550	3913
843.642	3048
843.734	2325
843.826	2389
843.918	1475
844.009	3064
844.101	1732
844.193	2839
844.285	2944
844.377	2778
844.469	2633
844.560	1609
844.652	1673
844.744	2395
844.835	2005
844.927	3134
845.019	1549
845.110	2099
845.202	2587
845.293	2692
845.385	938
845.476	2547
845.568	2447
845.659	1970
845.751	1952
845.842	2504
845.934	1424
846.025	2191
846.116	1780
846.208	3190
846.299	2147
846.390	2488
846.482	1861
846.573	3137
846.664	2418
846.755	2320
846.846	1957
846.937	645
847.029	1017
847.120	1842
847.211	1852
847.302	3341
847.393	1660
847.484	2330
847.575	938
847.666	2190
847.757	2008
847.847	1763
847.938	2691
848.029	2515
848.120	1533
848.211	2462
848.302	1243
848.392	1994
848.483	2624
848.574	2054
848.664	2077
848.755	2241
848.846	861
848.936	2399
849.027	1688
849.118	2209
849.208	830
849.299	2666
849.389	2801
849.480	4336
849.570	5270
849.661	10906
849.751	16797
849.841	7433
849.932	2074
850.022	2323
850.112	1889
850.203	1795
850.293	1679
850.383	1481
850.474	1021
850.564	967
850.654	1290
850.744	2235
850.834	1954
850.924	2084
851.014	2408
851.104	3058
851.194	1532
851.284	1902
851.374	1979
851.464	892
851.554	1777
851.644	2243
851.734	2520
851.824	2519
851.914	3723
852.004	5574
852.094	4561
852.183	2219
852.273	1479
852.363	1452
852.452	1501
852.542	1990
852.632	1092
852.721	1192
852.811	712
852.901	2806
852.990	1702
853.080	2256
853.169	1523
853.259	2294
853.348	1552
853.438	2504
853.527	2754
853.617	2676
853.706	4233
853.795	6618
853.885	13117
853.974	23896
854.063	41519
854.152	59124
854.242	24026
854.331	7151
854.420	2829
854.509	3921
854.598	2787
854.687	2781
854.777	1823
854.866	1840
854.955	1767
855.044	1110
855.133	758
855.222	1678
855.311	1385
855.400	2447
855.488	1055
855.577	2162
855.666	1542
855.755	1894
855.844	1938
855.933	1941
856.021	1464
856.110	1643
856.199	399
856.288	850
856.376	922
856.465	1319
856.554	2347
856.642	1952
856.731	2075
856.819	2033
856.908	1925
856.996	1303
857.085	1293
857.173	2003
857.262	264
857.350	1453
857.438	1028
857.527	1695
857.615	952
857.703	2505
857.792	1587
857.880	1139
857.968	1299
858.056	2223
858.145	1653
858.233	2076
858.321	728
858.409	1634
858.497	1344
858.585	1264
858.673	1715
858.761	1638
858.849	8
858.937	906
859.025	1303
859.113	2358
859.201	818
859.289	2316
859.377	1588
859.465	1863
859.552	734
859.640	1397
859.728	1215
859.816	1227
859.903	1227
859.991	450
860.079	1817
860.166	1941
860.254	1594
860.342	2197
860.429	875
860.517	1690
860.604	1762
860.692	1354
860.779	1245
860.867	1415
860.954	1694
861.042	2194
861.129	2239
861.216	2303
861.304	1371
861.391	1499
861.478	2223
861.565	2371
861.653	1597
861.740	811
861.827	253
861.914	2087
862.001	977
862.089	628
862.176	1847
862.263	1610
862.350	1437
862.437	1182
862.524	1046
862.611	1515
862.698	1220
862.785	2293
862.871	2025
862.958	1689
863.045	1267
863.132	2337
863.219	702
863.306	688
863.392	1505
863.479	2054
863.566	1225
863.652	2332
863.739	2623
863.826	2240
863.912	2257
863.999	2287
864.086	1809
864.172	1789
864.259	2632
864.345	1733
864.432	1867
864.518	1974
864.604	2425
864.691	2493
864.777	3121
864.863	3559
864.950	5379
865.036	5960
865.122	10808
865.209	10675
865.295	9033
865.381	8328
865.467	8582
865.553	8909
865.639	7968
865.726	9735
865.812	13040
865.898	19250
865.984	24432
866.070	40868
866.156	42644
866.242	16862
866.328	10221
866.414	8520
866.499	7697
866.585	8052
866.671	7074
866.757	8270
866.843	7299
866.928	8191
867.014	7184
867.100	7792
867.186	7042
867.271	7372
867.357	7318
867.442	6976
867.528	7179
867.614	6749
867.699	7282
867.785	7692
867.870	6224
867.956	7580
868.041	6297
868.127	6656
868.212	6114
868.297	6802
868.383	7418
868.468	6601
868.553	7243
868.639	7419
868.724	6836
868.809	6947
868.894	5707
868.979	6565
869.065	6802
869.150	5534
869.235	6103
869.320	6390
869.405	5576
869.490	6239
869.575	5787
869.660	4677
869.745	5858
869.830	6778
869.915	6026
870.000	5688
870.085	5657
870.169	7481
870.254	6347
870.339	5073
870.424	4352
870.509	6189
870.593	6522
870.678	6598
870.763	6007
870.847	5757
870.932	6232
871.016	7031
871.101	4455
871.186	6110
871.270	7239
871.355	5354
871.439	4746
871.523	5397
871.608	5048
871.692	5437
871.777	5930
871.861	5430
871.945	4830
872.030	5715
872.114	4924
872.198	4856
872.282	3746
872.367	4756
872.451	5380
872.535	4958
872.619	5049
872.703	4321
872.787	4517
872.871	5020
872.955	4485
873.039	3586
873.123	4917
873.207	5781
873.291	3733
873.375	4870
873.459	5605
873.543	4569
873.627	4238
873.711	4052
873.794	5312
873.878	5531
873.962	3691
874.045	4454
874.129	4324
874.137	4358
874.213	4698
874.245	4225
874.296	3467
874.352	3561
874.380	3606
874.460	3497
874.464	3494
874.547	4271
874.568	4292
874.631	4339
874.676	4572
874.714	4798
874.784	4661
874.798	4627
874.881	5068
874.892	4787
874.965	2858
874.999	3310
875.048	3937
875.107	4587
875.131	4862
875.215	3847
875.215	3846
875.298	2781
875.323	3006
875.381	3558
875.430	4177
875.465	4614
875.538	3989
875.548	3891
875.631	3302
875.646	3184
875.714	2703
875.753	2535
875.798	2377
875.861	3966
875.881	4435
875.964	3285
875.968	3284
876.047	3317
876.076	3349
876.130	3345
876.183	3685
876.213	3961
876.291	3829
876.296	3805
876.379	2998
876.398	3028
876.462	3194
876.506	2893
876.545	2602
876.613	3014
876.628	3131
876.711	3674
876.721	3782
876.794	4435
876.828	4297
876.877	4081
876.935	2890
876.960	2429
877.043	2639
877.043	2644
877.125	3620
877.150	3928
877.208	4467
877.258	3138
877.291	2273
877.365	2584
877.374	2610
877.456	2649
877.472	2735
877.539	3328
877.579	3525
877.622	3568
877.687	3675
877.704	3737
877.787	2659
877.794	2762
877.869	3748
877.901	3416
877.952	2949
878.008	2539
878.034	2255
878.115	2041
878.117	2043
878.199	2805
878.222	2998
878.282	3564
878.329	3911
878.364	3987
878.437	2967
878.447	2826
878.529	2306
878.544	2181
878.611	1749
878.651	2113
878.694	2585
878.758	2592
878.776	2555
878.858	2401
878.865	2403
878.941	2081
878.972	1815
879.023	1687
879.078	2138
879.105	2395
879.185	2994
879.187	3000
879.269	2388
879.292	2433
879.351	2325
879.399	2087
879.433	2086
879.506	2302
879.516	2293
879.598	2070
879.613	2021
879.680	1893
879.720	2119
879.762	2492
879.827	2302
879.844	2184
879.926	1702
879.933	1778
880.007	2470
880.040	2303
880.089	2223
880.147	2482
880.171	2512
880.253	2908
880.254	2905
880.335	1771
880.360	1988
880.417	2732
880.467	3068
880.499	3232
880.574	3078
880.580	3020
880.662	2986
880.680	2558
880.744	1108
880.787	1293
880.825	1456
880.893	1444
880.907	1518
880.989	1946
881.000	1986
881.070	2270
881.106	2331
881.152	2246
881.213	2043
881.233	1896
881.315	1810
881.319	1809
881.396	2215
881.426	2050
881.478	1839
881.532	2605
881.559	2786
881.639	2419
881.641	2404
881.722	1269
881.745	1270
881.803	1983
881.852	2077
881.885	1851
881.958	1681
881.966	1698
882.047	2071
882.064	2094
882.129	1478
882.171	1108
882.210	1205
882.277	1804
882.291	1912
882.372	2094
882.383	2173
882.454	2480
882.489	2267
882.535	2012
882.596	2417
882.616	2584
882.697	2227
882.702	2211
882.778	1459
882.808	1251
882.859	1287
882.914	1759
882.940	1858
883.020	1487
883.021	1482
883.102	1602
883.127	1672
883.183	2263
883.233	2169
883.264	1823
883.339	1303
883.345	1268
883.426	1191
883.445	1203
883.507	1724
883.551	2008
883.587	1841
883.657	1391
883.668	1447
883.749	2200
883.763	2207
883.830	1588
883.869	1505
883.910	1515
883.975	1596
883.991	1619
884.072	1681
884.081	1640
884.152	1622
884.187	1905
884.233	2106
884.292	2108
884.314	2098
884.394	1560
884.398	1553
884.475	1000
884.504	871
884.555	907
884.610	718
884.636	741
884.716	1542
884.716	1547
884.797	2297
884.821	2444
884.877	1919
884.927	1438
884.958	1417
885.033	1310
885.038	1260
885.118	543
885.139	450
885.199	813
885.244	849
885.279	1071
885.350	2154
885.359	2205
885.439	2130
885.456	2063
885.520	1614
885.561	1354
885.600	1101
885.667	1127
885.680	1213
885.760	1179
885.773	1220
885.840	1337
885.878	1356
885.920	1194
885.984	1185
886.000	1275
886.080	1313
886.089	1368
886.160	1463
886.195	1283
886.240	1317
886.300	1674
886.320	1662
886.400	1305
886.406	1297
886.480	1042
886.511	903
886.560	1310
886.616	1805
886.640	1680
886.720	1209
886.722	1205
886.800	1257
886.827	1120
886.879	955
886.932	1202
886.959	1667
887.038	2391
887.039	2374
887.119	1099
887.143	755
887.198	1132
887.248	1342
887.278	1452
887.354	1726
887.358	1687
887.437	979
887.459	770
887.517	1140
887.564	1495
887.596	1288
887.669	589
887.676	587
887.755	910
887.774	945
887.835	548
887.880	337
887.914	772
887.985	1524
887.994	1522
888.073	1676
888.090	1697
888.153	1999
888.195	2131
888.232	1770
888.300	1241
888.311	1276
888.391	1367
888.405	1412
888.470	911
888.510	612
888.549	716
888.615	922
888.628	1039
888.708	1780
888.720	1874
888.787	1403
888.825	1172
888.866	968
888.930	676
888.945	736
889.024	1130
889.035	1175
889.103	1355
889.140	1458
889.182	1303
889.245	1134
889.261	1176
889.340	1362
889.349	1384
889.419	1294
889.454	1278
889.498	1178
889.559	1019
889.577	1079
889.656	1390
889.664	1426
889.735	1268
889.768	1196
889.814	1228
889.873	1276
889.978	1044
890.083	1300
890.187	139
890.292	1620
890.397	1225
890.501	853
890.606	417
890.710	1275
890.815	1128
890.919	963
891.024	988
891.128	575
891.233	251
891.337	2510
891.442	1440
891.546	1763
891.650	856
891.755	757
891.859	2314
891.963	1837
892.068	1437
892.172	1013
892.276	1041
892.380	1324
892.484	1302
892.589	1404
892.693	1096
892.797	188
892.901	484
893.005	902
893.109	1978
893.213	1716
893.317	850
893.421	731
893.525	227
893.629	678
893.733	1140
893.837	1354
893.941	1595
894.045	787
894.148	108
894.252	917
894.356	573
894.460	949
894.564	809
894.667	1419
894.771	1124
894.875	709
894.978	953
895.082	1748
895.186	995
895.289	1260
895.393	623
895.496	1684
895.600	959
895.703	593
895.807	646
895.910	1210
896.014	494
896.117	515
896.221	806
896.324	739
896.427	87
896.531	682
896.634	783
896.737	1413
896.840	979
896.944	1320
897.047	1038
897.150	668
897.253	381
897.356	562
897.460	247
897.563	939
897.666	548
897.769	1095
897.872	624
897.975	912
898.078	1239
898.181	895
898.284	636
898.387	1303
898.490	1181
898.593	1571
898.695	-55
898.798	698
898.901	1179
899.004	986
899.107	890
899.209	849
899.312	1484
899.415	809
899.518	352
899.620	482
899.723	806
899.826	102
899.928	507
900.031	858
900.133	996
900.236	1060
900.338	473
900.441	525
900.543	87
900.646	290
900.748	1123
900.851	729
900.953	129
901.055	41
901.158	367
901.260	553
901.362	593
901.465	746
901.567	941
901.669	869
901.771	54
901.873	1212
901.976	574
902.078	218
902.180	860
902.282	746
902.384	943
902.486	995
902.588	830
902.690	581
902.792	204
902.894	1267
902.996	723
903.098	766
903.200	520
903.302	1118
903.404	219
903.505	868
903.607	277
903.709	1293
903.811	687
903.913	1084
904.014	245
904.116	651
904.218	774
904.319	384
904.421	875
904.523	1038
904.624	446
904.726	353
904.827	189
904.929	1278
905.030	230
905.132	1611
905.233	959
905.335	406
905.436	284
905.537	51
905.639	1258
905.740	114
905.841	356
905.943	602
906.044	372
906.145	1181
906.247	583
906.348	506
906.449	647
906.550	647
906.651	231
906.752	592
906.854	65
906.955	118
907.056	380
907.157	1160
907.258	1188
907.359	528
907.460	-206
907.561	-172
907.662	-278
907.762	422
907.863	173
907.964	1308
908.065	156
908.166	134
908.267	459
908.367	289
908.468	484
908.569	936
908.670	891
908.770	1366
908.871	816
908.971	631
909.072	79
909.173	271
909.273	693
909.374	843
909.474	-199
909.575	402
909.675	167
909.776	1066
909.876	-83
909.977	780
910.077	1014
910.177	1100
910.278	-45
910.378	197
910.478	332
910.579	491
910.679	609
910.779	1159
910.879	447
910.980	1076
911.080	735
911.180	1404
911.280	72
911.380	593
911.480	701
911.580	462
911.680	517
911.780	701
911.880	571
911.980	-505
912.080	-106
912.180	695
912.280	557
912.380	725
912.480	-132
912.580	407
912.679	-43
912.779	1362
912.879	421
912.979	491
913.078	-395
913.178	193
913.278	405
913.377	991
913.477	407
913.577	312
913.676	1194
913.776	768
913.875	639
913.975	940
914.074	258
914.174	1022
914.273	636
914.373	1078
914.472	325
914.572	675
914.671	124
914.770	348
914.870	463
914.969	466
915.068	205
915.167	1430
915.267	-266
915.366	202
915.465	517
915.564	1110
915.663	885
915.763	431
915.862	1144
915.961	1623
916.060	304
916.159	262
916.258	-421
916.357	181
916.456	1027
916.555	992
916.654	246
916.752	1065
916.851	-65
916.950	619
917.049	-29
917.148	740
917.247	238
917.345	367
917.444	529
917.543	765
917.642	404
917.740	80
917.839	406
917.937	1634
918.036	1121
918.135	638
918.233	548
918.332	-46
918.430	83
918.529	41
918.627	672
918.726	1313
918.824	1002
918.923	898
919.021	1032
919.119	733
919.218	167
919.316	229
919.414	562
919.512	1080
919.611	648
919.709	1155
919.807	1076
919.905	1697
920.003	574
920.102	596
920.200	566
920.298	1190
920.396	855
920.494	777
920.592	388
920.690	1047
920.788	1239
920.886	1276
920.984	1434
921.082	670
921.180	1568
921.277	1851
921.375	1726
921.473	2009
921.571	1466
921.669	1409
921.766	942
921.864	1915
921.962	1479
922.060	2285
922.157	1318
922.255	2326
922.352	1526
922.450	2426
922.548	1750
922.645	2449
922.743	3739
922.840	4124
922.938	5389
923.035	5230
923.133	5072
923.230	5059
923.327	5837
923.425	5867
923.522	5069
923.619	5735
923.717	4928
923.814	4589
923.911	4992
924.008	5615
924.106	3983
924.203	4669
924.300	4760
924.397	4231
924.494	4292
924.591	4388
924.688	3877
924.786	5281
924.883	3952
924.979	4566
925.077	3935
925.173	4885
925.270	4897
925.367	3354
925.464	4048
925.561	4899
925.658	5361
925.755	5444
925.852	4456
925.948	4376
926.045	5130
926.142	4481
926.239	5093
926.335	3319
926.432	4800
926.529	4566
926.625	4326
926.722	3644
926.818	4943
926.915	4301
927.011	3761
927.108	3783
927.204	3751
927.301	4091
927.397	4038
927.494	4791
927.590	2912
927.687	3538
927.783	4200
927.879	4774
927.976	3810
928.072	3189
928.168	3843
928.264	4011
928.361	2852
928.457	5223
928.553	3196
928.649	3207
928.745	3770
928.841	3106
928.937	3858
929.033	3741
929.129	3854
929.225	4574
929.321	3395
929.417	2628
929.513	3186
929.609	3320
929.705	1948
929.801	4624
929.897	2060
929.993	2868
930.089	3759
930.184	2753
930.280	4312
930.376	4575
930.471	2232
930.567	2538
930.663	3226
930.758	2705
930.854	2862
930.950	2886
931.045	1832
931.141	3443
931.236	3883
931.332	2796
931.427	2007
931.523	3408
931.618	3339
931.714	1929
931.809	2559
931.905	2960
932.000	2101
932.095	2066
932.191	3664
932.286	3841
932.381	3079
932.476	1846
932.572	2678
932.667	2812
932.762	2574
932.857	2711
932.952	3553
933.047	3284
933.142	1676
933.237	3297
933.332	2974
933.427	2994
933.522	1983
933.617	2299
933.712	1734
933.807	2916
933.902	2930
933.997	3355
934.092	1997
934.187	2061
934.282	2685
934.376	2770
934.471	3076
934.566	2178
934.661	1442
934.755	2181
934.850	2899
934.945	2689
935.039	1640
935.134	1844
935.228	1726
935.323	4114
935.417	2403
935.512	1902
935.606	1169
935.701	2123
935.795	2527
935.890	2185
935.984	1530
936.079	667
936.173	1716
936.267	2633
936.362	1221
936.456	2299
936.550	3044
936.644	3517
936.738	1069
936.833	2597
936.927	1350
937.021	1967
937.115	3150
937.209	2529
937.303	2376
937.397	1778
937.491	1444
937.585	2866
937.679	2506
937.773	1864
937.867	914
937.961	2046
938.055	2172
938.149	2740
938.243	1698
938.337	1559
938.430	1427
938.524	2299
938.618	1450
938.712	1642
938.805	1821
938.899	2291
938.993	2976
939.086	1790
939.180	-32
939.274	715
939.367	2038
939.461	1808
939.554	1022
939.648	942
939.741	1377
939.835	2392
939.928	2219
940.022	2680
940.115	1547
940.208	1934
940.302	2723
940.395	2509
940.488	588
940.582	1085
940.675	428
940.768	2479
940.861	1433
940.954	2697
941.048	687
941.141	317
941.234	1142
941.327	1541
941.420	1319
941.513	2048
941.606	1152
941.699	1650
941.792	1292
941.885	1650
941.978	1302
942.071	1601
942.164	264
942.257	1191
942.349	624
942.442	1422
942.535	-483
942.628	704
942.721	1520
942.813	653
942.906	1545
942.999	1497
943.091	1315
943.184	600
943.277	1112
943.369	842
943.462	-427
943.554	1310
943.647	616
943.739	979
943.832	1373
943.924	-202
944.017	113
944.109	119
944.201	1139
944.294	1403
944.386	870
944.478	1034
944.571	599
944.663	1486
944.755	1255
944.847	1502
944.940	820
945.032	161
945.124	253
945.216	2125
945.308	1734
945.400	1505
945.492	798
945.584	1510
945.676	1351
945.768	1440
945.860	1046
945.952	1184
946.044	591
946.136	852
946.228	520
946.320	580
946.412	1254
946.503	1299
946.595	1873
946.687	576
946.779	-340
946.870	477
946.962	737
947.054	1280
947.145	936
947.237	1087
947.329	812
947.420	1782
947.512	1156
947.603	482
947.695	357
947.786	-274
947.878	-23
947.969	467
948.061	924
948.152	764
948.243	319
948.335	259
948.426	139
948.517	621
948.609	806
948.700	1492
948.791	226
948.882	770
948.973	772
949.065	420
949.156	796
949.247	80
949.338	1269
949.429	-58
949.520	238
949.611	-268
949.702	1238
949.793	956
949.884	168
949.975	410
950.066	-77
950.157	-105
950.247	441
950.338	191
950.429	-960
950.520	1168
950.611	274
950.701	395
950.792	1300
950.883	1894
950.973	-59
951.064	512
951.155	1239
951.245	1358
951.336	704
951.427	602
951.517	727
951.608	1095
951.698	-77
951.788	-60
951.879	-185
951.969	380
952.060	296
952.150	599
952.240	1260
952.331	-912
952.421	1566
952.511	355
952.602	264
952.692	291
952.782	-35
952.872	210
952.962	539
953.052	102
953.143	-320
953.233	617
953.323	633
953.413	889
953.503	720
953.593	1445
953.683	-646
953.773	-139
953.863	-335
953.953	-777
954.042	635
954.132	1200
954.222	395
954.312	174
954.402	-96
954.492	771
954.581	695
954.671	-87
954.761	-375
954.850	1480
954.940	-195
955.030	55
955.119	-403
955.209	1294
955.298	-82
955.388	615
955.477	1772
955.567	362
955.656	308
955.746	689
955.835	-21
955.925	-507
956.014	823
956.103	1029
956.193	827
956.282	1051
956.371	415
956.461	780
956.550	196
956.639	889
956.728	555
956.817	1239
956.906	91
956.995	1058
957.085	218
957.174	249
957.263	544
957.352	112
957.441	505
957.530	440
957.619	-412
957.708	779
957.796	-260
957.885	173
957.974	735
958.063	298
958.152	-891
958.241	118
958.329	179
958.418	519
958.507	-454
958.596	986
958.684	-198
958.773	615
958.861	-483
958.950	-435
959.039	1062
959.127	-38
959.216	557
959.304	218
959.393	339
959.481	244
959.570	507
959.658	24
959.746	169
959.835	1199
959.923	-7
960.011	34
960.100	493
960.188	1211
960.276	596
960.365	-204
960.453	17
960.541	-823
960.629	-526
960.717	-291
960.805	-812
960.893	707
960.981	-476
961.069	1411
961.158	585
961.245	842
961.333	806
961.421	-61
961.509	-214
961.597	-121
961.685	348
961.773	248
961.861	530
961.949	1901
962.036	-195
962.124	78
962.212	-211
962.299	-757
962.387	-127
962.475	677
962.562	-683
962.650	1114
962.738	158
962.825	-435
962.913	-170
963.000	-305
963.088	-63
963.175	-142
963.263	-198
963.350	196
963.438	-639
963.525	989
963.612	1222
963.700	648
963.787	3230
963.874	995
963.962	-198
964.049	358
964.136	-51
964.223	-634
964.310	666
964.398	34
964.485	5
964.572	-13
964.659	256
964.746	522
964.833	605
964.920	-187
965.007	-343
965.094	22
965.181	158
965.268	371
965.355	116
965.441	461
965.528	-1083
965.615	583
965.702	778
965.789	587
965.875	473
965.962	114
966.049	-687
966.136	640
966.222	419
966.309	797
966.395	-268
966.482	455
966.569	71
966.655	107
966.742	-363
966.828	305
966.915	-382
967.001	227
967.087	-592
967.174	332
967.260	407
967.347	181
967.433	691
967.519	2175
967.605	-108
967.692	108
967.778	365
967.864	-28
967.950	-289
968.036	-349
968.123	502
968.209	-462
968.295	-2125
968.381	984
968.467	-195
968.553	-1121
968.639	-15
968.725	-1046
968.811	838
968.897	1156
968.983	38
969.069	-694
969.154	261
969.240	439
969.326	-1094
969.412	-846
969.497	-36
969.583	-827
969.669	427
969.755	508
969.840	-60
969.926	978
970.012	629
970.097	1565
970.183	957
970.268	696
970.354	718
970.439	-502
970.525	1180
970.610	-67
970.696	622
970.781	331
970.866	-565
970.952	344
971.037	-352
971.122	-485
971.208	209
971.293	-153
971.378	-1164
971.463	639
971.549	-474
971.634	-174
971.719	-770
971.804	369
971.889	-94
971.974	-381
972.059	-410
972.144	245
972.229	152
972.314	-1011
972.399	-587
972.484	-453
972.569	-969
972.654	-795
972.739	643
972.824	-610
972.908	-836
972.993	-44
973.078	-1154
973.163	-499
973.247	-166
973.332	-1188
973.417	138
973.501	-894
973.586	-686
973.671	-219
973.755	-313
973.840	719
973.924	352
974.009	5
974.093	-196
974.178	939
974.262	-361
974.346	211
974.431	-615
974.515	-348
974.600	-615
974.684	-71
974.768	-406
974.852	1075
974.937	-1275
975.021	95
975.105	-751
975.189	490
975.273	-100
975.358	-530
975.442	-1249
975.526	657
975.610	-646
975.694	-481
975.778	164
975.862	58
975.946	-1042
976.030	493
976.114	-101
976.198	-515
976.281	-133
976.365	191
976.449	-373
976.533	200
976.617	-1345
976.700	-942
976.784	241
976.868	-307
976.951	189
977.035	-401
977.119	298
977.202	-513
977.286	880
977.369	-449
977.453	1327
977.536	292
977.620	-146
977.703	230
977.787	-934
977.870	271
977.953	566
978.037	-497
978.120	-395
978.203	-594
978.287	-583
978.370	-165
978.453	-1027
978.536	-199
978.620	228
978.703	68
978.786	-428
978.869	-982
978.952	-1656
979.035	1084
979.118	-156
979.201	-957
979.284	-463
979.367	-368
979.450	-164
979.533	-963
979.616	-1335
979.699	-657
979.782	-503
979.865	-545
979.948	-535
980.030	-416
980.113	-3
980.196	-852
980.279	-838
980.361	-1176
980.444	-906
980.526	-417
980.609	-16
980.692	-82
980.774	1119
980.857	-1172
980.939	571
981.022	-637
981.104	-820
981.187	166
981.269	-476
981.352	-18
981.434	-904
981.516	-1023
981.599	351
981.681	-740
981.763	-191
981.846	-83
981.928	-169
982.010	-735
982.092	-151
982.174	-687
982.256	-969
982.339	-635
982.421	-459
982.503	-184
982.585	-1283
982.667	-226
982.749	-294
982.831	254
982.913	-1481
982.995	-375
983.077	-1856
983.158	830
983.240	-1609
983.322	481
983.404	1172
983.486	454
983.568	997
983.649	298
983.731	652
983.813	-1288
983.894	-219
983.976	-212
984.058	-447
984.139	526
984.221	-1257
984.302	15
984.384	-563
984.465	-527
984.547	-591
984.628	-837
984.710	238
984.791	-89
984.872	-231
984.954	325
985.035	-465
985.116	-905
985.198	-221
985.279	1455
985.360	-381
985.441	-400
985.522	-165
985.604	341
985.685	-1282
985.766	576
985.847	934
985.928	-679
986.009	482
986.090	-426
986.171	118
986.252	-668
986.333	-603
986.414	-326
986.495	-232
986.576	-896
986.656	-139
986.737	415
986.818	-357
986.899	-448
986.980	-539
987.060	630
987.141	-279
987.222	67
987.302	-499
987.383	786
987.464	-211
987.544	-107
987.625	546
987.705	851
987.786	369
987.866	210
987.947	80
988.027	568
988.108	-432
988.188	386
988.268	211
988.349	395
988.429	-610
988.509	-65
988.589	-486
988.670	-461
988.750	695
988.830	-205
988.910	288
988.990	94
989.070	-500
989.151	-21
989.231	-879
989.311	254
989.391	-549
989.471	-78
989.551	-463
989.631	78
989.711	-300
989.791	-589
989.870	-637
989.950	1050
990.030	-434
990.110	679
990.190	-1019
990.269	-642
990.349	-1166
990.429	-691
990.509	309
990.588	-645
990.668	-108
990.747	317
990.827	-974
990.907	-115
990.986	-804
991.066	-592
991.145	-735
991.225	-281
991.304	-470
991.383	73
991.463	-795
991.542	-434
991.622	-1234
991.701	-970
991.780	-712
991.859	-450
991.939	-616
992.018	-884
992.097	-50
992.176	-396
992.256	-850
992.335	-881
992.414	88
992.493	-908
992.572	-318
992.651	379
992.730	-1828
992.809	-196
992.888	-1073
992.967	-1345
993.046	-1263
993.125	-1474
993.203	-367
993.282	-1280
993.361	-604
993.440	-887
993.519	-1969
993.597	704
993.676	-979
993.755	-218
993.834	-995
993.912	-1970
993.991	751
994.069	-1205
994.148	-939
994.226	-684
994.305	-498
994.384	-717
994.462	305
994.540	-1406
994.619	-1835
994.697	-859
994.776	-734
994.854	-479
994.932	-1601
995.011	-303
995.089	-1305
995.167	-1138
995.245	-670
995.324	-1162
995.402	23
995.480	-405
995.558	-554
995.636	-1393
995.714	-1356
995.792	68
995.870	-1222
995.948	-749
996.026	-118
996.104	-1646
996.182	-740
996.260	-1748
996.338	-749
996.416	-1910
996.494	-1433
996.572	-300
996.649	-1717
996.727	-1943
996.805	-1201
996.883	-1137
996.960	-1610
997.038	-77
997.116	-708
997.193	-1279
997.271	-559
997.348	-2188
997.426	-1270
997.504	-1088
997.581	-370
997.658	-295
997.736	-2769
997.813	-2246
997.891	-1064
997.968	-1418
998.046	-1074
998.123	-628
998.200	-1340
998.277	-1783
998.355	-144
998.432	-1114
998.509	-848
998.586	-542
998.663	-1554
998.741	-1530
998.818	-920
998.895	-1575
998.972	-233
999.049	-916
999.126	-1174
999.203	-1407
999.280	-553
999.357	-1747
999.434	-1206
999.511	-1392
999.587	-946
999.664	-1905
999.741	-1171
999.818	-856
999.895	-1453
999.971	-1533
1000.048	-421
1000.125	-1166
1000.202	-2904
1000.278	-1560
1000.355	-785
1000.431	-1680
1000.508	-1553
1000.584	-1663
1000.661	-988
1000.738	-2060
1000.814	-1378
1000.890	-1316
1000.967	-792
1001.043	-1601
1001.120	-2398
1001.196	-1187
1001.272	-2194
1001.349	-1007
1001.425	-1350
1001.501	-284
1001.577	-1875
1001.654	-536
1001.730	-2080
1001.806	-1487
1001.882	-1756
1001.958	-1021
1002.034	-1498
1002.110	-1384
1002.186	-2174
1002.262	-1386
1002.338	-1533
1002.414	-1487
1002.490	-970
1002.566	-1426
1002.642	-2095
1002.718	-651
1002.794	-1087
1002.870	-1275
1002.945	-2382
1003.021	-1925
1003.097	-1912
1003.173	-1684
1003.248	-1833
1003.324	-2082
1003.400	-1023
1003.475	-1958
1003.551	-1249
1003.626	-1963
1003.702	-1734
1003.777	-2008
1003.853	-1724
1003.928	-2436
1004.004	-1982
1004.079	-1481
1004.155	-1433
1004.230	-2445
1004.305	-1127
1004.381	-1957
1004.456	-1608
1004.531	-1882
1004.607	-1422
1004.682	-1354
1004.757	-1708
1004.832	-1436
1004.907	-1527
1004.982	-1466
1005.057	-1078
1005.133	-2183
1005.208	-1440
1005.283	-1720
1005.358	-1237
1005.433	-2119
1005.508	-2062
1005.583	-2414
1005.657	-1821
1005.732	-1239
1005.807	-2682
1005.882	-1555
1005.957	-1751
1006.032	-1672
1006.106	-1540
1006.181	-1843
1006.256	-1874
1006.331	-2464
1006.405	-2479
1006.480	-1848
1006.554	-2248
1006.629	-1438
1006.704	-2359
1006.778	-1674
1006.853	-1391
1006.927	-1488
1007.002	-2305
1007.076	-2323
1007.150	-1531
1007.225	-1335
1007.299	-1675
1007.373	-2551
1007.448	-837
1007.522	-2170
1007.596	-1441
1007.671	-1442
1007.745	-1478
1007.819	-2478
1007.893	-2191
1007.967	-1398
1008.041	-2763
1008.115	-1656
1008.190	-2633
1008.264	-1477
1008.338	-3246
1008.412	-1608
1008.486	-2040
1008.560	-1771
1008.633	-2832
1008.707	-2154
1008.781	-1810
1008.855	-1990
1008.929	-1251
1009.003	-2382
1009.076	-2139
1009.150	-1813
1009.224	-2077
1009.298	-1235
1009.371	-2013
1009.445	-1101
1009.519	-2334
1009.592	-2052
1009.666	-1872
1009.739	-1423
1009.813	-3064
1009.886	-1020
1009.960	-2849
1010.033	-1541
1010.107	-2218
1010.180	-2647
1010.253	-1981
1010.327	-2002
1010.400	-2068
1010.473	-1864
1010.547	-1878
1010.620	-1792
1010.693	-2504
1010.766	-2262
1010.840	-1848
1010.913	-1708
1010.986	-2843
1011.059	-1560
1011.132	-2244
1011.205	-2175
1011.278	-2942
1011.351	-2307
1011.424	-1747
1011.497	-2294
1011.570	-2601
1011.643	-2459
1011.716	-2555
1011.789	-2514
1011.862	-2233
1011.934	-1608
1012.007	-2638
1012.080	-1839
1012.153	-3069
1012.225	-1804
1012.298	-2273
1012.371	-2308
1012.443	-2437
1012.516	-2342
1012.588	-2102
1012.661	-1290
1012.733	-2143
1012.806	-2266
1012.879	-3009
1012.951	-2075
1013.023	-2665
1013.096	-1778
1013.168	-2215
1013.241	-1944
1013.313	-2696
1013.385	-1935
1013.458	-2001
1013.530	-1963
1013.602	-2809
1013.674	-1938
1013.746	-3126
1013.819	-1700
1013.891	-1813
1013.963	-1833
1014.035	-1490
1014.107	-2057
1014.179	-1535
1014.251	-2659
1014.323	-1468
1014.395	-2396
1014.467	-2268
1014.539	-2444
1014.611	-2310
1014.683	-1573
1014.754	-3029
1014.826	-1895
1014.898	-1891
1014.970	-2558
1015.042	-1396
1015.113	-2237
1015.185	-1589
1015.257	-2609
1015.328	-1764
1015.400	-3043
1015.471	-2200
1015.543	-3157
1015.615	-1809
1015.686	-2958
1015.757	-2053
1015.829	-2353
1015.901	-3236
1015.972	-1825
1016.043	-1634
1016.115	-2244
1016.186	-2289
1016.257	-2253
1016.328	-1684
1016.400	-1185
1016.471	-2521
1016.542	-1675
1016.613	-956
1016.685	-1452
1016.756	-2116
1016.827	-2377
1016.898	-2718
1016.969	-1498
1017.040	-2266
1017.111	-1677
1017.182	-2529
1017.253	-2390
1017.324	-2357
1017.395	-1798
1017.466	-2447
1017.537	-1948
1017.608	-1956
1017.678	-2736
1017.749	-2711
1017.820	-2469
1017.891	-2131
1017.961	-1908
1018.032	-2659
1018.103	-2053
1018.173	-2674
1018.244	-1721
1018.315	-1856
1018.385	-973
1018.456	-1659
1018.526	-2002
1018.597	-2638
1018.667	-1733
1018.738	-2708
1018.808	-1898
1018.878	-1987
1018.949	-1835
1019.019	-1084
1019.089	-1621
1019.160	-2463
1019.230	-2093
1019.300	-1570
1019.371	-2707
1019.441	-2014
1019.511	-2331
1019.581	-2203
1019.651	-1716
1019.721	-2093
1019.791	-1476
1019.861	-2716
1019.931	-1913
1020.001	-2763
1020.071	-2102
1020.141	-2580
1020.211	-1274
1020.281	-2451
1020.351	-1776
1020.421	-2043
1020.491	-1665
1020.560	-2353
1020.630	-1630
1020.700	-1393
1020.770	-2655
1020.839	-2554
1020.909	-1700
1020.979	-2302
1021.048	-1791
1021.118	-2579
1021.187	-1584
1021.257	-2221
1021.326	-1145
1021.396	-2917
1021.465	-1520
1021.535	-2386
1021.604	-2162
1021.674	-2004
1021.743	-1965
1021.812	-1502
1021.882	-2382
1021.951	-2032
1022.020	-1772
1022.089	-1808
1022.159	-1995
1022.228	-1161
1022.297	-2138
1022.366	-2367
1022.435	-1519
1022.504	-1968
1022.573	-2443
1022.642	-1982
1022.711	-1996
1022.781	-2971
1022.849	-752
1022.918	-2262
1022.987	-1973
1023.056	-2552
1023.125	-1975
1023.194	-1575
1023.263	-1403
1023.331	-1689
1023.400	-2444
1023.469	-2686
1023.538	-1544
1023.606	-2675
1023.675	-1693
1023.744	-1906
1023.812	-1442
1023.881	-2297
1023.949	-2498
1024.018	-1687
1024.086	-2334
1024.155	-2274
1024.223	-1872
1024.292	-2443
1024.360	-1436
1024.429	-2701
1024.497	-2490
1024.565	-2339
1024.634	-2051
1024.702	-2249
1024.770	-1787
1024.838	-1883
1024.907	-2009
1024.975	-2104
1025.043	-1921
1025.111	-1776
1025.179	-1991
1025.247	-2321
1025.315	-2793
1025.383	-2031
1025.451	-1466
1025.519	-2182
1025.587	-1589
1025.655	-2021
1025.723	-1991
1025.791	-2890
1025.859	-1344
1025.927	-2076
1025.995	-1587
1026.062	-2338
1026.130	-1230
1026.198	-1846
1026.266	-2278
1026.333	-2255
1026.401	-1628
1026.469	-2490
1026.536	-1356
1026.604	-2800
1026.671	-1887
1026.739	-1599
1026.806	-1689
1026.874	-1771
1026.941	-1767
1027.009	-1864
1027.076	-1700
1027.144	-2222
1027.211	-1907
1027.278	-2046
1027.345	-1791
1027.413	-1214
1027.480	-2295
1027.547	-1883
1027.614	-2460
1027.682	-2226
1027.749	-1814
1027.816	-1704
1027.883	-1998
1027.950	-2231
1028.017	-1985
1028.084	-2011
1028.151	-2155
1028.218	-1776
1028.285	-2425
1028.352	-2881
1028.419	-1350
1028.486	-2334
1028.553	-2073
1028.619	-2650
1028.686	-1513
1028.753	-2425
1028.820	-2091
1028.886	-2522
1028.953	-2385
1029.020	-2055
1029.086	-2008
1029.153	-2384
1029.220	-2363
1029.286	-2133
1029.353	-1928
1029.419	-2494
1029.486	-1627
1029.552	-2304
1029.619	-1788
1029.685	-2304
1029.751	-1426
1029.818	-1461
1029.884	-2166
1029.951	-1056
1030.017	-1816
1030.083	-2059
1030.149	-2097
1030.216	-3101
1030.282	-1851
1030.348	-2510
1030.414	-2576
1030.480	-1843
1030.546	-2172
1030.612	-2482
1030.678	-2328
1030.744	-2378
1030.810	-2148
1030.876	-2236
1030.942	-2560
1031.008	-2319
1031.074	-1342
1031.140	-2472
1031.206	-1598
1031.272	-2360
1031.337	-1818
1031.403	-1979
1031.469	-2695
1031.534	-3258
1031.600	-1561
1031.666	-3122
1031.731	-1684
1031.797	-2600
1031.863	-2409
1031.928	-2387
1031.994	-1376
1032.059	-2437
1032.125	-1545
1032.190	-2655
1032.256	-2032
1032.321	-3073
1032.386	-1892
1032.452	-1750
1032.517	-2036
1032.582	-2109
1032.647	-1897
1032.713	-2375
1032.778	-2092
1032.843	-2436
1032.908	-1595
1032.974	-2337
1033.039	-2034
1033.104	-2656
1033.169	-2114
1033.234	-1972
1033.299	-653
1033.364	-2122
1033.429	-1994
1033.494	-2033
1033.559	-3298
1033.624	-2178
1033.688	-2221
1033.753	-2349
1033.818	-1505
1033.883	-1957
1033.948	-1553
1034.013	-1662
1034.077	-863
1034.142	-680
1034.207	-1927
1034.271	-20
1034.336	1684
1034.400	242
1034.465	-978
1034.530	-1544
1034.594	-2227
1034.658	-2637
1034.723	-2541
1034.787	-1823
1034.852	-1804
1034.916	-2543
1034.981	-2190
1035.045	-1889
1035.109	-1730
1035.173	-2388
1035.238	-2205
1035.302	-1121
1035.366	-2400
1035.430	-1830
1035.495	-2560
1035.559	-1658
1035.623	-2517
1035.687	-2766
1035.751	-2212
1035.815	-1420
1035.879	-1196
1035.943	-2213
1036.007	-2115
1036.071	-2924
1036.135	-2129
1036.198	-2511
1036.262	-2111
1036.326	-2509
1036.390	-2125
1036.454	-2804
1036.517	-1573
1036.581	-2259
1036.645	-1782
1036.709	-2096
1036.772	-2346
1036.836	-2194
1036.900	-1837
1036.963	-1967
1037.026	-2057
1037.090	-2219
1037.154	-2450
1037.217	-2482
1037.280	-2054
1037.344	-2158
1037.407	-1649
1037.471	-2179
1037.534	-2066
1037.597	-2627
1037.661	-2341
1037.724	-2311
1037.787	-2034
1037.850	-3366
1037.913	-1986
1037.977	-2251
1038.040	-1800
1038.103	-2294
1038.166	-1565
1038.229	-2309
1038.292	-3037
1038.355	-1898
1038.418	-2383
1038.481	-2259
1038.544	-1497
1038.607	-2848
1038.670	-2421
1038.732	-2039
1038.795	-3435
1038.858	-2240
1038.921	-1852
1038.984	-2071
1039.046	-2456
1039.109	-2522
1039.172	-2275
1039.234	-2622
1039.297	-3131
1039.360	-2010
1039.422	-3122
1039.485	-1831
1039.547	-2652
1039.610	-2128
1039.672	-2511
1039.734	-2066
1039.797	-2328
1039.859	-1277
1039.922	-1943
1039.984	-2134
1040.046	-2112
1040.109	-2757
1040.171	-2579
1040.233	-2246
1040.295	-2635
1040.358	-2797
1040.420	-1798
1040.482	-3145
1040.544	-2004
1040.606	-2669
1040.668	-2261
1040.730	-2630
1040.792	-2042
1040.854	-2343
1040.916	-1972
1040.978	-2461
1041.040	-1876
1041.102	-2573
1041.164	-2336
1041.225	-2183
1041.287	-1871
1041.349	-1755
1041.411	-2567
1041.472	-1987
1041.534	-2817
1041.596	-3387
1041.657	-2076
1041.719	-2445
1041.781	-1786
1041.842	-2281
1041.904	-2071
1041.965	-2416
1042.027	-2442
1042.088	-2285
1042.150	-2471
1042.211	-2105
1042.272	-2116
1042.334	-3184
1042.395	-1707
1042.456	-3028
1042.518	-2291
1042.579	-2142
1042.640	-2636
1042.701	-2896
1042.763	-2962
1042.824	-2961
1042.885	-2102
1042.946	-2663
1043.007	-2809
1043.068	-2627
1043.129	-2033
1043.190	-2282
1043.251	-1866
1043.312	-2981
1043.373	-1893
1043.434	-1979
1043.495	-1835
1043.556	-2988
1043.616	-2007
1043.677	-2816
1043.738	-3308
1043.799	-1917
1043.859	-2261
1043.920	-2154
1043.981	-2376
1044.041	-2644
1044.102	-2998
1044.162	-2324
1044.223	-2398
1044.284	-2284
1044.344	-1760
1044.405	-2928
1044.465	-1678
1044.525	-2824
1044.586	-2187
1044.646	-2399
1044.707	-1847
1044.767	-2604
1044.827	-1966
1044.887	-2602
1044.948	-1448
1045.008	-2568
1045.068	-2636
1045.128	-1311
1045.188	-2863
1045.249	-1405
1045.309	-2177
1045.369	-2040
1045.429	-1928
1045.489	-2785
1045.549	-1898
1045.609	-2089
1045.669	-2356
1045.729	-2365
1045.789	-2082
1045.848	-1897
1045.908	-2197
1045.968	-1420
1046.028	-1769
1046.088	-2018
1046.147	-1261
1046.207	-2070
1046.267	-1920
1046.326	-2959
1046.386	-2194
1046.446	-1456
1046.505	-1655
1046.565	-1948
1046.624	-1624
1046.684	-1674
1046.743	-1031
1046.803	-1053
1046.862	-526
1046.922	0
