'Start Wavelength	183.907
'End Wavelength	1046.922
'Gate Delay	5.000
'Gate Width (ms)	1.050
'Laser Output Level	0.000
'X Position	0.000
'Y Position	0.000
'Z Position	0.000
'Grid Point Number	1.000
'Shot Number	100.000
183.907	969.000
183.977	294.000
184.047	641
184.116	-93
184.186	-90
184.256	648
184.325	-632
184.395	207
184.465	41
184.534	479
184.604	-732
184.674	621
184.743	-125
184.813	668
184.883	370
184.952	684
185.022	689
185.092	1148
185.161	22
185.231	-104
185.301	-402
185.370	1576
185.440	-206
185.509	522
185.579	34
185.649	505
185.718	629
185.788	1290
185.857	108
185.927	1052
185.996	138
186.066	40
186.136	58
186.205	-219
186.275	-3
186.344	11
186.414	188
186.483	328
186.553	754
186.622	1591
186.692	-85
186.761	764
186.831	339
186.900	-537
186.970	695
187.039	833
187.109	993
187.178	788
187.248	504
187.317	781
187.387	-312
187.456	738
187.526	-111
187.595	249
187.664	63
187.734	662
187.803	-694
187.873	252
187.942	438
188.012	-114
188.081	-78
188.150	358
188.220	-224
188.289	561
188.358	1269
188.428	1543
188.497	104
188.567	313
188.636	-511
188.705	676
188.775	-154
188.844	759
188.913	-173
188.983	683
189.052	-113
189.121	300
189.191	-656
189.260	792
189.329	-206
189.399	116
189.468	1309
189.537	-227
189.606	-175
189.676	419
189.745	361
189.814	240
189.883	504
189.953	544
190.022	-130
190.091	743
190.161	965
190.230	1187
190.299	92
190.368	41
190.437	-298
190.507	928
190.576	3
190.645	512
190.714	466
190.783	874
190.853	267
190.922	421
190.991	-234
191.060	1206
191.129	128
191.198	293
191.268	275
191.337	624
191.406	460
191.475	672
191.544	-299
191.613	642
191.682	346
191.752	872
191.821	62
191.890	1127
191.959	-460
192.028	783
192.097	335
192.166	349
192.235	-461
192.304	1350
192.373	114
192.442	800
192.511	727
192.580	596
192.650	102
192.719	1132
192.788	-24
192.857	799
192.926	-264
192.995	490
193.064	1448
193.133	949
193.202	-221
193.271	1038
193.340	979
193.409	676
193.478	-95
193.547	960
193.615	-49
193.684	994
193.753	241
193.822	1214
193.891	292
193.960	366
194.029	-140
194.098	283
194.167	-597
194.236	666
194.305	123
194.374	310
194.443	-725
194.512	477
194.580	-40
194.649	576
194.718	-52
194.787	907
194.856	-857
194.925	676
194.994	352
195.062	938
195.131	0
195.200	1146
195.269	-206
195.338	418
195.407	-57
195.475	722
195.544	803
195.613	766
195.682	98
195.751	717
195.819	-739
195.888	554
195.957	1036
196.026	607
196.094	205
196.163	1114
196.232	300
196.301	610
196.369	300
196.438	821
196.507	724
196.576	666
196.644	659
196.713	1051
196.782	-339
196.850	679
196.919	-444
196.988	133
197.056	-458
197.125	856
197.194	521
197.262	155
197.331	486
197.400	325
197.468	-574
197.537	273
197.606	202
197.674	1059
197.743	924
197.812	522
197.880	745
197.949	1206
198.017	-53
198.086	813
198.155	77
198.223	578
198.292	520
198.360	661
198.429	482
198.497	521
198.566	506
198.635	1181
198.703	1067
198.772	632
198.840	109
198.909	1113
198.977	-44
199.046	1032
199.114	1318
199.183	680
199.251	170
199.320	569
199.388	-277
199.457	767
199.525	566
199.594	301
199.662	62
199.731	20
199.799	-248
199.867	255
199.936	-945
200.004	1748
200.073	418
200.141	560
200.210	127
200.278	411
200.346	105
200.415	-39
200.483	-217
200.552	740
200.620	144
200.688	581
200.757	-241
200.825	1280
200.893	-226
200.962	778
201.030	-430
201.098	227
201.167	158
201.235	337
201.303	-368
201.372	270
201.440	152
201.508	1031
201.577	0
201.645	1288
201.713	290
201.781	88
201.850	-152
201.918	191
201.986	-111
202.055	708
202.123	838
202.191	-363
202.259	570
202.327	123
202.396	-396
202.464	1064
202.532	-117
202.600	780
202.669	-257
202.737	30
202.805	-214
202.873	161
202.941	-416
203.009	616
203.078	197
203.146	883
203.214	56
203.282	265
203.350	35
203.418	274
203.487	296
203.555	311
203.623	418
203.691	795
203.759	335
203.827	560
203.895	-346
203.963	595
204.031	305
204.099	803
204.168	-392
204.236	1288
204.304	213
204.372	363
204.440	-393
204.508	501
204.576	-183
204.644	340
204.712	-59
204.780	1199
204.848	-643
204.916	161
204.984	276
205.052	647
205.120	-1393
205.188	840
205.256	355
205.324	165
205.392	-128
205.460	937
205.528	380
205.596	1086
205.664	-278
205.732	618
205.799	351
205.867	2426
205.935	186
206.003	1269
206.071	-161
206.139	142
206.207	-371
206.275	611
206.343	-96
206.411	1019
206.478	192
206.546	473
206.614	-49
206.682	299
206.750	143
206.818	1003
206.885	169
206.953	-271
207.021	416
207.089	1049
207.157	-30
207.225	1105
207.292	-614
207.360	781
207.428	-351
207.496	-63
207.563	-280
207.631	893
207.699	-221
207.767	265
207.834	137
207.902	433
207.970	-384
208.038	742
208.105	325
208.173	130
208.241	435
208.309	913
208.376	-407
208.444	857
208.512	-132
208.579	-337
208.647	-106
208.715	1490
208.782	-214
208.850	172
208.918	-399
208.985	968
209.053	246
209.120	591
209.188	-767
209.256	638
209.323	-619
209.391	813
209.459	782
209.526	976
209.594	101
209.661	887
209.729	-488
209.796	969
209.864	600
209.932	209
209.999	884
210.067	1421
210.134	524
210.202	1139
210.269	378
210.337	629
210.404	1630
210.472	403
210.539	-315
210.607	19
210.674	480
210.742	521
210.809	-241
210.877	523
210.944	461
211.012	288
211.079	1269
211.146	484
211.214	85
211.281	1135
211.349	736
211.416	1146
211.484	760
211.551	-76
211.618	-114
211.686	862
211.753	-162
211.821	1514
211.888	210
211.955	548
212.023	-73
212.090	768
212.157	328
212.225	1627
212.292	1181
212.359	2352
212.427	5231
212.494	2484
212.561	499
212.629	492
212.696	138
212.763	1131
212.831	-485
212.898	1592
212.965	-726
213.032	447
213.100	313
213.167	597
213.234	29
213.301	855
213.369	275
213.436	261
213.503	-950
213.570	739
213.638	541
213.705	43
213.772	60
213.839	-167
213.906	-1
213.973	698
214.041	-458
214.108	1028
214.175	-257
214.242	511
214.309	184
214.376	665
214.444	-436
214.511	1473
214.578	932
214.645	764
214.712	835
214.779	741
214.846	947
214.913	1051
214.980	490
215.048	1317
215.115	673
215.182	1080
215.249	-438
215.316	889
215.383	697
215.450	1465
215.517	212
215.584	136
215.651	48
215.718	804
215.785	421
215.852	159
215.919	658
215.986	1234
216.053	-180
216.120	313
216.187	453
216.254	10
216.321	190
216.388	407
216.455	46
216.522	101
216.589	-171
216.656	1751
216.722	592
216.789	1227
216.856	-12
216.923	878
216.990	210
217.057	400
217.124	540
217.191	775
217.258	402
217.324	990
217.391	799
217.458	1060
217.525	832
217.592	986
217.659	-544
217.725	1447
217.792	326
217.859	327
217.926	-401
217.993	664
218.059	735
218.126	536
218.193	82
218.260	555
218.327	76
218.393	781
218.460	136
218.527	-109
218.594	-61
218.660	246
218.727	137
218.794	-231
218.860	613
218.927	233
218.994	-413
219.061	60
219.127	175
219.194	452
219.261	-871
219.327	286
219.394	269
219.461	361
219.527	283
219.594	422
219.661	-361
219.727	251
219.794	451
219.860	-328
219.927	626
219.994	1470
220.060	243
220.127	2231
220.193	549
220.260	1339
220.326	1122
220.393	2001
220.460	833
220.526	1026
220.593	473
220.659	2328
220.726	572
220.792	2972
220.859	1884
220.925	2377
220.992	2238
221.058	3136
221.125	2737
221.191	1953
221.258	944
221.324	1434
221.391	426
221.457	378
221.524	1128
221.590	1404
221.657	2148
221.723	1473
221.789	766
221.856	1887
221.922	-113
221.989	1013
222.055	449
222.121	142
222.188	1345
222.254	380
222.321	-675
222.387	582
222.453	101
222.520	213
222.586	-421
222.652	1164
222.719	-153
222.785	434
222.851	-986
222.918	11
222.984	521
223.050	741
223.116	-1273
223.183	1398
223.249	-253
223.315	126
223.382	-89
223.448	366
223.514	-653
223.580	510
223.647	-121
223.713	224
223.779	-138
223.845	18
223.911	-90
223.978	-373
224.044	12
224.110	778
224.176	-267
224.242	-118
224.309	-883
224.375	1239
224.441	0
224.507	-152
224.573	-43
224.639	890
224.705	-281
224.772	940
224.838	-904
224.904	1028
224.970	352
225.036	348
225.102	-470
225.168	312
225.234	-123
225.300	650
225.366	609
225.432	272
225.499	-707
225.565	567
225.631	-327
225.697	519
225.763	-362
225.829	585
225.895	-459
225.961	794
226.027	729
226.093	861
226.159	1374
226.225	2042
226.291	2449
226.357	5058
226.423	2745
226.489	2311
226.554	-107
226.620	1695
226.686	1538
226.752	2247
226.818	2674
226.884	5948
226.950	5208
227.016	2983
227.082	1326
227.148	1417
227.214	988
227.279	261
227.345	115
227.411	803
227.477	-113
227.543	1599
227.609	1239
227.674	1656
227.740	233
227.806	747
227.872	792
227.938	1015
228.003	658
228.069	735
228.135	70
228.201	845
228.267	-472
228.332	341
228.398	-1282
228.464	1064
228.530	-479
228.595	804
228.661	-316
228.727	838
228.792	161
228.858	-594
228.924	-1251
228.990	1715
229.055	-795
229.121	1044
229.187	319
229.252	297
229.318	-287
229.384	289
229.449	-180
229.515	-770
229.581	-758
229.646	1896
229.712	-612
229.777	392
229.843	-52
229.909	255
229.974	187
230.040	855
230.105	131
230.171	340
230.236	856
230.302	555
230.368	-762
230.433	643
230.499	464
230.564	1336
230.630	-591
230.695	681
230.761	-180
230.826	-105
230.892	884
230.957	-240
231.023	-506
231.088	1121
231.154	37
231.219	1035
231.284	-1211
231.350	532
231.415	-750
231.481	1326
231.546	195
231.612	554
231.677	-316
231.742	-301
231.808	877
231.873	68
231.939	-1886
232.004	989
232.069	275
232.135	222
232.200	-563
232.265	383
232.331	-276
232.396	-179
232.461	-454
232.527	300
232.592	336
232.657	366
232.723	375
232.788	300
232.853	226
232.918	640
232.984	-16
233.049	27
233.114	-707
233.179	227
233.245	1122
233.310	1473
233.375	-528
233.440	477
233.506	-178
233.571	-159
233.636	469
233.701	1115
233.766	-73
233.832	939
233.897	-302
233.962	-1049
234.027	1088
234.092	569
234.157	-166
234.222	193
234.288	-237
234.353	2618
234.418	1417
234.483	1240
234.548	952
234.613	1512
234.678	318
234.743	-217
234.808	2614
234.873	1194
234.938	800
235.004	412
235.069	257
235.134	470
235.199	353
235.264	421
235.329	-824
235.394	863
235.459	872
235.524	144
235.589	138
235.654	670
235.719	-993
235.784	1677
235.849	-501
235.913	1644
235.978	225
236.043	1842
236.108	273
236.173	-54
236.238	99
236.303	637
236.368	-468
236.433	1193
236.498	584
236.563	913
236.627	2778
236.692	7997
236.757	6559
236.822	3869
236.887	1236
236.952	2469
237.017	972
237.081	1653
237.146	1224
237.211	4848
237.276	7518
237.341	13030
237.405	6133
237.470	2430
237.535	1528
237.600	1274
237.664	1422
237.729	697
237.794	-601
237.859	2545
237.923	1692
237.988	1448
238.053	1084
238.118	1058
238.182	3199
238.247	4744
238.312	-210
238.376	1835
238.441	-510
238.506	2352
238.570	-1962
238.635	1325
238.700	-58
238.764	-103
238.829	1518
238.893	1945
238.958	981
239.023	92
239.087	-645
239.152	838
239.216	-358
239.281	784
239.346	780
239.410	144
239.475	-512
239.539	3699
239.604	2536
239.668	1593
239.733	911
239.797	2159
239.862	3773
239.926	5261
239.991	2584
240.055	2044
240.120	-219
240.184	512
240.249	-900
240.313	288
240.378	245
240.442	1875
240.507	2841
240.571	1680
240.635	479
240.700	1824
240.764	-1267
240.829	1265
240.893	-965
240.957	642
241.022	2671
241.086	4066
241.151	645
241.215	-232
241.279	947
241.344	1417
241.408	330
241.472	586
241.537	785
241.601	1255
241.665	-633
241.730	-22
241.794	152
241.858	756
241.922	466
241.987	66
242.051	-345
242.115	-466
242.179	-96
242.244	535
242.308	878
242.372	996
242.436	-239
242.501	582
242.565	-1358
242.629	-256
242.693	798
242.757	-227
242.822	-703
242.886	618
242.950	69
243.014	40
243.078	352
243.142	178
243.206	-828
243.271	1132
243.335	143
243.399	1947
243.463	4354
243.527	13991
243.591	3363
243.655	1749
243.719	823
243.783	1903
243.847	1053
243.911	2033
243.975	829
244.040	108
244.104	1059
244.168	-20
244.232	-16
244.296	1081
244.360	1201
244.424	410
244.488	915
244.552	308
244.615	-803
244.679	1007
244.743	-588
244.807	-228
244.871	157
244.935	927
244.999	-1157
245.063	1152
245.127	-121
245.191	923
245.255	49
245.319	1393
245.383	-1157
245.446	1222
245.510	-223
245.574	1330
245.638	211
245.702	-471
245.766	1096
245.829	1361
245.893	-637
245.957	486
246.021	808
246.085	365
246.149	585
246.212	1540
246.276	315
246.340	1100
246.404	802
246.467	1640
246.531	-1197
246.595	2347
246.659	804
246.722	-337
246.786	429
246.850	396
246.913	627
246.977	-90
247.041	-122
247.104	871
247.168	769
247.232	1765
247.295	2437
247.359	1469
247.423	294
247.486	1235
247.550	386
247.614	471
247.677	367
247.741	796
247.804	1273
247.868	4308
247.932	676
247.995	2832
248.059	7
248.122	205
248.186	1753
248.249	1475
248.313	4507
248.376	4834
248.440	1727
248.503	41
248.567	1402
248.630	526
248.694	501
248.757	2679
248.821	5200
248.884	3931
248.948	1548
249.011	4098
249.075	5067
249.138	4761
249.202	1569
249.265	986
249.328	2093
249.392	686
249.455	982
249.519	830
249.582	964
249.645	2743
249.709	1123
249.772	1836
249.835	1165
249.899	1099
249.962	1333
250.025	864
250.089	1573
250.152	3160
250.215	1509
250.279	1201
250.342	1046
250.405	1713
250.468	457
250.532	1348
250.595	2968
250.658	11086
250.721	20303
250.785	6086
250.848	3335
250.911	1468
250.974	1905
251.038	916
251.101	3238
251.164	2537
251.227	2741
251.290	2161
251.354	4224
251.417	17688
251.480	17419
251.543	11556
251.606	31198
251.669	23745
251.732	8979
251.795	6673
251.859	7503
251.922	19783
251.985	11626
252.048	4756
252.111	2410
252.174	1053
252.237	2906
252.300	7820
252.363	8974
252.426	25386
252.489	8625
252.552	4689
252.615	2152
252.678	3396
252.741	6170
252.804	8970
252.867	26547
252.930	13151
252.993	5427
253.056	4009
253.119	2048
253.182	1662
253.245	3235
253.308	3811
253.371	1120
253.434	2050
253.497	1750
253.559	3016
253.622	1995
253.685	2721
253.748	1128
253.811	1015
253.874	2200
253.937	1424
254.000	1303
254.062	2106
254.125	2102
254.188	3823
254.251	1172
254.314	534
254.376	678
254.439	2047
254.502	1482
254.565	2294
254.628	3421
254.690	1516
254.753	-129
254.816	868
254.878	1158
254.941	1599
255.004	1536
255.067	1684
255.129	461
255.192	1237
255.255	-804
255.317	1063
255.380	337
255.443	-559
255.505	89
255.568	-123
255.631	-375
255.693	727
255.756	-910
255.819	1552
255.881	-195
255.944	1329
256.006	157
256.069	653
256.132	-510
256.194	1044
256.257	2565
256.319	1617
256.382	837
256.444	1557
256.507	999
256.569	728
256.632	-197
256.694	1281
256.757	4783
256.819	13826
256.882	4659
256.944	2605
257.007	1849
257.069	425
257.132	1326
257.194	1358
257.257	45
257.319	664
257.381	1440
257.444	4347
257.506	13836
257.569	16042
257.631	7279
257.693	3414
257.756	1234
257.818	1585
257.880	113
257.943	1296
258.005	65
258.067	-47
258.130	120
258.192	1208
258.254	987
258.317	1111
258.379	678
258.441	847
258.503	1900
258.566	3652
258.628	5267
258.690	909
258.753	1539
258.815	1673
258.877	-643
258.939	851
259.001	1109
259.064	641
259.126	-433
259.188	963
259.250	766
259.312	1309
259.375	2409
259.437	1387
259.499	323
259.561	530
259.623	251
259.685	980
259.747	79
259.809	3171
259.872	6254
259.934	10571
259.996	8673
260.058	1650
260.120	268
260.182	697
260.244	161
260.306	271
260.368	1131
260.430	539
260.492	591
260.554	2581
260.616	1640
260.678	3539
260.740	5121
260.802	1386
260.864	-369
260.926	184
260.988	1043
261.050	1628
261.112	668
261.174	7157
261.236	5043
261.298	1321
261.359	1783
261.421	4571
261.483	576
261.545	1089
261.607	-600
261.669	476
261.731	1499
261.793	3415
261.854	225
261.916	1603
261.978	-358
262.040	907
262.102	1113
262.164	1541
262.225	691
262.287	1474
262.349	42
262.411	1484
262.472	869
262.534	1583
262.596	3580
262.658	1188
262.719	385
262.781	1803
262.843	3250
262.904	2643
262.966	1202
263.028	1711
263.090	8359
263.151	22414
263.213	6934
263.275	1675
263.336	606
263.398	1357
263.459	145
263.521	70
263.583	995
263.644	1328
263.706	234
263.767	-756
263.829	382
263.891	642
263.952	-121
264.014	54
264.075	-33
264.137	2254
264.198	955
264.260	207
264.321	-374
264.383	574
264.444	2901
264.506	1401
264.567	1252
264.629	1725
264.690	1099
264.752	1226
264.813	-33
264.875	15
264.936	429
264.998	692
265.059	-295
265.120	130
265.182	465
265.243	7021
265.305	6784
265.366	2165
265.427	260
265.489	934
265.550	-810
265.611	129
265.673	537
265.734	788
265.795	-199
265.857	580
265.918	-51
265.979	1701
266.040	9381
266.102	9717
266.163	2517
266.224	1781
266.286	-98
266.347	586
266.408	451
266.469	456
266.530	404
266.592	709
266.653	133
266.714	579
266.775	-440
266.836	1139
266.898	-742
266.959	-86
267.020	104
267.081	1045
267.142	-231
267.203	188
267.264	-542
267.326	1689
267.387	356
267.448	105
267.509	163
267.570	495
267.631	342
267.692	-832
267.753	-81
267.814	-233
267.875	107
267.936	1247
267.997	-86
268.058	446
268.119	-1164
268.180	173
268.241	-860
268.302	1489
268.363	-772
268.424	162
268.485	178
268.546	507
268.607	-46
268.668	179
268.729	-473
268.790	-418
268.851	635
268.912	610
268.972	562
269.033	406
269.094	-911
269.155	954
269.216	344
269.277	493
269.338	238
269.398	-30
269.459	-654
269.520	1112
269.581	189
269.642	838
269.702	-402
269.763	785
269.824	-152
269.885	-316
269.945	-167
270.006	568
270.067	-723
270.128	653
270.188	-1187
270.249	180
270.310	-769
270.370	368
270.431	722
270.492	-131
270.553	-401
270.613	1585
270.674	1145
270.734	323
270.795	-226
270.856	1535
270.916	-328
270.977	453
271.038	-305
271.098	743
271.159	101
271.219	1027
271.280	41
271.340	183
271.401	-402
271.462	2465
271.522	452
271.583	434
271.643	371
271.704	764
271.764	469
271.825	1973
271.885	3718
271.946	6670
272.006	1869
272.066	2851
272.127	5140
272.187	3663
272.248	1604
272.308	836
272.369	3191
272.429	2040
272.489	613
272.550	711
272.610	1523
272.671	897
272.731	884
272.791	1927
272.852	232
272.912	1263
272.972	261
273.033	453
273.093	104
273.153	955
273.214	-333
273.274	472
273.334	1939
273.394	4696
273.455	689
273.515	2419
273.575	2304
273.635	1593
273.696	2613
273.756	4321
273.816	790
273.876	1345
273.936	2752
273.997	8027
274.057	1350
274.117	1821
274.177	310
274.237	4202
274.297	4347
274.358	5268
274.418	2476
274.478	1911
274.538	919
274.598	767
274.658	5919
274.718	8106
274.778	2036
274.838	1127
274.898	2245
274.958	10287
275.018	4849
275.078	3546
275.138	1438
275.198	577
275.258	802
275.318	802
275.378	1524
275.438	1170
275.498	738
275.558	4503
275.618	8915
275.678	3507
275.738	1557
275.798	1465
275.858	780
275.918	488
275.978	489
276.038	1022
276.098	510
276.157	1511
276.217	2578
276.277	1552
276.337	945
276.397	878
276.457	418
276.517	673
276.576	267
276.636	519
276.696	418
276.756	1895
276.815	737
276.875	1046
276.935	146
276.995	1540
277.055	1067
277.114	307
277.174	704
277.234	2010
277.293	279
277.353	607
277.413	165
277.472	1071
277.532	127
277.592	979
277.651	2579
277.711	7135
277.771	1787
277.830	6411
277.890	5240
277.950	4136
278.009	13636
278.069	4957
278.128	4401
278.188	7823
278.248	2428
278.307	7404
278.367	5822
278.426	1008
278.486	-39
278.545	1404
278.605	937
278.664	968
278.724	288
278.783	2137
278.843	4477
278.902	2157
278.962	623
279.021	2097
279.081	4041
279.140	4421
279.199	1622
279.259	1458
279.318	1988
279.378	4112
279.437	5858
279.496	16078
279.556	61288
279.615	53070
279.675	14802
279.734	7973
279.793	9742
279.853	14251
279.912	5260
279.971	3438
280.031	2455
280.090	5313
280.149	6328
280.208	9054
280.268	42373
280.327	46333
280.386	11175
280.445	5945
280.505	3374
280.564	2844
280.623	1906
280.682	3095
280.742	2573
280.801	2239
280.860	1115
280.919	1039
280.978	533
281.037	1022
281.097	-449
281.156	1424
281.215	432
281.274	1731
281.333	2553
281.392	2410
281.451	299
281.510	1070
281.569	89
281.628	1072
281.688	804
281.747	1137
281.806	-94
281.865	1634
281.924	46
281.983	624
282.042	254
282.101	342
282.160	1095
282.219	707
282.278	379
282.337	2236
282.396	965
282.454	590
282.513	233
282.572	1837
282.631	1788
282.690	1125
282.749	-751
282.808	1090
282.867	522
282.926	1072
282.985	447
283.043	1263
283.102	731
283.161	1551
283.220	1182
283.279	3345
283.338	597
283.396	211
283.455	146
283.514	1540
283.573	1432
283.631	1394
283.690	415
283.749	896
283.808	266
283.866	2019
283.925	165
283.984	1769
284.043	761
284.101	1359
284.160	-188
284.219	1020
284.277	814
284.336	1392
284.395	2916
284.453	3153
284.512	74
284.570	2213
284.629	1209
284.688	1696
284.746	1660
284.805	2258
284.863	1962
284.922	3813
284.981	3856
285.039	6285
285.098	10169
285.156	21585
285.215	42642
285.273	41718
285.332	26885
285.390	13537
285.449	8336
285.507	5982
285.566	3700
285.624	3769
285.683	2047
285.741	3140
285.799	2007
285.858	1404
285.916	1583
285.975	1353
286.033	234
286.091	1492
286.150	667
286.208	1000
286.267	981
286.325	1588
286.383	765
286.442	508
286.500	1018
286.558	1088
286.616	-247
286.675	1558
286.733	943
286.791	1094
286.850	648
286.908	1520
286.966	714
287.024	1613
287.083	607
287.141	1740
287.199	1392
287.257	1149
287.315	1159
287.374	848
287.432	957
287.490	2121
287.548	500
287.606	1986
287.664	796
287.723	1196
287.781	1619
287.839	1092
287.897	1296
287.955	2853
288.013	3062
288.071	8042
288.129	27709
288.187	73742
288.245	38781
288.303	13690
288.361	6806
288.419	4525
288.477	2842
288.535	2565
288.593	1012
288.651	2149
288.709	1003
288.767	2023
288.825	515
288.883	1162
288.941	1112
288.999	929
289.057	588
289.115	525
289.173	801
289.231	1135
289.289	949
289.346	1171
289.404	137
289.462	1789
289.520	540
289.578	1390
289.636	-135
289.694	305
289.751	275
289.809	806
289.867	-208
289.925	1078
289.983	225
290.040	1254
290.098	829
290.156	-46
290.214	78
290.271	1311
290.329	815
290.387	1006
290.444	907
290.502	426
290.560	1059
290.617	1531
290.675	593
290.733	947
290.790	1402
290.848	1476
290.906	659
290.963	1162
291.021	-164
291.078	732
291.136	242
291.194	1820
291.251	3484
291.309	2361
291.366	792
291.424	162
291.481	751
291.539	889
291.596	1254
291.654	309
291.711	-163
291.769	948
291.826	1378
291.884	1605
291.941	608
291.999	817
292.056	450
292.114	1320
292.171	559
292.228	925
292.286	911
292.343	1358
292.401	883
292.458	1501
292.515	-441
292.573	1314
292.630	487
292.687	1325
292.745	1333
292.802	944
292.859	2839
292.917	4309
292.974	1523
293.031	1509
293.089	-80
293.146	1393
293.203	567
293.260	332
293.318	802
293.375	1901
293.432	589
293.489	348
293.546	-44
293.604	1060
293.661	2181
293.718	7099
293.775	3512
293.832	2440
293.889	1553
293.947	2039
294.004	1118
294.061	1816
294.118	1173
294.175	4119
294.232	6488
294.289	2599
294.346	1790
294.403	2343
294.460	523
294.517	1315
294.574	636
294.631	1659
294.688	552
294.745	2367
294.802	6220
294.859	9218
294.916	3568
294.973	2806
295.030	1331
295.087	1128
295.144	737
295.201	1764
295.258	737
295.315	524
295.372	2801
295.429	4624
295.486	2337
295.542	2319
295.599	3550
295.656	7412
295.713	4067
295.770	5128
295.827	1490
295.883	2113
295.940	812
295.997	1748
296.054	1084
296.111	1745
296.167	224
296.224	599
296.281	462
296.338	555
296.394	794
296.451	852
296.508	1570
296.564	4830
296.621	3266
296.678	5658
296.734	7946
296.791	2887
296.848	1649
296.904	884
296.961	2767
297.018	4753
297.074	3963
297.131	2145
297.187	1439
297.244	1429
297.301	4470
297.357	9638
297.414	3307
297.470	2290
297.527	506
297.583	844
297.640	344
297.696	1131
297.753	1050
297.809	541
297.866	107
297.922	849
297.979	-487
298.035	376
298.092	410
298.148	3257
298.204	2363
298.261	1359
298.317	2132
298.374	6891
298.430	3997
298.486	1717
298.543	1846
298.599	2964
298.656	691
298.712	3043
298.768	6541
298.824	7696
298.881	2087
298.937	1608
298.993	975
299.050	1424
299.106	277
299.162	1508
299.218	945
299.275	1734
299.331	1348
299.387	2065
299.443	6384
299.500	11932
299.556	8614
299.612	4123
299.668	2437
299.724	7672
299.780	9668
299.837	4472
299.893	2389
299.949	7768
300.005	11330
300.061	9816
300.117	13993
300.173	7496
300.229	3328
300.285	2788
300.341	1806
300.397	2262
300.453	860
300.510	2116
300.566	1675
300.622	4283
300.678	12551
300.734	18667
300.790	9850
300.845	8842
300.901	8252
300.957	12605
301.013	7502
301.069	3488
301.125	1368
301.181	2077
301.237	887
301.293	1414
301.349	1478
301.405	1771
301.461	641
301.516	1586
301.572	869
301.628	1525
301.684	961
301.740	2693
301.796	2848
301.851	2770
301.907	2772
301.963	4389
302.019	4726
302.074	16396
302.130	16434
302.186	9052
302.242	3779
302.297	2735
302.353	1942
302.409	3878
302.464	2660
302.520	2705
302.576	4044
302.631	6123
302.687	3408
302.743	2463
302.798	1101
302.854	1673
302.910	576
302.965	2335
303.021	2610
303.076	2550
303.132	1934
303.187	2906
303.243	1413
303.299	975
303.354	1152
303.410	1493
303.465	270
303.521	1162
303.576	321
303.632	1634
303.687	2096
303.743	5400
303.798	4517
303.853	3676
303.909	1116
303.964	1630
304.020	937
304.075	1890
304.130	1778
304.186	2877
304.241	3268
304.297	3345
304.352	2434
304.358	2337
304.407	1554
304.449	1118
304.463	975
304.518	2342
304.539	1851
304.573	1045
304.629	1958
304.630	1946
304.684	1532
304.720	3325
304.739	4207
304.794	6029
304.811	5523
304.850	4348
304.902	1516
304.905	1328
304.960	1694
304.992	1490
305.015	1352
305.071	2352
305.083	2152
305.126	1411
305.173	930
305.181	851
305.236	153
305.264	305
305.292	472
305.347	348
305.354	474
305.402	1348
305.445	2060
305.457	2223
305.512	2408
305.535	2046
305.567	1575
305.622	1693
305.626	1766
305.678	3263
305.716	6016
305.733	7048
305.788	7358
305.807	6521
305.843	5103
305.897	5770
305.898	5772
305.953	6430
305.988	4825
306.008	3915
306.063	2713
306.078	2274
306.118	1440
306.168	1663
306.173	1657
306.228	917
306.259	1325
306.283	1684
306.338	845
306.349	975
306.393	1610
306.440	1931
306.448	1955
306.503	2096
306.530	1970
306.558	2083
306.613	4307
306.620	4480
306.668	5315
306.711	5827
306.723	5812
306.778	4264
306.801	3583
306.833	3068
306.888	1465
306.892	1465
306.943	1191
306.982	950
306.997	1003
307.052	1487
307.072	1790
307.107	1998
307.162	2164
307.163	2168
307.217	3064
307.253	3623
307.272	3706
307.327	4664
307.343	4363
307.381	3605
307.434	2347
307.436	2339
307.491	4206
307.524	6231
307.546	6877
307.600	6137
307.614	5415
307.655	3400
307.704	2576
307.710	2612
307.765	3007
307.795	3692
307.819	4148
307.874	6750
307.885	6867
307.929	6309
307.975	4836
307.984	4820
308.038	6791
308.065	7808
308.093	12529
308.148	27264
308.156	30753
308.202	48428
308.246	60326
308.257	59443
308.312	35292
308.336	24543
308.366	17704
308.421	9280
308.426	8841
308.475	6248
308.517	5071
308.530	4629
308.585	3355
308.607	3019
308.639	3164
308.694	4432
308.697	4493
308.748	6805
308.787	9543
308.803	9485
308.857	7941
308.877	6814
308.912	5831
308.967	4898
308.967	4910
309.021	6468
309.058	7578
309.076	9159
309.130	16236
309.148	19159
309.185	36488
309.238	68249
309.239	68434
309.293	74342
309.328	69588
309.348	61606
309.402	30981
309.418	23235
309.457	15732
309.508	9265
309.511	9013
309.566	7629
309.598	7257
309.620	7270
309.674	9032
309.688	9390
309.729	8860
309.778	7743
309.783	7628
309.837	5542
309.868	4868
309.892	4886
309.946	4921
309.959	5272
310.001	6264
310.049	6364
310.055	6216
310.109	5222
310.139	4201
310.163	3267
310.218	2005
310.229	1735
310.272	1938
310.319	2308
310.326	2235
310.381	1879
310.409	1710
310.435	1745
310.489	1421
310.499	1470
310.543	1534
310.589	1324
310.598	1349
310.652	1786
310.679	1915
310.706	1717
310.760	1317
310.769	1233
310.814	1228
310.859	1504
310.868	1482
310.923	1023
310.948	980
310.977	1090
311.031	995
311.038	1017
311.085	1042
311.128	900
311.139	947
311.193	1526
311.218	1605
311.247	1453
311.301	1468
311.308	1452
311.356	1103
311.398	787
311.410	782
311.464	841
311.488	894
311.518	984
311.572	1002
311.578	1024
311.626	1055
311.668	966
311.680	1076
311.734	1701
311.758	1974
311.788	1890
311.842	1716
311.847	1699
311.896	2117
311.937	2528
311.950	2396
312.004	1811
312.027	1557
312.058	1620
312.112	1761
312.117	1778
312.165	1854
312.207	1929
312.297	1655
312.386	1499
312.476	1464
312.566	2164
312.656	2558
312.745	906
312.835	1679
312.925	1206
313.015	1339
313.104	1193
313.194	1625
313.284	1029
313.374	1409
313.463	1771
313.553	1585
313.643	316
313.732	1476
313.822	1444
313.912	2233
314.001	1715
314.091	2172
314.180	1832
314.270	2313
314.360	1604
314.449	2260
314.539	1830
314.628	1882
314.718	1115
314.808	2430
314.897	2007
314.987	2458
315.076	1855
315.166	3242
315.255	2989
315.345	2555
315.434	2683
315.524	4057
315.613	4746
315.703	8328
315.792	27088
315.881	119354
315.971	41556
316.060	8779
316.150	5874
316.239	5273
316.328	2007
316.418	2347
316.507	2450
316.597	3171
316.686	2536
316.775	3183
316.865	5682
316.954	2598
317.043	2028
317.133	3240
317.222	1892
317.311	2567
317.400	1070
317.490	3959
317.579	4176
317.668	6418
317.757	13402
317.847	52359
317.936	181451
318.025	58526
318.114	40923
318.203	18888
318.293	5715
318.382	5478
318.471	4582
318.560	6125
318.649	9200
318.738	3358
318.828	2242
318.917	1789
319.006	2524
319.095	5623
319.184	10893
319.273	5504
319.362	2061
319.451	1992
319.540	1252
319.629	1921
319.718	2610
319.807	1880
319.896	3140
319.985	14179
320.074	4869
320.163	1804
320.252	2756
320.341	2830
320.430	1571
320.519	2413
320.608	1573
320.697	2463
320.786	1982
320.875	2976
320.964	2805
321.053	3698
321.142	3563
321.230	4375
321.319	4099
321.408	6052
321.497	4367
321.586	4377
321.675	4817
321.764	4157
321.852	3204
321.941	3744
322.030	2220
322.119	3545
322.207	5762
322.296	7658
322.385	4788
322.474	6096
322.562	7278
322.651	5671
322.740	3292
322.829	4912
322.917	6157
323.006	4005
323.095	3156
323.183	3277
323.272	3538
323.361	6366
323.449	20823
323.538	7059
323.626	13184
323.715	7759
323.804	3834
323.892	11272
323.981	5052
324.069	2178
324.158	6607
324.246	6155
324.335	2092
324.424	2751
324.512	2055
324.601	1310
324.689	1265
324.778	2813
324.866	5055
324.954	2602
325.043	1489
325.131	2225
325.220	5608
325.308	5075
325.397	3051
325.485	2604
325.574	591
325.662	1219
325.750	1164
325.839	1723
325.927	940
326.015	1447
326.104	2106
326.192	4238
326.280	1621
326.369	1285
326.457	1761
326.545	1377
326.634	855
326.722	1207
326.810	1288
326.898	1018
326.987	1215
327.075	1947
327.163	3151
327.251	1507
327.340	651
327.428	2579
327.516	2153
327.604	2131
327.692	1523
327.781	2137
327.869	2752
327.957	2008
328.045	258
328.133	1937
328.221	1035
328.309	1782
328.397	1416
328.485	1433
328.574	1781
328.662	4495
328.750	2560
328.838	1980
328.926	1257
329.014	1060
329.102	1868
329.190	2781
329.278	1233
329.366	2005
329.454	665
329.542	1181
329.630	1049
329.718	1079
329.806	834
329.893	1820
329.981	1290
330.069	1288
330.157	1974
330.245	2339
330.333	1406
330.421	1219
330.509	1374
330.597	2410
330.684	2002
330.772	2146
330.860	2073
330.948	2265
331.036	803
331.123	1191
331.211	1576
331.299	1244
331.387	1845
331.475	3443
331.562	1359
331.650	1777
331.738	376
331.825	1628
331.913	214
332.001	1443
332.089	1159
332.176	2404
332.264	6223
332.352	4402
332.439	1114
332.527	2341
332.614	884
332.702	2255
332.790	408
332.877	3190
332.965	5046
333.052	1469
333.140	1324
333.228	3824
333.315	1423
333.403	1768
333.490	3424
333.578	3187
333.665	3510
333.753	2418
333.840	332
333.928	1616
334.015	3820
334.103	6757
334.190	17713
334.278	5524
334.365	5611
334.452	5051
334.540	3027
334.627	3534
334.715	4350
334.802	8123
334.889	30744
334.977	32030
335.064	8937
335.151	4115
335.239	3147
335.326	3627
335.413	8779
335.501	10325
335.588	2875
335.675	3017
335.762	3148
335.850	5875
335.937	6181
336.024	14602
336.111	35780
336.199	21135
336.286	7027
336.373	3877
336.460	1962
336.547	2934
336.635	2196
336.722	1705
336.809	1037
336.896	1291
336.983	3859
337.070	9990
337.157	15550
337.245	15271
337.332	10253
337.419	2525
337.506	1159
337.593	2133
337.680	3964
337.767	9953
337.854	2423
337.941	3135
338.028	4844
338.115	2223
338.202	2504
338.289	4772
338.376	13316
338.463	5434
338.550	5028
338.637	6002
338.724	2840
338.811	4282
338.898	1529
338.984	1562
339.071	702
339.158	1661
339.245	1570
339.332	1814
339.419	2889
339.506	3033
339.593	358
339.679	805
339.766	817
339.853	822
339.940	1840
340.027	639
340.113	1102
340.200	1343
340.287	334
340.374	681
340.460	1113
340.547	611
340.634	1637
340.720	3501
340.807	2100
340.894	1187
340.980	673
341.067	879
341.154	941
341.240	589
341.327	1565
341.414	1476
341.500	441
341.587	1429
341.674	765
341.760	987
341.847	1128
341.933	1363
342.020	-101
342.106	1024
342.193	1052
342.279	1812
342.366	511
342.452	1452
342.539	393
342.625	1721
342.712	2278
342.798	1535
342.885	509
342.971	766
343.058	219
343.144	531
343.230	241
343.317	1240
343.403	97
343.490	985
343.576	150
343.662	633
343.749	1054
343.835	1383
343.921	1715
344.008	8597
344.094	16450
344.180	4194
344.267	926
344.353	4471
344.439	4082
344.525	2061
344.612	2325
344.698	1707
344.784	693
344.870	749
344.957	761
345.043	1109
345.129	270
345.215	1432
345.301	577
345.387	571
345.474	-119
345.560	255
345.646	600
345.732	1088
345.818	937
345.904	764
345.990	526
346.076	894
346.162	892
346.249	1512
346.335	425
346.421	1802
346.507	2135
346.593	5382
346.679	-11
346.765	1051
346.851	695
346.937	1439
347.023	1330
347.108	1244
347.194	797
347.280	470
347.366	1264
347.452	3885
347.538	8594
347.624	5556
347.710	3489
347.796	1833
347.882	543
347.967	848
348.053	565
348.139	1087
348.225	-254
348.311	1173
348.397	1012
348.482	2080
348.568	886
348.654	1121
348.740	3962
348.825	3423
348.911	2654
348.997	4368
349.083	6785
349.168	1203
349.254	165
349.340	1427
349.425	385
349.511	1173
349.597	43
349.682	1148
349.768	3416
349.854	2292
349.939	1419
350.025	667
350.110	1027
350.196	1287
350.282	136
350.367	1559
350.453	1558
350.538	1670
350.624	1149
350.709	1114
350.795	986
350.880	297
350.966	1453
351.051	1834
351.137	630
351.222	967
351.308	661
351.393	2633
351.479	805
351.564	710
351.649	412
351.735	974
351.820	488
351.906	652
351.991	750
352.076	2027
352.162	2426
352.247	969
352.332	152
352.418	447
352.503	837
352.588	4229
352.673	3027
352.759	1373
352.844	-340
352.929	531
353.014	-414
353.100	1279
353.185	1340
353.270	1200
353.355	1259
353.441	1092
353.526	894
353.611	1506
353.696	627
353.781	1687
353.866	-35
353.952	802
354.037	493
354.122	2768
354.207	1312
354.292	916
354.377	505
354.462	782
354.547	-487
354.632	1259
354.717	988
354.802	1209
354.887	-128
354.972	1144
355.057	362
355.142	877
355.227	97
355.312	1161
355.397	737
355.482	3100
355.567	650
355.652	1692
355.737	772
355.822	4054
355.907	3167
355.991	1912
356.076	417
356.161	1200
356.246	810
356.331	1297
356.416	1332
356.501	8633
356.585	7139
356.670	1063
356.755	2880
356.840	1753
356.924	5758
357.009	21110
357.094	6970
357.179	1328
357.263	1055
357.348	2044
357.433	854
357.517	1024
357.602	671
357.687	885
357.771	1728
357.856	4277
357.941	2800
358.025	5816
358.110	23155
358.195	10623
358.279	247
358.364	1534
358.448	3113
358.533	6358
358.617	4586
358.702	5205
358.787	1910
358.871	1757
358.956	1124
359.040	1077
359.125	360
359.209	1689
359.294	2383
359.378	4018
359.462	1324
359.547	1112
359.631	329
359.716	485
359.800	620
359.885	2005
359.969	333
360.053	1576
360.138	32
360.222	1036
360.306	603
360.391	952
360.475	2199
360.559	3683
360.644	2591
360.728	1854
360.812	5240
360.896	12248
360.981	4226
361.065	1816
361.149	985
361.233	519
361.318	110
361.402	780
361.486	1144
361.570	570
361.654	791
361.739	2179
361.823	6959
361.907	13657
361.991	2638
362.075	2568
362.159	2226
362.243	6197
362.327	11052
362.411	18381
362.495	6954
362.580	3008
362.664	2650
362.748	3232
362.832	5235
362.916	9927
363.000	32096
363.084	51336
363.168	27561
363.252	6986
363.336	3454
363.420	4117
363.503	10942
363.587	12416
363.671	2554
363.755	2041
363.839	3130
363.923	2050
364.007	3258
364.091	5070
364.175	7483
364.258	27664
364.342	40284
364.426	71351
364.510	36156
364.594	11201
364.677	5804
364.761	13252
364.845	8509
364.929	2064
365.013	1897
365.096	2275
365.180	1417
365.264	5353
365.347	16827
365.431	7479
365.515	782
365.598	120
365.682	2323
365.766	1185
365.849	1892
365.933	833
366.017	2010
366.100	771
366.184	-357
366.267	2057
366.351	995
366.435	874
366.518	-38
366.602	-193
366.685	229
366.769	879
366.852	1398
366.936	2581
367.019	802
367.103	233
367.186	3049
367.270	967
367.353	-428
367.436	1950
367.520	763
367.603	1510
367.687	557
367.770	1425
367.853	1682
367.937	3820
368.020	4671
368.104	594
368.187	983
368.270	1674
368.353	268
368.437	3377
368.520	8282
368.603	3776
368.687	2292
368.770	5249
368.853	1230
368.936	2120
369.020	1339
369.103	1542
369.186	-304
369.269	6
369.352	959
369.436	1377
369.519	552
369.602	-393
369.685	1937
369.768	-370
369.851	1431
369.934	715
370.018	392
370.101	496
370.184	2995
370.267	1323
370.350	1427
370.433	2989
370.516	13118
370.599	46020
370.682	22165
370.765	4869
370.848	5109
370.931	6677
371.014	4055
371.097	434
371.180	468
371.263	1320
371.346	-1233
371.429	1053
371.511	-39
371.594	143
371.677	1907
371.760	2383
371.843	1067
371.926	8076
372.009	16625
372.091	6798
372.174	2436
372.257	6999
372.340	2292
372.423	2344
372.505	4159
372.588	1240
372.671	2524
372.754	5321
372.836	3151
372.919	4536
373.002	7718
373.085	2548
373.167	1394
373.250	3038
373.332	6710
373.415	13239
373.498	27019
373.580	16983
373.663	63661
373.746	69598
373.828	11177
373.911	3756
373.993	2169
374.076	9731
374.159	8453
374.241	4249
374.324	4569
374.406	4447
374.489	6777
374.571	17285
374.654	6768
374.736	4105
374.819	10376
374.901	18254
374.983	17747
375.066	3649
375.148	2063
375.231	8248
375.313	13602
375.395	4604
375.478	1173
375.560	2310
375.643	1881
375.725	4158
375.807	13794
375.890	14889
375.972	6758
376.054	4031
376.136	6855
376.219	3339
376.301	4345
376.383	10873
376.465	4068
376.548	1591
376.630	1906
376.712	8559
376.794	3143
376.877	706
376.959	-192
377.041	980
377.123	1000
377.205	1480
377.287	36
377.369	1437
377.452	706
377.534	874
377.616	609
377.698	827
377.780	-341
377.862	840
377.944	841
378.026	820
378.108	629
378.190	849
378.272	924
378.354	979
378.436	-236
378.518	664
378.600	1617
378.682	1881
378.764	2634
378.846	2878
378.928	317
379.010	375
379.091	659
379.173	242
379.255	-521
379.337	589
379.419	1289
379.501	6244
379.583	1966
379.664	834
379.746	295
379.828	4216
379.910	4128
379.991	4751
380.073	815
380.155	1205
380.237	-86
380.318	387
380.400	237
380.482	1450
380.564	1007
380.645	1094
380.727	1303
380.809	1702
380.890	48
380.972	-248
381.053	-3
381.135	515
381.217	756
381.298	3808
381.380	1408
381.461	1802
381.543	8930
381.624	10769
381.706	1733
381.787	1347
381.869	1458
381.951	4890
382.032	18120
382.113	13799
382.195	665
382.276	3045
382.358	2419
382.439	8022
382.521	10620
382.602	17662
382.684	6833
382.765	10952
382.846	12334
382.928	20592
383.009	10887
383.090	9400
383.172	31686
383.253	47385
383.334	14917
383.416	13400
383.497	7880
383.578	4494
383.659	7192
383.741	29290
383.822	75190
383.903	35560
383.984	9192
384.066	15670
384.147	7391
384.228	3100
384.309	1278
384.390	2268
384.471	1890
384.553	1751
384.634	1477
384.715	2400
384.796	1480
384.877	1419
384.958	4119
385.039	3827
385.120	1496
385.201	1787
385.282	1312
385.363	3124
385.444	1381
385.525	2809
385.606	7549
385.687	6145
385.768	2595
385.849	1419
385.930	9810
386.011	16047
386.092	3585
386.173	2596
386.254	1971
386.335	2486
386.416	1714
386.496	2667
386.577	3988
386.658	1685
386.739	1164
386.820	3514
386.901	744
386.981	3125
387.062	2430
387.143	3121
387.224	4655
387.304	5708
387.385	3414
387.466	1579
387.547	4239
387.627	1957
387.708	3758
387.789	8647
387.869	8907
387.950	4671
388.031	945
388.111	614
388.192	4363
388.273	5903
388.353	3893
388.434	1810
388.514	1920
388.595	9265
388.676	8688
388.756	4410
388.837	3645
388.917	2820
388.998	-429
389.078	1397
389.159	1012
389.239	347
389.320	1846
389.400	168
389.480	2184
389.561	4413
389.641	2711
389.722	1402
389.802	137
389.883	2564
389.963	6069
390.043	4449
390.124	810
390.204	1916
390.284	3680
390.365	2769
390.445	6389
390.525	19087
390.605	16315
390.686	3103
390.766	1218
390.846	2655
390.927	427
391.007	785
391.087	1686
391.167	1463
391.247	168
391.328	3122
391.408	3192
391.488	3347
391.568	487
391.648	2130
391.728	2478
391.808	3955
391.888	1861
391.969	3948
392.049	4538
392.129	4836
392.209	4060
392.289	8548
392.369	5279
392.449	7131
392.529	5642
392.609	6715
392.689	8429
392.769	12602
392.849	13614
392.929	17575
393.009	25114
393.089	34473
393.169	65702
393.248	178488
393.328	431876
393.408	437159
393.488	179954
393.568	63895
393.648	31666
393.728	18975
393.807	12332
393.887	11154
393.967	8469
394.047	7077
394.127	5990
394.206	8644
394.286	23849
394.366	90901
394.446	95083
394.525	21719
394.605	5516
394.685	5631
394.764	7925
394.844	12080
394.924	10342
395.003	5019
395.083	3300
395.163	3100
395.242	2027
395.322	3648
395.402	1584
395.481	5134
395.561	5298
395.640	16277
395.720	21285
395.799	18180
395.879	11865
395.958	9912
396.038	33085
396.117	121024
396.197	126102
396.276	35967
396.356	13124
396.435	12941
396.515	15357
396.594	21143
396.673	48928
396.753	165215
396.832	385261
396.912	280419
396.991	79135
397.070	28847
397.150	14821
397.229	12468
397.308	15675
397.388	26484
397.467	13056
397.546	5413
397.625	1819
397.705	4738
397.784	2460
397.863	2448
397.942	1863
398.022	1645
398.101	3357
398.180	10076
398.259	4657
398.338	2388
398.417	702
398.497	187
398.576	1395
398.655	542
398.734	881
398.813	973
398.892	2707
398.971	10494
399.050	4299
399.129	504
399.208	501
399.287	1433
399.366	504
399.445	871
399.524	-90
399.603	-810
399.682	596
399.761	2484
399.840	11492
399.919	9648
399.998	1167
400.077	-136
400.156	-1037
400.235	2469
400.313	-328
400.392	-287
400.471	1525
400.550	2421
400.629	-118
400.708	1200
400.786	-1087
400.865	1220
400.944	598
401.023	1977
401.102	-295
401.180	479
401.259	-562
401.338	-577
401.416	1016
401.495	-659
401.574	141
401.652	-663
401.731	-30
401.810	-219
401.888	-512
401.967	-325
402.046	-609
402.124	67
402.203	-961
402.281	-68
402.360	-1074
402.438	2174
402.517	23
402.596	697
402.674	-421
402.753	167
402.831	328
402.910	894
402.988	522
403.066	3891
403.145	2512
403.223	2760
403.302	2607
403.380	2888
403.459	2428
403.537	973
403.615	-464
403.694	-1254
403.772	115
403.850	1012
403.929	-1129
404.007	-540
404.085	596
404.164	-988
404.242	-252
404.320	3622
404.398	9792
404.477	7701
404.555	12266
404.633	10900
404.711	5652
404.789	3480
404.868	-629
404.946	-39
405.024	-385
405.102	-1035
405.180	-893
405.258	-1665
405.336	-589
405.415	-747
405.493	-217
405.571	171
405.649	-1110
405.727	-712
405.805	269
405.883	48
405.961	-321
406.039	-317
406.117	-1565
406.195	-300
406.273	-203
406.351	7847
406.429	4488
406.507	247
406.585	-902
406.663	-664
406.740	-610
406.818	-519
406.896	-1291
406.974	589
407.052	-1055
407.130	4119
407.208	5647
407.285	1055
407.363	-970
407.441	530
407.519	-429
407.596	383
407.674	7440
407.752	36175
407.830	27382
407.907	3868
407.985	-677
408.063	-81
408.141	-795
408.218	887
408.296	-1508
408.373	-903
408.451	408
408.529	52
408.606	-232
408.684	-648
408.762	-493
408.839	49
408.917	-697
408.994	71
409.072	-1392
409.149	802
409.227	2365
409.304	2984
409.382	2943
409.459	2989
409.537	5102
409.614	5019
409.692	3661
409.769	2926
409.846	5920
409.924	7847
410.001	2822
410.079	3459
410.156	1942
410.233	1561
410.311	426
410.388	503
410.465	1032
410.543	576
410.620	432
410.697	1217
410.775	314
410.852	-662
410.929	783
411.006	1229
411.083	-600
411.161	841
411.238	875
411.315	363
411.392	-383
411.469	1073
411.547	-448
411.624	-1775
411.701	-347
411.778	254
411.855	-396
411.932	-684
412.009	-886
412.086	-58
412.163	-400
412.240	-849
412.317	264
412.394	-690
412.471	-359
412.548	-549
412.625	-1077
412.702	-16
412.779	-85
412.856	-209
412.933	-1017
413.010	-296
413.087	-471
413.164	871
413.241	1338
413.318	-925
413.395	-495
413.471	-1075
413.548	-880
413.625	-46
413.702	-1169
413.779	-693
413.855	-1039
413.932	-318
414.009	-1939
414.086	-63
414.162	-815
414.239	-104
414.316	968
414.393	2852
414.469	-1231
414.546	-905
414.623	-560
414.699	-408
414.776	-1381
414.853	-225
414.929	-595
415.006	-139
415.082	-789
415.159	-684
415.236	-1418
415.312	-582
415.389	-491
415.465	-1440
415.542	-1624
415.618	-1810
415.695	-219
415.771	-1009
415.848	-1468
415.924	-368
416.000	-602
416.077	-36
416.153	-1556
416.230	-1064
416.306	-1059
416.383	-518
416.459	-911
416.535	-1642
416.612	-1044
416.688	-549
416.764	-1739
416.841	-1418
416.917	-1204
416.993	-244
417.069	-838
417.146	-907
417.222	-871
417.298	-1242
417.374	-1368
417.451	-618
417.527	-1955
417.603	-1150
417.679	-734
417.755	-607
417.831	-781
417.908	-379
417.984	-1258
418.060	-1955
418.136	-1020
418.212	-496
418.288	-995
418.364	-267
418.440	-1536
418.516	-265
418.592	-836
418.668	-714
418.744	-633
418.820	-194
418.896	-1098
418.972	-1189
419.048	-1416
419.124	304
419.200	-1458
419.276	71
419.352	-2057
419.428	-685
419.504	-1230
419.579	-436
419.655	-886
419.731	-557
419.807	-44
419.883	-215
419.959	-21
420.034	-66
420.110	-211
420.186	1569
420.262	1004
420.337	-443
420.413	-5
420.489	-157
420.565	881
420.640	-127
420.716	1089
420.792	-1145
420.867	364
420.943	-616
421.019	390
421.094	530
421.170	374
421.245	790
421.321	1276
421.397	1790
421.472	8031
421.548	23104
421.623	13981
421.699	3499
421.774	2899
421.850	3153
421.925	4931
422.001	5837
422.076	6385
422.152	8602
422.227	11275
422.302	18635
422.378	25683
422.453	43401
422.529	80726
422.604	133152
422.679	153112
422.755	129591
422.830	82189
422.905	47515
422.981	29159
423.056	19661
423.131	15010
423.207	10305
423.282	7372
423.357	7589
423.432	5284
423.508	5227
423.583	2897
423.658	3751
423.733	2849
423.808	2410
423.883	2813
423.959	2485
424.034	1884
424.109	2841
424.184	1068
424.259	1334
424.334	308
424.409	242
424.484	34
424.559	638
424.634	-739
424.709	391
424.784	-52
424.859	393
424.934	-116
425.009	1224
425.084	1638
425.159	248
425.234	597
425.309	196
425.384	223
425.459	162
425.534	689
425.609	-705
425.683	-657
425.758	-387
425.833	-714
425.908	-163
425.983	-1008
426.058	1837
426.132	61
426.207	-279
426.282	778
426.357	-800
426.431	-843
426.506	267
426.581	-610
426.655	-443
426.730	-1128
426.805	-1225
426.879	-86
426.954	-1161
427.029	-1304
427.103	2276
427.178	5822
427.253	2781
427.327	140
427.402	325
427.476	1198
427.551	-525
427.625	-314
427.700	114
427.774	-1861
427.849	354
427.923	-1278
427.998	-352
428.072	-1293
428.147	1738
428.221	13605
428.296	46399
428.370	25116
428.444	2038
428.519	90
428.593	1120
428.667	1410
428.742	2657
428.816	3990
428.890	26746
428.965	44445
429.039	10788
429.113	978
429.188	2
429.262	-542
429.336	265
429.410	-787
429.485	153
429.559	479
429.633	680
429.707	86
429.781	3785
429.855	26398
429.930	39625
430.004	12771
430.078	10948
430.152	19266
430.226	62473
430.300	61619
430.374	11372
430.448	2665
430.522	3655
430.596	8427
430.670	10751
430.744	35645
430.818	41784
430.892	6283
430.966	-146
431.040	-230
431.114	-1240
431.188	-1431
431.262	-1162
431.336	-1566
431.410	-7
431.484	107
431.557	684
431.631	-741
431.705	81
431.779	9396
431.853	44087
431.927	28756
432.000	3539
432.074	227
432.148	-721
432.222	-1320
432.295	-881
432.369	-1551
432.443	-598
432.516	879
432.590	5624
432.664	1867
432.737	-1428
432.811	-1234
432.885	-1589
432.958	-1647
433.032	-1215
433.106	-1494
433.179	-709
433.253	-1295
433.326	-1197
433.400	-1755
433.473	-787
433.547	-2556
433.620	-952
433.694	-1359
433.767	-778
433.841	-1922
433.914	-1067
433.988	-461
434.061	-967
434.134	-1057
434.208	-854
434.281	-1902
434.355	-1374
434.428	-1843
434.501	-883
434.575	-1430
434.648	-1184
434.721	-1704
434.795	-1031
434.868	-1489
434.941	-1306
435.014	-1657
435.088	-829
435.161	-1506
435.234	-642
435.307	-1883
435.381	81
435.454	765
435.527	1903
435.600	2450
435.673	1844
435.746	521
435.819	192
435.892	-1360
435.966	-436
436.039	-1764
436.112	-1090
436.185	-843
436.258	-718
436.331	-2110
436.404	-1270
436.477	-1358
436.550	-1159
436.623	-1281
436.696	-1445
436.769	-1673
436.842	-502
436.915	-1707
436.987	-1128
437.060	-1242
437.133	-725
437.206	-2138
437.279	-1026
437.352	-1719
437.425	-1673
437.498	-997
437.570	-1384
437.643	-1069
437.716	-1023
437.789	-1584
437.861	-1341
437.934	-869
438.007	-960
438.080	-1871
438.152	-1144
438.225	-982
438.298	3592
438.370	11071
438.443	4114
438.516	-807
438.588	-1384
438.661	-1739
438.734	-1039
438.806	-1089
438.879	-733
438.951	-1689
439.024	-824
439.096	-1756
439.169	-1566
439.241	-2137
439.314	-1245
439.386	-949
439.459	-893
439.531	-1397
439.604	-1023
439.676	-1215
439.749	-1192
439.821	-1407
439.893	-1156
439.966	-2188
440.038	-1287
440.110	-980
440.183	-1366
440.255	-2364
440.327	-697
440.400	-82
440.472	4681
440.544	2703
440.617	-940
440.689	-806
440.761	-636
440.833	-588
440.905	-870
440.978	-1878
441.050	-1351
441.122	-1061
441.194	-1535
441.266	-1169
441.338	-1698
441.411	-1431
441.483	-108
441.555	941
441.627	-193
441.699	-81
441.771	-479
441.843	-1766
441.915	-1124
441.987	-1365
442.059	-154
442.131	-837
442.203	537
442.275	362
442.347	1550
442.419	5001
442.491	31447
442.563	70939
442.635	30840
442.706	6498
442.778	3386
442.850	459
442.922	-48
442.994	-55
443.066	202
443.137	1126
443.209	1505
443.281	2524
443.353	9261
443.425	36498
443.496	112486
443.568	115035
443.640	49447
443.711	11204
443.783	4163
443.855	1907
443.926	806
443.998	-853
444.070	58
444.141	-540
444.213	-356
444.285	-386
444.356	-62
444.428	-558
444.499	219
444.571	-1260
444.642	-58
444.714	59
444.785	-201
444.857	-253
444.928	932
445.000	1328
445.071	2397
445.143	2899
445.214	4070
445.285	7551
445.357	22511
445.428	75863
445.500	143985
445.571	106225
445.642	68884
445.714	25529
445.785	9162
445.856	2567
445.928	2287
445.999	715
446.070	340
446.141	381
446.213	815
446.284	-649
446.355	-396
446.426	-1520
446.497	36
446.569	-1228
446.640	-721
446.711	-662
446.782	-979
446.853	-1049
446.924	-691
446.995	-1364
447.066	-211
447.138	-595
447.209	-182
447.280	-2121
447.351	-1184
447.422	-2264
447.493	-947
447.564	-1324
447.635	-1092
447.706	-2121
447.777	-1517
447.847	-2034
447.918	-1492
447.989	-1328
448.060	-1108
448.131	-241
448.202	-458
448.273	-1729
448.344	-510
448.414	-1549
448.485	-1594
448.556	-1788
448.627	-1359
448.698	-1393
448.768	-1263
448.839	-2497
448.910	-254
448.981	-1507
449.051	-737
449.122	-1519
449.193	-1211
449.263	-1481
449.334	-1484
449.405	-1411
449.475	-588
449.546	-1270
449.616	-623
449.687	-748
449.758	-707
449.828	-1836
449.899	-1230
449.969	-1748
450.040	-1324
450.110	-1423
450.181	-973
450.251	-1332
450.322	-494
450.392	-985
450.463	-648
450.533	-1821
450.604	-1057
450.674	-1230
450.744	-821
450.815	-1777
450.885	-1192
450.955	-1017
451.026	-1746
451.096	-1567
451.166	-927
451.237	-167
451.307	1760
451.377	-368
451.447	-1063
451.518	-1092
451.588	-897
451.658	-1760
451.728	-1228
451.799	769
451.869	1940
451.939	-131
452.009	-735
452.079	-708
452.149	-931
452.219	-1269
452.289	889
452.360	637
452.430	-651
452.500	-717
452.570	454
452.640	2826
452.710	9875
452.780	11854
452.850	6474
452.920	1882
452.990	-123
453.060	211
453.129	296
453.199	-1132
453.269	2607
453.339	6436
453.409	10285
453.479	9354
453.549	14147
453.619	14007
453.688	5199
453.758	145
453.828	-592
453.898	-1373
453.968	-1263
454.037	-113
454.087	-851
454.107	-1172
454.168	-1530
454.177	-1607
454.247	-510
454.249	-522
454.316	-1304
454.330	-1170
454.386	-792
454.411	-589
454.456	-433
454.492	-127
454.525	86
454.574	-115
454.595	-199
454.655	-1189
454.665	-1354
454.734	-681
454.736	-621
454.804	485
454.817	823
454.873	1688
454.898	2049
454.943	2447
454.979	1474
455.013	630
455.060	-157
455.082	-414
455.141	315
455.152	468
455.221	2823
455.222	2927
455.291	5782
455.303	6518
455.360	8600
455.384	11725
455.430	14713
455.465	10202
455.499	6521
455.546	3969
455.569	2893
455.627	2329
455.638	2258
455.707	-456
455.708	-433
455.777	-537
455.789	-507
455.846	-406
455.869	32
455.916	862
455.950	509
455.985	131
456.031	282
456.054	299
456.112	313
456.124	301
456.193	195
456.193	176
456.262	359
456.274	541
456.332	1110
456.355	898
456.401	294
456.436	469
456.470	635
456.516	35
456.540	-269
456.597	-304
456.609	-310
456.678	130
456.678	111
456.747	606
456.759	562
456.817	311
456.840	391
456.886	371
456.920	506
456.955	727
457.001	626
457.024	650
457.082	1113
457.093	1135
457.162	1860
457.163	1888
457.232	2209
457.243	2177
457.301	1908
457.324	1746
457.370	1512
457.405	1671
457.439	1982
457.485	1805
457.508	1749
457.566	2873
457.577	3189
457.646	5486
457.647	5542
457.715	13243
457.727	14669
457.784	24370
457.808	30931
457.853	38308
457.889	44933
457.922	43035
457.969	31346
457.991	33029
458.050	39876
458.060	41840
458.129	67672
458.130	68529
458.198	61281
458.211	56699
458.267	35367
458.292	24777
458.336	17801
458.372	16274
458.405	21878
458.453	32258
458.474	41130
458.533	71658
458.543	73925
458.611	105044
458.614	105928
458.680	64141
458.694	51766
458.749	27504
458.775	19000
458.818	11989
458.855	9022
458.887	7500
458.936	6029
458.955	5607
459.016	4303
459.024	4145
459.093	3834
459.097	3811
459.162	3169
459.177	3220
459.230	3390
459.257	3350
459.299	3466
459.338	3423
459.368	3220
459.418	3467
459.437	3498
459.499	3353
459.505	3361
459.574	3288
459.579	3320
459.643	3009
459.659	2824
459.711	2741
459.740	2814
459.780	3147
459.820	3491
459.849	3415
459.900	3798
459.917	3942
459.981	3436
459.986	3337
460.054	3396
460.061	3319
460.123	3447
460.141	3496
460.191	3668
460.222	3871
460.260	3835
460.302	3996
460.328	4098
460.382	4161
460.397	4330
460.462	5307
460.465	5573
460.534	11849
460.543	12684
460.602	33879
460.623	41794
460.671	65704
460.703	86012
460.739	73873
460.783	53955
460.808	44230
460.864	11812
460.876	9807
460.944	4684
460.945	4628
461.013	3843
461.024	3736
461.081	3570
461.104	3803
461.150	4006
461.184	3753
461.218	3691
461.264	3732
461.286	3641
461.345	3144
461.355	3118
461.423	3520
461.425	3526
461.491	3973
461.505	4166
461.559	5809
461.585	6269
461.628	8164
461.665	10433
461.696	10887
461.745	11504
461.764	10122
461.825	4779
461.832	4683
461.901	3767
461.905	3750
461.969	3452
461.985	3314
462.037	3866
462.065	4324
462.105	4207
462.145	3837
462.173	4811
462.225	6973
462.241	7519
462.305	9434
462.310	9193
462.378	5953
462.385	5488
462.446	4897
462.465	4858
462.514	4510
462.545	4159
462.582	4062
462.625	3942
462.650	3862
462.705	3952
462.718	4065
462.785	4446
462.786	4454
462.854	4725
462.865	4765
462.922	5373
462.945	5727
462.990	5076
463.025	4443
463.058	4421
463.104	4408
463.126	4183
463.184	3687
463.194	3748
463.262	3451
463.264	3470
463.330	4188
463.344	4211
463.398	4166
463.424	4207
463.466	4393
463.504	4597
463.533	4888
463.583	5249
463.601	5210
463.663	5054
463.669	5048
463.737	5128
463.743	5106
463.805	7286
463.823	8017
463.873	10669
463.903	12285
463.940	12890
463.982	13383
464.008	11030
464.062	5784
464.076	5636
464.142	5065
464.144	5055
464.211	4283
464.221	4212
464.279	4934
464.301	5098
464.347	4538
464.381	4227
464.414	5028
464.461	6098
464.482	6081
464.540	6177
464.550	6197
464.617	5825
464.620	5820
464.685	6048
464.699	5967
464.753	6688
464.779	7184
464.820	8201
464.859	9131
464.888	8601
464.938	7597
464.956	7792
465.018	8165
465.023	8085
465.091	7143
465.098	7011
465.158	6501
465.177	6435
465.226	7122
465.257	7405
465.293	7036
465.336	6621
465.361	6940
465.416	7564
465.428	7805
465.495	9162
465.496	9199
465.563	12241
465.575	12784
465.631	15385
465.654	16486
465.698	11492
465.734	7176
465.765	6759
465.813	6000
465.833	6029
465.893	6369
465.900	6409
465.968	6508
465.972	6505
466.035	6653
466.052	6672
466.102	6848
466.131	6914
466.170	6399
466.210	5844
466.237	6180
466.290	6807
466.304	6727
466.369	6226
466.372	6269
466.439	7308
466.449	7400
466.506	7405
466.528	7457
466.573	8918
466.607	9923
466.641	12796
466.687	16816
466.708	17952
466.766	20988
466.775	19617
466.842	8978
466.845	8448
466.909	7587
466.925	7412
466.977	7928
467.004	8157
467.044	8291
467.083	8405
467.111	9166
467.163	10527
467.178	10830
467.242	11981
467.245	11940
467.312	10560
467.321	10356
467.379	10012
467.400	9854
467.446	10770
467.480	11397
467.559	10491
467.638	9861
467.717	10216
467.796	11207
467.875	10500
467.955	11155
468.034	15051
468.113	23896
468.192	32629
468.271	17076
468.350	19681
468.429	26534
468.508	26402
468.588	18354
468.667	14324
468.746	13005
468.825	11737
468.904	10574
468.983	11164
469.062	12462
469.141	14387
469.220	9325
469.299	9205
469.378	9138
469.456	12255
469.535	10251
469.614	10037
469.693	9458
469.772	12214
469.851	13201
469.930	10372
470.009	10080
470.088	9075
470.166	11522
470.245	12596
470.324	12750
470.403	11184
470.482	10300
470.560	10123
470.639	9229
470.718	9973
470.797	9556
470.875	10267
470.954	10126
471.033	11855
471.111	8270
471.190	9506
471.269	8773
471.347	7857
471.426	8380
471.505	9897
471.583	10407
471.662	9882
471.740	8257
471.819	9290
471.898	8249
471.976	9578
472.055	8598
472.133	11180
472.212	13625
472.290	10985
472.369	9262
472.447	8477
472.526	7236
472.604	9096
472.683	8592
472.761	8697
472.839	8070
472.918	9090
472.996	8573
473.075	9763
473.153	8921
473.231	7440
473.310	9043
473.388	8706
473.466	8787
473.545	9289
473.623	11138
473.701	9313
473.780	9309
473.858	8525
473.936	10684
474.014	9085
474.093	11369
474.171	13686
474.249	14422
474.327	9980
474.405	8980
474.484	8579
474.562	8271
474.640	7590
474.718	8247
474.796	8425
474.874	8390
474.952	8281
475.030	7937
475.108	6879
475.187	8522
475.265	7918
475.343	9723
475.421	8932
475.499	7861
475.577	8685
475.655	9594
475.733	15118
475.811	20913
475.889	19466
475.966	13708
476.044	7367
476.122	8567
476.200	9395
476.278	7886
476.356	7362
476.434	7811
476.512	7896
476.590	9415
476.667	9066
476.745	6719
476.823	7573
476.901	7448
476.979	7845
477.056	7541
477.134	7524
477.212	7950
477.290	7444
477.367	7067
477.445	7493
477.523	6101
477.601	7254
477.678	7253
477.756	8258
477.834	8380
477.911	6191
477.989	7304
478.066	7661
478.144	7151
478.222	7776
478.299	9656
478.377	10993
478.454	8892
478.532	6326
478.609	7835
478.687	6784
478.764	6619
478.842	7382
478.919	6588
478.997	6741
479.074	6614
479.152	7129
479.229	8614
479.307	7129
479.384	6211
479.461	6629
479.539	7027
479.616	7776
479.694	6595
479.771	7229
479.848	6753
479.926	7186
480.003	9118
480.080	7198
480.157	7589
480.235	5864
480.312	7005
480.389	7334
480.467	10002
480.544	11469
480.621	8395
480.698	7862
480.775	7561
480.853	8317
480.930	8030
481.007	9463
481.084	12147
481.161	19169
481.238	12369
481.315	7471
481.392	7309
481.470	6950
481.547	7728
481.624	7499
481.701	7532
481.778	8647
481.855	9072
481.932	10958
482.009	14572
482.086	12287
482.163	10235
482.240	11798
482.317	12716
482.393	12222
482.470	8289
482.547	9790
482.624	8521
482.701	9066
482.778	9347
482.855	8331
482.932	8681
483.009	9188
483.085	12477
483.162	16171
483.239	15072
483.316	11168
483.393	11113
483.469	10051
483.546	9674
483.623	9520
483.699	8008
483.776	7419
483.853	8150
483.930	10310
484.006	17278
484.083	28523
484.160	19656
484.236	29676
484.313	22656
484.389	18845
484.466	18408
484.543	18882
484.619	20504
484.696	22633
484.772	18861
484.849	18868
484.925	15329
485.002	16223
485.078	15977
485.155	15677
485.231	14493
485.308	14121
485.384	14086
485.461	15661
485.537	21249
485.614	23704
485.690	13806
485.766	12671
485.843	12395
485.919	14488
485.995	13500
486.072	12325
486.148	11953
486.224	12672
486.301	12746
486.377	14385
486.453	13918
486.530	14290
486.606	18477
486.682	19270
486.758	21284
486.835	23368
486.911	19963
486.987	27520
487.063	24424
487.139	26532
487.215	28835
487.292	22912
487.368	22064
487.444	25984
487.520	34096
487.596	48286
487.672	93828
487.748	251936
487.824	382416
487.900	149866
487.976	54978
488.052	32244
488.128	26643
488.204	19240
488.280	17167
488.356	17896
488.432	25829
488.508	30927
488.584	15522
488.660	13280
488.736	12595
488.812	12269
488.888	14174
488.964	15040
489.039	20633
489.115	26417
489.191	20319
489.267	13172
489.343	12403
489.418	11676
489.494	11307
489.570	9958
489.646	11149
489.722	11762
489.797	10562
489.873	15312
489.949	24806
490.024	19641
490.100	10644
490.176	10912
490.251	11285
490.327	11847
490.403	9185
490.478	11225
490.554	9689
490.629	9395
490.705	9691
490.781	11299
490.856	9384
490.932	10335
491.007	10007
491.083	9669
491.158	9122
491.234	11965
491.309	18280
491.385	17811
491.460	8247
491.536	9211
491.611	8601
491.686	9585
491.762	9707
491.837	13688
491.913	19277
491.988	23719
492.063	25584
492.139	14454
492.214	10779
492.289	8186
492.365	8125
492.440	9290
492.515	8610
492.590	8736
492.666	8231
492.741	9867
492.816	12376
492.891	8864
492.967	8826
493.042	8253
493.117	8897
493.192	9893
493.267	19053
493.342	56940
493.418	74121
493.493	13103
493.568	7137
493.643	6850
493.718	8957
493.793	10009
493.868	9915
493.943	7464
494.018	7460
494.093	7003
494.168	7935
494.243	6675
494.318	6808
494.393	6595
494.468	6047
494.543	6757
494.618	6614
494.693	6205
494.768	4982
494.842	6709
494.917	6157
494.992	7389
495.067	6263
495.142	5306
495.217	5412
495.292	5703
495.366	6999
495.441	7444
495.516	8498
495.591	9593
495.665	20298
495.740	37794
495.815	17814
495.890	7467
495.964	6536
496.039	9752
496.114	9921
496.188	17067
496.263	12938
496.338	7192
496.412	7464
496.487	9247
496.561	7531
496.636	7531
496.710	7451
496.785	8769
496.860	8082
496.934	6226
497.009	6710
497.083	7402
497.158	7550
497.232	6916
497.307	9009
497.381	7164
497.455	8586
497.530	10279
497.604	7877
497.679	8840
497.753	10953
497.827	11457
497.902	10487
497.976	13597
498.050	34348
498.125	127197
498.199	111982
498.273	13287
498.348	10033
498.422	8728
498.496	8180
498.570	9063
498.645	7188
498.719	6710
498.793	9791
498.867	14470
498.941	18394
499.016	52450
499.090	134561
499.164	38014
499.238	8368
499.312	6784
499.386	7711
499.460	7952
499.534	8108
499.609	9506
499.683	10988
499.757	11486
499.831	24096
499.905	89299
499.979	73747
500.053	13672
500.127	13004
500.201	9380
500.275	7807
500.349	7606
500.422	8277
500.496	10772
500.570	17819
500.644	47219
500.718	86026
500.792	17782
500.866	8413
500.940	9683
501.013	8850
501.087	8714
501.161	10251
501.235	12183
501.309	31173
501.382	76140
501.456	58795
501.530	15341
501.603	25390
501.677	10626
501.751	6204
501.825	10709
501.898	12988
501.972	31010
502.046	18000
502.119	7347
502.193	16278
502.266	31914
502.340	15871
502.413	15945
502.487	28103
502.561	17215
502.634	7421
502.708	7057
502.781	5897
502.855	6917
502.928	5754
503.002	5801
503.075	4815
503.149	6870
503.222	6581
503.295	7003
503.369	8078
503.442	10415
503.516	27203
503.589	57820
503.662	36712
503.736	18435
503.809	34721
503.882	31594
503.956	48267
504.029	67767
504.102	131226
504.175	184832
504.249	76663
504.322	33654
504.395	20883
504.468	14218
504.542	10918
504.615	8900
504.688	7783
504.761	6226
504.834	8271
504.907	6842
504.980	8261
505.053	6132
505.127	4379
505.200	9664
505.273	7590
505.346	5888
505.419	4426
505.492	6304
505.565	4423
505.638	4548
505.711	4215
505.784	3983
505.857	3903
505.930	5820
506.003	3940
506.076	7071
506.149	5605
506.221	5823
506.294	6946
506.367	12404
506.440	38770
506.513	17707
506.586	6692
506.659	4131
506.731	4098
506.804	4601
506.877	4645
506.950	4599
507.022	4251
507.095	4076
507.168	5916
507.241	4850
507.313	3450
507.386	3546
507.459	5986
507.531	4247
507.604	2632
507.677	4750
507.749	2996
507.822	6155
507.894	7452
507.967	10217
508.040	6776
508.112	6995
508.185	6443
508.257	4905
508.330	7488
508.402	4425
508.475	5519
508.547	6573
508.620	5991
508.692	8231
508.765	6598
508.837	5121
508.909	5679
508.982	5292
509.054	5251
509.127	4701
509.199	4451
509.271	4272
509.344	4606
509.416	4245
509.488	4601
509.560	5055
509.633	4784
509.705	5167
509.777	4869
509.849	7117
509.922	4378
509.994	5172
510.066	6417
510.138	5069
510.210	11921
510.283	9684
510.355	7388
510.427	7780
510.499	7069
510.571	6460
510.643	5819
510.715	7820
510.787	5926
510.859	6899
510.931	7096
511.003	7054
511.076	7118
511.148	5691
511.219	6230
511.291	9540
511.363	10039
511.435	5923
511.507	4988
511.579	5187
511.651	6663
511.723	5661
511.795	5694
511.867	5965
511.939	6850
512.010	9391
512.082	8528
512.154	5556
512.226	5998
512.298	8569
512.369	10551
512.441	9190
512.513	8395
512.585	7136
512.656	7634
512.728	6657
512.800	6681
512.871	6102
512.943	5711
513.015	5051
513.086	6323
513.158	6440
513.230	5657
513.301	6017
513.373	7684
513.444	6670
513.516	5280
513.588	5501
513.659	5542
513.731	6170
513.802	5466
513.874	8557
513.945	10028
514.016	6678
514.088	5585
514.159	5293
514.231	6949
514.302	8990
514.374	8460
514.445	5424
514.516	13299
514.588	7760
514.659	7120
514.730	9103
514.802	8603
514.873	4550
514.944	7605
515.016	6583
515.087	6218
515.158	7371
515.229	10035
515.301	5720
515.372	7440
515.443	5507
515.514	5545
515.585	5102
515.656	7107
515.728	7099
515.799	5408
515.870	6341
515.941	7090
516.012	5191
516.083	7978
516.154	7980
516.225	8627
516.296	8800
516.367	8362
516.438	7804
516.509	10631
516.580	14612
516.651	35945
516.722	103152
516.793	42755
516.864	13188
516.935	13608
517.006	15176
517.077	18002
517.148	38354
517.219	141763
517.289	203982
517.360	56829
517.431	18704
517.502	9520
517.573	9823
517.643	9584
517.714	10410
517.785	11145
517.856	11064
517.926	14617
517.997	14189
518.068	16524
518.138	22596
518.209	32518
518.280	103087
518.350	331782
518.421	124303
518.492	30521
518.562	27449
518.633	35189
518.703	49242
518.774	105536
518.845	236804
518.915	203758
518.986	68289
519.056	34737
519.127	26896
519.197	26769
519.268	46682
519.338	29007
519.408	13100
519.479	10922
519.549	9204
519.620	10155
519.690	8311
519.760	8136
519.831	7021
519.901	6657
519.971	7379
520.042	7147
520.112	6851
520.182	8691
520.253	7095
520.323	7088
520.393	8189
520.463	11703
520.534	6351
520.604	15610
520.674	8170
520.744	8661
520.814	13725
520.885	13104
520.955	15839
521.025	48535
521.095	16001
521.165	8106
521.235	5657
521.305	4619
521.375	5754
521.445	7399
521.515	5329
521.585	7219
521.655	5784
521.725	6719
521.795	7464
521.865	3888
521.935	8792
522.005	6967
522.075	5839
522.145	6596
522.215	6663
522.285	8147
522.355	9497
522.424	14595
522.494	13086
522.564	8587
522.634	10237
522.704	18282
522.774	7830
522.843	7123
522.913	7214
522.983	7357
523.053	5774
523.122	7866
523.192	6469
523.262	10887
523.331	11095
523.401	6719
523.471	5967
523.540	6934
523.610	4775
523.680	6629
523.749	5944
523.819	8337
523.888	9067
523.958	6075
524.027	5261
524.097	6443
524.166	5086
524.236	4885
524.305	6731
524.375	4983
524.444	4964
524.514	8918
524.583	5695
524.653	5729
524.722	8000
524.791	5164
524.861	7937
524.930	5459
524.999	6506
525.069	7578
525.138	6218
525.207	7475
525.277	7730
525.346	7897
525.415	9528
525.484	9332
525.554	10896
525.623	13989
525.692	17115
525.761	18787
525.830	21422
525.900	27156
525.969	42645
526.038	83384
526.107	170654
526.176	449578
526.245	333736
526.314	110682
526.383	236800
526.452	307032
526.522	440324
526.591	373038
526.660	71747
526.729	42200
526.797	47394
526.867	75878
526.935	221875
527.004	640748
527.073	382761
527.142	59008
527.211	25917
527.280	18568
527.349	14567
527.418	9956
527.487	10468
527.555	7897
527.624	8030
527.693	6648
527.762	9170
527.831	6429
527.899	6866
527.968	6033
528.037	4936
528.106	5973
528.174	7423
528.243	7869
528.312	8066
528.380	8524
528.449	5605
528.518	7218
528.586	4151
528.655	6192
528.723	5176
528.792	5460
528.861	4825
528.929	4620
528.998	7724
529.066	9545
529.135	13214
529.203	12559
529.272	16239
529.340	19946
529.409	19054
529.477	15652
529.545	15159
529.614	19650
529.682	21360
529.751	22698
529.819	26091
529.887	26604
529.956	24990
530.024	23903
530.092	21531
530.161	22078
530.229	22004
530.297	24822
530.365	23539
530.434	25545
530.502	25280
530.570	22823
530.638	18842
530.707	19702
530.775	19562
530.843	18841
530.911	22043
530.979	22344
531.047	24201
531.115	24471
531.183	20954
531.252	20766
531.320	19657
531.388	18847
531.456	23250
531.524	23079
531.592	25739
531.660	28807
531.728	24217
531.796	24230
531.864	23247
531.932	22862
532.000	23050
532.067	25367
532.135	27435
532.203	28501
532.271	29797
532.339	30358
532.407	32961
532.475	28249
532.542	25882
532.610	27173
532.678	27972
532.746	38516
532.814	51634
532.881	32108
532.949	28774
533.017	26793
533.084	25882
533.152	24628
533.220	25110
533.287	24092
533.355	26022
533.423	26450
533.490	25768
533.558	24715
533.625	24091
533.693	23784
533.761	24058
533.828	23176
533.896	23146
533.963	27173
534.031	27412
534.098	29653
534.166	27037
534.233	25821
534.300	25825
534.368	26867
534.435	23636
534.503	25342
534.570	27944
534.637	28945
534.705	32185
534.772	37039
534.840	60744
534.907	210057
534.974	232330
535.041	39726
535.109	24257
535.176	21269
535.243	22215
535.310	20346
535.378	20386
535.445	20350
535.512	18600
535.579	18954
535.646	17254
535.714	18522
535.781	20124
535.848	20071
535.915	20635
535.982	20480
536.049	18909
536.116	19424
536.183	16745
536.250	16290
536.317	15813
536.384	16175
536.451	17351
536.518	17851
536.585	15700
536.652	18922
536.719	16961
536.786	14724
536.853	15321
536.920	17220
536.987	17548
537.053	15791
537.120	26290
537.187	23651
537.254	15864
537.321	14746
537.388	16689
537.454	14307
537.521	13732
537.588	13162
537.654	15507
537.721	15662
537.788	15767
537.855	12995
537.921	14751
537.988	13809
538.055	14777
538.121	12904
538.188	12394
538.254	13683
538.321	15111
538.388	14778
538.454	14194
538.521	14793
538.587	14976
538.654	13876
538.720	13453
538.787	13373
538.853	13162
538.920	13218
538.986	12758
539.053	11992
539.119	11828
539.185	11307
539.252	14293
539.318	13859
539.385	15663
539.451	12339
539.517	14130
539.583	13690
539.650	14739
539.716	19715
539.782	13405
539.849	11309
539.915	12367
539.981	10881
540.047	12090
540.114	11919
540.180	12622
540.246	12582
540.312	13422
540.378	15262
540.444	15097
540.510	15273
540.576	19604
540.643	12748
540.709	11489
540.775	12050
540.841	12448
540.907	12665
540.973	15257
541.039	12922
541.105	12710
541.171	12062
541.237	11385
541.303	13571
541.369	14386
541.435	13529
541.500	12911
541.566	11237
541.632	10513
541.698	10913
541.764	12035
541.830	11583
541.896	9933
541.961	12390
542.027	11382
542.093	12322
542.159	13126
542.224	11039
542.290	13100
542.356	12505
542.421	13919
542.487	11747
542.553	11341
542.618	11128
542.684	10837
542.750	10802
542.815	12370
542.881	12351
542.947	18348
543.012	15788
543.078	10442
543.143	10395
543.209	12042
543.274	10209
543.340	11636
543.405	12926
543.471	14033
543.536	11698
543.602	10738
543.667	10196
543.732	11862
543.798	11048
543.863	11862
543.928	10340
543.994	10804
544.059	10928
544.124	12610
544.190	11068
544.255	12316
544.320	11527
544.386	11208
544.451	12741
544.516	12835
544.581	12540
544.646	16922
544.712	19006
544.777	12611
544.842	12227
544.907	12768
544.972	12175
545.037	13050
545.102	15116
545.168	13944
545.233	14399
545.298	14502
545.363	13961
545.428	15242
545.493	17291
545.558	18280
545.623	14985
545.688	14322
545.753	15338
545.818	15336
545.883	15998
545.947	16002
546.012	17337
546.077	17181
546.142	19168
546.207	17845
546.272	19894
546.337	19842
546.401	21131
546.466	20573
546.531	21537
546.596	24159
546.661	23378
546.725	25022
546.790	25346
546.855	28033
546.919	30266
546.984	34287
547.049	36742
547.113	42713
547.178	45793
547.243	52235
547.307	60167
547.372	65386
547.436	65918
547.501	68841
547.565	74155
547.630	67378
547.695	64612
547.759	65420
547.823	67153
547.888	67901
547.952	69676
548.017	73444
548.081	78834
548.146	75745
548.210	74998
548.274	79241
548.339	77759
548.403	71763
548.468	67324
548.532	67451
548.596	69851
548.660	69185
548.725	75515
548.789	80407
548.853	80934
548.917	77138
548.982	74074
549.046	66556
549.110	60460
549.174	65089
549.238	72818
549.303	79983
549.367	81919
549.431	77065
549.495	73802
549.559	74631
549.623	85925
549.687	93321
549.751	90251
549.815	108709
549.879	108904
549.943	103646
550.007	109427
550.071	108017
550.135	98755
550.199	93222
550.263	92948
550.327	90187
550.391	94248
550.455	103166
550.519	105813
550.582	111033
550.646	126615
550.710	128439
550.774	124825
550.838	127651
550.901	132204
550.965	139302
551.029	146221
551.093	157093
551.156	170383
551.220	189422
551.284	197150
551.347	158351
551.411	147867
551.475	140313
551.538	138900
551.602	129261
551.666	122844
551.729	117530
551.793	115425
551.856	114544
551.920	112737
551.983	111693
552.047	109904
552.110	113272
552.174	113117
552.237	114650
552.301	106882
552.364	103221
552.428	100533
552.491	103487
552.554	103788
552.618	104629
552.681	107554
552.745	103130
552.808	107418
552.871	115283
552.934	110632
552.998	107224
553.061	105252
553.124	100404
553.187	102125
553.251	103344
553.314	105578
553.377	105924
553.440	117929
553.503	140511
553.567	152545
553.630	117658
553.693	115437
553.756	115162
553.819	113066
553.882	110847
553.945	111886
554.008	112562
554.071	113020
554.134	113458
554.197	108208
554.260	109309
554.323	109895
554.386	110332
554.449	113410
554.512	113248
554.575	106688
554.638	106706
554.701	107019
554.764	107197
554.827	102958
554.889	101695
554.952	94928
555.015	92259
555.078	94165
555.141	96721
555.203	93797
555.266	93496
555.329	92361
555.391	89054
555.454	88692
555.517	84654
555.580	82677
555.642	79139
555.705	78050
555.768	78288
555.830	74268
555.893	72363
555.955	70085
556.018	67990
556.080	68550
556.143	69023
556.206	68071
556.268	67528
556.330	65886
556.393	63965
556.455	63271
556.518	61465
556.580	60701
556.643	57479
556.705	57987
556.767	55209
556.830	54481
556.892	52293
556.955	53188
557.017	51149
557.079	50415
557.142	49327
557.204	48254
557.266	51081
557.328	46244
557.391	43682
557.453	41782
557.515	42412
557.577	43378
557.639	43636
557.701	42604
557.764	41286
557.826	42582
557.888	43613
557.950	46047
558.012	52112
558.074	67783
558.136	133744
558.198	275841
558.260	99598
558.322	47136
558.384	47146
558.446	50077
558.508	54289
558.570	59990
558.632	71862
558.694	95498
558.756	155684
558.818	385240
558.880	705961
558.942	307109
559.003	297330
559.065	138311
559.127	62884
559.189	59915
559.251	69549
559.312	99666
559.374	216404
559.436	545533
559.498	273549
559.559	72380
559.621	59601
559.683	71201
559.744	115821
559.806	313288
559.868	408363
559.929	99895
559.991	68749
560.052	106024
560.114	268808
560.176	166803
560.237	162558
560.299	231940
560.360	55434
560.422	26376
560.483	23645
560.545	21348
560.606	20820
560.667	19713
560.729	19705
560.790	19117
560.852	17341
560.913	17549
560.974	17324
561.036	16885
561.097	17579
561.158	17648
561.220	16878
561.281	15311
561.342	15903
561.403	16858
561.465	16317
561.526	19737
561.587	20660
561.648	15073
561.709	15225
561.771	15053
561.832	14511
561.893	14789
561.954	14474
562.015	12865
562.076	12787
562.137	13734
562.198	13758
562.259	13767
562.320	13115
562.381	13763
562.442	15386
562.503	13299
562.564	13089
562.625	12833
562.686	12721
562.747	13423
562.808	12504
562.869	12711
562.930	12618
562.991	12143
563.051	12488
563.112	12238
563.173	12058
563.234	11017
563.294	11719
563.355	11157
563.416	11514
563.477	11497
563.537	11129
563.598	10737
563.659	11149
563.720	11268
563.780	10921
563.841	11311
563.901	11376
563.962	11462
564.023	10774
564.083	10795
564.144	11303
564.204	10253
564.265	11041
564.325	11336
564.386	14223
564.446	14005
564.507	10349
564.567	10098
564.628	9545
564.688	9614
564.749	10047
564.809	11529
564.869	11642
564.930	10340
564.990	10442
565.050	10128
565.111	10308
565.171	9861
565.231	9768
565.292	10762
565.352	9131
565.412	10804
565.472	9995
565.532	9780
565.593	9742
565.653	9762
565.713	10184
565.773	9993
565.833	10551
565.893	11994
565.953	9496
566.013	9336
566.074	10245
566.134	10823
566.194	12314
566.254	12192
566.314	10871
566.374	9117
566.434	9804
566.494	9914
566.554	9390
566.614	9969
566.673	10432
566.733	10739
566.793	10075
566.853	10778
566.913	10742
566.973	9238
567.033	9640
567.092	9762
567.152	10121
567.212	10739
567.272	10955
567.331	10072
567.391	10983
567.451	10122
567.511	11456
567.570	12666
567.630	10492
567.690	9798
567.749	10250
567.809	9868
567.868	10333
567.928	9884
567.988	10384
568.047	10820
568.107	9870
568.166	9763
568.226	11037
568.285	11096
568.345	10800
568.404	11111
568.464	11415
568.523	9608
568.582	9973
568.642	10272
568.701	10586
568.761	11388
568.820	12618
568.879	11860
568.939	12358
568.998	11037
569.057	10086
569.116	11147
569.176	10775
569.235	9111
569.294	10588
569.353	9400
569.413	9610
569.472	9370
569.531	10357
569.590	8443
569.649	9265
569.708	8821
569.767	9755
569.827	10727
569.886	8826
569.945	9090
570.004	10178
570.063	9502
570.122	8862
570.181	10275
570.240	9642
570.299	10802
570.358	9816
570.417	10306
570.475	10708
570.534	10246
570.593	10041
570.652	10198
570.711	9897
570.770	9579
570.829	11103
570.887	9964
570.946	10711
571.005	10257
571.064	10720
571.122	11213
571.181	9871
571.240	10422
571.299	9393
571.357	10641
571.416	9790
571.475	10878
571.533	11114
571.592	10549
571.650	10599
571.709	11553
571.768	11038
571.826	12227
571.885	11825
571.943	10699
572.002	9801
572.060	9419
572.119	9507
572.177	10188
572.236	9530
572.294	10391
572.352	10700
572.411	10619
572.469	9430
572.528	9571
572.586	9850
572.644	10185
572.703	10290
572.761	9610
572.819	9073
572.877	8082
572.936	8739
572.994	8996
573.052	9347
573.110	8783
573.169	10312
573.227	9348
573.285	9754
573.343	9453
573.401	9668
573.459	9336
573.517	10257
573.576	9945
573.634	10186
573.692	9774
573.750	9469
573.808	8946
573.866	9185
573.924	10506
573.982	10411
574.040	8961
574.098	9342
574.155	9207
574.213	9633
574.271	8700
574.329	9865
574.387	8739
574.445	7596
574.503	8164
574.560	8379
574.618	7954
574.676	8328
574.734	7833
574.792	9272
574.849	8296
574.907	7274
574.965	6768
575.022	7218
575.080	6819
575.138	7033
575.195	7234
575.253	7315
575.311	7517
575.368	6992
575.426	6729
575.483	7966
575.541	7727
575.598	6770
575.656	6917
575.713	7602
575.771	8240
575.828	7392
575.886	7171
575.943	7524
576.001	7101
576.058	6678
576.115	6339
576.173	7647
576.230	7893
576.287	8428
576.345	7850
576.402	7385
576.459	7859
576.517	6922
576.574	7135
576.631	6764
576.688	6661
576.746	7157
576.803	6424
576.860	7009
576.917	6594
576.974	7639
577.031	7307
577.089	6881
577.146	6888
577.203	6568
577.260	6662
577.317	6601
577.374	7080
577.431	6452
577.488	6608
577.545	6531
577.602	7126
577.659	6722
577.716	7694
577.773	7622
577.830	6249
577.886	6361
577.943	6860
578.000	6814
578.057	7769
578.114	8106
578.171	8224
578.227	9909
578.284	9797
578.341	8499
578.398	7804
578.454	7691
578.511	7354
578.568	7499
578.625	7143
578.681	7876
578.738	6532
578.794	6349
578.851	6799
578.908	7018
578.964	6852
579.021	7136
579.077	6214
579.134	6327
579.190	7309
579.247	6737
579.303	6953
579.360	5810
579.416	6487
579.473	6554
579.529	7108
579.586	6647
579.642	6706
579.698	7314
579.755	7908
579.811	7335
579.867	7707
579.924	7876
579.980	7506
580.036	8784
580.093	10942
580.149	12378
580.205	13842
580.261	11607
580.317	9311
580.374	9071
580.430	9906
580.486	9931
580.542	8687
580.598	8407
580.619	8919
580.654	9820
580.692	8237
580.710	7465
580.765	8615
580.767	8660
580.823	8718
580.838	8828
580.879	9163
580.911	9001
580.935	8893
580.984	8602
580.991	8578
581.047	10123
581.057	9961
581.103	9252
581.130	9310
581.159	9395
581.203	10277
581.215	10537
581.270	9422
581.276	9399
581.326	9147
581.349	9179
581.382	9281
581.422	9295
581.438	9310
581.494	8549
581.494	8540
581.550	8189
581.567	8662
581.606	9779
581.640	9482
581.661	9272
581.713	10077
581.717	10157
581.773	9624
581.786	9447
581.829	8744
581.859	9054
581.885	9406
581.932	9624
581.940	9664
581.996	10446
582.004	10310
582.052	9581
582.077	9806
582.107	10077
582.150	10067
582.163	10067
582.219	9149
582.223	9184
582.274	9747
582.296	9978
582.330	10336
582.368	10009
582.386	9874
582.441	10681
582.441	10685
582.497	10574
582.514	10965
582.552	11746
582.587	11714
582.608	11688
582.659	10410
582.663	10325
582.719	10764
582.732	10888
582.774	11280
582.805	11470
582.830	11676
582.877	12707
582.885	12880
582.941	13556
582.950	13810
582.996	15002
583.023	15743
583.052	16655
583.095	17169
583.107	17248
583.162	16446
583.168	16521
583.218	17183
583.240	16088
583.273	14542
583.313	13193
583.328	12718
583.384	12586
583.385	12550
583.439	11176
583.458	11177
583.494	11369
583.531	11219
583.549	11116
583.603	11392
583.605	11396
583.660	11165
583.676	11049
583.715	10990
583.748	11152
583.770	11309
583.820	11501
583.825	11458
583.881	10819
583.893	10567
583.936	10077
583.965	10496
583.991	10785
584.038	11687
584.046	11831
584.101	10155
584.110	10301
584.156	11265
584.183	11403
584.211	11365
584.255	10958
584.266	10860
584.321	11642
584.328	11626
584.376	11756
584.400	11813
584.431	11758
584.472	11624
584.486	11580
584.541	12914
584.545	12903
584.596	12533
584.617	12617
584.651	12971
584.689	13034
584.706	12962
584.761	13402
584.762	13405
584.816	13358
584.834	13734
584.871	14350
584.906	14285
584.926	14218
584.978	14195
584.980	14202
585.035	15605
585.051	15806
585.090	16493
585.123	17089
585.145	17315
585.195	18251
585.200	18377
585.254	20867
585.267	21604
585.309	23978
585.340	25820
585.364	27249
585.412	31116
585.419	31703
585.473	38259
585.484	40328
585.528	50667
585.556	61767
585.583	78550
585.628	122150
585.637	136346
585.692	264332
585.700	286945
585.747	385188
585.772	335028
585.801	224815
585.845	95486
585.856	75387
585.910	38916
585.917	35959
585.965	27216
585.989	24651
586.019	22347
586.061	19936
586.074	19415
586.128	18152
586.133	18070
586.183	16855
586.205	16367
586.237	16014
586.277	15754
586.292	15514
586.346	14712
586.349	14685
586.401	14490
586.421	14656
586.455	14846
586.493	14995
586.509	15123
586.564	14922
586.565	14985
586.618	18171
586.637	18367
586.672	18017
586.709	17576
586.727	17430
586.781	19075
586.781	19064
586.835	15253
586.853	14613
586.889	13839
586.925	12740
586.944	12227
586.996	12728
586.998	12735
587.052	12473
587.068	12269
587.106	12290
587.140	12506
587.161	12373
587.212	12456
587.215	12480
587.269	12646
587.284	12826
587.323	12567
587.356	12109
587.377	12176
587.427	12822
587.431	12835
587.485	13082
587.499	12926
587.539	12538
587.571	12902
587.593	13284
587.643	14107
587.648	14167
587.702	14664
587.715	14671
587.755	14256
587.786	14188
587.810	14318
587.858	14416
587.864	14398
587.917	15127
587.930	15045
587.971	14699
588.001	14999
588.025	15413
588.073	15720
588.079	15675
588.133	15670
588.145	15576
588.187	15563
588.217	16016
588.241	16675
588.288	17999
588.295	18095
588.348	18757
588.360	18915
588.402	19991
588.431	21068
588.456	21428
588.503	21974
588.510	22198
588.564	24677
588.575	25342
588.617	28177
588.646	30306
588.671	32241
588.718	36984
588.725	38135
588.778	50117
588.789	53625
588.832	81516
588.861	104644
588.886	144744
588.932	235337
588.939	245568
588.993	309704
589.004	309511
589.047	186785
589.075	112164
589.100	81502
589.147	43428
589.154	41770
589.207	33714
589.218	32474
589.261	32540
589.290	33504
589.314	34681
589.361	38507
589.368	39898
589.421	53949
589.433	57922
589.475	96890
589.504	129503
589.528	171641
589.576	259854
589.582	254616
589.635	153009
589.647	131979
589.689	68996
589.718	35217
589.742	30339
589.790	22791
589.795	22433
589.849	20337
589.861	19934
589.902	19403
589.932	18792
589.955	17826
590.004	16212
590.009	16137
590.062	15773
590.075	15619
590.115	15361
590.146	15309
590.168	14990
590.218	14346
590.222	14364
590.275	14957
590.289	15089
590.328	14921
590.360	14815
590.381	14932
590.431	15339
590.435	15301
590.488	14746
590.503	14629
590.541	15278
590.574	15936
590.594	15687
590.645	15058
590.647	15075
590.700	15893
590.716	16227
590.753	15885
590.787	15491
590.806	15629
590.859	16275
590.859	16257
590.912	16132
590.930	16143
590.965	16520
591.001	16938
591.018	16755
591.071	16164
591.072	16179
591.124	16560
591.143	16660
591.177	16588
591.214	16658
591.230	16861
591.283	17787
591.285	17824
591.336	16856
591.356	16616
591.389	17096
591.427	17632
591.442	17338
591.495	16261
591.498	16198
591.547	16394
591.569	16606
591.600	16361
591.640	15963
591.653	16184
591.706	17342
591.711	17480
591.759	17560
591.782	17633
591.811	17993
591.853	18611
591.864	18594
591.917	18521
591.924	18526
591.969	18133
591.995	18027
592.022	17769
592.066	17257
592.075	17482
592.127	19152
592.137	19479
592.180	19624
592.208	19754
592.233	19482
592.279	19045
592.285	19123
592.338	20029
592.350	20260
592.390	20197
592.421	20218
592.443	20086
592.491	19837
592.495	19852
592.548	20483
592.562	20688
592.600	20781
592.633	20923
592.653	20481
592.704	19320
592.705	19459
592.775	20996
592.846	20926
592.916	21156
592.987	22355
593.058	21732
593.128	22272
593.199	21799
593.270	22071
593.341	22603
593.411	23149
593.482	23183
593.553	24324
593.623	24805
593.694	25443
593.764	25878
593.835	25697
593.906	25266
593.976	26594
594.047	26018
594.117	29848
594.188	28830
594.258	28849
594.329	28228
594.399	29352
594.470	30354
594.540	31222
594.611	30961
594.681	32731
594.751	31465
594.822	33258
594.892	34466
594.963	34795
595.033	35861
595.103	36468
595.174	36965
595.244	39321
595.314	40839
595.384	39369
595.455	40100
595.525	41979
595.595	42688
595.665	44139
595.736	42419
595.806	44116
595.876	44067
595.946	44257
596.016	44854
596.087	47539
596.157	47480
596.227	47294
596.297	49850
596.367	52184
596.437	55366
596.507	57735
596.577	58364
596.647	57685
596.717	60213
596.787	62183
596.857	61494
596.927	61487
596.997	62066
597.067	62509
597.137	64534
597.207	64788
597.277	64551
597.347	63235
597.417	61569
597.487	61183
597.557	62087
597.626	64221
597.696	65068
597.766	65479
597.836	62880
597.906	59479
597.975	57815
598.045	59292
598.115	61655
598.185	65670
598.254	72933
598.324	78116
598.394	78898
598.464	77647
598.533	77076
598.603	72926
598.672	70096
598.742	71855
598.812	72653
598.881	74696
598.951	74406
599.020	75591
599.090	78209
599.159	79583
599.229	75996
599.299	75625
599.368	76328
599.437	77216
599.507	73097
599.576	72033
599.646	70049
599.715	71480
599.785	69914
599.854	69138
599.924	70155
599.993	68837
600.062	70233
600.132	71669
600.201	75078
600.270	85510
600.340	89478
600.409	87867
600.478	88542
600.547	91129
600.617	85400
600.686	73106
600.755	68124
600.824	67417
600.894	66980
600.963	66925
601.032	68851
601.101	67876
601.170	65870
601.239	65006
601.308	65966
601.378	68896
601.447	67860
601.516	69620
601.585	70598
601.654	71623
601.723	72688
601.792	74650
601.861	76996
601.930	81288
601.999	82327
602.068	81954
602.137	82240
602.206	83891
602.275	84308
602.343	84430
602.412	84911
602.481	87038
602.550	87159
602.619	88465
602.688	88570
602.756	89726
602.825	88719
602.894	92847
602.963	92343
603.032	93685
603.100	94243
603.169	93382
603.238	95931
603.307	93087
603.375	94208
603.444	97135
603.513	92234
603.581	94879
603.650	99269
603.719	88391
603.787	85761
603.856	89123
603.924	90353
603.993	93233
604.061	97342
604.130	99965
604.198	101195
604.267	102512
604.335	105399
604.404	106498
604.472	109048
604.541	109005
604.609	110805
604.678	113198
604.746	113877
604.815	118649
604.883	117615
604.951	115835
605.020	117230
605.088	116326
605.156	113183
605.225	113612
605.293	114869
605.361	114057
605.429	113427
605.498	116347
605.566	116122
605.634	122259
605.702	123401
605.771	128129
605.839	128231
605.907	123074
605.975	123021
606.043	118517
606.111	117184
606.180	124039
606.248	116305
606.316	115957
606.384	117198
606.452	110305
606.520	101750
606.588	106708
606.656	106369
606.724	104691
606.792	98414
606.860	91737
606.928	82674
606.996	80867
607.064	77992
607.132	80533
607.200	83195
607.267	88078
607.335	87499
607.403	90670
607.471	88489
607.539	84473
607.607	86225
607.674	76613
607.742	76365
607.810	76030
607.878	76216
607.946	77671
608.013	80150
608.081	81737
608.149	82259
608.216	85008
608.284	87349
608.352	86845
608.419	87302
608.487	85824
608.555	82062
608.622	86066
608.690	89523
608.757	98493
608.825	100347
608.893	99208
608.960	92784
609.028	89003
609.095	89224
609.163	87795
609.230	79019
609.298	72940
609.365	75228
609.432	82179
609.500	87043
609.567	100436
609.635	113027
609.702	119943
609.769	116137
609.837	93801
609.904	80537
609.971	82428
610.039	91256
610.106	115915
610.173	205760
610.241	447464
610.308	310298
610.375	122188
610.442	90664
610.509	84349
610.577	83389
610.644	83368
610.711	86265
610.778	88461
610.845	89666
610.912	96075
610.980	101646
611.047	103541
611.114	100913
611.181	96699
611.248	95368
611.315	101141
611.382	102493
611.449	107024
611.516	110800
611.583	106759
611.650	108307
611.717	110151
611.784	112192
611.851	116469
611.918	122805
611.984	140858
612.051	190754
612.118	337809
612.185	727923
612.252	561697
612.319	190847
612.386	147551
612.452	132984
612.519	124070
612.586	122361
612.653	122754
612.719	126742
612.786	123657
612.853	112629
612.919	109547
612.986	111912
613.053	106695
613.120	100652
613.186	96680
613.253	98522
613.319	97579
613.386	98683
613.453	100025
613.519	101208
613.586	98049
613.652	100774
613.719	98608
613.785	99401
613.852	101463
613.918	101096
613.985	102398
614.051	107605
614.118	115223
614.184	112669
614.250	100207
614.317	104042
614.383	101042
614.449	103394
614.516	101945
614.582	102050
614.648	101339
614.715	98384
614.781	98562
614.847	97442
614.914	97624
614.980	95554
615.046	95837
615.112	98118
615.179	99003
615.245	99753
615.311	98030
615.377	98851
615.443	101190
615.509	103149
615.575	105190
615.642	104882
615.708	107227
615.774	110792
615.840	119730
615.906	126026
615.972	149652
616.038	210711
616.104	396272
616.170	809468
616.236	784563
616.302	271550
616.368	196165
616.434	145555
616.500	130448
616.565	140037
616.631	174200
616.697	148081
616.763	147939
616.829	204171
616.895	359582
616.961	367898
617.026	177014
617.092	118477
617.158	109063
617.224	105355
617.289	98543
617.355	93112
617.421	91445
617.487	93020
617.552	87663
617.618	86041
617.684	85647
617.749	89235
617.815	82600
617.880	82297
617.946	82607
618.012	83475
618.077	85882
618.143	81818
618.208	83037
618.274	87504
618.339	88304
618.405	75582
618.470	75258
618.536	74942
618.601	73604
618.667	70160
618.732	67317
618.798	66820
618.863	65823
618.928	64066
618.994	65334
619.059	65687
619.124	65296
619.190	65755
619.255	66084
619.320	64595
619.386	65983
619.451	64032
619.516	62486
619.581	62934
619.647	66759
619.712	66249
619.777	63895
619.842	62198
619.907	63873
619.972	65503
620.038	66017
620.103	64989
620.168	63820
620.233	64825
620.298	64412
620.363	65578
620.428	68209
620.493	68109
620.558	69505
620.623	70470
620.688	70508
620.753	70114
620.818	70171
620.883	71739
620.948	71072
621.013	70358
621.078	69434
621.143	70336
621.207	72440
621.272	69758
621.337	68701
621.402	68737
621.467	68320
621.532	69013
621.596	68068
621.661	66853
621.726	65070
621.791	66171
621.855	66393
621.920	63856
621.985	65384
622.049	67412
622.114	67922
622.179	68770
622.243	69534
622.308	71416
622.373	74955
622.437	73004
622.502	70016
622.566	68445
622.631	67877
622.695	70047
622.760	69874
622.824	68640
622.889	69381
622.953	69451
623.018	72688
623.082	73660
623.147	71884
623.211	72178
623.276	71649
623.340	67769
623.404	66508
623.469	66444
623.533	67771
623.597	66953
623.662	65477
623.726	62097
623.790	59154
623.854	55955
623.919	59125
623.983	58919
624.047	60312
624.111	58962
624.176	61526
624.240	61096
624.304	63475
624.368	60646
624.432	60153
624.496	61806
624.560	64282
624.625	64115
624.689	63418
624.753	65336
624.817	63705
624.881	63082
624.945	58065
625.009	54972
625.073	57546
625.137	56337
625.201	60926
625.265	59147
625.329	58055
625.393	58196
625.456	58716
625.520	59028
625.584	60978
625.648	61971
625.712	66234
625.776	71565
625.839	70568
625.903	54474
625.967	49263
626.031	53263
626.095	64037
626.158	57137
626.222	45965
626.286	42715
626.349	40650
626.413	38006
626.477	38803
626.540	38069
626.604	38025
626.668	37716
626.731	37385
626.795	36599
626.858	37612
626.922	35052
626.986	36331
627.049	34228
627.113	37925
627.176	36444
627.240	34298
627.303	34749
627.366	33543
627.430	34942
627.493	34210
627.557	33305
627.620	34355
627.684	34879
627.747	36040
627.810	32222
627.874	31793
627.937	28634
628.000	31088
628.064	29764
628.127	25637
628.190	26689
628.253	26471
628.317	24540
628.380	23427
628.443	23209
628.506	22832
628.569	21960
628.632	20535
628.696	20825
628.759	20848
628.822	20053
628.885	19834
628.948	19087
629.011	19236
629.074	18288
629.137	18570
629.200	16560
629.263	17911
629.326	15543
629.389	17031
629.452	16284
629.515	17544
629.578	15856
629.641	16920
629.704	16420
629.767	16247
629.830	16093
629.892	15783
629.955	15610
630.018	16957
630.081	15546
630.144	15759
630.207	14521
630.269	16712
630.332	15068
630.395	15714
630.458	15269
630.520	13788
630.583	15715
630.646	14644
630.708	14730
630.771	14184
630.834	16418
630.896	15176
630.959	14856
631.021	14715
631.084	14179
631.146	15248
631.209	15544
631.272	14732
631.334	15856
631.397	15175
631.459	15106
631.522	16280
631.584	16243
631.646	17369
631.709	17824
631.771	18556
631.834	17160
631.896	17177
631.958	15556
632.021	16668
632.083	14519
632.145	15306
632.208	14145
632.270	14223
632.332	13587
632.395	14824
632.457	14536
632.519	12959
632.581	14080
632.643	13280
632.706	14315
632.768	12256
632.830	14643
632.892	14559
632.954	13549
633.016	14832
633.078	13623
633.141	14248
633.203	13020
633.265	14164
633.327	13947
633.389	13689
633.451	13647
633.513	13901
633.575	14932
633.637	13819
633.698	13998
633.760	16426
633.822	16244
633.884	16309
633.946	16303
634.008	16993
634.070	18067
634.132	18995
634.193	19758
634.255	22497
634.317	21982
634.379	22584
634.441	20071
634.502	17572
634.564	16915
634.626	16876
634.687	16040
634.749	15628
634.811	14706
634.873	14017
634.934	12528
634.996	14865
635.057	13288
635.119	13185
635.181	14146
635.242	14502
635.304	12420
635.365	16306
635.427	13099
635.488	14657
635.550	13214
635.611	14839
635.673	13078
635.734	17039
635.796	16079
635.857	18079
635.918	17826
635.980	22224
636.041	21931
636.102	23700
636.164	24207
636.225	24800
636.286	19097
636.348	17826
636.409	17132
636.470	13554
636.531	14834
636.593	14143
636.654	13414
636.715	12629
636.776	12306
636.838	12090
636.899	12105
636.960	11819
637.021	12376
637.082	12024
637.143	12303
637.204	11458
637.265	10792
637.326	11662
637.387	11425
637.448	11111
637.509	11212
637.570	11856
637.631	11398
637.692	11020
637.753	9895
637.814	11424
637.875	10405
637.936	11760
637.997	10409
638.058	10718
638.119	11632
638.179	10857
638.240	10187
638.301	11040
638.362	9723
638.423	10438
638.483	10733
638.544	8969
638.605	10377
638.666	9902
638.726	10528
638.787	10448
638.848	10395
638.908	9932
638.969	8812
639.030	10287
639.090	8866
639.151	9193
639.211	10946
639.272	10434
639.332	10178
639.393	10708
639.453	9691
639.514	11335
639.574	9490
639.635	10075
639.695	9975
639.756	9160
639.816	8566
639.877	9083
639.937	10726
639.997	10052
640.058	8014
640.118	8634
640.178	9052
640.239	9123
640.299	8363
640.359	9419
640.420	9875
640.480	11414
640.540	12322
640.600	12935
640.661	11430
640.721	11193
640.781	14332
640.841	12240
640.901	10271
640.961	10675
641.021	9627
641.082	9651
641.142	9560
641.202	10009
641.262	6795
641.322	9257
641.382	7160
641.442	9131
641.502	8961
641.562	10048
641.622	7930
641.682	9742
641.742	10661
641.802	10996
641.861	9530
641.921	8169
641.981	8741
642.041	8826
642.101	7730
642.161	7391
642.221	6883
642.280	8832
642.340	7558
642.400	7717
642.460	9082
642.519	8743
642.579	7713
642.639	9564
642.698	6640
642.758	10719
642.818	8251
642.877	7927
642.937	8174
642.997	8828
643.056	8628
643.116	7141
643.175	9649
643.235	9393
643.294	9130
643.354	9491
643.414	10674
643.473	12289
643.532	14374
643.592	19513
643.651	30286
643.711	53077
643.770	99825
643.830	226560
643.889	491373
643.948	160249
644.008	31860
644.067	18343
644.126	13108
644.186	11910
644.245	11152
644.304	8756
644.363	10846
644.423	8434
644.482	8638
644.541	9952
644.600	7872
644.659	12781
644.719	13636
644.778	22040
644.837	37368
644.896	75006
644.955	182656
645.014	73118
645.073	16759
645.132	11689
645.191	10747
645.250	9213
645.309	11353
645.368	11595
645.427	14862
645.486	23389
645.545	44454
645.604	14693
645.663	9333
645.722	8547
645.781	9749
645.840	12241
645.898	13145
645.957	18992
646.016	26901
646.075	50599
646.134	97966
646.192	240743
646.251	389343
646.310	81055
646.369	22378
646.427	16632
646.486	12158
646.545	10509
646.603	8631
646.662	9505
646.721	7790
646.779	7811
646.838	8062
646.896	11138
646.955	13301
647.014	22382
647.072	41589
647.131	118063
647.189	68163
647.248	11242
647.306	8141
647.365	7329
647.423	4739
647.481	7165
647.540	4911
647.598	6808
647.657	5840
647.715	6372
647.773	5204
647.832	5658
647.890	4626
647.948	5018
648.007	5834
648.065	4261
648.123	4274
648.181	6363
648.240	5581
648.298	5587
648.356	4108
648.414	5505
648.472	4358
648.531	4992
648.589	4585
648.647	4037
648.705	4794
648.763	4777
648.821	4963
648.879	4972
648.937	6238
648.995	7796
649.053	8869
649.111	14105
649.169	23917
649.227	41815
649.285	84355
649.343	246516
649.401	143903
649.459	19666
649.516	11269
649.574	9208
649.632	12602
649.690	15267
649.748	12342
649.806	16047
649.863	31357
649.921	83416
649.979	64691
650.037	10177
650.094	4245
650.152	5155
650.210	3802
650.268	5092
650.325	5002
650.383	6018
650.440	2262
650.498	4003
650.556	3161
650.613	2872
650.671	3749
650.728	3614
650.786	3466
650.843	5834
650.901	2887
650.958	3977
651.016	2741
651.073	3918
651.131	2479
651.188	1955
651.246	2479
651.303	1247
651.360	3156
651.418	2351
651.475	2358
651.532	1916
651.590	2476
651.647	1851
651.704	2425
651.762	2264
651.819	2258
651.876	1879
651.933	2597
651.990	2480
652.048	389
652.105	1010
652.162	2738
652.219	2168
652.276	1684
652.333	2488
652.390	1165
652.448	2899
652.505	2376
652.562	1881
652.619	2148
652.676	3117
652.733	3938
652.790	1577
652.847	874
652.904	2500
652.961	932
653.017	1559
653.074	1820
653.131	2309
653.188	600
653.245	1801
653.302	1507
653.359	638
653.415	1595
653.472	1184
653.529	2125
653.586	1537
653.642	1718
653.699	2684
653.756	853
653.813	1189
653.869	2522
653.926	1388
653.983	1376
654.039	3002
654.096	1984
654.152	2351
654.209	500
654.266	2528
654.322	1061
654.379	2102
654.435	1930
654.492	1174
654.548	1277
654.605	2259
654.661	2379
654.717	2446
654.774	2190
654.830	2107
654.887	2045
654.943	1916
655.000	2781
655.056	2466
655.112	1891
655.168	1274
655.225	1798
655.281	2131
655.337	2061
655.394	2774
655.450	2379
655.506	2475
655.562	2405
655.618	3459
655.675	1801
655.731	2212
655.787	1296
655.843	3236
655.899	1194
655.955	3470
656.011	2808
656.067	2819
656.123	4510
656.179	4353
656.235	5205
656.291	3224
656.347	4584
656.403	3290
656.459	2643
656.515	2941
656.571	2916
656.627	3077
656.683	2395
656.739	2887
656.795	1680
656.850	711
656.906	2623
656.962	3652
657.018	1646
657.074	2162
657.129	3989
657.185	5761
657.241	12153
657.297	7856
657.352	2571
657.408	1914
657.464	2491
657.519	847
657.575	1306
657.630	1706
657.686	712
657.742	950
657.797	1227
657.853	1399
657.908	1935
657.964	998
658.019	630
658.075	1933
658.130	1625
658.186	89
658.241	1008
658.297	1072
658.352	544
658.407	1696
658.463	626
658.518	1612
658.573	1541
658.629	1026
658.684	1152
658.739	1395
658.795	551
658.850	1200
658.905	732
658.960	1389
659.016	424
659.071	1118
659.126	1096
659.181	1130
659.236	2604
659.291	2685
659.346	896
659.401	1480
659.457	1776
659.512	1394
659.567	1844
659.622	1235
659.677	95
659.732	1371
659.787	1506
659.842	995
659.897	1997
659.952	2317
660.007	698
660.061	1219
660.116	252
660.171	1085
660.226	737
660.281	2393
660.336	238
660.391	1371
660.445	265
660.500	1706
660.555	717
660.610	599
660.664	1618
660.719	905
660.774	1179
660.828	1538
660.883	1224
660.938	1894
660.992	-524
661.047	1251
661.101	299
661.156	1290
661.211	2
661.265	967
661.320	890
661.374	1464
661.429	-317
661.483	2020
661.538	408
661.592	33
661.647	871
661.701	2811
661.755	845
661.810	1207
661.864	-219
661.919	511
661.973	1071
662.027	1355
662.081	822
662.136	906
662.190	861
662.244	938
662.299	1498
662.353	791
662.407	-124
662.461	845
662.515	1257
662.569	869
662.624	1001
662.678	1067
662.732	-147
662.786	485
662.840	860
662.894	118
662.948	1105
663.002	553
663.056	1839
663.110	355
663.164	329
663.218	805
663.272	1126
663.326	1542
663.380	617
663.434	997
663.488	-23
663.542	1459
663.595	633
663.649	974
663.703	575
663.757	1192
663.811	515
663.864	353
663.918	889
663.972	781
664.026	-498
664.079	760
664.133	561
664.187	552
664.240	528
664.294	257
664.348	1253
664.401	907
664.455	108
664.508	-442
664.562	1287
664.615	714
664.669	270
664.722	889
664.776	287
664.829	194
664.883	675
664.936	596
664.990	254
665.043	939
665.097	100
665.150	1395
665.203	414
665.257	794
665.310	837
665.363	381
665.417	1359
665.470	253
665.523	662
665.576	1218
665.630	684
665.683	1068
665.736	809
665.789	1561
665.842	-61
665.895	1127
665.949	694
666.002	957
666.055	969
666.108	1308
666.161	207
666.214	1375
666.267	631
666.320	1458
666.373	852
666.426	1219
666.479	543
666.532	1810
666.585	10
666.638	585
666.691	1022
666.744	1290
666.796	650
666.849	777
666.902	164
666.955	794
667.008	936
667.060	721
667.113	444
667.166	1095
667.219	1551
667.271	897
667.324	1199
667.377	1091
667.430	1486
667.482	1590
667.535	622
667.587	997
667.640	456
667.693	303
667.745	598
667.798	1741
667.850	395
667.903	923
667.955	886
668.008	1350
668.060	1753
668.113	847
668.165	754
668.218	1386
668.270	809
668.322	336
668.375	177
668.427	1556
668.479	773
668.532	1543
668.584	846
668.636	1134
668.689	1302
668.741	598
668.793	373
668.845	930
668.898	990
668.950	1600
669.002	549
669.054	992
669.106	624
669.158	1066
669.211	355
669.263	1166
669.315	891
669.367	1234
669.419	203
669.471	1279
669.523	832
669.575	1884
669.627	506
669.679	1013
669.731	321
669.783	1328
669.835	1494
669.886	1089
669.938	1122
669.990	939
670.042	179
670.094	1566
670.146	706
670.197	1061
670.249	1661
670.301	1702
670.353	2766
670.404	4131
670.456	5040
670.508	8722
670.560	13992
670.611	24701
670.663	42589
670.715	96612
670.766	169350
670.818	64696
670.869	11680
670.921	4927
670.972	4298
671.024	2667
671.075	2869
671.127	2876
671.178	1781
671.230	1337
671.281	2216
671.333	1813
671.384	1778
671.436	3385
671.487	4956
671.538	6985
671.590	10069
671.641	16741
671.692	30270
671.744	60468
671.795	47424
671.846	17289
671.897	7250
671.949	4850
672.000	2989
672.051	2748
672.102	1827
672.153	1052
672.204	1013
672.256	1745
672.307	727
672.358	1199
672.409	965
672.460	1679
672.511	700
672.562	318
672.613	1314
672.664	1596
672.715	415
672.766	1132
672.817	88
672.868	484
672.919	-454
672.970	414
673.021	123
673.071	783
673.122	181
673.173	473
673.224	506
673.275	1096
673.326	272
673.376	1061
673.427	-150
673.478	609
673.528	1303
673.579	499
673.630	214
673.680	980
673.731	560
673.782	125
673.832	-310
673.883	107
673.934	449
673.984	828
674.035	503
674.085	161
674.136	912
674.186	564
674.237	314
674.287	429
674.338	754
674.388	1114
674.438	-232
674.489	1224
674.539	457
674.589	610
674.640	789
674.690	1148
674.740	-672
674.791	944
674.841	-232
674.891	626
674.942	-345
674.992	744
675.042	755
675.092	445
675.142	527
675.193	-977
675.243	-631
675.293	404
675.343	22
675.393	1028
675.443	1093
675.493	361
675.543	264
675.593	205
675.643	-426
675.693	365
675.743	-578
675.793	14
675.843	-65
675.893	-126
675.943	-61
675.993	-463
676.043	308
676.093	119
676.142	-862
676.192	67
676.242	-152
676.292	-9
676.341	-701
676.391	454
676.441	-36
676.491	250
676.540	-650
676.590	-324
676.640	-691
676.689	215
676.739	-958
676.789	318
676.838	-426
676.888	-103
676.937	-505
676.987	201
677.037	134
677.086	-1303
677.136	-83
677.185	-825
677.235	-6
677.284	488
677.333	178
677.383	-608
677.432	-805
677.482	241
677.531	108
677.580	36
677.630	-827
677.679	-67
677.728	-114
677.778	526
677.827	-265
677.876	96
677.925	-366
677.975	278
678.024	78
678.073	438
678.122	182
678.171	1063
678.220	-745
678.269	506
678.319	386
678.368	772
678.417	480
678.466	1127
678.515	284
678.564	266
678.613	-137
678.662	-572
678.711	-141
678.760	36
678.809	191
678.857	-294
678.906	-143
678.955	-559
679.004	-155
679.053	-394
679.102	-697
679.151	89
679.199	-793
679.248	-346
679.297	-418
679.346	-257
679.394	-926
679.443	198
679.492	-367
679.540	-92
679.589	289
679.638	-455
679.686	1
679.735	105
679.784	-630
679.832	250
679.881	-1092
679.929	198
679.978	-824
680.026	-321
680.075	-46
680.123	-490
680.172	-823
680.220	27
680.268	-180
680.317	546
680.365	-824
680.414	-743
680.462	-1019
680.510	-145
680.559	-1095
680.607	-69
680.655	-852
680.703	-331
680.752	-484
680.800	43
680.848	-430
680.896	-430
680.945	-858
680.993	-1069
681.041	-907
681.089	56
681.137	159
681.185	-245
681.233	-567
681.258	-696
681.281	-847
681.329	-355
681.377	-442
681.380	-390
681.425	-2
681.473	1031
681.502	620
681.521	285
681.569	400
681.617	-314
681.624	-148
681.665	684
681.713	212
681.745	436
681.761	505
681.809	544
681.857	358
681.867	353
681.904	197
681.952	710
681.989	333
682.000	186
682.048	892
682.096	26
682.111	504
682.143	1417
682.191	571
682.233	1159
682.239	1220
682.286	947
682.334	1907
682.354	1498
682.382	890
682.430	1330
682.476	652
682.477	610
682.525	1911
682.572	920
682.598	1096
682.620	1248
682.667	1136
682.715	1446
682.720	1414
682.763	728
682.810	1553
682.841	1149
682.857	920
682.905	1481
682.952	1656
682.963	1712
683.000	1806
683.047	1635
683.085	2163
683.095	2279
683.142	1838
683.190	2372
683.206	2202
683.237	1789
683.284	2781
683.328	1906
683.332	1812
683.379	2817
683.426	2237
683.449	2321
683.473	2417
683.521	2702
683.568	2892
683.571	2889
683.615	2352
683.662	2958
683.693	2792
683.709	2722
683.757	2131
683.804	2821
683.814	2909
683.851	3138
683.898	2873
683.936	2851
683.945	2806
683.992	3237
684.039	3661
684.057	3373
684.086	2914
684.133	3153
684.179	3004
684.180	2978
684.227	3474
684.274	3531
684.300	3379
684.321	3269
684.368	3574
684.415	3813
684.422	3789
684.462	3523
684.509	3958
684.543	3887
684.556	3850
684.603	4365
684.649	3658
684.665	3876
684.696	4230
684.743	4425
684.786	4078
684.790	4034
684.837	3517
684.883	4003
684.908	4118
684.930	4248
684.977	4458
685.023	4838
685.029	4891
685.070	5183
685.117	5248
685.150	4914
685.164	4731
685.210	4914
685.257	4922
685.272	5133
685.303	5593
685.350	4828
685.393	4588
685.396	4544
685.443	4513
685.490	4703
685.514	4550
685.536	4531
685.583	4741
685.629	5050
685.636	5077
685.675	5053
685.722	4984
685.757	5114
685.768	5181
685.815	5484
685.861	5093
685.878	5277
685.908	5515
685.954	5423
686.000	5153
686.000	5142
686.047	5951
686.093	6449
686.121	6807
686.139	6976
686.185	6203
686.232	6064
686.242	6073
686.278	6036
686.324	5616
686.363	6050
686.370	6138
686.416	5742
686.463	6198
686.484	6077
686.509	5927
686.555	6412
686.601	5857
686.606	5937
686.647	6606
686.693	6265
686.727	6153
686.739	6103
686.785	6395
686.831	6096
686.848	6182
686.877	6395
686.923	6174
686.969	6592
686.969	6594
687.015	7096
687.061	7091
687.090	7394
687.107	7448
687.153	7347
687.199	6930
687.211	6861
687.245	6823
687.291	7058
687.332	7092
687.336	7105
687.382	7487
687.428	7663
687.453	7706
687.474	7700
687.520	7222
687.565	7613
687.574	7690
687.611	8226
687.657	8593
687.695	8762
687.702	8954
687.748	10610
687.794	12613
687.816	13064
687.839	12326
687.885	11082
687.931	9770
687.937	9599
687.976	9056
688.022	8754
688.058	8124
688.067	8054
688.113	7912
688.158	7868
688.179	7879
688.204	8026
688.249	8112
688.295	8036
688.300	7983
688.340	7620
688.386	8322
688.421	7876
688.431	7777
688.477	8691
688.522	8260
688.542	8516
688.567	8980
688.613	9096
688.658	9741
688.663	9681
688.703	8875
688.749	9098
688.784	9102
688.794	9148
688.839	9562
688.884	9254
688.905	9362
688.930	9492
688.975	9320
689.020	8965
689.026	8958
689.065	8867
689.110	8915
689.146	8523
689.155	8574
689.201	9373
689.246	10143
689.267	10504
689.291	10299
689.336	9572
689.381	8919
689.388	8727
689.426	8558
689.471	9082
689.509	9307
689.516	9322
689.561	9095
689.606	9186
689.630	9317
689.651	9462
689.696	9133
689.741	9577
689.750	9481
689.785	9307
689.830	9872
689.871	9247
689.875	9187
689.920	9905
689.965	9536
689.992	9926
690.010	10152
690.054	9783
690.099	9711
690.112	9688
690.144	9835
690.189	9645
690.233	9670
690.233	9684
690.278	9802
690.323	9609
690.354	9590
690.367	9763
690.412	9570
690.457	9991
690.474	10147
690.501	10218
690.546	10556
690.590	10412
690.595	10377
690.635	10581
690.680	11136
690.716	11259
690.724	11326
690.769	11777
690.813	12598
690.836	12518
690.857	13258
690.902	15861
690.946	17929
690.957	18496
690.991	23831
691.035	30466
691.077	37440
691.080	37457
691.124	35305
691.168	33143
691.198	31791
691.213	29757
691.257	24125
691.301	17059
691.318	14946
691.346	14777
691.390	13331
691.434	12572
691.439	12391
691.478	11663
691.522	11769
691.559	11205
691.567	11219
691.611	11629
691.655	11499
691.680	11588
691.699	11495
691.743	11186
691.787	11274
691.800	11079
691.831	11063
691.875	11354
691.919	11433
691.921	11425
691.964	11839
692.008	11698
692.041	11626
692.052	11532
692.096	11241
692.139	10983
692.162	10850
692.183	10975
692.227	11307
692.271	11144
692.282	11194
692.315	11376
692.359	11277
692.402	11628
692.403	11656
692.447	11306
692.490	11825
692.523	11660
692.534	11553
692.578	12033
692.622	11881
692.643	11663
692.666	11475
692.709	11335
692.753	11049
692.763	11008
692.797	11228
692.840	11686
692.884	11824
692.884	11849
692.928	11722
692.971	11578
693.004	11659
693.015	11821
693.059	11914
693.102	12493
693.124	12445
693.146	12224
693.189	12059
693.233	12006
693.245	11949
693.276	12358
693.320	13061
693.363	13293
693.365	13284
693.407	13919
693.450	14407
693.485	14785
693.493	15110
693.537	16605
693.580	18235
693.605	19105
693.624	21213
693.667	26190
693.710	31220
693.725	32879
693.753	42977
693.797	59218
693.840	75347
693.845	77081
693.883	72746
693.926	67284
693.966	62892
693.970	61721
694.013	47721
694.056	34108
694.086	24441
694.099	23536
694.142	20711
694.185	18017
694.206	16613
694.229	16232
694.272	15435
694.315	14768
694.326	14453
694.358	14019
694.401	13869
694.444	13558
694.446	13497
694.487	13380
694.530	13436
694.566	13614
694.573	13604
694.616	12927
694.659	12653
694.686	12344
694.702	12376
694.745	12492
694.787	12349
694.806	12386
694.830	12529
694.873	12522
694.916	12698
694.926	12640
694.959	12560
695.002	12494
695.044	12495
695.046	12469
695.087	13014
695.130	13214
695.166	13546
695.172	13607
695.215	13697
695.258	13858
695.286	13805
695.301	13827
695.343	14122
695.386	13960
695.406	14060
695.428	14251
695.471	14380
695.514	14501
695.526	14475
695.556	15424
695.599	16971
695.641	18080
695.646	18207
695.684	17782
695.726	16953
695.766	16269
695.769	16301
695.811	16137
695.854	15799
695.886	15713
695.896	15797
695.938	15824
695.981	15777
696.005	15814
696.023	16126
696.065	16537
696.108	17329
696.125	17442
696.150	17418
696.192	17603
696.235	17488
696.245	17512
696.277	17889
696.319	17988
696.361	18344
696.365	18308
696.404	18342
696.446	18375
696.485	18444
696.488	18474
696.530	18133
696.572	17930
696.604	17583
696.614	17639
696.656	17814
696.698	17947
696.724	17997
696.740	18040
696.783	18075
696.825	17931
696.844	17888
696.867	17990
696.909	17945
696.951	18056
696.964	18013
696.992	18156
697.034	18307
697.076	18441
697.083	18432
697.118	18743
697.160	18905
697.202	19219
697.203	19171
697.244	18796
697.286	18635
697.323	18100
697.327	18176
697.369	18685
697.411	19138
697.442	19379
697.453	19399
697.494	19264
697.536	19138
697.562	19004
697.578	18969
697.620	18779
697.661	18555
697.682	18420
697.703	18707
697.744	19096
697.786	19623
697.801	19679
697.828	19832
697.869	20146
697.911	20406
697.921	20433
697.952	20351
697.994	20014
698.035	19853
698.040	19768
698.077	19596
698.118	19368
698.160	19099
698.160	19045
698.201	19862
698.243	20604
698.279	21243
698.284	21324
698.325	21513
698.367	21727
698.399	21798
698.408	21949
698.449	22387
698.491	22853
698.518	23088
698.532	23162
698.573	23184
698.614	23241
698.638	23187
698.656	23166
698.697	23000
698.738	22801
698.757	22661
698.779	22831
698.820	23014
698.862	23208
698.877	23210
698.903	23221
698.944	23148
698.985	23073
698.996	22990
699.026	23047
699.067	23038
699.116	22966
699.235	22966
699.354	22503
699.474	21769
699.593	21942
699.713	21912
699.832	22492
699.951	22189
700.070	22679
700.190	20803
700.309	19718
700.428	19764
700.547	20110
700.667	19312
700.786	20816
700.905	19621
701.024	18828
701.143	19316
701.262	19641
701.381	19353
701.500	19860
701.619	19282
701.738	20568
701.857	19594
701.976	17920
702.095	19119
702.214	20004
702.333	18745
702.452	19807
702.571	19337
702.690	19257
702.809	19399
702.928	18441
703.047	18003
703.165	18103
703.284	17704
703.403	16850
703.522	16769
703.640	16612
703.759	17622
703.878	17600
703.997	17113
704.115	17934
704.234	16157
704.353	18053
704.471	15316
704.590	15710
704.708	16103
704.827	15960
704.946	15241
705.064	15698
705.183	15831
705.301	16034
705.420	17606
705.538	17304
705.656	16132
705.775	16214
705.893	21893
706.012	25315
706.130	15918
706.249	16446
706.367	15084
706.485	16445
706.604	15539
706.722	16716
706.840	18769
706.958	28068
707.077	22296
707.195	15153
707.313	14426
707.431	14608
707.549	13819
707.668	13213
707.786	14535
707.904	14219
708.022	13640
708.140	14545
708.258	13130
708.376	15232
708.494	14679
708.612	14657
708.730	16216
708.848	16237
708.966	15101
709.084	15663
709.202	13889
709.320	14358
709.438	14288
709.556	14451
709.674	13276
709.791	13670
709.909	13630
710.027	13954
710.145	13458
710.263	13875
710.380	13475
710.498	13366
710.616	12853
710.733	12898
710.851	12575
710.969	12610
711.086	12020
711.204	13343
711.322	13496
711.439	13362
711.557	11522
711.674	12865
711.792	12494
711.909	12919
712.027	13675
712.144	12412
712.262	12706
712.379	12980
712.497	14247
712.614	15020
712.732	13164
712.849	13087
712.966	12741
713.084	13948
713.201	12434
713.318	12849
713.436	13043
713.553	13107
713.670	14156
713.787	13992
713.905	14234
714.022	14138
714.139	14151
714.256	16877
714.373	21932
714.490	38659
714.608	90266
714.725	345694
714.842	416527
714.959	53033
715.076	21737
715.193	16578
715.310	14610
715.427	12502
715.544	12655
715.661	12836
715.778	12131
715.895	12638
716.011	11787
716.128	11539
716.245	11429
716.362	11665
716.479	10511
716.596	11364
716.713	11033
716.829	11607
716.946	11100
717.063	11456
717.180	10269
717.296	10674
717.413	10368
717.530	9981
717.646	10393
717.763	9963
717.880	9749
717.996	9387
718.113	9583
718.229	9330
718.346	9103
718.462	9049
718.579	9335
718.695	10378
718.812	10641
718.928	10396
719.045	9192
719.161	8951
719.277	9350
719.394	9934
719.510	10220
719.626	10263
719.743	14072
719.859	18086
719.975	33908
720.092	120206
720.208	309533
720.324	51503
720.440	14358
720.557	11158
720.673	11578
720.789	11907
720.905	16084
721.021	11746
721.137	8675
721.253	8073
721.369	9056
721.486	8723
721.602	9136
721.718	8074
721.834	8566
721.950	8520
722.066	7469
722.181	7723
722.297	8430
722.413	8054
722.529	7091
722.645	7980
722.761	8333
722.877	7875
722.993	8302
723.108	10195
723.224	9555
723.340	7925
723.456	7204
723.571	7570
723.687	7838
723.803	7095
723.918	7516
724.034	7456
724.150	7891
724.265	7914
724.381	8359
724.497	10022
724.612	7745
724.728	6861
724.843	6404
724.959	7379
725.074	8102
725.190	10350
725.305	7267
725.421	7210
725.536	5446
725.651	7314
725.767	6638
725.882	6787
725.997	5907
726.113	6953
726.228	6437
726.343	6917
726.459	6346
726.574	6320
726.689	5924
726.804	7564
726.920	6735
727.035	6997
727.150	6947
727.265	5784
727.380	7360
727.495	6554
727.610	5721
727.725	6400
727.841	6946
727.956	9728
728.071	8994
728.186	6127
728.301	5866
728.416	7363
728.531	6565
728.645	5677
728.760	6328
728.875	6388
728.990	6413
729.105	5975
729.220	6285
729.335	6394
729.449	6059
729.564	6453
729.679	4521
729.794	5589
729.908	6289
730.023	5297
730.138	5281
730.253	6234
730.367	5868
730.482	6935
730.596	5282
730.711	7673
730.826	9168
730.940	11421
731.055	7786
731.169	7571
731.284	7049
731.398	7483
731.513	8068
731.627	9127
731.742	9455
731.856	11687
731.970	12352
732.085	15390
732.199	20779
732.313	33920
732.428	83880
732.542	234664
732.656	165818
732.771	34535
732.885	17983
732.999	15502
733.113	15110
733.227	12893
733.342	12833
733.456	12567
733.570	11437
733.684	11665
733.798	10774
733.912	11449
734.026	11237
734.140	11130
734.254	10644
734.368	11713
734.482	11965
734.596	10931
734.710	9962
734.824	9794
734.938	9500
735.052	10957
735.166	10000
735.280	10933
735.393	9773
735.507	9344
735.621	10231
735.735	10720
735.849	9791
735.962	9219
736.076	9638
736.190	8868
736.303	8887
736.417	11278
736.531	7564
736.644	9304
736.758	8719
736.872	9360
736.985	9017
737.099	9223
737.212	8985
737.326	8811
737.439	8691
737.553	8579
737.666	9034
737.780	8007
737.893	8858
738.007	9026
738.120	8706
738.233	8107
738.347	8755
738.460	7648
738.573	8258
738.687	7621
738.800	8686
738.913	8636
739.026	8740
739.140	8243
739.253	8081
739.366	8372
739.479	8017
739.592	7884
739.705	7677
739.818	8908
739.932	6798
740.045	8510
740.158	7509
740.271	7730
740.384	7641
740.497	7402
740.610	8065
740.723	7669
740.836	6823
740.949	8690
741.062	8289
741.174	7862
741.287	7166
741.400	6986
741.513	6265
741.626	7945
741.739	6999
741.851	6730
741.964	7160
742.077	7605
742.189	6733
742.302	7805
742.415	6398
742.527	6427
742.640	6463
742.753	6766
742.865	6673
742.978	5679
743.090	6211
743.203	7730
743.316	6373
743.428	6629
743.541	6826
743.653	5697
743.766	6028
743.878	6899
743.990	6309
744.103	7991
744.215	6483
744.327	5811
744.440	7489
744.552	7432
744.664	5111
744.777	6603
744.889	5823
745.001	5710
745.113	6286
745.226	5930
745.338	6278
745.450	6396
745.562	6719
745.674	4893
745.786	6242
745.898	6698
746.010	6122
746.122	6262
746.234	6381
746.347	6197
746.459	6710
746.570	5439
746.682	6804
746.794	8442
746.906	6024
747.018	5741
747.130	6456
747.242	4998
747.354	5599
747.466	6259
747.577	5543
747.689	6171
747.801	5680
747.913	5594
748.024	5815
748.136	5729
748.248	5070
748.359	5941
748.471	5615
748.583	4844
748.694	5251
748.806	6773
748.918	5556
749.029	5580
749.141	5301
749.252	6124
749.364	4493
749.475	5817
749.587	5396
749.698	5146
749.809	5914
749.921	4899
750.032	5151
750.144	4790
750.255	4713
750.366	5555
750.478	4450
750.589	5275
750.700	3612
750.811	5346
750.923	4186
751.034	3768
751.145	5986
751.256	4390
751.367	4264
751.479	4781
751.590	4480
751.701	5424
751.812	4147
751.923	4982
752.034	5302
752.145	4679
752.256	4565
752.367	5213
752.478	4273
752.589	5344
752.700	5236
752.811	4386
752.922	4342
753.032	4844
753.143	5699
753.254	4322
753.365	6409
753.476	5462
753.586	4822
753.697	4776
753.808	5078
753.919	4797
754.029	4174
754.140	4096
754.251	5098
754.361	5348
754.472	5542
754.582	4236
754.693	4801
754.804	4821
754.914	4886
755.025	4763
755.135	4873
755.246	5487
755.356	3736
755.466	4998
755.577	4771
755.687	5336
755.798	4063
755.908	4153
756.018	4618
756.129	5511
756.239	4012
756.349	5593
756.460	4854
756.570	5910
756.680	5097
756.790	5038
756.900	5820
757.011	4676
757.121	4659
757.231	4885
757.341	4630
757.451	4980
757.561	4672
757.671	4861
757.781	4433
757.891	5759
758.001	4584
758.111	5900
758.221	5525
758.331	4804
758.441	5896
758.551	5668
758.661	6197
758.771	6095
758.880	6121
758.990	6038
759.100	5382
759.210	6332
759.320	6834
759.429	5997
759.539	5979
759.649	6831
759.758	6604
759.868	7529
759.978	7209
760.087	8419
760.197	8295
760.307	8201
760.416	7001
760.526	7323
760.635	7058
760.745	7516
760.854	9020
760.964	9909
761.073	9343
761.182	9247
761.292	8113
761.401	8795
761.511	7725
761.620	7803
761.729	7600
761.839	7489
761.948	7733
762.057	8183
762.166	8119
762.276	7564
762.385	8558
762.494	8307
762.603	8298
762.712	8482
762.822	8486
762.931	8964
763.040	7697
763.149	9801
763.258	9435
763.367	11143
763.476	10495
763.585	10571
763.694	11468
763.803	12218
763.912	12486
764.021	13780
764.130	14115
764.238	15224
764.347	16294
764.456	16733
764.565	18536
764.674	19611
764.783	20725
764.891	22946
765.000	26750
765.109	29652
765.217	31749
765.326	38404
765.435	45259
765.543	54233
765.652	64457
765.761	82804
765.869	105066
765.978	137626
766.086	187405
766.195	248429
766.303	307355
766.412	285550
766.520	236439
766.629	284652
766.737	250820
766.846	190494
766.954	141634
767.062	108385
767.171	85306
767.279	67558
767.387	53489
767.496	45609
767.604	39695
767.712	34416
767.820	31139
767.928	28128
768.037	26083
768.145	24639
768.253	23291
768.361	22263
768.469	22787
768.577	22907
768.685	23893
768.793	25103
768.901	27652
769.009	31413
769.117	37850
769.225	47747
769.333	60922
769.441	88327
769.549	132692
769.657	206144
769.765	280926
769.873	248237
769.981	246691
770.088	211709
770.196	144946
770.304	99363
770.412	73195
770.519	56508
770.627	45925
770.735	37384
770.842	31818
770.950	27000
771.058	24592
771.165	22588
771.273	21027
771.380	19532
771.488	18457
771.595	19443
771.703	16113
771.810	16347
771.918	14889
772.025	15676
772.133	14185
772.240	14581
772.348	15363
772.455	15007
772.562	13179
772.670	12258
772.777	12994
772.884	11740
772.991	11654
773.099	11925
773.206	10582
773.313	11127
773.420	10206
773.528	10248
773.635	10067
773.742	10218
773.849	9775
773.956	10216
774.063	9855
774.170	9544
774.277	10802
774.384	8527
774.491	8478
774.598	8842
774.705	9167
774.812	8538
774.919	9264
775.026	9179
775.133	8725
775.239	8013
775.346	8548
775.453	7457
775.560	7824
775.667	7933
775.773	7499
775.880	8438
775.987	7202
776.093	8506
776.200	7905
776.307	7105
776.413	7763
776.520	7193
776.627	7162
776.733	6648
776.840	5570
776.946	8212
777.053	7166
777.159	9396
777.266	6680
777.372	8046
777.478	7929
777.585	7205
777.691	5649
777.798	6894
777.904	7141
778.010	6403
778.117	6932
778.223	5970
778.329	6003
778.435	5977
778.542	6619
778.648	5891
778.754	5329
778.860	5726
778.966	5751
779.072	5049
779.178	4801
779.284	5788
779.391	5534
779.497	4382
779.603	7594
779.708	7076
779.815	12731
779.920	35459
780.026	76475
780.132	19295
780.238	6338
780.344	6368
780.450	7252
780.556	5445
780.661	4094
780.767	5349
780.873	4319
780.979	4106
781.085	5042
781.190	5099
781.296	4146
781.402	4976
781.507	4601
781.613	4857
781.719	3943
781.824	5203
781.930	4898
782.035	5010
782.141	4487
782.246	4195
782.352	3869
782.457	4374
782.563	3559
782.668	4279
782.773	3931
782.879	3315
782.984	3436
783.090	4697
783.195	4268
783.300	4564
783.405	4413
783.511	3336
783.616	3494
783.721	4344
783.826	4046
783.932	4177
784.037	3917
784.142	3198
784.247	3573
784.352	4385
784.457	3238
784.562	3453
784.667	4331
784.772	3111
784.877	2106
784.982	4522
785.087	4529
785.192	3502
785.297	3361
785.402	3968
785.507	2859
785.611	3548
785.716	2576
785.821	4188
785.926	2644
786.031	3659
786.135	2634
786.240	4351
786.345	1527
786.450	3282
786.554	2384
786.659	2514
786.763	2336
786.868	3324
786.973	3814
787.077	3111
787.182	2463
787.286	2919
787.391	3448
787.495	2172
787.600	2617
787.704	2273
787.809	3941
787.913	2619
788.017	2692
788.122	3723
788.226	2210
788.330	1775
788.435	2716
788.539	3367
788.643	2786
788.747	1994
788.852	2489
788.956	1849
789.060	2596
789.164	2618
789.268	1744
789.372	3709
789.476	2683
789.580	2227
789.684	1827
789.788	3035
789.892	2268
789.996	2847
790.100	2849
790.204	2522
790.308	2935
790.412	1662
790.516	2323
790.620	2385
790.724	3351
790.828	2291
790.931	1613
791.035	3538
791.139	1570
791.242	2425
791.346	3032
791.450	2485
791.554	2185
791.657	1201
791.761	2855
791.864	3279
791.968	2436
792.072	2640
792.175	1387
792.279	1738
792.382	1358
792.486	2272
792.589	2300
792.693	2571
792.796	1223
792.899	2506
793.003	2593
793.106	1336
793.209	1816
793.313	2563
793.416	543
793.519	2418
793.623	3056
793.726	2561
793.829	2152
793.932	1841
794.035	780
794.138	2344
794.242	3255
794.345	2297
794.448	2856
794.551	5592
794.654	20346
794.757	48321
794.860	11444
794.963	3075
795.066	1769
795.169	2988
795.272	1630
795.375	2825
795.477	1890
795.580	2476
795.683	707
795.786	1442
795.889	1235
795.991	2164
796.094	2594
796.197	1841
796.300	2765
796.402	2024
796.505	1648
796.608	1383
796.710	2178
796.813	2443
796.915	2243
797.018	2077
797.120	2596
797.223	943
797.326	2582
797.428	1786
797.530	1499
797.633	1390
797.735	3326
797.838	938
797.940	3636
798.042	1362
798.145	1267
798.247	2233
798.349	-154
798.452	2434
798.554	1451
798.656	1212
798.758	2403
798.860	2530
798.962	1888
799.065	1835
799.167	476
799.269	1711
799.371	2013
799.473	2044
799.575	1613
799.677	954
799.779	2404
799.881	1118
799.983	2308
800.085	1675
800.187	1348
800.289	286
800.390	1457
800.492	1791
800.594	1754
800.696	733
800.798	700
800.899	1024
801.001	1193
801.103	1207
801.205	1412
801.306	790
801.408	1036
801.509	1761
801.611	1124
801.713	1996
801.814	388
801.916	2023
802.017	902
802.119	73
802.220	948
802.322	-267
802.423	2162
802.525	726
802.626	706
802.727	1861
802.829	1798
802.930	-652
803.031	2627
803.133	492
803.234	1174
803.335	1675
803.436	330
803.538	909
803.639	581
803.740	1607
803.841	426
803.942	2192
804.043	1633
804.144	1225
804.245	1248
804.346	1041
804.447	911
804.548	1201
804.649	1709
804.750	1104
804.851	205
804.952	551
805.053	1116
805.154	474
805.255	1382
805.355	598
805.456	808
805.557	742
805.658	840
805.758	1493
805.859	292
805.960	781
806.061	347
806.161	1109
806.262	1938
806.362	957
806.463	372
806.564	1762
806.664	1028
806.765	1383
806.865	1424
806.966	759
807.066	490
807.166	1234
807.267	910
807.367	95
807.468	1245
807.568	250
807.668	926
807.769	1020
807.869	840
807.969	1343
808.069	1048
808.170	1133
808.270	692
808.370	1133
808.470	241
808.570	694
808.670	1031
808.770	970
808.870	333
808.970	1733
809.070	334
809.170	407
809.271	1177
809.370	984
809.470	299
809.570	863
809.670	-241
809.770	582
809.870	967
809.970	1311
810.070	908
810.169	995
810.269	-564
810.369	1895
810.469	1017
810.568	525
810.668	174
810.768	1124
810.867	236
810.967	-45
811.066	435
811.166	430
811.265	730
811.365	570
811.464	178
811.564	1316
811.663	728
811.763	-896
811.862	309
811.962	1331
812.061	172
812.160	106
812.260	952
812.359	546
812.458	-139
812.557	1823
812.657	2400
812.756	2357
812.855	665
812.954	-61
813.053	209
813.153	1239
813.252	603
813.351	760
813.450	145
813.549	589
813.648	1006
813.747	-114
813.846	514
813.945	656
814.044	765
814.143	781
814.242	1414
814.341	155
814.439	277
814.538	1228
814.637	1511
814.736	1253
814.835	1018
814.933	692
815.032	870
815.131	2175
815.229	3082
815.328	5492
815.427	3124
815.525	3837
815.624	2528
815.722	2198
815.821	3936
815.919	3583
816.018	2901
816.116	3382
816.215	3557
816.313	3745
816.412	4406
816.510	4718
816.609	4966
816.707	5116
816.805	4722
816.904	4924
817.002	5136
817.100	5585
817.198	5769
817.296	3953
817.395	4354
817.493	4220
817.591	3579
817.689	3915
817.787	3344
817.885	4102
817.983	4565
818.081	5793
818.179	8081
818.277	16158
818.375	16920
818.473	6716
818.571	3886
818.669	4873
818.767	4649
818.865	4266
818.963	3530
819.061	4652
819.158	4906
819.256	7487
819.354	12343
819.452	28507
819.549	22243
819.647	8337
819.745	4362
819.842	3631
819.940	3936
820.038	3253
820.135	3550
820.233	4865
820.330	3889
820.428	2833
820.525	5045
820.623	3419
820.720	2948
820.818	2697
820.915	3171
821.012	3466
821.110	1329
821.207	3811
821.304	2188
821.402	2969
821.499	3507
821.596	3709
821.693	2770
821.791	3378
821.888	2835
821.985	3776
822.082	1961
822.179	4275
822.276	3927
822.373	2051
822.470	3050
822.567	2871
822.664	2378
822.761	3470
822.858	2455
822.955	3230
823.052	1988
823.149	2408
823.246	2452
823.343	2910
823.440	2066
823.536	3074
823.633	2472
823.730	2571
823.827	3051
823.923	2789
824.020	3168
824.117	2450
824.213	1923
824.310	3710
824.407	1363
824.503	2322
824.600	2689
824.696	1638
824.793	3617
824.889	3360
824.986	2632
825.082	1396
825.179	2290
825.275	1959
825.371	1924
825.468	2464
825.564	816
825.660	2376
825.757	3336
825.853	2473
825.949	935
826.045	2059
826.142	1967
826.238	2273
826.334	2696
826.430	1754
826.526	1769
826.622	1183
826.718	1581
826.814	2793
826.910	2391
827.006	1879
827.102	708
827.198	2159
827.294	1610
827.390	2557
827.486	1386
827.582	86
827.678	851
827.774	3200
827.869	1274
827.965	3011
828.061	779
828.157	1645
828.252	1962
828.348	1636
828.444	1595
828.539	801
828.635	1782
828.731	2547
828.826	1379
828.922	1960
829.017	1458
829.113	2222
829.208	1639
829.304	1362
829.399	2403
829.495	2207
829.590	2117
829.685	748
829.781	1458
829.876	2794
829.971	924
830.066	156
830.162	1569
830.257	2201
830.352	1257
830.447	1969
830.543	1054
830.638	583
830.733	2038
830.828	886
830.923	1866
831.018	1744
831.113	2169
831.208	559
831.303	491
831.398	918
831.493	519
831.588	2446
831.683	1025
831.778	959
831.873	1097
831.967	2321
832.062	1270
832.157	1044
832.252	1707
832.346	1173
832.441	1765
832.536	1426
832.631	1935
832.725	1072
832.820	1249
832.914	1734
833.009	615
833.104	1582
833.198	1471
833.293	449
833.387	1681
833.482	1277
833.576	1214
833.670	1877
833.765	1703
833.859	484
833.954	1703
834.048	812
834.142	1511
834.237	629
834.331	712
834.425	1255
834.519	939
834.613	1373
834.708	108
834.802	431
834.896	659
834.990	1047
835.084	793
835.178	599
835.272	483
835.366	1668
835.460	1779
835.554	580
835.648	341
835.742	336
835.836	674
835.930	130
836.024	564
836.117	635
836.211	683
836.305	594
836.399	270
836.493	-666
836.586	1080
836.680	597
836.774	-69
836.867	1808
836.961	48
837.055	43
837.148	580
837.242	1730
837.335	538
837.429	925
837.522	-192
837.616	-131
837.709	1073
837.803	461
837.896	1042
837.989	347
838.083	674
838.176	679
838.269	61
838.363	450
838.456	357
838.549	143
838.642	470
838.735	455
838.829	1437
838.922	-378
839.015	163
839.108	202
839.201	232
839.294	-188
839.387	1151
839.480	103
839.573	-126
839.666	-445
839.759	386
839.852	-565
839.945	707
840.038	-274
840.131	-277
840.223	21
840.316	578
840.409	266
840.502	16
840.594	1442
840.687	-140
840.780	200
840.873	-930
840.965	770
841.058	638
841.150	1489
841.243	222
841.336	1855
841.428	-171
841.521	443
841.613	32
841.706	432
841.798	259
841.890	375
841.983	-214
842.075	718
842.167	-282
842.260	458
842.352	196
842.444	749
842.537	845
842.629	742
842.721	-1060
842.813	258
842.905	-26
842.997	902
843.090	1052
843.182	755
843.274	-476
843.366	1485
843.458	2416
843.550	3353
843.642	-265
843.734	43
843.826	-662
843.918	427
844.009	600
844.101	-1157
844.193	323
844.285	130
844.377	1224
844.469	1117
844.560	165
844.652	-230
844.744	137
844.835	365
844.927	-24
845.019	-380
845.110	-694
845.202	809
845.293	-198
845.385	-899
845.476	743
845.568	743
845.659	-186
845.751	587
845.842	-375
845.934	-384
846.025	157
846.116	1373
846.208	110
846.299	292
846.390	141
846.482	0
846.573	311
846.664	138
846.755	48
846.846	518
846.937	-184
847.029	-153
847.120	35
847.211	-171
847.302	1522
847.393	-455
847.484	90
847.575	-363
847.666	-337
847.757	-204
847.847	-444
847.938	1724
848.029	-640
848.120	-552
848.211	-304
848.302	69
848.392	-528
848.483	992
848.574	-441
848.664	-287
848.755	242
848.846	151
848.936	-170
849.027	151
849.118	291
849.208	-31
849.299	1699
849.389	2254
849.480	6329
849.570	12867
849.661	23530
849.751	41094
849.841	18419
849.932	2717
850.022	1250
850.112	682
850.203	924
850.293	-495
850.383	1026
850.474	998
850.564	254
850.654	695
850.744	-98
850.834	138
850.924	-201
851.014	-133
851.104	-130
851.194	103
851.284	-108
851.374	311
851.464	86
851.554	-76
851.644	368
851.734	-35
851.824	558
851.914	441
852.004	2486
852.094	207
852.183	141
852.273	811
852.363	-426
852.452	422
852.542	235
852.632	-375
852.721	-26
852.811	-238
852.901	76
852.990	945
853.080	288
853.169	-290
853.259	443
853.348	1381
853.438	1277
853.527	2802
853.617	3309
853.706	8343
853.795	13550
853.885	28211
853.974	51313
854.063	87185
854.152	125848
854.242	63065
854.331	16919
854.420	7387
854.509	4242
854.598	3903
854.687	2622
854.777	2693
854.866	959
854.955	1445
855.044	218
855.133	894
855.222	214
855.311	567
855.400	547
855.488	367
855.577	-362
855.666	220
855.755	-468
855.844	58
855.933	-178
856.021	539
856.110	-735
856.199	-570
856.288	-346
856.376	-181
856.465	-743
856.554	-76
856.642	-711
856.731	413
856.819	-466
856.908	-821
856.996	-179
857.085	-773
857.173	-731
857.262	-519
857.350	-51
857.438	-391
857.527	-473
857.615	-19
857.703	157
857.792	-694
857.880	-276
857.968	-549
858.056	-511
858.145	-516
858.233	-841
858.321	-796
858.409	-633
858.497	-800
858.585	-1404
858.673	-246
858.761	-1224
858.849	-78
858.937	-514
859.025	-69
859.113	-328
859.201	-534
859.289	176
859.377	-540
859.465	-280
859.552	-742
859.640	-1140
859.728	-151
859.816	-145
859.903	-150
859.991	-1411
860.079	-394
860.166	148
860.254	-155
860.342	-23
860.429	-609
860.517	-1170
860.604	123
860.692	68
860.779	-976
860.867	-330
860.954	107
861.042	-146
861.129	384
861.216	-229
861.304	-44
861.391	-502
861.478	-512
861.565	-558
861.653	905
861.740	-611
861.827	-170
861.914	-276
862.001	-163
862.089	-14
862.176	-154
862.263	-897
862.350	-181
862.437	-1019
862.524	-752
862.611	-635
862.698	-408
862.785	307
862.871	-41
862.958	128
863.045	-794
863.132	-128
863.219	-500
863.306	-674
863.392	-193
863.479	-100
863.566	455
863.652	115
863.739	-1106
863.826	-27
863.912	-228
863.999	-586
864.086	112
864.172	34
864.259	-573
864.345	501
864.432	-171
864.518	206
864.604	229
864.691	-37
864.777	798
864.863	1210
864.950	1879
865.036	2019
865.122	5084
865.209	5440
865.295	4961
865.381	4118
865.467	4491
865.553	5520
865.639	6478
865.726	10660
865.812	17911
865.898	29866
865.984	43339
866.070	74100
866.156	82795
866.242	32693
866.328	11829
866.414	6209
866.499	5322
866.585	3904
866.671	4516
866.757	3997
866.843	3910
866.928	2639
867.014	2918
867.100	3267
867.186	3012
867.271	3292
867.357	3199
867.442	2699
867.528	3030
867.614	2577
867.699	3165
867.785	2628
867.870	3403
867.956	3521
868.041	3891
868.127	2488
868.212	2879
868.297	2298
868.383	3191
868.468	3169
868.553	3203
868.639	2671
868.724	2568
868.809	3137
868.894	2175
868.979	2041
869.065	2327
869.150	1212
869.235	3548
869.320	2547
869.405	1570
869.490	2034
869.575	2312
869.660	2096
869.745	2810
869.830	2634
869.915	2063
870.000	1609
870.085	2378
870.169	2809
870.254	3453
870.339	1276
870.424	1653
870.509	2468
870.593	2983
870.678	2888
870.763	1744
870.847	1683
870.932	1928
871.016	2367
871.101	1077
871.186	1022
871.270	2486
871.355	1204
871.439	1269
871.523	2978
871.608	2770
871.692	1478
871.777	2617
871.861	2213
871.945	1336
872.030	1786
872.114	1458
872.198	282
872.282	1498
872.367	1835
872.451	1705
872.535	957
872.619	1724
872.703	1300
872.787	2682
872.871	1195
872.955	1562
873.039	246
873.123	1189
873.207	1713
873.291	1307
873.375	1180
873.459	1940
873.543	661
873.627	2195
873.711	521
873.794	1560
873.878	1669
873.962	415
874.045	946
874.129	1628
874.137	1616
874.213	1495
874.245	1442
874.296	1344
874.352	1020
874.380	868
874.460	1832
874.464	1870
874.547	546
874.568	836
874.631	1692
874.676	1451
874.714	1257
874.784	1788
874.798	1888
874.881	1687
874.892	1549
874.965	640
874.999	1071
875.048	1649
875.107	953
875.131	661
875.215	-97
875.215	-96
875.298	735
875.323	760
875.381	852
875.430	1256
875.465	1529
875.538	779
875.548	667
875.631	493
875.646	331
875.714	-362
875.753	250
875.798	949
875.861	1096
875.881	1132
875.964	864
875.968	831
876.047	230
876.076	733
876.130	1761
876.183	1225
876.213	880
876.291	1653
876.296	1699
876.379	595
876.398	604
876.462	851
876.506	498
876.545	47
876.613	857
876.628	1080
876.711	591
876.721	667
876.794	1224
876.828	1357
876.877	1386
876.935	1103
876.960	1055
877.043	233
877.043	238
877.125	1416
877.150	1640
877.208	2067
877.258	1191
877.291	571
877.365	299
877.374	288
877.456	197
877.472	346
877.539	915
877.579	1151
877.622	1377
877.687	1075
877.704	997
877.787	942
877.794	907
877.869	622
877.901	990
877.952	1480
878.008	832
878.034	506
878.115	767
878.117	777
878.199	516
878.222	667
878.282	1199
878.329	1226
878.364	1116
878.437	1580
878.447	1647
878.529	298
878.544	417
878.611	990
878.651	837
878.694	774
878.758	1062
878.776	1031
878.858	875
878.865	852
878.941	971
878.972	644
879.023	12
879.078	168
879.105	392
879.185	842
879.187	844
879.269	1312
879.292	1208
879.351	1037
879.399	944
879.433	736
879.506	857
879.516	930
879.598	756
879.613	734
879.680	394
879.720	771
879.762	1446
879.827	1082
879.844	816
879.926	155
879.933	158
880.007	754
880.040	803
880.089	842
880.147	1087
880.171	1120
880.253	1281
880.254	1276
880.335	600
880.360	905
880.417	1874
880.467	2016
880.499	1997
880.574	2569
880.580	2616
880.662	1968
880.680	1924
880.744	1212
880.787	627
880.825	482
880.893	794
880.907	830
880.989	252
881.000	298
881.070	1136
881.106	1294
881.152	962
881.213	598
881.233	603
881.315	747
881.319	767
881.396	1224
881.426	1070
881.478	639
881.532	897
881.559	1122
881.639	1089
881.641	1085
881.722	1053
881.745	984
881.803	782
881.852	782
881.885	851
881.958	791
881.966	813
882.047	1134
882.064	1138
882.129	789
882.171	853
882.210	913
882.277	735
882.291	795
882.372	811
882.383	903
882.454	1353
882.489	1385
882.535	1351
882.596	1348
882.616	1277
882.697	788
882.702	757
882.778	563
882.808	551
882.859	691
882.914	1022
882.940	1115
883.020	904
883.021	908
883.102	1478
883.127	1538
883.183	1530
883.233	1512
883.264	1361
883.339	1267
883.345	1265
883.426	271
883.445	367
883.507	1018
883.551	1151
883.587	1279
883.657	1090
883.668	1042
883.749	1503
883.763	1431
883.830	894
883.869	779
883.910	717
883.975	750
883.991	810
884.072	674
884.081	730
884.152	978
884.187	809
884.233	1210
884.292	2053
884.314	1927
884.394	792
884.398	748
884.475	609
884.504	581
884.555	528
884.610	548
884.636	794
884.716	1366
884.716	1371
884.797	1306
884.821	1193
884.877	1428
884.927	1747
884.958	1428
885.033	465
885.038	463
885.118	771
885.139	729
885.199	652
885.244	790
885.279	956
885.350	967
885.359	966
885.439	1437
885.456	1377
885.520	953
885.561	915
885.600	891
885.667	1068
885.680	1191
885.760	1607
885.773	1646
885.840	1160
885.878	927
885.920	831
885.984	664
886.000	763
886.080	1256
886.089	1334
886.160	1804
886.195	1829
886.240	1369
886.300	894
886.320	1065
886.400	1922
886.406	1951
886.480	1317
886.511	1116
886.560	905
886.616	728
886.640	845
886.720	1055
886.722	1056
886.800	1250
886.827	1323
886.879	1163
886.932	1048
886.959	1331
887.038	2013
887.039	2017
887.119	1639
887.143	1585
887.198	1591
887.248	1401
887.278	1375
887.354	1382
887.358	1383
887.437	1340
887.459	1323
887.517	1641
887.564	1752
887.596	1612
887.669	1419
887.676	1341
887.755	208
887.774	-42
887.835	497
887.880	908
887.914	1082
887.985	1351
887.994	1363
888.073	1559
888.090	1554
888.153	1836
888.195	1987
888.232	1696
888.300	1261
888.311	1276
888.391	1346
888.405	1345
888.470	1044
888.510	863
888.549	1154
888.615	1680
888.628	1688
888.708	1571
888.720	1565
888.787	1749
888.825	1772
888.866	1478
888.930	1127
888.945	1240
889.024	1752
889.035	1822
889.103	1604
889.140	1439
889.182	1099
889.245	636
889.261	821
889.340	1679
889.349	1775
889.419	1742
889.454	1713
889.498	1230
889.559	554
889.577	778
889.656	1767
889.664	1863
889.735	1862
889.768	1856
889.814	1826
889.873	1778
889.978	1374
890.083	2100
890.187	1727
890.292	1868
890.397	1653
890.501	1868
890.606	646
890.710	1431
890.815	1602
890.919	1739
891.024	2177
891.128	1442
891.233	1453
891.337	1861
891.442	1558
891.546	931
891.650	1105
891.755	911
891.859	2060
891.963	2012
892.068	1593
892.172	711
892.276	1177
892.380	1495
892.484	2070
892.589	2338
892.693	2248
892.797	1009
892.901	1095
893.005	1214
893.109	1315
893.213	2421
893.317	2115
893.421	1294
893.525	999
893.629	1046
893.733	1377
893.837	1538
893.941	1495
894.045	1875
894.148	1654
894.252	1615
894.356	2113
894.460	2477
894.564	826
894.667	1172
894.771	1286
894.875	493
894.978	1144
895.082	709
895.186	1558
895.289	2936
895.393	1541
895.496	2284
895.600	1152
895.703	1091
895.807	1275
895.910	953
896.014	580
896.117	995
896.221	1378
896.324	1528
896.427	2061
896.531	766
896.634	1053
896.737	1707
896.840	1966
896.944	1031
897.047	1268
897.150	2145
897.253	1333
897.356	1123
897.460	1084
897.563	792
897.666	895
897.769	1432
897.872	397
897.975	1126
898.078	1692
898.181	1241
898.284	1016
898.387	1670
898.490	1726
898.593	1402
898.695	577
898.798	726
898.901	1154
899.004	1556
899.107	1599
899.209	1518
899.312	1452
899.415	1469
899.518	1055
899.620	1513
899.723	1512
899.826	1415
899.928	1147
900.031	748
900.133	1240
900.236	1247
900.338	997
900.441	1432
900.543	1213
900.646	1198
900.748	1166
900.851	1436
900.953	1064
901.055	1134
901.158	681
901.260	1475
901.362	1058
901.465	1042
901.567	1137
901.669	1084
901.771	862
901.873	905
901.976	598
902.078	1680
902.180	609
902.282	1052
902.384	1002
902.486	1486
902.588	1426
902.690	686
902.792	741
902.894	765
902.996	1441
903.098	1531
903.200	1001
903.302	826
903.404	1100
903.505	727
903.607	1187
903.709	1257
903.811	1399
903.913	72
904.014	93
904.116	504
904.218	1289
904.319	1336
904.421	1585
904.523	1114
904.624	1407
904.726	707
904.827	851
904.929	856
905.030	918
905.132	1487
905.233	800
905.335	708
905.436	1187
905.537	841
905.639	1038
905.740	264
905.841	1438
905.943	1259
906.044	1707
906.145	881
906.247	483
906.348	815
906.449	1030
906.550	1255
906.651	1526
906.752	323
906.854	618
906.955	1026
907.056	1134
907.157	859
907.258	1640
907.359	1260
907.460	955
907.561	1172
907.662	1067
907.762	643
907.863	1153
907.964	1525
908.065	1700
908.166	1809
908.267	1082
908.367	627
908.468	813
908.569	290
908.670	646
908.770	1616
908.871	1356
908.971	1469
909.072	1978
909.173	676
909.273	892
909.374	931
909.474	1119
909.575	108
909.675	871
909.776	1168
909.876	502
909.977	284
910.077	1460
910.177	870
910.278	1092
910.378	1186
910.478	976
910.579	1295
910.679	1099
910.779	844
910.879	748
910.980	1185
911.080	981
911.180	1327
911.280	1107
911.380	716
911.480	862
911.580	879
911.680	880
911.780	864
911.880	1569
911.980	739
912.080	135
912.180	1659
912.280	1297
912.380	924
912.480	1337
912.580	914
912.679	1237
912.779	683
912.879	1160
912.979	438
913.078	1030
913.178	92
913.278	540
913.377	537
913.477	765
913.577	1223
913.676	1122
913.776	1100
913.875	701
913.975	1138
914.074	837
914.174	463
914.273	772
914.373	924
914.472	669
914.572	605
914.671	1067
914.770	833
914.870	760
914.969	272
915.068	375
915.167	1759
915.267	1184
915.366	402
915.465	479
915.564	955
915.663	1528
915.763	485
915.862	2360
915.961	899
916.060	687
916.159	1086
916.258	490
916.357	400
916.456	777
916.555	687
916.654	1123
916.752	1161
916.851	972
916.950	124
917.049	734
917.148	-127
917.247	1457
917.345	801
917.444	755
917.543	115
917.642	1137
917.740	769
917.839	601
917.937	1630
918.036	1378
918.135	261
918.233	1513
918.332	168
918.430	1354
918.529	493
918.627	432
918.726	1175
918.824	950
918.923	1192
919.021	520
919.119	1033
919.218	988
919.316	707
919.414	1066
919.512	1073
919.611	643
919.709	978
919.807	1959
919.905	1470
920.003	1807
920.102	1089
920.200	1488
920.298	1310
920.396	1130
920.494	928
920.592	814
920.690	1386
920.788	1597
920.886	1283
920.984	1568
921.082	1770
921.180	2326
921.277	1191
921.375	2893
921.473	2651
921.571	2132
921.669	1243
921.766	2163
921.864	2130
921.962	2691
922.060	1429
922.157	2792
922.255	2246
922.352	2377
922.450	2857
922.548	2446
922.645	2562
922.743	3725
922.840	4788
922.938	6796
923.035	6449
923.133	5153
923.230	5939
923.327	8304
923.425	7313
923.522	7174
923.619	6501
923.717	5574
923.814	4950
923.911	6443
924.008	6448
924.106	5207
924.203	4800
924.300	5607
924.397	4921
924.494	6569
924.591	5809
924.688	6019
924.786	5499
924.883	5695
924.979	5668
925.077	5979
925.173	4762
925.270	5490
925.367	5395
925.464	5328
925.561	6110
925.658	7102
925.755	5401
925.852	6088
925.948	6400
926.045	5883
926.142	5394
926.239	6054
926.335	5649
926.432	5260
926.529	5750
926.625	5918
926.722	4920
926.818	4861
926.915	5252
927.011	5291
927.108	4491
927.204	5235
927.301	4615
927.397	4677
927.494	6322
927.590	4419
927.687	3256
927.783	5748
927.879	6155
927.976	4525
928.072	4324
928.168	4823
928.264	4768
928.361	4579
928.457	5696
928.553	5377
928.649	4998
928.745	5922
928.841	4866
928.937	4354
929.033	5614
929.129	4102
929.225	5654
929.321	5334
929.417	3814
929.513	5317
929.609	4023
929.705	3879
929.801	4735
929.897	4245
929.993	4412
930.089	4860
930.184	4148
930.280	4547
930.376	5753
930.471	4738
930.567	3849
930.663	4510
930.758	3349
930.854	4145
930.950	4625
931.045	3547
931.141	3424
931.236	4895
931.332	4728
931.427	3985
931.523	3936
931.618	5810
931.714	3375
931.809	2858
931.905	4830
932.000	3379
932.095	2471
932.191	3798
932.286	5783
932.381	4568
932.476	3181
932.572	4453
932.667	4118
932.762	3538
932.857	3739
932.952	4233
933.047	4473
933.142	3353
933.237	4095
933.332	4287
933.427	3925
933.522	4484
933.617	2845
933.712	3707
933.807	3882
933.902	4903
933.997	4924
934.092	4305
934.187	3743
934.282	4071
934.376	3874
934.471	4830
934.566	3381
934.661	2841
934.755	3292
934.850	4208
934.945	4130
935.039	3450
935.134	2637
935.228	3287
935.323	5754
935.417	3819
935.512	3022
935.606	2862
935.701	3490
935.795	4279
935.890	3930
935.984	3003
936.079	2809
936.173	3528
936.267	3188
936.362	2332
936.456	3691
936.550	4126
936.644	3818
936.738	2722
936.833	2936
936.927	3054
937.021	3095
937.115	3863
937.209	2051
937.303	4030
937.397	2132
937.491	2627
937.585	3771
937.679	4147
937.773	3231
937.867	2226
937.961	2298
938.055	3162
938.149	3716
938.243	2959
938.337	2039
938.430	2690
938.524	3457
938.618	3333
938.712	2330
938.805	2926
938.899	2694
938.993	4307
939.086	3169
939.180	2558
939.274	2317
939.367	3432
939.461	3863
939.554	2239
939.648	2689
939.741	2232
939.835	3050
939.928	4238
940.022	4037
940.115	2562
940.208	3600
940.302	3444
940.395	4227
940.488	2825
940.582	3354
940.675	2155
940.768	2056
940.861	3986
940.954	4365
941.048	2334
941.141	2045
941.234	2389
941.327	3224
941.420	3322
941.513	3609
941.606	2807
941.699	1969
941.792	3460
941.885	3799
941.978	2068
942.071	2601
942.164	1989
942.257	1782
942.349	3198
942.442	3021
942.535	1936
942.628	2734
942.721	2615
942.813	1575
942.906	3451
942.999	2866
943.091	2579
943.184	2555
943.277	2653
943.369	2016
943.462	1882
943.554	2032
943.647	2814
943.739	2625
943.832	3452
943.924	1286
944.017	1622
944.109	1697
944.201	3645
944.294	2724
944.386	3016
944.478	2088
944.571	1805
944.663	2274
944.755	2815
944.847	2447
944.940	2088
945.032	405
945.124	1303
945.216	2482
945.308	2526
945.400	2679
945.492	3014
945.584	3159
945.676	3435
945.768	2871
945.860	2473
945.952	2960
946.044	2924
946.136	1451
946.228	2314
946.320	1454
946.412	2228
946.503	2245
946.595	3600
946.687	1600
946.779	958
946.870	1648
946.962	1925
947.054	2212
947.145	2971
947.237	1868
947.329	1386
947.420	2070
947.512	1901
947.603	1477
947.695	2295
947.786	2267
947.878	1697
947.969	1417
948.061	2654
948.152	2522
948.243	2125
948.335	1768
948.426	1250
948.517	1001
948.609	2283
948.700	2132
948.791	2056
948.882	1602
948.973	482
949.065	1686
949.156	1838
949.247	1433
949.338	1661
949.429	1387
949.520	1266
949.611	1501
949.702	3086
949.793	1278
949.884	1915
949.975	1900
950.066	840
950.157	1369
950.247	1495
950.338	1696
950.429	1061
950.520	1744
950.611	1662
950.701	1514
950.792	2656
950.883	2117
950.973	1965
951.064	1742
951.155	1881
951.245	1841
951.336	2446
951.427	911
951.517	2770
951.608	1802
951.698	2104
951.788	836
951.879	995
951.969	1480
952.060	1605
952.150	1624
952.240	2906
952.331	1114
952.421	2845
952.511	1035
952.602	1755
952.692	685
952.782	1141
952.872	1165
952.962	1888
953.052	740
953.143	1659
953.233	1402
953.323	1799
953.413	952
953.503	2290
953.593	1528
953.683	1214
953.773	1364
953.863	1222
953.953	900
954.042	1528
954.132	1923
954.222	1791
954.312	1567
954.402	568
954.492	1181
954.581	2080
954.671	1702
954.761	765
954.850	2582
954.940	1596
955.030	757
955.119	959
955.209	1246
955.298	1196
955.388	745
955.477	2847
955.567	239
955.656	1049
955.746	330
955.835	1507
955.925	1114
956.014	1407
956.103	1611
956.193	2374
956.282	2397
956.371	1818
956.461	1108
956.550	1474
956.639	974
956.728	1207
956.817	1556
956.906	665
956.995	1960
957.085	1846
957.174	1722
957.263	1352
957.352	894
957.441	694
957.530	461
957.619	995
957.708	1515
957.796	1537
957.885	413
957.974	1222
958.063	1498
958.152	795
958.241	980
958.329	1080
958.418	964
958.507	1000
958.596	2000
958.684	228
958.773	1452
958.861	558
958.950	1047
959.039	393
959.127	1783
959.216	1783
959.304	692
959.393	1193
959.481	2199
959.570	1388
959.658	1237
959.746	1349
959.835	1408
959.923	1484
960.011	1143
960.100	1161
960.188	2242
960.276	2037
960.365	1327
960.453	823
960.541	840
960.629	615
960.717	890
960.805	503
960.893	1173
960.981	610
961.069	2697
961.158	1105
961.245	1517
961.333	873
961.421	1234
961.509	1251
961.597	1514
961.685	703
961.773	472
961.861	1074
961.949	996
962.036	858
962.124	1162
962.212	863
962.299	-116
962.387	282
962.475	601
962.562	187
962.650	1131
962.738	968
962.825	332
962.913	-3
963.000	196
963.088	875
963.175	489
963.263	409
963.350	819
963.438	631
963.525	31
963.612	1316
963.700	331
963.787	3093
963.874	1431
963.962	909
964.049	-150
964.136	324
964.223	454
964.310	513
964.398	602
964.485	652
964.572	319
964.659	1180
964.746	1393
964.833	233
964.920	850
965.007	1282
965.094	-352
965.181	-178
965.268	1070
965.355	183
965.441	988
965.528	-102
965.615	1630
965.702	859
965.789	-657
965.875	705
965.962	1147
966.049	184
966.136	1307
966.222	842
966.309	616
966.395	325
966.482	1362
966.569	459
966.655	427
966.742	1327
966.828	482
966.915	586
967.001	365
967.087	-507
967.174	-54
967.260	454
967.347	998
967.433	1261
967.519	1665
967.605	250
967.692	953
967.778	722
967.864	218
967.950	362
968.036	-198
968.123	46
968.209	772
968.295	-571
968.381	1380
968.467	1262
968.553	-586
968.639	400
968.725	-31
968.811	1178
968.897	970
968.983	622
969.069	-82
969.154	712
969.240	247
969.326	432
969.412	577
969.497	-91
969.583	68
969.669	1436
969.755	428
969.840	18
969.926	1328
970.012	1961
970.097	2548
970.183	2328
970.268	852
970.354	1607
970.439	-507
970.525	1639
970.610	-187
970.696	1051
970.781	1006
970.866	440
970.952	648
971.037	-203
971.122	263
971.208	861
971.293	295
971.378	85
971.463	610
971.549	944
971.634	637
971.719	861
971.804	738
971.889	1024
971.974	84
972.059	463
972.144	709
972.229	32
972.314	371
972.399	350
972.484	-760
972.569	585
972.654	-559
972.739	1180
972.824	245
972.908	462
972.993	-7
973.078	596
973.163	-194
973.247	855
973.332	-893
973.417	1576
973.501	392
973.586	814
973.671	12
973.755	-752
973.840	765
973.924	1834
974.009	1397
974.093	1203
974.178	1830
974.262	1154
974.346	932
974.431	889
974.515	789
974.600	85
974.684	-158
974.768	524
974.852	1041
974.937	-536
975.021	890
975.105	689
975.189	469
975.273	1043
975.358	1
975.442	12
975.526	1682
975.610	795
975.694	-501
975.778	1473
975.862	1121
975.946	-991
976.030	1572
976.114	854
976.198	107
976.281	-402
976.365	995
976.449	256
976.533	335
976.617	270
976.700	86
976.784	371
976.868	-956
976.951	649
977.035	921
977.119	454
977.202	-126
977.286	876
977.369	1087
977.453	1927
977.536	1359
977.620	1112
977.703	1040
977.787	-45
977.870	1401
977.953	1146
978.037	366
978.120	1403
978.203	1227
978.287	1414
978.370	853
978.453	218
978.536	372
978.620	1161
978.703	1076
978.786	396
978.869	1022
978.952	-1083
979.035	2585
979.118	2148
979.201	565
979.284	448
979.367	103
979.450	1460
979.533	-207
979.616	1063
979.699	401
979.782	269
979.865	371
979.948	909
980.030	135
980.113	1055
980.196	150
980.279	996
980.361	-6
980.444	763
980.526	1316
980.609	951
980.692	2181
980.774	2126
980.857	167
980.939	2175
981.022	844
981.104	948
981.187	409
981.269	1060
981.352	389
981.434	515
981.516	925
981.599	1335
981.681	970
981.763	439
981.846	1046
981.928	1217
982.010	771
982.092	220
982.174	1707
982.256	352
982.339	600
982.421	934
982.503	1438
982.585	59
982.667	612
982.749	801
982.831	1336
982.913	232
982.995	1522
983.077	5
983.158	1269
983.240	595
983.322	825
983.404	2619
983.486	1975
983.568	2081
983.649	1287
983.731	934
983.813	166
983.894	1103
983.976	916
984.058	980
984.139	1394
984.221	362
984.302	1718
984.384	526
984.465	516
984.547	1388
984.628	941
984.710	1509
984.791	987
984.872	532
984.954	485
985.035	2022
985.116	622
985.198	1313
985.279	1464
985.360	1201
985.441	1054
985.522	2058
985.604	975
985.685	-281
985.766	1642
985.847	2695
985.928	269
986.009	585
986.090	1460
986.171	799
986.252	-100
986.333	913
986.414	427
986.495	1440
986.576	611
986.656	1700
986.737	1460
986.818	942
986.899	1188
986.980	983
987.060	1834
987.141	1162
987.222	1215
987.302	1273
987.383	1782
987.464	2352
987.544	2698
987.625	1561
987.705	2584
987.786	2486
987.866	2265
987.947	1505
988.027	1681
988.108	1002
988.188	2182
988.268	1079
988.349	2284
988.429	1302
988.509	2274
988.589	1360
988.670	-128
988.750	3116
988.830	680
988.910	1471
988.990	786
989.070	956
989.151	1400
989.231	1006
989.311	2273
989.391	1146
989.471	1640
989.551	1555
989.631	1152
989.711	1850
989.791	379
989.870	1764
989.950	1553
990.030	1369
990.110	1532
990.190	1339
990.269	773
990.349	69
990.429	906
990.509	1687
990.588	210
990.668	1190
990.747	1628
990.827	1093
990.907	831
990.986	577
991.066	1923
991.145	-37
991.225	622
991.304	689
991.383	830
991.463	507
991.542	1756
991.622	327
991.701	593
991.780	1099
991.859	1038
991.939	1073
992.018	130
992.097	1514
992.176	695
992.256	587
992.335	127
992.414	1661
992.493	447
992.572	442
992.651	1133
992.730	1050
992.809	252
992.888	773
992.967	5
993.046	1123
993.125	-543
993.203	580
993.282	757
993.361	1010
993.440	132
993.519	-662
993.597	67
993.676	275
993.755	1475
993.834	333
993.912	-1030
993.991	1184
994.069	19
994.148	541
994.226	68
994.305	198
994.384	-80
994.462	812
994.540	328
994.619	-473
994.697	279
994.776	-598
994.854	928
994.932	586
995.011	-272
995.089	-44
995.167	-140
995.245	608
995.324	-883
995.402	802
995.480	671
995.558	-135
995.636	-1109
995.714	-164
995.792	1176
995.870	-292
995.948	8
996.026	776
996.104	-1543
996.182	701
996.260	-394
996.338	136
996.416	-1095
996.494	553
996.572	629
996.649	2
996.727	-850
996.805	87
996.883	-176
996.960	-99
997.038	-399
997.116	-191
997.193	-1063
997.271	691
997.348	-1353
997.426	-160
997.504	251
997.581	216
997.658	-354
997.736	-935
997.813	-611
997.891	340
997.968	-460
998.046	40
998.123	-706
998.200	258
998.277	-671
998.355	406
998.432	-1339
998.509	-321
998.586	282
998.663	714
998.741	-272
998.818	-560
998.895	-574
998.972	-203
999.049	-820
999.126	-166
999.203	-314
999.280	258
999.357	-924
999.434	-451
999.511	-1349
999.587	23
999.664	-1163
999.741	-722
999.818	388
999.895	-1165
999.971	-595
1000.048	-689
1000.125	107
1000.202	-1091
1000.278	-470
1000.355	284
1000.431	-1051
1000.508	-1231
1000.584	-568
1000.661	-66
1000.738	-978
1000.814	-765
1000.890	-713
1000.967	-1461
1001.043	-378
1001.120	-1594
1001.196	-729
1001.272	-820
1001.349	-804
1001.425	-698
1001.501	-1199
1001.577	-1569
1001.654	-191
1001.730	-1132
1001.806	-1174
1001.882	-1911
1001.958	-567
1002.034	-880
1002.110	-944
1002.186	-1080
1002.262	-1686
1002.338	-1590
1002.414	-171
1002.490	-630
1002.566	-1265
1002.642	-1406
1002.718	-41
1002.794	-850
1002.870	-1906
1002.945	-409
1003.021	-1316
1003.097	-1322
1003.173	-285
1003.248	-1830
1003.324	-155
1003.400	-1234
1003.475	-1603
1003.551	-961
1003.626	-517
1003.702	-1143
1003.777	-725
1003.853	-810
1003.928	-2582
1004.004	-1257
1004.079	-393
1004.155	-775
1004.230	-2199
1004.305	38
1004.381	-1335
1004.456	-1520
1004.531	-1048
1004.607	-955
1004.682	-1520
1004.757	-697
1004.832	-1122
1004.907	-1669
1004.982	-931
1005.057	-666
1005.133	-1457
1005.208	-2017
1005.283	-1433
1005.358	-651
1005.433	-1474
1005.508	-578
1005.583	-1475
1005.657	-1397
1005.732	-93
1005.807	-1988
1005.882	-1580
1005.957	-1474
1006.032	-372
1006.106	-934
1006.181	-866
1006.256	-1043
1006.331	-944
1006.405	-952
1006.480	-671
1006.554	-2458
1006.629	-1508
1006.704	-515
1006.778	46
1006.853	-811
1006.927	-2267
1007.002	-1601
1007.076	-1207
1007.150	-2110
1007.225	-1790
1007.299	-288
1007.373	-1611
1007.448	-828
1007.522	-917
1007.596	-1470
1007.671	-906
1007.745	-709
1007.819	-1234
1007.893	-1050
1007.967	-718
1008.041	-2755
1008.115	-1132
1008.190	-1823
1008.264	-1138
1008.338	-2237
1008.412	-1290
1008.486	-1040
1008.560	-1404
1008.633	-1524
1008.707	-1242
1008.781	-1804
1008.855	-1631
1008.929	-1390
1009.003	-1611
1009.076	-1449
1009.150	-855
1009.224	-1152
1009.298	-1362
1009.371	-2129
1009.445	-1176
1009.519	-961
1009.592	-2057
1009.666	-1548
1009.739	-776
1009.813	-1906
1009.886	-1187
1009.960	-1712
1010.033	-901
1010.107	-1039
1010.180	-1787
1010.253	-1429
1010.327	-974
1010.400	-2363
1010.473	-1261
1010.547	-753
1010.620	-2379
1010.693	-1355
1010.766	-1831
1010.840	-1216
1010.913	-881
1010.986	-1945
1011.059	-1840
1011.132	-2008
1011.205	-914
1011.278	-2049
1011.351	-1599
1011.424	-1164
1011.497	-1983
1011.570	-2115
1011.643	-1739
1011.716	-1817
1011.789	-983
1011.862	-771
1011.934	-925
1012.007	-1779
1012.080	-1740
1012.153	-704
1012.225	-676
1012.298	-1937
1012.371	-2032
1012.443	-832
1012.516	-1234
1012.588	-919
1012.661	-1422
1012.733	-2018
1012.806	-425
1012.879	-1732
1012.951	-1491
1013.023	-1391
1013.096	-1424
1013.168	-1597
1013.241	-729
1013.313	-1775
1013.385	-532
1013.458	-1305
1013.530	-794
1013.602	-2301
1013.674	-675
1013.746	-2242
1013.819	-1231
1013.891	-1484
1013.963	-1416
1014.035	-1481
1014.107	-919
1014.179	-676
1014.251	-1972
1014.323	-1055
1014.395	-1266
1014.467	-1381
1014.539	-693
1014.611	-2135
1014.683	-1600
1014.754	-1389
1014.826	-1420
1014.898	-1360
1014.970	-2571
1015.042	-633
1015.113	-1403
1015.185	-290
1015.257	-2646
1015.328	-1037
1015.400	-1510
1015.471	-732
1015.543	-2130
1015.615	-1085
1015.686	-2435
1015.757	-2401
1015.829	-883
1015.901	-1313
1015.972	-1590
1016.043	-2024
1016.115	-1360
1016.186	-728
1016.257	-2033
1016.328	-1367
1016.400	-487
1016.471	-2005
1016.542	-1634
1016.613	-892
1016.685	-2065
1016.756	-368
1016.827	-2449
1016.898	-2063
1016.969	-1324
1017.040	-2059
1017.111	-1611
1017.182	-2056
1017.253	-1135
1017.324	-1088
1017.395	-1290
1017.466	-1403
1017.537	-2051
1017.608	-2214
1017.678	-1319
1017.749	-473
1017.820	-1419
1017.891	-1118
1017.961	-1799
1018.032	-2031
1018.103	-1379
1018.173	-1092
1018.244	-1604
1018.315	-1771
1018.385	-629
1018.456	-1337
1018.526	-1500
1018.597	-1373
1018.667	-1236
1018.738	-1821
1018.808	-1574
1018.878	-760
1018.949	-1720
1019.019	-901
1019.089	-1117
1019.160	-801
1019.230	-1270
1019.300	-995
1019.371	-1673
1019.441	-1648
1019.511	-974
1019.581	-989
1019.651	-1021
1019.721	-752
1019.791	-1309
1019.861	-1441
1019.931	-1517
1020.001	-1350
1020.071	-1601
1020.141	-1939
1020.211	-1391
1020.281	-2024
1020.351	-1283
1020.421	-933
1020.491	-709
1020.560	-1780
1020.630	-1603
1020.700	-1288
1020.770	-1401
1020.839	-1403
1020.909	-788
1020.979	-1495
1021.048	-2403
1021.118	-1153
1021.187	-1141
1021.257	-975
1021.326	-1008
1021.396	-2101
1021.465	-509
1021.535	-1730
1021.604	-2098
1021.674	-1095
1021.743	-359
1021.812	-2014
1021.882	-1024
1021.951	-1103
1022.020	-1599
1022.089	-1456
1022.159	-1390
1022.228	-896
1022.297	-1059
1022.366	-1409
1022.435	-1522
1022.504	-1095
1022.573	-1202
1022.642	-834
1022.711	-2204
1022.781	-1333
1022.849	-1121
1022.918	-1495
1022.987	-888
1023.056	-1251
1023.125	-1669
1023.194	-1121
1023.263	-1983
1023.331	-1153
1023.400	-1573
1023.469	-1053
1023.538	-1387
1023.606	-1757
1023.675	-2061
1023.744	-1280
1023.812	-1803
1023.881	-1620
1023.949	-1384
1024.018	-1649
1024.086	-1831
1024.155	-1083
1024.223	-1793
1024.292	-1290
1024.360	-867
1024.429	-1930
1024.497	-2363
1024.565	-1155
1024.634	-1404
1024.702	-1634
1024.770	-1012
1024.838	-2123
1024.907	-2352
1024.975	-1741
1025.043	-974
1025.111	-1435
1025.179	-1308
1025.247	-1404
1025.315	-1282
1025.383	-1922
1025.451	-1588
1025.519	-1359
1025.587	-2087
1025.655	-1050
1025.723	-1860
1025.791	-1016
1025.859	-1404
1025.927	-892
1025.995	-1663
1026.062	-1011
1026.130	-1140
1026.198	-1718
1026.266	-2077
1026.333	-918
1026.401	-1522
1026.469	-1404
1026.536	-863
1026.604	-1400
1026.671	-1313
1026.739	-1233
1026.806	-1979
1026.874	-1635
1026.941	-1702
1027.009	-1334
1027.076	-1771
1027.144	-1351
1027.211	-2049
1027.278	-1672
1027.345	-1368
1027.413	-1687
1027.480	-2307
1027.547	-1604
1027.614	-1622
1027.682	-942
1027.749	-1056
1027.816	-2053
1027.883	-1626
1027.950	-1768
1028.017	-1731
1028.084	-1531
1028.151	-1699
1028.218	-1203
1028.285	-2143
1028.352	-1653
1028.419	-2075
1028.486	-900
1028.553	-1592
1028.619	-2260
1028.686	-1363
1028.753	-2044
1028.820	-2195
1028.886	-1873
1028.953	-1649
1029.020	-1447
1029.086	-2459
1029.153	-1720
1029.220	-2040
1029.286	-1390
1029.353	-1408
1029.419	-1471
1029.486	-1476
1029.552	-824
1029.619	-1565
1029.685	-1529
1029.751	-2366
1029.818	-523
1029.884	-2252
1029.951	-562
1030.017	-2195
1030.083	-1806
1030.149	-1875
1030.216	-2307
1030.282	-1445
1030.348	-1859
1030.414	-1823
1030.480	-1971
1030.546	-1936
1030.612	-2066
1030.678	-1859
1030.744	-1688
1030.810	-1782
1030.876	-1538
1030.942	-2720
1031.008	-2167
1031.074	-1848
1031.140	-2518
1031.206	-1808
1031.272	-2229
1031.337	-1925
1031.403	-1189
1031.469	-2000
1031.534	-2015
1031.600	-1627
1031.666	-1889
1031.731	-1833
1031.797	-2719
1031.863	-1598
1031.928	-1975
1031.994	-1839
1032.059	-1486
1032.125	-1920
1032.190	-2393
1032.256	-1978
1032.321	-2422
1032.386	-2218
1032.452	-628
1032.517	-1418
1032.582	-2435
1032.647	-2079
1032.713	-1466
1032.778	-2609
1032.843	-1606
1032.908	-1753
1032.974	-1677
1033.039	-2550
1033.104	-2664
1033.169	-2262
1033.234	-2273
1033.299	-1693
1033.364	-1727
1033.429	-2488
1033.494	-1185
1033.559	-2057
1033.624	-1665
1033.688	-1920
1033.753	-1869
1033.818	-2095
1033.883	-2055
1033.948	-1306
1034.013	-1828
1034.077	-1535
1034.142	-925
1034.207	-1112
1034.271	-1016
1034.336	51
1034.400	-617
1034.465	-882
1034.530	-1760
1034.594	-1637
1034.658	-2394
1034.723	-1781
1034.787	-1704
1034.852	-1925
1034.916	-2209
1034.981	-2200
1035.045	-1990
1035.109	-2163
1035.173	-1045
1035.238	-3106
1035.302	-1722
1035.366	-2009
1035.430	-2136
1035.495	-2908
1035.559	-1568
1035.623	-2784
1035.687	-2472
1035.751	-1962
1035.815	-2818
1035.879	-3426
1035.943	-1274
1036.007	-1548
1036.071	-1743
1036.135	-2195
1036.198	-2298
1036.262	-2127
1036.326	-2333
1036.390	-2232
1036.454	-1294
1036.517	-1938
1036.581	-2796
1036.645	-2100
1036.709	-2028
1036.772	-2054
1036.836	-2423
1036.900	-2374
1036.963	-2526
1037.026	-1438
1037.090	-2845
1037.154	-2190
1037.217	-2481
1037.280	-2638
1037.344	-2275
1037.407	-2944
1037.471	-2100
1037.534	-2949
1037.597	-1713
1037.661	-2110
1037.724	-2495
1037.787	-2732
1037.850	-1970
1037.913	-2329
1037.977	-1529
1038.040	-2672
1038.103	-1941
1038.166	-1928
1038.229	-2228
1038.292	-2862
1038.355	-2505
1038.418	-2231
1038.481	-1660
1038.544	-1868
1038.607	-1870
1038.670	-2815
1038.732	-2508
1038.795	-3009
1038.858	-2739
1038.921	-1906
1038.984	-2932
1039.046	-2026
1039.109	-2011
1039.172	-2547
1039.234	-1905
1039.297	-2254
1039.360	-1824
1039.422	-2464
1039.485	-1305
1039.547	-2735
1039.610	-2067
1039.672	-2375
1039.734	-2848
1039.797	-2439
1039.859	-1897
1039.922	-2021
1039.984	-2074
1040.046	-2697
1040.109	-2359
1040.171	-2511
1040.233	-2333
1040.295	-2542
1040.358	-2196
1040.420	-2313
1040.482	-2200
1040.544	-1957
1040.606	-1848
1040.668	-1901
1040.730	-2626
1040.792	-1917
1040.854	-2038
1040.916	-2503
1040.978	-1602
1041.040	-1974
1041.102	-882
1041.164	-2504
1041.225	-2115
1041.287	-2935
1041.349	-2628
1041.411	-2260
1041.472	-1913
1041.534	-2167
1041.596	-2751
1041.657	-1845
1041.719	-2376
1041.781	-2086
1041.842	-2649
1041.904	-2763
1041.965	-2460
1042.027	-2961
1042.088	-1744
1042.150	-1875
1042.211	-1908
1042.272	-1733
1042.334	-1772
1042.395	-2654
1042.456	-2800
1042.518	-1732
1042.579	-1640
1042.640	-2229
1042.701	-2077
1042.763	-2603
1042.824	-2035
1042.885	-2767
1042.946	-1378
1043.007	-1764
1043.068	-2202
1043.129	-2557
1043.190	-2663
1043.251	-2481
1043.312	-2149
1043.373	-1982
1043.434	-1776
1043.495	-1857
1043.556	-1170
1043.616	-1773
1043.677	-1842
1043.738	-2314
1043.799	-1490
1043.859	-1804
1043.920	-2195
1043.981	-2335
1044.041	-2266
1044.102	-1779
1044.162	-1513
1044.223	-2664
1044.284	-2680
1044.344	-1241
1044.405	-2438
1044.465	-1205
1044.525	-2348
1044.586	-2683
1044.646	-1493
1044.707	-1969
1044.767	-1754
1044.827	-2190
1044.887	-1957
1044.948	-1425
1045.008	-2194
1045.068	-2404
1045.128	-1534
1045.188	-1710
1045.249	-2274
1045.309	-2085
1045.369	-1741
1045.429	-2036
1045.489	-1679
1045.549	-1516
1045.609	-1634
1045.669	-3198
1045.729	-2015
1045.789	-2419
1045.848	-1444
1045.908	-1113
1045.968	-1997
1046.028	-2131
1046.088	-1152
1046.147	-759
1046.207	-1143
1046.267	-2057
1046.326	-1097
1046.386	-1553
1046.446	-1264
1046.505	-316
1046.565	-989
1046.624	-1203
1046.684	-468
1046.743	-694
1046.803	-631
1046.862	-579
1046.922	0
