'Start Wavelength	183.907
'End Wavelength	1046.922
'Gate Delay	5.000
'Gate Width (ms)	1.050
'Laser Output Level	0.000
'X Position	0.000
'Y Position	0.000
'Z Position	0.000
'Grid Point Number	1.000
'Shot Number	100.000
183.907	340.000
183.977	-26.000
184.047	-205
184.116	-460
184.186	-217
184.256	-58
184.325	534
184.395	-819
184.465	558
184.534	275
184.604	-793
184.674	-765
184.743	-765
184.813	194
184.883	-746
184.952	-301
185.022	-428
185.092	-308
185.161	-1002
185.231	-866
185.301	-1224
185.370	-214
185.440	-178
185.509	-1050
185.579	81
185.649	541
185.718	-74
185.788	-150
185.857	-651
185.927	-687
185.996	-277
186.066	-840
186.136	-69
186.205	-268
186.275	125
186.344	-4
186.414	-94
186.483	-867
186.553	511
186.622	323
186.692	-484
186.761	-715
186.831	269
186.900	-1395
186.970	-271
187.039	-195
187.109	-82
187.178	-728
187.248	127
187.317	-516
187.387	-213
187.456	-966
187.526	-706
187.595	-12
187.664	-45
187.734	-52
187.803	-154
187.873	-664
187.942	-489
188.012	-537
188.081	-588
188.150	-316
188.220	-640
188.289	-205
188.358	-267
188.428	538
188.497	-843
188.567	-21
188.636	-378
188.705	600
188.775	-219
188.844	-1139
188.913	-408
188.983	-218
189.052	-829
189.121	344
189.191	-700
189.260	-315
189.329	-277
189.399	-442
189.468	-470
189.537	-882
189.606	25
189.676	-656
189.745	-334
189.814	-126
189.883	-1504
189.953	-599
190.022	-217
190.091	19
190.161	613
190.230	-372
190.299	-665
190.368	-414
190.437	-297
190.507	-60
190.576	-701
190.645	-343
190.714	-671
190.783	-933
190.853	412
190.922	245
190.991	490
191.060	288
191.129	-868
191.198	195
191.268	-357
191.337	-380
191.406	-969
191.475	-348
191.544	-154
191.613	-50
191.682	-499
191.752	-508
191.821	-1087
191.890	-340
191.959	276
192.028	-946
192.097	-698
192.166	-533
192.235	-410
192.304	-15
192.373	-714
192.442	-457
192.511	-286
192.580	-279
192.650	-264
192.719	20
192.788	-150
192.857	-551
192.926	-293
192.995	-614
193.064	-559
193.133	522
193.202	-382
193.271	-221
193.340	-52
193.409	-444
193.478	131
193.547	-168
193.615	871
193.684	100
193.753	-675
193.822	-588
193.891	-776
193.960	412
194.029	-476
194.098	-436
194.167	-958
194.236	301
194.305	-254
194.374	44
194.443	332
194.512	111
194.580	775
194.649	-130
194.718	-147
194.787	-163
194.856	-679
194.925	395
194.994	-111
195.062	387
195.131	400
195.200	-446
195.269	278
195.338	-200
195.407	487
195.475	-504
195.544	653
195.613	-293
195.682	-577
195.751	-456
195.819	-289
195.888	-443
195.957	-162
196.026	-64
196.094	-388
196.163	-329
196.232	-135
196.301	47
196.369	-288
196.438	-231
196.507	169
196.576	-431
196.644	358
196.713	-900
196.782	-590
196.850	-653
196.919	190
196.988	-95
197.056	-510
197.125	-291
197.194	-990
197.262	-1302
197.331	443
197.400	-583
197.468	13
197.537	-554
197.606	-752
197.674	-196
197.743	-408
197.812	-712
197.880	86
197.949	-289
198.017	209
198.086	-20
198.155	-1202
198.223	-680
198.292	-90
198.360	620
198.429	-145
198.497	160
198.566	-394
198.635	968
198.703	-230
198.772	-385
198.840	-645
198.909	-50
198.977	-546
199.046	-82
199.114	96
199.183	-432
199.251	133
199.320	-129
199.388	-1495
199.457	-172
199.525	-308
199.594	-719
199.662	-102
199.731	-700
199.799	-593
199.867	-649
199.936	-660
200.004	-293
200.073	-339
200.141	116
200.210	-249
200.278	42
200.346	-162
200.415	-605
200.483	-338
200.552	-400
200.620	-687
200.688	-377
200.757	-122
200.825	18
200.893	-404
200.962	424
201.030	-216
201.098	-531
201.167	629
201.235	187
201.303	147
201.372	-72
201.440	-675
201.508	-643
201.577	-683
201.645	-383
201.713	-399
201.781	-352
201.850	-157
201.918	61
201.986	-485
202.055	435
202.123	-681
202.191	38
202.259	117
202.327	-1016
202.396	-220
202.464	325
202.532	-641
202.600	514
202.669	432
202.737	-370
202.805	-991
202.873	540
202.941	-455
203.009	-307
203.078	-772
203.146	-423
203.214	-379
203.282	-1174
203.350	127
203.418	-73
203.487	-350
203.555	-27
203.623	-481
203.691	-424
203.759	-185
203.827	-876
203.895	-275
203.963	-313
204.031	-538
204.099	-531
204.168	-820
204.236	-696
204.304	-252
204.372	-301
204.440	-506
204.508	-673
204.576	-983
204.644	-417
204.712	-601
204.780	-255
204.848	-979
204.916	-105
204.984	-601
205.052	-709
205.120	-561
205.188	-27
205.256	-753
205.324	-690
205.392	-1062
205.460	-105
205.528	-679
205.596	-107
205.664	-558
205.732	-1171
205.799	288
205.867	758
205.935	-461
206.003	-104
206.071	-319
206.139	-456
206.207	173
206.275	367
206.343	-17
206.411	-705
206.478	229
206.546	-139
206.614	-387
206.682	-303
206.750	-1131
206.818	-1296
206.885	14
206.953	-973
207.021	730
207.089	-128
207.157	-616
207.225	-179
207.292	-380
207.360	-263
207.428	-213
207.496	-439
207.563	-176
207.631	-398
207.699	4
207.767	371
207.834	-902
207.902	-649
207.970	-463
208.038	-21
208.105	-527
208.173	-205
208.241	-391
208.309	-96
208.376	-110
208.444	731
208.512	471
208.579	-1177
208.647	534
208.715	432
208.782	-245
208.850	-750
208.918	-1259
208.985	-788
209.053	10
209.120	-514
209.188	-1282
209.256	-822
209.323	-359
209.391	-416
209.459	417
209.526	-934
209.594	-47
209.661	-181
209.729	-221
209.796	-254
209.864	70
209.932	-1429
209.999	788
210.067	138
210.134	-150
210.202	-276
210.269	497
210.337	-299
210.404	-272
210.472	316
210.539	363
210.607	-220
210.674	113
210.742	-283
210.809	-234
210.877	-153
210.944	252
211.012	-1116
211.079	1024
211.146	-493
211.214	-34
211.281	-276
211.349	-262
211.416	-23
211.484	-409
211.551	-775
211.618	-90
211.686	-835
211.753	-374
211.821	106
211.888	-435
211.955	244
212.023	701
212.090	-31
212.157	-430
212.225	-607
212.292	465
212.359	1293
212.427	2992
212.494	1771
212.561	480
212.629	-704
212.696	-481
212.763	107
212.831	58
212.898	894
212.965	-1030
213.032	86
213.100	-92
213.167	-401
213.234	48
213.301	-259
213.369	191
213.436	-79
213.503	-794
213.570	-123
213.638	-255
213.705	325
213.772	-551
213.839	-10
213.906	82
213.973	-363
214.041	-756
214.108	-175
214.175	281
214.242	-656
214.309	-151
214.376	80
214.444	-180
214.511	-663
214.578	-367
214.645	116
214.712	-397
214.779	-502
214.846	-723
214.913	300
214.980	-76
215.048	-533
215.115	697
215.182	-676
215.249	-37
215.316	-708
215.383	-44
215.450	-883
215.517	-411
215.584	-446
215.651	517
215.718	237
215.785	169
215.852	-734
215.919	387
215.986	-351
216.053	348
216.120	-925
216.187	-443
216.254	-178
216.321	-268
216.388	-1060
216.455	-605
216.522	-181
216.589	-124
216.656	-109
216.722	661
216.789	10
216.856	887
216.923	45
216.990	-246
217.057	587
217.124	-167
217.191	-261
217.258	456
217.324	114
217.391	633
217.458	515
217.525	-443
217.592	-57
217.659	-777
217.725	255
217.792	108
217.859	978
217.926	-222
217.993	50
218.059	333
218.126	-137
218.193	-461
218.260	-815
218.327	-441
218.393	-675
218.460	-801
218.527	-927
218.594	305
218.660	-528
218.727	500
218.794	-440
218.860	-375
218.927	-362
218.994	-10
219.061	325
219.127	-227
219.194	193
219.261	260
219.327	-678
219.394	272
219.461	-643
219.527	-624
219.594	-68
219.661	114
219.727	-871
219.794	225
219.860	-823
219.927	-329
219.994	-325
220.060	485
220.127	196
220.193	836
220.260	-250
220.326	286
220.393	799
220.460	1095
220.526	323
220.593	244
220.659	1146
220.726	68
220.792	1496
220.859	1124
220.925	1438
220.992	2865
221.058	3243
221.125	2160
221.191	2060
221.258	434
221.324	338
221.391	-341
221.457	-563
221.524	-131
221.590	406
221.657	2172
221.723	486
221.789	697
221.856	2138
221.922	-552
221.989	-556
222.055	-308
222.121	-938
222.188	784
222.254	-739
222.321	-95
222.387	-243
222.453	-58
222.520	-344
222.586	-289
222.652	-194
222.719	-552
222.785	71
222.851	90
222.918	-84
222.984	-306
223.050	-592
223.116	-1112
223.183	182
223.249	-710
223.315	-207
223.382	-235
223.448	214
223.514	-987
223.580	-563
223.647	-755
223.713	-890
223.779	-168
223.845	-674
223.911	-226
223.978	-770
224.044	-479
224.110	-767
224.176	-35
224.242	-503
224.309	-749
224.375	-73
224.441	32
224.507	-327
224.573	-1145
224.639	147
224.705	-721
224.772	-248
224.838	-866
224.904	-559
224.970	-877
225.036	-923
225.102	-652
225.168	-280
225.234	108
225.300	-610
225.366	-681
225.432	293
225.499	-360
225.565	-376
225.631	-306
225.697	-391
225.763	869
225.829	-229
225.895	116
225.961	1429
226.027	707
226.093	-774
226.159	277
226.225	1046
226.291	2970
226.357	6283
226.423	2674
226.489	2
226.554	200
226.620	812
226.686	566
226.752	847
226.818	2734
226.884	6388
226.950	5705
227.016	2042
227.082	808
227.148	764
227.214	758
227.279	438
227.345	690
227.411	-131
227.477	13
227.543	161
227.609	415
227.674	492
227.740	-101
227.806	207
227.872	-163
227.938	-51
228.003	536
228.069	-259
228.135	-531
228.201	530
228.267	-365
228.332	-533
228.398	-1649
228.464	663
228.530	-457
228.595	204
228.661	-1177
228.727	-827
228.792	425
228.858	-176
228.924	-1950
228.990	1446
229.055	-1013
229.121	316
229.187	-147
229.252	-531
229.318	-384
229.384	-513
229.449	12
229.515	-1605
229.581	-1515
229.646	1463
229.712	85
229.777	127
229.843	-342
229.909	-123
229.974	1365
230.040	578
230.105	77
230.171	-45
230.236	708
230.302	1170
230.368	558
230.433	-270
230.499	586
230.564	1511
230.630	220
230.695	-167
230.761	659
230.826	-1913
230.892	1016
230.957	-506
231.023	-73
231.088	-444
231.154	69
231.219	953
231.284	-272
231.350	157
231.415	-891
231.481	437
231.546	-431
231.612	-271
231.677	-135
231.742	-1268
231.808	440
231.873	-481
231.939	-1817
232.004	850
232.069	779
232.135	-274
232.200	-225
232.265	436
232.331	4
232.396	-698
232.461	-429
232.527	-469
232.592	-364
232.657	-401
232.723	-419
232.788	-567
232.853	691
232.918	324
232.984	-599
233.049	-275
233.114	-703
233.179	-784
233.245	-64
233.310	95
233.375	-1412
233.440	143
233.506	-921
233.571	-1058
233.636	-598
233.701	-430
233.766	-725
233.832	834
233.897	-238
233.962	-1924
234.027	511
234.092	-171
234.157	-519
234.222	-538
234.288	-189
234.353	838
234.418	1059
234.483	519
234.548	254
234.613	132
234.678	240
234.743	401
234.808	1469
234.873	-818
234.938	489
235.004	-247
235.069	188
235.134	-338
235.199	300
235.264	837
235.329	-1165
235.394	936
235.459	632
235.524	-496
235.589	-192
235.654	-270
235.719	-1035
235.784	-142
235.849	-612
235.913	503
235.978	-115
236.043	1244
236.108	358
236.173	-644
236.238	-122
236.303	-703
236.368	-853
236.433	549
236.498	-1
236.563	676
236.627	1490
236.692	9050
236.757	7048
236.822	1819
236.887	-64
236.952	910
237.017	-405
237.081	1239
237.146	496
237.211	2929
237.276	7493
237.341	14135
237.405	4774
237.470	2227
237.535	1458
237.600	826
237.664	1019
237.729	-196
237.794	86
237.859	2204
237.923	929
237.988	80
238.053	1578
238.118	216
238.182	1659
238.247	2182
238.312	-237
238.376	547
238.441	-1021
238.506	408
238.570	-871
238.635	1519
238.700	-215
238.764	-624
238.829	500
238.893	713
238.958	710
239.023	-21
239.087	-545
239.152	121
239.216	-885
239.281	2
239.346	-326
239.410	-541
239.475	-401
239.539	1664
239.604	292
239.668	1259
239.733	-346
239.797	229
239.862	362
239.926	524
239.991	521
240.055	-197
240.120	72
240.184	244
240.249	-34
240.313	-939
240.378	-309
240.442	440
240.507	987
240.571	-318
240.635	379
240.700	464
240.764	342
240.829	205
240.893	-736
240.957	751
241.022	896
241.086	1209
241.151	-79
241.215	-1144
241.279	420
241.344	-201
241.408	999
241.472	536
241.537	1039
241.601	408
241.665	-526
241.730	362
241.794	950
241.858	-539
241.922	767
241.987	426
242.051	-36
242.115	-1374
242.179	37
242.244	127
242.308	279
242.372	-44
242.436	160
242.501	62
242.565	-1449
242.629	-569
242.693	1240
242.757	-721
242.822	68
242.886	275
242.950	169
243.014	-750
243.078	617
243.142	-682
243.206	35
243.271	532
243.335	-174
243.399	909
243.463	3702
243.527	11182
243.591	2984
243.655	1628
243.719	286
243.783	314
243.847	1114
243.911	1180
243.975	1276
244.040	-610
244.104	1693
244.168	431
244.232	-68
244.296	476
244.360	1381
244.424	-353
244.488	-301
244.552	204
244.615	-740
244.679	-146
244.743	-1
244.807	-227
244.871	207
244.935	-127
244.999	-1918
245.063	-57
245.127	757
245.191	789
245.255	823
245.319	519
245.383	-1235
245.446	663
245.510	-858
245.574	-6
245.638	105
245.702	-880
245.766	1459
245.829	1176
245.893	-1194
245.957	-402
246.021	880
246.085	-256
246.149	312
246.212	2480
246.276	3176
246.340	-125
246.404	1214
246.467	1259
246.531	-227
246.595	1156
246.659	837
246.722	-621
246.786	893
246.850	935
246.913	628
246.977	-988
247.041	169
247.104	445
247.168	600
247.232	1188
247.295	5245
247.359	2160
247.423	187
247.486	1623
247.550	739
247.614	197
247.677	411
247.741	56
247.804	101
247.868	-208
247.932	573
247.995	3837
248.059	1039
248.122	-1125
248.186	1106
248.249	459
248.313	6538
248.376	7084
248.440	3913
248.503	302
248.567	1569
248.630	606
248.694	2551
248.757	2867
248.821	7940
248.884	5495
248.948	3040
249.011	6141
249.075	8481
249.138	7926
249.202	2697
249.265	568
249.328	2500
249.392	1185
249.455	1668
249.519	583
249.582	528
249.645	1513
249.709	1284
249.772	923
249.835	843
249.899	459
249.962	712
250.025	730
250.089	2654
250.152	4031
250.215	1431
250.279	803
250.342	1512
250.405	854
250.468	3
250.532	1359
250.595	2923
250.658	9022
250.721	19871
250.785	6271
250.848	3617
250.911	1016
250.974	2598
251.038	2486
251.101	5268
251.164	1346
251.227	2921
251.290	1532
251.354	4286
251.417	15510
251.480	16318
251.543	9728
251.606	29306
251.669	22358
251.732	7424
251.795	6532
251.859	7937
251.922	17928
251.985	10666
252.048	4268
252.111	2787
252.174	1081
252.237	4406
252.300	9326
252.363	9136
252.426	24000
252.489	8771
252.552	3637
252.615	2074
252.678	3281
252.741	6791
252.804	9714
252.867	23767
252.930	14093
252.993	6151
253.056	3221
253.119	1361
253.182	765
253.245	3088
253.308	2887
253.371	1215
253.434	800
253.497	2374
253.559	4462
253.622	2189
253.685	774
253.748	1654
253.811	701
253.874	1030
253.937	342
254.000	889
254.062	2149
254.125	3487
254.188	3525
254.251	1423
254.314	495
254.376	1308
254.439	2519
254.502	1973
254.565	1265
254.628	5290
254.690	2033
254.753	393
254.816	87
254.878	1016
254.941	2416
255.004	2678
255.067	1065
255.129	-501
255.192	453
255.255	-629
255.317	301
255.380	-369
255.443	-336
255.505	-854
255.568	-1297
255.631	-421
255.693	-485
255.756	-814
255.819	885
255.881	-591
255.944	428
256.006	-918
256.069	-489
256.132	-373
256.194	-344
256.257	1404
256.319	194
256.382	-108
256.444	586
256.507	422
256.569	-186
256.632	589
256.694	829
256.757	3343
256.819	13982
256.882	3470
256.944	1813
257.007	1682
257.069	424
257.132	-274
257.194	1445
257.257	-299
257.319	253
257.381	-74
257.444	3603
257.506	15600
257.569	16999
257.631	4298
257.693	1990
257.756	427
257.818	615
257.880	-231
257.943	471
258.005	62
258.067	26
258.130	-12
258.192	-8
258.254	686
258.317	-453
258.379	671
258.441	1437
258.503	3026
258.566	1332
258.628	3074
258.690	-676
258.753	524
258.815	921
258.877	506
258.939	-252
259.001	436
259.064	-125
259.126	-545
259.188	-380
259.250	540
259.312	99
259.375	-118
259.437	-168
259.499	842
259.561	-649
259.623	-15
259.685	-204
259.747	46
259.809	1630
259.872	3318
259.934	5174
259.996	5634
260.058	1563
260.120	175
260.182	-118
260.244	43
260.306	-769
260.368	78
260.430	-78
260.492	730
260.554	1289
260.616	-78
260.678	2049
260.740	3731
260.802	479
260.864	1384
260.926	-1166
260.988	684
261.050	31
261.112	1256
261.174	4864
261.236	3401
261.298	53
261.359	349
261.421	2466
261.483	-614
261.545	835
261.607	-1231
261.669	-51
261.731	831
261.793	1240
261.854	-606
261.916	828
261.978	-381
262.040	386
262.102	-175
262.164	-900
262.225	658
262.287	-74
262.349	280
262.411	500
262.472	613
262.534	-15
262.596	979
262.658	200
262.719	-1198
262.781	76
262.843	310
262.904	345
262.966	-106
263.028	-54
263.090	4363
263.151	15090
263.213	5100
263.275	816
263.336	-188
263.398	599
263.459	-700
263.521	-132
263.583	867
263.644	374
263.706	-987
263.767	-1019
263.829	-316
263.891	-1372
263.952	-798
264.014	-706
264.075	12
264.137	2288
264.198	315
264.260	-994
264.321	-241
264.383	99
264.444	2741
264.506	371
264.567	-233
264.629	1528
264.690	957
264.752	580
264.813	-133
264.875	-923
264.936	381
264.998	-811
265.059	-1600
265.120	-241
265.182	-507
265.243	5864
265.305	6096
265.366	1025
265.427	331
265.489	229
265.550	-1274
265.611	-199
265.673	-494
265.734	-729
265.795	418
265.857	-1373
265.918	-819
265.979	1610
266.040	11107
266.102	9690
266.163	2550
266.224	649
266.286	-376
266.347	-1199
266.408	-226
266.469	-325
266.530	299
266.592	-1337
266.653	568
266.714	531
266.775	-470
266.836	-870
266.898	-1180
266.959	-295
267.020	-458
267.081	502
267.142	-1188
267.203	-964
267.264	-685
267.326	409
267.387	-707
267.448	-918
267.509	81
267.570	-907
267.631	-871
267.692	-1362
267.753	294
267.814	-628
267.875	169
267.936	1748
267.997	160
268.058	-255
268.119	-706
268.180	-581
268.241	-346
268.302	-848
268.363	-1013
268.424	-925
268.485	-772
268.546	-1111
268.607	-862
268.668	-944
268.729	-630
268.790	-484
268.851	-347
268.912	1
268.972	514
269.033	32
269.094	-1436
269.155	-650
269.216	-600
269.277	-857
269.338	-683
269.398	-689
269.459	-1135
269.520	-558
269.581	-26
269.642	89
269.702	-677
269.763	-518
269.824	-1041
269.885	-933
269.945	426
270.006	-173
270.067	-904
270.128	-833
270.188	-1450
270.249	-1454
270.310	-1489
270.370	-212
270.431	-588
270.492	-663
270.553	-1167
270.613	202
270.674	2352
270.734	-386
270.795	71
270.856	-218
270.916	-1240
270.977	-1071
271.038	-244
271.098	-91
271.159	-227
271.219	-493
271.280	-265
271.340	-689
271.401	-1294
271.462	216
271.522	-634
271.583	129
271.643	-1107
271.704	-185
271.764	-489
271.825	611
271.885	5750
271.946	10063
272.006	1826
272.066	2928
272.127	7232
272.187	1231
272.248	-873
272.308	-783
272.369	5459
272.429	2500
272.489	367
272.550	-360
272.610	909
272.671	-189
272.731	188
272.791	404
272.852	-736
272.912	-94
272.972	-102
273.033	-432
273.093	-169
273.153	75
273.214	396
273.274	-37
273.334	1992
273.394	6977
273.455	1536
273.515	1378
273.575	5974
273.635	1676
273.696	1423
273.756	7328
273.816	1765
273.876	388
273.936	824
273.997	3197
274.057	-229
274.117	-306
274.177	600
274.237	7405
274.297	7169
274.358	3109
274.418	4072
274.478	3752
274.538	371
274.598	-493
274.658	1392
274.718	2718
274.778	1196
274.838	-357
274.898	-190
274.958	4603
275.018	6524
275.078	3841
275.138	806
275.198	-496
275.258	-407
275.318	-387
275.378	44
275.438	-399
275.498	312
275.558	1335
275.618	4872
275.678	4548
275.738	1450
275.798	652
275.858	51
275.918	-668
275.978	-583
276.038	-686
276.098	-578
276.157	-118
276.217	2773
276.277	882
276.337	406
276.397	-278
276.457	-732
276.517	-295
276.576	-289
276.636	-748
276.696	-775
276.756	1141
276.815	470
276.875	-1094
276.935	-540
276.995	-491
277.055	252
277.114	-299
277.174	-700
277.234	3437
277.293	-156
277.353	-488
277.413	-393
277.472	-492
277.532	-1016
277.592	189
277.651	2931
277.711	6734
277.771	1133
277.830	6828
277.890	6100
277.950	3915
278.009	15607
278.069	5615
278.128	3455
278.188	6288
278.248	1620
278.307	6724
278.367	4893
278.426	434
278.486	82
278.545	138
278.605	-684
278.664	-211
278.724	-23
278.783	1699
278.843	8661
278.902	1417
278.962	-80
279.021	379
279.081	255
279.140	112
279.199	35
279.259	51
279.318	82
279.378	806
279.437	1875
279.496	7084
279.556	37276
279.615	31990
279.675	6384
279.734	2015
279.793	3371
279.853	4456
279.912	1097
279.971	838
280.031	190
280.090	1314
280.149	2897
280.208	3393
280.268	24148
280.327	29227
280.386	4911
280.445	2667
280.505	2181
280.564	691
280.623	279
280.682	784
280.742	2653
280.801	563
280.860	-357
280.919	-1264
280.978	-519
281.037	-1038
281.097	-1348
281.156	-417
281.215	-483
281.274	-274
281.333	4171
281.392	3400
281.451	270
281.510	-508
281.569	-923
281.628	-557
281.688	-585
281.747	-206
281.806	-615
281.865	-543
281.924	-1181
281.983	-788
282.042	-293
282.101	-1527
282.160	-828
282.219	-70
282.278	-323
282.337	1142
282.396	303
282.454	-735
282.513	-394
282.572	1565
282.631	309
282.690	-810
282.749	-1361
282.808	-486
282.867	-668
282.926	-378
282.985	-742
283.043	-644
283.102	-677
283.161	-343
283.220	368
283.279	3950
283.338	725
283.396	-1151
283.455	-1017
283.514	134
283.573	-307
283.631	-621
283.690	-854
283.749	-503
283.808	699
283.866	479
283.925	-1037
283.984	-855
284.043	-747
284.101	-546
284.160	-697
284.219	382
284.277	-671
284.336	483
284.395	4440
284.453	4568
284.512	871
284.570	466
284.629	1093
284.688	-16
284.746	132
284.805	932
284.863	2665
284.922	2673
284.981	3897
285.039	5683
285.098	10875
285.156	26682
285.215	66307
285.273	67345
285.332	33051
285.390	15982
285.449	8821
285.507	4540
285.566	2950
285.624	2207
285.683	1377
285.741	1338
285.799	529
285.858	-83
285.916	-228
285.975	-52
286.033	269
286.091	-1030
286.150	-1082
286.208	-718
286.267	-622
286.325	37
286.383	-85
286.442	-234
286.500	-603
286.558	-617
286.616	-56
286.675	-78
286.733	-47
286.791	-1248
286.850	-345
286.908	-111
286.966	904
287.024	-369
287.083	-405
287.141	-799
287.199	311
287.257	260
287.315	147
287.374	-607
287.432	1249
287.490	610
287.548	-601
287.606	-794
287.664	-358
287.723	461
287.781	837
287.839	-563
287.897	-329
287.955	-134
288.013	1295
288.071	4017
288.129	21198
288.187	74209
288.245	33709
288.303	8511
288.361	3625
288.419	2434
288.477	1125
288.535	626
288.593	167
288.651	93
288.709	-222
288.767	-436
288.825	-825
288.883	-1138
288.941	-625
288.999	-855
289.057	-1334
289.115	-1028
289.173	-861
289.231	-162
289.289	-881
289.346	-1181
289.404	-1405
289.462	-55
289.520	293
289.578	-1262
289.636	-829
289.694	-1316
289.751	-927
289.809	-1298
289.867	-1522
289.925	-485
289.983	179
290.040	-696
290.098	-1221
290.156	-1441
290.214	-1016
290.271	-1377
290.329	-985
290.387	-1356
290.444	-1315
290.502	-1445
290.560	-650
290.617	-785
290.675	-1220
290.733	-1451
290.790	-461
290.848	-1148
290.906	-1195
290.963	-698
291.021	-936
291.078	-1720
291.136	-1005
291.194	667
291.251	3596
291.309	883
291.366	-1107
291.424	-1585
291.481	-881
291.539	-1025
291.596	-363
291.654	-839
291.711	-1017
291.769	-731
291.826	-497
291.884	-773
291.941	-890
291.999	-1392
292.056	-847
292.114	-767
292.171	-1101
292.228	-1028
292.286	-1171
292.343	-864
292.401	-594
292.458	-1180
292.515	-1387
292.573	-811
292.630	-771
292.687	-956
292.745	-915
292.802	-1365
292.859	1485
292.917	4157
292.974	2107
293.031	-153
293.089	-1031
293.146	-1673
293.203	-1212
293.260	-1440
293.318	-1797
293.375	130
293.432	-1046
293.489	-1418
293.546	-1101
293.604	-948
293.661	1875
293.718	8664
293.775	4466
293.832	662
293.889	-470
293.947	-642
294.004	-599
294.061	-589
294.118	290
294.175	3741
294.232	6151
294.289	1925
294.346	213
294.403	381
294.460	-746
294.517	-434
294.574	-1183
294.631	-451
294.688	23
294.745	626
294.802	10054
294.859	11425
294.916	2540
294.973	34
295.030	-415
295.087	-1288
295.144	-239
295.201	-579
295.258	-228
295.315	-556
295.372	1865
295.429	7457
295.486	2375
295.542	22
295.599	2997
295.656	8023
295.713	4608
295.770	6822
295.827	1925
295.883	582
295.940	-904
295.997	-22
296.054	656
296.111	-1089
296.167	89
296.224	-235
296.281	-1069
296.338	-1183
296.394	-782
296.451	-979
296.508	1001
296.564	4806
296.621	3505
296.678	7364
296.734	12686
296.791	3478
296.848	749
296.904	-21
296.961	2649
297.018	8452
297.074	6181
297.131	1889
297.187	697
297.244	2042
297.301	7053
297.357	18096
297.414	5542
297.470	1342
297.527	43
297.583	-817
297.640	-68
297.696	-929
297.753	-863
297.809	-985
297.866	-1143
297.922	-872
297.979	-1335
298.035	-544
298.092	-464
298.148	3402
298.204	4004
298.261	828
298.317	2603
298.374	10335
298.430	6078
298.486	1684
298.543	-249
298.599	156
298.656	459
298.712	956
298.768	7550
298.824	5822
298.881	963
298.937	27
298.993	-1175
299.050	-572
299.106	-157
299.162	-118
299.218	-451
299.275	146
299.331	-567
299.387	400
299.443	8153
299.500	9419
299.556	2160
299.612	690
299.668	-231
299.724	48
299.780	-581
299.837	-513
299.893	330
299.949	4944
300.005	7033
300.061	4782
300.117	12336
300.173	5958
300.229	1412
300.285	1172
300.341	1955
300.397	-30
300.453	-1208
300.510	-660
300.566	-1484
300.622	-386
300.678	454
300.734	3267
300.790	6573
300.845	9170
300.901	3717
300.957	4807
301.013	4326
301.069	619
301.125	97
301.181	-368
301.237	-159
301.293	-399
301.349	-187
301.405	-1040
301.461	-941
301.516	-933
301.572	132
301.628	87
301.684	13
301.740	1518
301.796	4853
301.851	2307
301.907	4033
301.963	3826
302.019	7480
302.074	27985
302.130	29551
302.186	13223
302.242	4155
302.297	2033
302.353	1233
302.409	4321
302.464	3149
302.520	1985
302.576	7390
302.631	10326
302.687	5187
302.743	1681
302.798	-281
302.854	-487
302.910	-61
302.965	-401
303.021	835
303.076	1309
303.132	1470
303.187	2110
303.243	1102
303.299	-135
303.354	-514
303.410	-784
303.465	-319
303.521	-511
303.576	-481
303.632	-61
303.687	1043
303.743	8553
303.798	8318
303.853	2128
303.909	-261
303.964	-42
304.020	482
304.075	1655
304.130	1137
304.186	2717
304.241	3365
304.297	2099
304.352	1236
304.358	1068
304.407	-299
304.449	52
304.463	173
304.518	220
304.539	-114
304.573	-664
304.629	-111
304.630	-96
304.684	631
304.720	4011
304.739	5699
304.794	9831
304.811	8296
304.850	4549
304.902	1512
304.905	1326
304.960	990
304.992	714
305.015	492
305.071	132
305.083	155
305.126	186
305.173	-233
305.181	-287
305.236	-936
305.264	-756
305.292	-644
305.347	-274
305.354	-197
305.402	401
305.445	324
305.457	283
305.512	609
305.535	780
305.567	1081
305.622	574
305.626	658
305.678	2587
305.716	6801
305.733	8300
305.788	10042
305.807	8596
305.843	6130
305.897	7727
305.898	7741
305.953	9170
305.988	6161
306.008	4504
306.063	1792
306.078	1503
306.118	920
306.168	36
306.173	-43
306.228	294
306.259	257
306.283	295
306.338	268
306.349	311
306.393	373
306.440	428
306.448	457
306.503	1023
306.530	709
306.558	782
306.613	3508
306.620	3812
306.668	5603
306.711	7971
306.723	8225
306.778	6906
306.801	4983
306.833	2802
306.888	1030
306.892	911
306.943	-11
306.982	65
306.997	73
307.052	791
307.072	568
307.107	477
307.162	1081
307.163	1089
307.217	2303
307.253	2901
307.272	3010
307.327	3364
307.343	3127
307.381	2554
307.434	1761
307.436	1815
307.491	4488
307.524	6811
307.546	7410
307.600	7861
307.614	7126
307.655	4363
307.704	1682
307.710	1627
307.765	1808
307.795	2730
307.819	3601
307.874	7225
307.885	7215
307.929	5410
307.975	4290
307.984	4483
308.038	6423
308.065	7639
308.093	13593
308.148	29078
308.156	33265
308.202	55438
308.246	69083
308.257	67260
308.312	36661
308.336	24253
308.366	17097
308.421	9831
308.426	9181
308.475	5837
308.517	4131
308.530	3679
308.585	3192
308.607	2984
308.639	3035
308.694	3784
308.697	3807
308.748	6461
308.787	9536
308.803	9425
308.857	7379
308.877	6091
308.912	5073
308.967	4876
308.967	4870
309.021	6804
309.058	8948
309.076	11398
309.130	19671
309.148	22879
309.185	44396
309.238	83670
309.239	83938
309.293	93097
309.328	84259
309.348	72128
309.402	33618
309.418	24103
309.457	16360
309.508	9799
309.511	9625
309.566	8262
309.598	8395
309.620	10029
309.674	15005
309.688	16354
309.729	14839
309.778	10966
309.783	10702
309.837	7149
309.868	5718
309.892	6440
309.946	8473
309.959	9344
310.001	12262
310.049	14639
310.055	14198
310.109	9013
310.139	5907
310.163	4816
310.218	2946
310.229	2639
310.272	2214
310.319	2051
310.326	2016
310.381	1536
310.409	1433
310.435	1427
310.489	1109
310.499	1129
310.543	1726
310.589	2034
310.598	2001
310.652	2003
310.679	1827
310.706	1540
310.760	1167
310.769	1083
310.814	971
310.859	921
310.868	957
310.923	1077
310.948	1194
310.977	1459
311.031	1945
311.038	1968
311.085	1491
311.128	1219
311.139	1238
311.193	1284
311.218	1256
311.247	1348
311.301	1496
311.308	1505
311.356	1671
311.398	1913
311.410	1935
311.464	1822
311.488	1801
311.518	1745
311.572	1612
311.578	1586
311.626	2222
311.668	2772
311.680	2781
311.734	2774
311.758	2745
311.788	2743
311.842	2728
311.847	2715
311.896	3072
311.937	3377
311.950	3334
312.004	3085
312.027	2957
312.058	2535
312.112	1784
312.117	1706
312.165	1719
312.207	1726
312.297	3012
312.386	2411
312.476	2069
312.566	3165
312.656	2339
312.745	2215
312.835	2961
312.925	2296
313.015	1668
313.104	1869
313.194	1849
313.284	1863
313.374	1997
313.463	2011
313.553	1674
313.643	1598
313.732	2206
313.822	1411
313.912	2146
314.001	1620
314.091	2355
314.180	2815
314.270	2934
314.360	2759
314.449	2290
314.539	1291
314.628	1715
314.718	1372
314.808	2591
314.897	1683
314.987	1876
315.076	1696
315.166	2244
315.255	2589
315.345	2207
315.434	1956
315.524	1906
315.613	1817
315.703	2174
315.792	2645
315.881	2999
315.971	1596
316.060	3699
316.150	5059
316.239	5941
316.328	2840
316.418	1438
316.507	923
316.597	2509
316.686	2112
316.775	2787
316.865	6516
316.954	1759
317.043	1697
317.133	1924
317.222	1883
317.311	1608
317.400	366
317.490	2358
317.579	1216
317.668	1117
317.757	1583
317.847	3683
317.936	3998
318.025	4295
318.114	1548
318.203	2652
318.293	3529
318.382	6904
318.471	4896
318.560	9030
318.649	21482
318.738	4793
318.828	2063
318.917	3092
319.006	3148
319.095	7833
319.184	24792
319.273	10854
319.362	5152
319.451	2242
319.540	1640
319.629	3738
319.718	4697
319.807	2742
319.896	7185
319.985	30689
320.074	8803
320.163	2453
320.252	3614
320.341	3661
320.430	2730
320.519	2746
320.608	2536
320.697	2346
320.786	1299
320.875	1915
320.964	2237
321.053	3497
321.142	4580
321.230	5497
321.319	4695
321.408	9399
321.497	4060
321.586	3825
321.675	4761
321.764	6593
321.852	3667
321.941	5797
322.030	2801
322.119	3769
322.207	9811
322.296	9467
322.385	3837
322.474	3953
322.562	10781
322.651	6177
322.740	3671
322.829	5838
322.917	7797
323.006	3505
323.095	3137
323.183	3295
323.272	5264
323.361	7684
323.449	27259
323.538	8497
323.626	17920
323.715	10426
323.804	4282
323.892	15935
323.981	7818
324.069	3297
324.158	9986
324.246	8377
324.335	2532
324.424	3653
324.512	1422
324.601	2951
324.689	5884
324.778	11694
324.866	5528
324.954	2307
325.043	1747
325.131	2937
325.220	7383
325.308	7896
325.397	5522
325.485	3746
325.574	1316
325.662	1450
325.750	1119
325.839	1822
325.927	1050
326.015	1034
326.104	2853
326.192	3760
326.280	1179
326.369	1434
326.457	1521
326.545	3774
326.634	1571
326.722	2075
326.810	1449
326.898	1380
326.987	917
327.075	2354
327.163	3654
327.251	2204
327.340	4529
327.428	7404
327.516	1198
327.604	2051
327.692	1507
327.781	2169
327.869	2138
327.957	1428
328.045	1519
328.133	2359
328.221	1579
328.309	1576
328.397	843
328.485	1344
328.574	1559
328.662	5465
328.750	4351
328.838	1644
328.926	1316
329.014	1372
329.102	1196
329.190	6328
329.278	2833
329.366	1177
329.454	780
329.542	1515
329.630	765
329.718	1522
329.806	833
329.893	1560
329.981	800
330.069	1124
330.157	2911
330.245	5148
330.333	2394
330.421	922
330.509	2129
330.597	6387
330.684	4847
330.772	2872
330.860	3823
330.948	5504
331.036	2262
331.123	1161
331.211	1269
331.299	2134
331.387	4240
331.475	7983
331.562	1472
331.650	1291
331.738	576
331.825	2198
331.913	1182
332.001	336
332.089	1939
332.176	3473
332.264	9544
332.352	5890
332.439	1477
332.527	1656
332.614	1073
332.702	2248
332.790	1688
332.877	3552
332.965	9038
333.052	2435
333.140	2169
333.228	6101
333.315	1767
333.403	2269
333.490	5288
333.578	4658
333.665	6725
333.753	2447
333.840	1251
333.928	1599
334.015	5291
334.103	8516
334.190	31622
334.278	7840
334.365	2494
334.452	1399
334.540	1163
334.627	1834
334.715	2414
334.802	5522
334.889	31660
334.977	30156
335.064	4393
335.151	2950
335.239	2756
335.326	3545
335.413	16449
335.501	21728
335.588	2696
335.675	1596
335.762	2035
335.850	4647
335.937	1926
336.024	7286
336.111	34789
336.199	12752
336.286	1088
336.373	1910
336.460	955
336.547	1683
336.635	2101
336.722	1384
336.809	1278
336.896	2071
336.983	8057
337.070	22483
337.157	34694
337.245	21801
337.332	14105
337.419	1943
337.506	1583
337.593	2412
337.680	7227
337.767	23752
337.854	5192
337.941	6748
338.028	7620
338.115	2393
338.202	4022
338.289	5842
338.376	20865
338.463	6620
338.550	13047
338.637	14184
338.724	3811
338.811	6835
338.898	1527
338.984	1172
339.071	1373
339.158	1739
339.245	3408
339.332	2646
339.419	4560
339.506	4262
339.593	610
339.679	2070
339.766	358
339.853	1682
339.940	2486
340.027	1152
340.113	94
340.200	1173
340.287	1626
340.374	1157
340.460	2261
340.547	444
340.634	2383
340.720	7177
340.807	4051
340.894	1108
340.980	606
341.067	247
341.154	1392
341.240	1082
341.327	3025
341.414	1555
341.500	1608
341.587	1327
341.674	1114
341.760	2587
341.847	2246
341.933	1091
342.020	-628
342.106	950
342.193	298
342.279	2032
342.366	706
342.452	2747
342.539	798
342.625	3179
342.712	6827
342.798	3228
342.885	1149
342.971	615
343.058	454
343.144	1187
343.230	804
343.317	1698
343.403	164
343.490	437
343.576	173
343.662	194
343.749	755
343.835	596
343.921	2855
344.008	19199
344.094	42073
344.180	8523
344.267	3368
344.353	10928
344.439	12184
344.525	4542
344.612	7078
344.698	6385
344.784	3174
344.870	1767
344.957	882
345.043	1841
345.129	409
345.215	2589
345.301	1651
345.387	1614
345.474	887
345.560	843
345.646	1120
345.732	1386
345.818	1439
345.904	1469
345.990	937
346.076	1387
346.162	2869
346.249	1520
346.335	1425
346.421	2705
346.507	5206
346.593	17118
346.679	3228
346.765	2438
346.851	-113
346.937	-138
347.023	1710
347.108	1066
347.194	926
347.280	1536
347.366	996
347.452	4617
347.538	19684
347.624	15212
347.710	11828
347.796	1674
347.882	1443
347.967	2027
348.053	2110
348.139	472
348.225	1102
348.311	389
348.397	688
348.482	1092
348.568	1191
348.654	-15
348.740	201
348.825	49
348.911	2100
348.997	9388
349.083	18236
349.168	3095
349.254	1394
349.340	1188
349.425	312
349.511	727
349.597	1199
349.682	2353
349.768	10569
349.854	5226
349.939	1414
350.025	396
350.110	1421
350.196	1350
350.282	-60
350.367	1009
350.453	1472
350.538	1928
350.624	975
350.709	2417
350.795	235
350.880	294
350.966	1913
351.051	1960
351.137	1790
351.222	1051
351.308	2993
351.393	8784
351.479	2151
351.564	208
351.649	1086
351.735	1532
351.820	43
351.906	994
351.991	677
352.076	5981
352.162	8186
352.247	1619
352.332	848
352.418	1667
352.503	2564
352.588	13580
352.673	7975
352.759	1992
352.844	722
352.929	1232
353.014	882
353.100	1477
353.185	1431
353.270	1851
353.355	2498
353.441	1792
353.526	568
353.611	2194
353.696	1279
353.781	2005
353.866	-27
353.952	1015
354.037	1302
354.122	5349
354.207	4017
354.292	1818
354.377	1255
354.462	1681
354.547	622
354.632	1071
354.717	1940
354.802	1636
354.887	474
354.972	1116
355.057	853
355.142	268
355.227	887
355.312	1972
355.397	3019
355.482	7899
355.567	3989
355.652	2880
355.737	2723
355.822	11717
355.907	9183
355.991	2115
356.076	1020
356.161	2233
356.246	1190
356.331	1403
356.416	1804
356.501	22115
356.585	22121
356.670	2287
356.755	3325
356.840	2537
356.924	12369
357.009	47383
357.094	17071
357.179	2608
357.263	1945
357.348	2961
357.433	2411
357.517	2984
357.602	1356
357.687	1521
357.771	3149
357.856	12349
357.941	6835
358.025	11617
358.110	49257
358.195	21878
358.279	2935
358.364	2202
358.448	7018
358.533	21106
358.617	14490
358.702	15693
358.787	5682
358.871	2413
358.956	2462
359.040	1200
359.125	440
359.209	1489
359.294	5571
359.378	10430
359.462	2991
359.547	1617
359.631	427
359.716	834
359.800	884
359.885	2481
359.969	220
360.053	1702
360.138	956
360.222	1950
360.306	2526
360.391	2468
360.475	4982
360.559	10938
360.644	6606
360.728	4260
360.812	10343
360.896	33413
360.981	11221
361.065	5554
361.149	2353
361.233	1535
361.318	388
361.402	959
361.486	1883
361.570	462
361.654	1205
361.739	3287
361.823	19028
361.907	32489
361.991	4563
362.075	1881
362.159	2846
362.243	2673
362.327	1812
362.411	4363
362.495	1996
362.580	1147
362.664	1025
362.748	548
362.832	1317
362.916	1256
363.000	5970
363.084	20737
363.168	36622
363.252	6965
363.336	2526
363.420	4001
363.503	21822
363.587	27409
363.671	3078
363.755	1291
363.839	3310
363.923	776
364.007	2605
364.091	2851
364.175	5867
364.258	37260
364.342	17467
364.426	10814
364.510	3816
364.594	4675
364.677	6356
364.761	27214
364.845	19728
364.929	4415
365.013	3280
365.096	3346
365.180	2693
365.264	8200
365.347	39587
365.431	16534
365.515	3023
365.598	178
365.682	1939
365.766	3027
365.849	4004
365.933	1408
366.017	3129
366.100	2410
366.184	288
366.267	2368
366.351	758
366.435	593
366.518	452
366.602	951
366.685	-133
366.769	1506
366.852	3132
366.936	4039
367.019	1998
367.103	1761
367.186	5483
367.270	1336
367.353	25
367.436	1562
367.520	349
367.603	583
367.687	378
367.770	1996
367.853	2274
367.937	8217
368.020	14234
368.104	1876
368.187	2754
368.270	4474
368.353	3236
368.437	5090
368.520	12944
368.603	7145
368.687	7773
368.770	16977
368.853	4604
368.936	3994
369.020	4496
369.103	1397
369.186	362
369.269	590
369.352	2711
369.436	3083
369.519	2354
369.602	-606
369.685	2717
369.768	652
369.851	986
369.934	177
370.018	1075
370.101	671
370.184	4326
370.267	2511
370.350	2650
370.433	4408
370.516	15081
370.599	18508
370.682	2737
370.765	8950
370.848	11147
370.931	21850
371.014	9530
371.097	1717
371.180	1932
371.263	970
371.346	-488
371.429	2084
371.511	670
371.594	1565
371.677	4026
371.760	5943
371.843	3673
371.926	18700
372.009	42789
372.091	15509
372.174	8429
372.257	24303
372.340	8492
372.423	5961
372.505	9647
372.588	3902
372.671	5999
372.754	19630
372.836	10226
372.919	10367
373.002	21672
373.085	5299
373.167	4049
373.250	8163
373.332	21110
373.415	28216
373.498	55580
373.580	19352
373.663	24242
373.746	34659
373.828	6602
373.911	3965
373.993	3369
374.076	20709
374.159	19091
374.241	6055
374.324	15616
374.406	11575
374.489	16856
374.571	48352
374.654	18822
374.736	9123
374.819	29598
374.901	41012
374.983	41136
375.066	7844
375.148	2451
375.231	15670
375.313	33553
375.395	9795
375.478	1748
375.560	1624
375.643	2220
375.725	7426
375.807	35772
375.890	30742
375.972	10620
376.054	5499
376.136	10119
376.219	3955
376.301	9661
376.383	30253
376.465	11125
376.548	5484
376.630	6940
376.712	25783
376.794	11559
376.877	1209
376.959	85
377.041	1183
377.123	3771
377.205	5073
377.287	770
377.369	1648
377.452	841
377.534	-187
377.616	596
377.698	495
377.780	22
377.862	1138
377.944	1377
378.026	398
378.108	844
378.190	549
378.272	668
378.354	578
378.436	479
378.518	1361
378.600	6541
378.682	5410
378.764	10698
378.846	9897
378.928	2492
379.010	2731
379.091	1535
379.173	1300
379.255	96
379.337	796
379.419	4940
379.501	17593
379.583	6151
379.664	627
379.746	2214
379.828	11625
379.910	14184
379.991	14033
380.073	1468
380.155	1533
380.237	-462
380.318	-214
380.400	955
380.482	2576
380.564	2987
380.645	2345
380.727	2046
380.809	2342
380.890	986
380.972	491
381.053	1013
381.135	1444
381.217	2932
381.298	11744
381.380	5001
381.461	4810
381.543	23149
381.624	30127
381.706	5185
381.787	2444
381.869	3001
381.951	11462
382.032	43445
382.113	28881
382.195	3528
382.276	4011
382.358	6357
382.439	23079
382.521	26478
382.602	42744
382.684	17253
382.765	28966
382.846	33401
382.928	53211
383.009	29491
383.090	16744
383.172	73565
383.253	121071
383.334	38997
383.416	36245
383.497	19063
383.578	7708
383.659	13426
383.741	60554
383.822	174295
383.903	86309
383.984	23882
384.066	41673
384.147	23994
384.228	5268
384.309	3593
384.390	2322
384.471	1678
384.553	2155
384.634	2611
384.715	3633
384.796	1367
384.877	2134
384.958	10460
385.039	11991
385.120	4285
385.201	2233
385.282	2422
385.363	3552
385.444	2317
385.525	4456
385.606	18583
385.687	17010
385.768	3626
385.849	3939
385.930	20591
386.011	38187
386.092	8678
386.173	2275
386.254	716
386.335	2879
386.416	1031
386.496	6584
386.577	11430
386.658	4356
386.739	1233
386.820	3401
386.901	1967
386.981	2102
387.062	355
387.143	1214
387.224	10554
387.304	10921
387.385	3437
387.466	864
387.547	3620
387.627	1623
387.708	3395
387.789	20450
387.869	27241
387.950	8109
388.031	553
388.111	-496
388.192	4526
388.273	8025
388.353	3275
388.434	1600
388.514	3133
388.595	22262
388.676	28545
388.756	11354
388.837	9406
388.917	5114
388.998	-534
389.078	2029
389.159	483
389.239	-629
389.320	2097
389.400	-205
389.480	5249
389.561	14383
389.641	8064
389.722	1853
389.802	2163
389.883	6108
389.963	17711
390.043	11131
390.124	2085
390.204	4365
390.284	11892
390.365	6524
390.445	13487
390.525	39024
390.605	31764
390.686	7512
390.766	3020
390.846	2576
390.927	91
391.007	-640
391.087	1550
391.167	741
391.247	-956
391.328	2071
391.408	4545
391.488	3539
391.568	-656
391.648	1135
391.728	1832
391.808	2675
391.888	1361
391.969	7103
392.049	11395
392.129	6478
392.209	5400
392.289	16867
392.369	8366
392.449	9332
392.529	4486
392.609	2725
392.689	3609
392.769	15251
392.849	11732
392.929	8523
393.009	21368
393.089	13878
393.169	6602
393.248	20014
393.328	114183
393.408	129309
393.488	23185
393.568	5474
393.648	2790
393.728	1666
393.807	1054
393.887	2662
393.967	1297
394.047	3261
394.127	3452
394.206	7459
394.286	30687
394.366	142390
394.446	155505
394.525	33252
394.605	7435
394.685	5549
394.764	13703
394.844	22201
394.924	14545
395.003	3115
395.083	2475
395.163	2466
395.242	1725
395.322	3174
395.402	765
395.481	3240
395.561	7564
395.640	24263
395.720	15619
395.799	27144
395.879	22770
395.958	11865
396.038	47204
396.117	186523
396.197	203278
396.276	56864
396.356	15769
396.435	11061
396.515	6419
396.594	4451
396.673	6710
396.753	28713
396.832	112458
396.912	84180
396.991	16098
397.070	4658
397.150	901
397.229	2118
397.308	1350
397.388	2521
397.467	1485
397.546	1493
397.625	-869
397.705	2501
397.784	1302
397.863	808
397.942	149
398.022	1543
398.101	6730
398.180	23792
398.259	12165
398.338	3059
398.417	619
398.497	709
398.576	1237
398.655	-159
398.734	203
398.813	555
398.892	6729
398.971	26777
399.050	11828
399.129	675
399.208	647
399.287	908
399.366	36
399.445	803
399.524	1409
399.603	-416
399.682	1490
399.761	5770
399.840	27426
399.919	22474
399.998	2120
400.077	300
400.156	-417
400.235	2799
400.313	208
400.392	531
400.471	5236
400.550	9203
400.629	898
400.708	1003
400.786	831
400.865	5011
400.944	5428
401.023	3389
401.102	-325
401.180	67
401.259	785
401.338	1079
401.416	1301
401.495	616
401.574	984
401.652	145
401.731	962
401.810	-219
401.888	369
401.967	-398
402.046	-290
402.124	1085
402.203	105
402.281	844
402.360	489
402.438	6538
402.517	3526
402.596	1200
402.674	947
402.753	529
402.831	174
402.910	1006
402.988	1804
403.066	6027
403.145	3830
403.223	3110
403.302	3497
403.380	2899
403.459	1536
403.537	122
403.615	474
403.694	-981
403.772	1171
403.850	585
403.929	-35
404.007	129
404.085	1374
404.164	944
404.242	1994
404.320	9852
404.398	37297
404.477	33810
404.555	38186
404.633	36044
404.711	28073
404.789	18530
404.868	2326
404.946	419
405.024	340
405.102	370
405.180	-168
405.258	-874
405.336	337
405.415	40
405.493	775
405.571	1206
405.649	-394
405.727	-859
405.805	1803
405.883	948
405.961	1753
406.039	1651
406.117	-933
406.195	1381
406.273	4730
406.351	25756
406.429	16385
406.507	2405
406.585	570
406.663	765
406.740	318
406.818	203
406.896	-9
406.974	1163
407.052	615
407.130	13753
407.208	21303
407.285	4622
407.363	200
407.441	739
407.519	557
407.596	3133
407.674	20640
407.752	92497
407.830	73619
407.907	11881
407.985	839
408.063	1008
408.141	544
408.218	2074
408.296	22
408.373	267
408.451	359
408.529	22
408.606	-438
408.684	-134
408.762	-216
408.839	-385
408.917	88
408.994	338
409.072	-743
409.149	-437
409.227	1083
409.304	552
409.382	-521
409.459	-525
409.537	516
409.614	116
409.692	-624
409.769	-298
409.846	111
409.924	1330
410.001	-1544
410.079	432
410.156	571
410.233	429
410.311	-103
410.388	172
410.465	850
410.543	-292
410.620	120
410.697	499
410.775	-456
410.852	-1386
410.929	457
411.006	138
411.083	-546
411.161	893
411.238	2082
411.315	368
411.392	-407
411.469	689
411.547	231
411.624	-1049
411.701	-604
411.778	742
411.855	737
411.932	26
412.009	-659
412.086	696
412.163	245
412.240	142
412.317	626
412.394	58
412.471	368
412.548	-1173
412.625	-506
412.702	283
412.779	94
412.856	1277
412.933	-1396
413.010	-163
413.087	18
413.164	4018
413.241	6727
413.318	585
413.395	797
413.471	-22
413.548	228
413.625	363
413.702	-595
413.779	348
413.855	33
413.932	-788
414.009	-1090
414.086	392
414.162	-78
414.239	256
414.316	3986
414.393	11216
414.469	2783
414.546	-222
414.623	-155
414.699	452
414.776	-35
414.853	-731
414.929	-204
415.006	-296
415.082	-593
415.159	268
415.236	117
415.312	-289
415.389	509
415.465	473
415.542	232
415.618	-830
415.695	-282
415.771	-752
415.848	-514
415.924	921
416.000	46
416.077	737
416.153	-679
416.230	-719
416.306	-775
416.383	-372
416.459	-217
416.535	-1091
416.612	-630
416.688	60
416.764	-358
416.841	-917
416.917	-1065
416.993	491
417.069	25
417.146	505
417.222	1343
417.298	508
417.374	-513
417.451	237
417.527	-514
417.603	-360
417.679	438
417.755	-84
417.831	-630
417.908	-384
417.984	-1038
418.060	-1440
418.136	408
418.212	1267
418.288	286
418.364	96
418.440	-875
418.516	954
418.592	711
418.668	2266
418.744	1222
418.820	1733
418.896	250
418.972	-972
419.048	-644
419.124	1653
419.200	-834
419.276	144
419.352	-679
419.428	-167
419.504	-156
419.579	-179
419.655	-590
419.731	-493
419.807	234
419.883	1780
419.959	1692
420.034	503
420.110	744
420.186	6773
420.262	5057
420.337	864
420.413	-174
420.489	19
420.565	-530
420.640	-353
420.716	-23
420.792	-1166
420.867	490
420.943	-93
421.019	606
421.094	380
421.170	460
421.245	-281
421.321	203
421.397	1812
421.472	16949
421.548	66989
421.623	39241
421.699	3818
421.774	440
421.850	-866
421.925	916
422.001	601
422.076	319
422.152	-111
422.227	1044
422.302	2224
422.378	2534
422.453	4319
422.529	13539
422.604	59987
422.679	133884
422.755	71135
422.830	14959
422.905	5100
422.981	1527
423.056	1819
423.131	1376
423.207	433
423.282	-29
423.357	1950
423.432	-289
423.508	1596
423.583	1892
423.658	1568
423.733	751
423.808	480
423.883	7
423.959	704
424.034	-255
424.109	418
424.184	-729
424.259	-786
424.334	-737
424.409	-635
424.484	-328
424.559	-75
424.634	-1066
424.709	-341
424.784	462
424.859	-71
424.934	-168
425.009	3869
425.084	7384
425.159	2860
425.234	6
425.309	-1080
425.384	3005
425.459	5435
425.534	1167
425.609	-220
425.683	-567
425.758	-304
425.833	-779
425.908	802
425.983	1599
426.058	7645
426.132	2772
426.207	301
426.282	1739
426.357	902
426.431	-685
426.506	-90
426.581	-777
426.655	-406
426.730	-453
426.805	-389
426.879	-39
426.954	23
427.029	813
427.103	8254
427.178	22513
427.253	9512
427.327	1194
427.402	1448
427.476	6931
427.551	2506
427.625	317
427.700	525
427.774	-562
427.849	425
427.923	-710
427.998	-203
428.072	-1510
428.147	1378
428.221	4151
428.296	12884
428.370	5825
428.444	65
428.519	411
428.593	3645
428.667	3902
428.742	4790
428.816	3362
428.890	9896
428.965	16686
429.039	6242
429.113	4913
429.188	1677
429.262	-271
429.336	-421
429.410	2972
429.485	1577
429.559	3381
429.633	2632
429.707	-13
429.781	2049
429.855	11668
429.930	17767
430.004	11937
430.078	22785
430.152	18791
430.226	20519
430.300	21121
430.374	2190
430.448	985
430.522	7061
430.596	22588
430.670	12989
430.744	17865
430.818	30830
430.892	6031
430.966	-695
431.040	573
431.114	-1093
431.188	-382
431.262	-485
431.336	-434
431.410	1325
431.484	4426
431.557	3855
431.631	86
431.705	-74
431.779	1646
431.853	10581
431.927	7500
432.000	224
432.074	-216
432.148	293
432.222	-628
432.295	-253
432.369	-826
432.443	137
432.516	8296
432.590	24397
432.664	8165
432.737	89
432.811	-1321
432.885	-1083
432.958	-945
433.032	-582
433.106	-695
433.179	-562
433.253	-35
433.326	-705
433.400	-1301
433.473	-96
433.547	-690
433.620	-457
433.694	457
433.767	280
433.841	-766
433.914	186
433.988	-551
434.061	-676
434.134	-639
434.208	-446
434.281	-1388
434.355	-372
434.428	-532
434.501	-991
434.575	-754
434.648	-978
434.721	-982
434.795	-862
434.868	-1237
434.941	-557
435.014	-1541
435.088	-90
435.161	105
435.234	689
435.307	-555
435.381	-707
435.454	-691
435.527	-272
435.600	-1223
435.673	-149
435.746	-399
435.819	-938
435.892	-970
435.966	-788
436.039	-928
436.112	-318
436.185	-84
436.258	-1031
436.331	-963
436.404	-629
436.477	-1289
436.550	-1164
436.623	-1047
436.696	-502
436.769	-632
436.842	-215
436.915	-773
436.987	699
437.060	-984
437.133	-570
437.206	-1542
437.279	443
437.352	-459
437.425	-388
437.498	-367
437.570	1190
437.643	572
437.716	-665
437.789	-248
437.861	-42
437.934	1745
438.007	1268
438.080	-212
438.152	-348
438.225	624
438.298	11676
438.370	37568
438.443	15335
438.516	1651
438.588	-96
438.661	-1203
438.734	-386
438.806	-571
438.879	-448
438.951	-191
439.024	303
439.096	-236
439.169	-756
439.241	-624
439.314	-529
439.386	-396
439.459	569
439.531	810
439.604	55
439.676	-92
439.749	-286
439.821	-750
439.893	-15
439.966	-822
440.038	-14
440.110	-591
440.183	-125
440.255	-532
440.327	420
440.400	4435
440.472	22002
440.544	14847
440.617	1377
440.689	630
440.761	654
440.833	1397
440.905	1126
440.978	-1358
441.050	-326
441.122	-217
441.194	-1244
441.266	-569
441.338	-537
441.411	219
441.483	4822
441.555	9144
441.627	1733
441.699	594
441.771	890
441.843	-582
441.915	-840
441.987	-780
442.059	-117
442.131	-363
442.203	547
442.275	290
442.347	338
442.419	288
442.491	2111
442.563	9656
442.635	5020
442.706	5103
442.778	4509
442.850	-485
442.922	-1685
442.994	-491
443.066	462
443.137	-743
443.209	-477
443.281	214
443.353	223
443.425	5199
443.496	20595
443.568	19530
443.640	6354
443.711	255
443.783	358
443.855	119
443.926	-672
443.998	-417
444.070	1028
444.141	248
444.213	211
444.285	276
444.356	426
444.428	-179
444.499	-831
444.571	-1174
444.642	-192
444.714	-342
444.785	137
444.857	922
444.928	3753
445.000	1676
445.071	2634
445.143	2491
445.214	1248
445.285	2066
445.357	7365
445.428	16245
445.500	39752
445.571	24101
445.642	9456
445.714	5554
445.785	7477
445.856	204
445.928	595
445.999	734
446.070	440
446.141	-170
446.213	1122
446.284	-317
446.355	176
446.426	192
446.497	32
446.569	7
446.640	389
446.711	200
446.782	107
446.853	6
446.924	549
446.995	-309
447.066	-21
447.138	618
447.209	282
447.280	-1142
447.351	-241
447.422	-1106
447.493	20
447.564	-67
447.635	13
447.706	-351
447.777	-873
447.847	-823
447.918	-709
447.989	224
448.060	692
448.131	2479
448.202	1808
448.273	912
448.344	525
448.414	-237
448.485	-218
448.556	-312
448.627	-742
448.698	331
448.768	-352
448.839	-337
448.910	566
448.981	754
449.051	-345
449.122	-686
449.193	-458
449.263	-859
449.334	-509
449.405	250
449.475	1623
449.546	625
449.616	1194
449.687	1458
449.758	279
449.828	-246
449.899	-777
449.969	-431
450.040	-1065
450.110	605
450.181	630
450.251	-65
450.322	-455
450.392	-253
450.463	72
450.533	-592
450.604	199
450.674	-590
450.744	51
450.815	-288
450.885	-474
450.955	-466
451.026	-855
451.096	-1134
451.166	-203
451.237	2049
451.307	5723
451.377	2066
451.447	-224
451.518	-310
451.588	528
451.658	348
451.728	942
451.799	5118
451.869	7595
451.939	773
452.009	-756
452.079	69
452.149	-631
452.219	952
452.289	6362
452.360	4989
452.430	731
452.500	-275
452.570	292
452.640	1284
452.710	3174
452.780	6366
452.850	3116
452.920	2445
452.990	1046
453.060	807
453.129	607
453.199	1198
453.269	7363
453.339	18681
453.409	30046
453.479	26621
453.549	41119
453.619	42534
453.688	19729
453.758	2280
453.828	-252
453.898	130
453.968	-238
454.037	557
454.087	327
454.107	230
454.168	-818
454.177	-980
454.247	344
454.249	328
454.316	-260
454.330	-206
454.386	-30
454.411	961
454.456	2500
454.492	3612
454.525	4627
454.574	2277
454.595	1255
454.655	39
454.665	-153
454.734	259
454.736	296
454.804	1001
454.817	1873
454.873	5177
454.898	5968
454.943	7352
454.979	4698
455.013	2334
455.060	958
455.082	395
455.141	723
455.152	795
455.221	4923
455.222	5017
455.291	10003
455.303	10481
455.360	12250
455.384	17296
455.430	25260
455.465	20120
455.499	15616
455.546	9712
455.569	6911
455.627	4437
455.638	4020
455.707	862
455.708	865
455.777	162
455.789	140
455.846	98
455.869	213
455.916	508
455.950	591
455.985	559
456.031	442
456.054	403
456.112	-375
456.124	-526
456.193	49
456.193	41
456.262	379
456.274	523
456.332	1161
456.355	1083
456.401	786
456.436	901
456.470	1009
456.516	183
456.540	-177
456.597	37
456.609	59
456.678	-2
456.678	-6
456.747	-476
456.759	-421
456.817	-22
456.840	75
456.886	103
456.920	-461
456.955	-969
457.001	-503
457.024	-229
457.082	393
457.093	481
457.162	1398
457.163	1407
457.232	1042
457.243	987
457.301	450
457.324	137
457.370	-181
457.405	185
457.439	474
457.485	-216
457.508	-472
457.566	240
457.577	343
457.646	452
457.647	460
457.715	954
457.727	913
457.784	670
457.808	817
457.853	1183
457.889	1823
457.922	2137
457.969	1505
457.991	1359
458.050	1511
458.060	1490
458.129	2506
458.130	2509
458.198	1994
458.211	1904
458.267	1409
458.292	928
458.336	546
458.372	676
458.405	783
458.453	701
458.474	691
458.533	1957
458.543	2146
458.611	3984
458.614	4006
458.680	2773
458.694	2225
458.749	994
458.775	706
458.818	340
458.855	703
458.887	929
458.936	745
458.955	666
459.016	309
459.024	299
459.093	1606
459.097	1593
459.162	1001
459.177	979
459.230	942
459.257	1077
459.299	1292
459.338	1271
459.368	1224
459.418	1400
459.437	1411
459.499	1430
459.505	1457
459.574	1134
459.579	1158
459.643	1260
459.659	1203
459.711	1138
459.740	1321
459.780	1463
459.820	1253
459.849	1147
459.900	1424
459.917	1510
459.981	1828
459.986	1839
460.054	1626
460.061	1663
460.123	2245
460.141	2345
460.191	2670
460.222	2809
460.260	3030
460.302	3532
460.328	3672
460.382	3570
460.397	3681
460.462	4776
460.465	5085
460.534	12053
460.543	13137
460.602	37291
460.623	47324
460.671	75123
460.703	105225
460.739	103360
460.783	86638
460.808	77747
460.864	23320
460.876	17064
460.944	5725
460.945	5597
461.013	3543
461.024	3299
461.081	2305
461.104	2206
461.150	1974
461.184	1821
461.218	1940
461.264	1912
461.286	1782
461.345	1531
461.355	1515
461.423	1555
461.425	1559
461.491	1896
461.505	1987
461.559	3206
461.585	3577
461.628	5251
461.665	7507
461.696	8187
461.745	9938
461.764	9227
461.825	3940
461.832	3788
461.901	2131
461.905	2119
461.969	1304
461.985	1128
462.037	1823
462.065	2325
462.105	2188
462.145	1666
462.173	2452
462.225	4159
462.241	4397
462.305	6181
462.310	6059
462.378	3967
462.385	3526
462.446	1795
462.465	1494
462.514	1428
462.545	1541
462.582	1632
462.625	1765
462.650	1758
462.705	1663
462.718	1631
462.785	1174
462.786	1191
462.854	2610
462.865	2799
462.922	2877
462.945	3106
462.990	2752
463.025	2051
463.058	1900
463.104	1602
463.126	1372
463.184	1332
463.194	1389
463.262	1058
463.264	1070
463.330	1790
463.344	1896
463.398	2799
463.424	3103
463.466	2203
463.504	1678
463.533	1903
463.583	1916
463.601	2036
463.663	2590
463.669	2584
463.737	2601
463.743	2600
463.805	4159
463.823	4638
463.873	6929
463.903	8380
463.940	8618
463.982	9361
464.008	7941
464.062	3668
464.076	3581
464.142	2678
464.144	2640
464.211	1902
464.221	1852
464.279	2077
464.301	2011
464.347	2007
464.381	2278
464.414	2483
464.461	2555
464.482	2684
464.540	3093
464.550	3010
464.617	2190
464.620	2167
464.685	2521
464.699	2540
464.753	3391
464.779	3903
464.820	4287
464.859	4833
464.888	4663
464.938	3997
464.956	4107
465.018	4485
465.023	4453
465.091	3938
465.098	3872
465.158	3614
465.177	3627
465.226	3702
465.257	3647
465.293	3413
465.336	3082
465.361	3481
465.416	4397
465.428	4722
465.495	6612
465.496	6641
465.563	9458
465.575	10005
465.631	11701
465.654	12498
465.698	8413
465.734	4575
465.765	4284
465.813	3728
465.833	3667
465.893	3945
465.900	3870
465.968	3067
465.972	3008
466.035	2998
466.052	2981
466.102	3205
466.131	3368
466.170	3201
466.210	2991
466.237	3165
466.290	3482
466.304	3524
466.369	3621
466.372	3623
466.439	3569
466.449	3541
466.506	3813
466.528	3936
466.573	5143
466.607	6015
466.641	8752
466.687	12543
466.708	13701
466.766	17038
466.775	15752
466.842	5775
466.845	5291
466.909	4431
466.925	4272
466.977	3933
467.004	3776
467.044	3941
467.083	4113
467.111	4607
467.163	5502
467.178	5833
467.242	7188
467.245	7165
467.312	6483
467.321	6387
467.379	6099
467.400	5979
467.446	6116
467.480	6204
467.559	5882
467.638	5960
467.717	5589
467.796	6438
467.875	4607
467.955	5091
468.034	8306
468.113	16124
468.192	22169
468.271	6296
468.350	3779
468.429	4522
468.508	4477
468.588	3935
468.667	3960
468.746	4434
468.825	5177
468.904	4384
468.983	4985
469.062	6750
469.141	8144
469.220	4080
469.299	4112
469.378	5043
469.456	7156
469.535	5415
469.614	4586
469.693	5615
469.772	6549
469.851	7774
469.930	6829
470.009	4817
470.088	5054
470.166	6766
470.245	8242
470.324	9781
470.403	6247
470.482	4794
470.560	4645
470.639	4289
470.718	5012
470.797	4942
470.875	5317
470.954	6554
471.033	6965
471.111	4238
471.190	3709
471.269	4096
471.347	3088
471.426	4430
471.505	4961
471.583	4063
471.662	4851
471.740	4905
471.819	4465
471.898	4606
471.976	4926
472.055	5114
472.133	7252
472.212	10629
472.290	6443
472.369	4375
472.447	4197
472.526	3860
472.604	4091
472.683	3949
472.761	4270
472.839	4124
472.918	4148
472.996	3788
473.075	4877
473.153	4922
473.231	3488
473.310	3892
473.388	4506
473.466	3715
473.545	5425
473.623	5904
473.701	5208
473.780	4298
473.858	2919
473.936	5148
474.014	3354
474.093	6648
474.171	10209
474.249	9618
474.327	4727
474.405	3469
474.484	3195
474.562	3434
474.640	3730
474.718	3473
474.796	3148
474.874	3719
474.952	3281
475.030	3480
475.108	2789
475.187	3570
475.265	2812
475.343	4069
475.421	4122
475.499	4224
475.577	3148
475.655	5483
475.733	8061
475.811	14154
475.889	12594
475.966	7937
476.044	3038
476.122	3469
476.200	3516
476.278	3982
476.356	3130
476.434	4073
476.512	4269
476.590	4188
476.667	4355
476.745	3617
476.823	3295
476.901	3150
476.979	3411
477.056	4759
477.134	4253
477.212	3531
477.290	3594
477.367	3180
477.445	3232
477.523	2683
477.601	3600
477.678	3297
477.756	3169
477.834	3980
477.911	3026
477.989	3903
478.066	2632
478.144	3134
478.222	3244
478.299	4431
478.377	5995
478.454	6785
478.532	3068
478.609	3300
478.687	3495
478.764	2183
478.842	2826
478.919	3299
478.997	3552
479.074	2420
479.152	3318
479.229	4306
479.307	2845
479.384	2720
479.461	2691
479.539	2403
479.616	3608
479.694	2911
479.771	2637
479.848	3431
479.926	3420
480.003	5044
480.080	2738
480.157	2744
480.235	3140
480.312	3850
480.389	3245
480.467	4960
480.544	6435
480.621	3383
480.698	3026
480.775	3377
480.853	3360
480.930	2821
481.007	4688
481.084	10107
481.161	19396
481.238	10135
481.315	2867
481.392	3301
481.470	1441
481.547	3140
481.624	2070
481.701	3048
481.778	2810
481.855	3275
481.932	4883
482.009	7081
482.086	5132
482.163	2227
482.240	2542
482.317	2817
482.393	2949
482.470	2727
482.547	2786
482.624	2390
482.701	3584
482.778	3166
482.855	2446
482.932	2218
483.009	2891
483.085	5676
483.162	12083
483.239	10136
483.316	2014
483.393	3368
483.469	2349
483.546	3488
483.623	3424
483.699	2398
483.776	2688
483.853	3471
483.930	4294
484.006	11112
484.083	20467
484.160	12306
484.236	20748
484.313	15900
484.389	10420
484.466	11343
484.543	9437
484.619	9455
484.696	10842
484.772	10295
484.849	10718
484.925	8380
485.002	8281
485.078	9470
485.155	10110
485.231	8851
485.308	7989
485.384	8382
485.461	11553
485.537	15510
485.614	16161
485.690	7981
485.766	7923
485.843	7875
485.919	10205
485.995	10540
486.072	7503
486.148	8164
486.224	8450
486.301	8412
486.377	8916
486.453	8411
486.530	9756
486.606	11473
486.682	12221
486.758	14345
486.835	16559
486.911	13039
486.987	18232
487.063	18805
487.139	22903
487.215	24352
487.292	15964
487.368	8895
487.444	9762
487.520	14023
487.596	17343
487.672	14728
487.748	14105
487.824	16296
487.900	9745
487.976	7960
488.052	7911
488.128	9816
488.204	7369
488.280	7986
488.356	8745
488.432	15038
488.508	21561
488.584	8577
488.660	6512
488.736	7273
488.812	7253
488.888	9561
488.964	10992
489.039	19257
489.115	27869
489.191	18044
489.267	7875
489.343	6977
489.418	6479
489.494	7312
489.570	4858
489.646	7204
489.722	5872
489.797	5456
489.873	8798
489.949	16544
490.024	13120
490.100	5604
490.176	6058
490.251	6751
490.327	7101
490.403	5037
490.478	5669
490.554	5490
490.629	5488
490.705	4807
490.781	6121
490.856	5031
490.932	6133
491.007	5325
491.083	5256
491.158	4660
491.234	6864
491.309	12224
491.385	11605
491.460	4725
491.536	6387
491.611	4615
491.686	5921
491.762	7001
491.837	11651
491.913	17948
491.988	25870
492.063	28102
492.139	8675
492.214	6762
492.289	4804
492.365	4329
492.440	4938
492.515	4904
492.590	5855
492.666	4815
492.741	5538
492.816	7952
492.891	4862
492.967	5507
493.042	4146
493.117	4542
493.192	4862
493.267	11849
493.342	37659
493.418	49993
493.493	7607
493.568	3896
493.643	3672
493.718	4786
493.793	6050
493.868	6847
493.943	3941
494.018	3989
494.093	3989
494.168	3403
494.243	3469
494.318	3918
494.393	3897
494.468	3092
494.543	2774
494.618	4184
494.693	2933
494.768	4065
494.842	3496
494.917	3804
494.992	3442
495.067	2344
495.142	3309
495.217	4064
495.292	3834
495.366	3614
495.441	5121
495.516	6238
495.591	6968
495.665	23920
495.740	52693
495.815	17413
495.890	5185
495.964	4390
496.039	6925
496.114	8818
496.188	21915
496.263	16482
496.338	4160
496.412	5502
496.487	5509
496.561	5584
496.636	5792
496.710	5923
496.785	7686
496.860	6339
496.934	4029
497.009	4052
497.083	4562
497.158	4265
497.232	4321
497.307	6474
497.381	4834
497.455	5814
497.530	7462
497.604	5994
497.679	5371
497.753	8584
497.827	7980
497.902	7058
497.976	10129
498.050	31212
498.125	124260
498.199	112477
498.273	12047
498.348	7545
498.422	6195
498.496	6554
498.570	5637
498.645	4143
498.719	4116
498.793	6337
498.867	10764
498.941	14327
499.016	48498
499.090	129088
499.164	36455
499.238	5891
499.312	4924
499.386	5131
499.460	5253
499.534	4556
499.609	6566
499.683	9235
499.757	8685
499.831	21005
499.905	83122
499.979	71070
500.053	10135
500.127	9962
500.201	6761
500.275	5151
500.349	5461
500.422	6077
500.496	7292
500.570	17118
500.644	44008
500.718	80329
500.792	15773
500.866	5402
500.940	6715
501.013	5977
501.087	4705
501.161	8507
501.235	9280
501.309	25727
501.382	70758
501.456	56692
501.530	12876
501.603	20666
501.677	7627
501.751	3123
501.825	5710
501.898	9197
501.972	26472
502.046	14887
502.119	4578
502.193	12410
502.266	28698
502.340	12908
502.413	11960
502.487	23149
502.561	11741
502.634	4317
502.708	3188
502.781	2441
502.855	3598
502.928	2591
503.002	2284
503.075	2069
503.149	3030
503.222	3367
503.295	3386
503.369	3794
503.442	5277
503.516	19955
503.589	46098
503.662	27734
503.736	9318
503.809	21403
503.882	15346
503.956	27355
504.029	20517
504.102	7654
504.175	9282
504.249	3190
504.322	4194
504.395	4075
504.468	2502
504.542	1336
504.615	2124
504.688	3442
504.761	1364
504.834	3864
504.907	3258
504.980	5015
505.053	2105
505.127	1502
505.200	6837
505.273	4234
505.346	2164
505.419	1606
505.492	3151
505.565	2460
505.638	1959
505.711	1437
505.784	1572
505.857	992
505.930	3575
506.003	898
506.076	4161
506.149	3135
506.221	2098
506.294	5165
506.367	9903
506.440	36295
506.513	17413
506.586	4886
506.659	2366
506.731	2295
506.804	1871
506.877	3412
506.950	2909
507.022	3828
507.095	1704
507.168	3883
507.241	2464
507.313	1491
507.386	1561
507.459	4254
507.531	1161
507.604	1545
507.677	1984
507.749	1207
507.822	3765
507.894	6513
507.967	8347
508.040	4160
508.112	4819
508.185	4068
508.257	2412
508.330	6511
508.402	2856
508.475	3675
508.547	3385
508.620	3264
508.692	5059
508.765	3725
508.837	2195
508.909	3522
508.982	1731
509.054	3583
509.127	2897
509.199	2697
509.271	2203
509.344	2605
509.416	2457
509.488	2266
509.560	2585
509.633	2992
509.705	3425
509.777	3982
509.849	4841
509.922	2051
509.994	2643
510.066	4334
510.138	3161
510.210	8685
510.283	6175
510.355	5335
510.427	5118
510.499	4772
510.571	3745
510.643	3987
510.715	6868
510.787	3933
510.859	4829
510.931	5371
511.003	6087
511.076	5930
511.148	2791
511.219	4790
511.291	6876
511.363	7354
511.435	3478
511.507	2763
511.579	4668
511.651	4198
511.723	2765
511.795	3133
511.867	3050
511.939	4075
512.010	6420
512.082	5722
512.154	2641
512.226	4168
512.298	6131
512.369	8737
512.441	6299
512.513	6066
512.585	3781
512.656	5412
512.728	4515
512.800	4588
512.871	4915
512.943	3926
513.015	2571
513.086	3976
513.158	3973
513.230	3969
513.301	5613
513.373	6820
513.444	3771
513.516	3647
513.588	3168
513.659	4409
513.731	4445
513.802	3185
513.874	8394
513.945	10557
514.016	3362
514.088	4386
514.159	2431
514.231	5406
514.302	7164
514.374	5684
514.445	3754
514.516	9448
514.588	5632
514.659	4948
514.730	6882
514.802	6299
514.873	1506
514.944	5698
515.016	4343
515.087	4313
515.158	6395
515.229	8055
515.301	2497
515.372	4288
515.443	2388
515.514	4235
515.585	4258
515.656	6259
515.728	3667
515.799	3251
515.870	3877
515.941	4436
516.012	3539
516.083	6277
516.154	5041
516.225	7735
516.296	7077
516.367	5174
516.438	6669
516.509	7357
516.580	12951
516.651	40002
516.722	124634
516.793	43829
516.864	10529
516.935	11144
517.006	13012
517.077	16471
517.148	42079
517.219	169810
517.289	222007
517.360	50222
517.431	16967
517.502	5924
517.573	6681
517.643	6629
517.714	6676
517.785	7171
517.856	7163
517.926	9604
517.997	9989
518.068	11299
518.138	17144
518.209	27910
518.280	113824
518.350	396105
518.421	107644
518.492	12537
518.562	8010
518.633	7031
518.703	4178
518.774	7827
518.845	9013
518.915	8542
518.986	5808
519.056	7124
519.127	10494
519.197	15853
519.268	39567
519.338	23029
519.408	5909
519.479	8457
519.549	4915
519.620	5497
519.690	3217
519.760	4088
519.831	2882
519.901	3864
519.971	3631
520.042	4272
520.112	2978
520.182	5334
520.253	4822
520.323	3744
520.393	4435
520.463	8943
520.534	3612
520.604	11522
520.674	5843
520.744	5432
520.814	10518
520.885	10786
520.955	13589
521.025	46301
521.095	15147
521.165	5283
521.235	3273
521.305	2662
521.375	3050
521.445	3660
521.515	3044
521.585	5045
521.655	2329
521.725	5376
521.795	4633
521.865	2145
521.935	6074
522.005	3168
522.075	2539
522.145	4398
522.215	4405
522.285	5339
522.355	5853
522.424	11738
522.494	9468
522.564	5390
522.634	8680
522.704	23899
522.774	7429
522.843	3900
522.913	5490
522.983	4730
523.053	2191
523.122	4208
523.192	4036
523.262	12731
523.331	9259
523.401	3793
523.471	2359
523.540	2838
523.610	543
523.680	2687
523.749	2174
523.819	5995
523.888	5856
523.958	3140
524.027	2798
524.097	2100
524.166	2117
524.236	1380
524.305	3850
524.375	1511
524.444	1112
524.514	4378
524.583	1272
524.653	2673
524.722	3345
524.791	1527
524.861	3300
524.930	1344
524.999	1737
525.069	3616
525.138	2099
525.207	2759
525.277	3211
525.346	2399
525.415	2118
525.484	2669
525.554	1950
525.623	4475
525.692	8508
525.761	4215
525.830	3177
525.900	2229
525.969	2887
526.038	3305
526.107	2686
526.176	13044
526.245	8974
526.314	6506
526.383	8826
526.452	6594
526.522	17377
526.591	18521
526.660	10326
526.729	4989
526.797	6886
526.867	15063
526.935	67226
527.004	58841
527.073	22154
527.142	3344
527.211	1680
527.280	2806
527.349	2497
527.418	788
527.487	2585
527.555	1515
527.624	1290
527.693	-374
527.762	2810
527.831	419
527.899	2121
527.968	825
528.037	482
528.106	2668
528.174	4339
528.243	3703
528.312	5034
528.380	5116
528.449	1086
528.518	3118
528.586	-148
528.655	2523
528.723	1644
528.792	841
528.861	1394
528.929	1369
528.998	2226
529.066	1411
529.135	2423
529.203	990
529.272	698
529.340	2592
529.409	3336
529.477	1100
529.545	816
529.614	3844
529.682	1759
529.751	2792
529.819	4913
529.887	2344
529.956	1560
530.024	2493
530.092	17
530.161	3156
530.229	3325
530.297	1880
530.365	2628
530.434	1282
530.502	1400
530.570	1788
530.638	233
530.707	1607
530.775	3348
530.843	1712
530.911	1133
530.979	1773
531.047	1787
531.115	1807
531.183	1686
531.252	3055
531.320	2338
531.388	1588
531.456	1851
531.524	1017
531.592	2294
531.660	3481
531.728	557
531.796	2044
531.864	2753
531.932	2668
532.000	1013
532.067	715
532.135	3084
532.203	3154
532.271	2385
532.339	5372
532.407	10955
532.475	6262
532.542	4022
532.610	4073
532.678	3810
532.746	21241
532.814	44340
532.881	8371
532.949	2681
533.017	2698
533.084	2099
533.152	2607
533.220	1969
533.287	2019
533.355	2183
533.423	2402
533.490	758
533.558	2649
533.625	2373
533.693	2482
533.761	2723
533.828	2945
533.896	1128
533.963	6626
534.031	6727
534.098	6705
534.166	2847
534.233	1716
534.300	4296
534.368	2842
534.435	2065
534.503	2425
534.570	2391
534.637	1265
534.705	1714
534.772	2275
534.840	1555
534.907	7756
534.974	7380
535.041	3107
535.109	2378
535.176	2431
535.243	1673
535.310	1771
535.378	81
535.445	1230
535.512	1447
535.579	1886
535.646	1332
535.714	2024
535.781	2926
535.848	2794
535.915	3418
535.982	3304
536.049	3292
536.116	4255
536.183	2250
536.250	2389
536.317	2723
536.384	1995
536.451	3718
536.518	3873
536.585	893
536.652	3820
536.719	4763
536.786	2654
536.853	1965
536.920	4324
536.987	6139
537.053	5002
537.120	23495
537.187	17168
537.254	1985
537.321	2187
537.388	2335
537.454	447
537.521	1047
537.588	694
537.654	2359
537.721	2090
537.788	3093
537.855	1114
537.921	2096
537.988	1529
538.055	1707
538.121	853
538.188	2073
538.254	3532
538.321	5344
538.388	4380
538.454	1896
538.521	1250
538.587	1676
538.654	1020
538.720	1530
538.787	1927
538.853	2290
538.920	2339
538.986	1591
539.053	1632
539.119	2013
539.185	1128
539.252	3112
539.318	3188
539.385	4077
539.451	1685
539.517	2896
539.583	3598
539.650	6587
539.716	15182
539.782	3742
539.849	1618
539.915	2693
539.981	1459
540.047	2739
540.114	2295
540.180	2615
540.246	1170
540.312	2195
540.378	5636
540.444	7321
540.510	6299
540.576	16829
540.643	4386
540.709	49
540.775	2086
540.841	1866
540.907	3186
540.973	5175
541.039	4142
541.105	4439
541.171	2503
541.237	1091
541.303	3036
541.369	3698
541.435	3128
541.500	4976
541.566	1691
541.632	2173
541.698	2660
541.764	2531
541.830	1680
541.896	162
541.961	2819
542.027	990
542.093	2078
542.159	1469
542.224	1386
542.290	3979
542.356	5018
542.421	6086
542.487	4039
542.553	1942
542.618	2833
542.684	2480
542.750	1826
542.815	3370
542.881	4794
542.947	15763
543.012	9948
543.078	1788
543.143	2227
543.209	2815
543.274	998
543.340	2883
543.405	6519
543.471	8283
543.536	2465
543.602	2227
543.667	1237
543.732	3460
543.798	1978
543.863	1833
543.928	1295
543.994	1409
544.059	2178
544.124	1864
544.190	1715
544.255	2884
544.320	3343
544.386	732
544.451	3309
544.516	3283
544.581	3367
544.646	9908
544.712	14777
544.777	4017
544.842	2773
544.907	2380
544.972	2601
545.037	2857
545.102	5077
545.168	3592
545.233	3476
545.298	4351
545.363	4052
545.428	4080
545.493	7462
545.558	11324
545.623	4835
545.688	2833
545.753	3616
545.818	2114
545.883	3286
545.947	2867
546.012	3432
546.077	2444
546.142	3845
546.207	2231
546.272	4554
546.337	3212
546.401	3275
546.466	3103
546.531	1872
546.596	3162
546.661	3734
546.725	3667
546.790	2379
546.855	3593
546.919	1728
546.984	3381
547.049	2306
547.113	3848
547.178	2303
547.243	3244
547.307	4438
547.372	4094
547.436	4705
547.501	3475
547.565	4237
547.630	4618
547.695	4215
547.759	4476
547.823	3963
547.888	3878
547.952	3803
548.017	7090
548.081	15688
548.146	9334
548.210	5772
548.274	3340
548.339	3666
548.403	4305
548.468	2070
548.532	3047
548.596	5741
548.660	4835
548.725	4511
548.789	4308
548.853	5358
548.917	4490
548.982	5358
549.046	4686
549.110	2505
549.174	3400
549.238	3084
549.303	2772
549.367	5122
549.431	3434
549.495	3023
549.559	3360
549.623	3959
549.687	3143
549.751	5995
549.815	4474
549.879	4695
549.943	3806
550.007	4389
550.071	4080
550.135	5353
550.199	3708
550.263	3978
550.327	5682
550.391	9509
550.455	9677
550.519	4774
550.582	5309
550.646	5527
550.710	4904
550.774	4793
550.838	4243
550.901	4274
550.965	5229
551.029	4514
551.093	5765
551.156	8128
551.220	11262
551.284	11879
551.347	7648
551.411	13786
551.475	12976
551.538	5748
551.602	4304
551.666	4233
551.729	3014
551.793	5048
551.856	4492
551.920	4411
551.983	4603
552.047	3291
552.110	5977
552.174	8481
552.237	5631
552.301	4743
552.364	3947
552.428	4328
552.491	4412
552.554	4442
552.618	4967
552.681	5675
552.745	5237
552.808	10015
552.871	10794
552.934	6863
552.998	4641
553.061	4878
553.124	4965
553.187	4929
553.251	4510
553.314	6008
553.377	5834
553.440	11550
553.503	29649
553.567	43939
553.630	8329
553.693	4809
553.756	4123
553.819	4830
553.882	4346
553.945	6460
554.008	6134
554.071	4728
554.134	4404
554.197	3595
554.260	3592
554.323	6059
554.386	5197
554.449	4379
554.512	4887
554.575	3293
554.638	4811
554.701	3936
554.764	3496
554.827	3293
554.889	3602
554.952	3586
555.015	2678
555.078	3359
555.141	3837
555.203	3534
555.266	3382
555.329	3268
555.391	3257
555.454	3323
555.517	3613
555.580	3650
555.642	2769
555.705	2398
555.768	3631
555.830	4516
555.893	2657
555.955	3617
556.018	3151
556.080	2790
556.143	3634
556.206	3427
556.268	3173
556.330	3637
556.393	3086
556.455	2700
556.518	4630
556.580	4299
556.643	2466
556.705	2914
556.767	1316
556.830	2964
556.892	2876
556.955	3984
557.017	3561
557.079	2746
557.142	2254
557.204	2404
557.266	6556
557.328	4953
557.391	2434
557.453	1576
557.515	2490
557.577	3727
557.639	3340
557.701	2214
557.764	1810
557.826	2470
557.888	3314
557.950	1862
558.012	2761
558.074	3451
558.136	5386
558.198	10201
558.260	5411
558.322	3387
558.384	3008
558.446	3691
558.508	4049
558.570	5188
558.632	7625
558.694	10950
558.756	11555
558.818	26985
558.880	58074
558.942	16618
559.003	11433
559.065	6047
559.127	3642
559.189	3787
559.251	3331
559.312	6587
559.374	12142
559.436	35958
559.498	16099
559.559	4851
559.621	3617
559.683	4988
559.744	7282
559.806	18047
559.868	23355
559.929	6225
559.991	5183
560.052	5346
560.114	10964
560.176	7627
560.237	7421
560.299	11050
560.360	2927
560.422	3022
560.483	3189
560.545	3181
560.606	2647
560.667	2198
560.729	2412
560.790	2194
560.852	2625
560.913	2726
560.974	3158
561.036	2636
561.097	1978
561.158	2781
561.220	3616
561.281	2604
561.342	1963
561.403	4338
561.465	4422
561.526	8615
561.587	10182
561.648	2979
561.709	3127
561.771	3410
561.832	1726
561.893	2767
561.954	2774
562.015	2454
562.076	3278
562.137	2572
562.198	2976
562.259	3349
562.320	2249
562.381	3384
562.442	4473
562.503	2992
562.564	2945
562.625	1883
562.686	3407
562.747	3243
562.808	2667
562.869	3351
562.930	2991
562.991	3636
563.051	2893
563.112	2789
563.173	2178
563.234	2515
563.294	2249
563.355	3079
563.416	3532
563.477	3129
563.537	2639
563.598	3134
563.659	2736
563.720	2675
563.780	2767
563.841	3212
563.901	3512
563.962	3433
564.023	2184
564.083	3263
564.144	2399
564.204	3191
564.265	2553
564.325	3602
564.386	6945
564.446	5415
564.507	2775
564.567	2611
564.628	2593
564.688	2704
564.749	2092
564.809	3483
564.869	3063
564.930	2079
564.990	3396
565.050	2355
565.111	2688
565.171	2961
565.231	3006
565.292	3921
565.352	2165
565.412	2794
565.472	1875
565.532	2632
565.593	1929
565.653	2698
565.713	2349
565.773	3061
565.833	3038
565.893	4495
565.953	2325
566.013	3000
566.074	3076
566.134	4113
566.194	5012
566.254	6056
566.314	3726
566.374	3063
566.434	3110
566.494	2116
566.554	2750
566.614	3082
566.673	3405
566.733	4023
566.793	2485
566.853	2782
566.913	3326
566.973	3450
567.033	3376
567.092	2353
567.152	2957
567.212	3763
567.272	2733
567.331	3659
567.391	3548
567.451	3157
567.511	5199
567.570	4117
567.630	2666
567.690	2862
567.749	2723
567.809	2801
567.868	3694
567.928	3241
567.988	3050
568.047	3126
568.107	3146
568.166	3236
568.226	3146
568.285	4094
568.345	3241
568.404	3964
568.464	3462
568.523	3076
568.582	2609
568.642	3401
568.701	3916
568.761	3723
568.820	3805
568.879	4660
568.939	5282
568.998	3666
569.057	3567
569.116	2702
569.176	3879
569.235	2727
569.294	2694
569.353	2891
569.413	2586
569.472	2941
569.531	2495
569.590	1991
569.649	2492
569.708	2229
569.767	2997
569.827	3792
569.886	2940
569.945	3150
570.004	2841
570.063	2933
570.122	2921
570.181	3867
570.240	3458
570.299	3254
570.358	3034
570.417	3033
570.475	2330
570.534	3469
570.593	3075
570.652	3759
570.711	3070
570.770	2718
570.829	2923
570.887	3466
570.946	3660
571.005	3361
571.064	3421
571.122	3303
571.181	2856
571.240	3284
571.299	2294
571.357	3494
571.416	3424
571.475	2929
571.533	3556
571.592	2694
571.650	2856
571.709	1966
571.768	2975
571.826	2782
571.885	2769
571.943	2568
572.002	2676
572.060	2672
572.119	1741
572.177	2851
572.236	2775
572.294	2843
572.352	2542
572.411	2260
572.469	2746
572.528	3214
572.586	2212
572.644	1973
572.703	4727
572.761	2520
572.819	2381
572.877	2793
572.936	1648
572.994	2207
573.052	2468
573.110	2285
573.169	2104
573.227	2218
573.285	2653
573.343	2852
573.401	2154
573.459	3040
573.517	2388
573.576	2175
573.634	3284
573.692	2668
573.750	2038
573.808	1999
573.866	2601
573.924	3962
573.982	4406
574.040	2599
574.098	2771
574.155	1961
574.213	2579
574.271	2395
574.329	1668
574.387	2296
574.445	2376
574.503	2797
574.560	1421
574.618	2333
574.676	1787
574.734	2136
574.792	2961
574.849	2360
574.907	1633
574.965	2637
575.022	1496
575.080	2126
575.138	2844
575.195	2175
575.253	1994
575.311	2653
575.368	1980
575.426	2490
575.483	3085
575.541	2441
575.598	1078
575.656	2148
575.713	2474
575.771	1932
575.828	2080
575.886	2110
575.943	2901
576.001	1840
576.058	2415
576.115	2590
576.173	3296
576.230	4041
576.287	3693
576.345	3554
576.402	1632
576.459	3098
576.517	2285
576.574	2786
576.631	3070
576.688	2835
576.746	2941
576.803	3072
576.860	1359
576.917	2594
576.974	1788
577.031	2299
577.089	2619
577.146	2489
577.203	2660
577.260	3477
577.317	3648
577.374	4050
577.431	3117
577.488	3053
577.545	2800
577.602	2435
577.659	3070
577.716	3590
577.773	4064
577.830	4043
577.886	3749
577.943	3055
578.000	2794
578.057	4471
578.114	4243
578.171	6014
578.227	8415
578.284	8881
578.341	6080
578.398	6508
578.454	4704
578.511	4401
578.568	4512
578.625	3441
578.681	3393
578.738	3558
578.794	2701
578.851	3837
578.908	3334
578.964	3335
579.021	3846
579.077	2988
579.134	2510
579.190	3154
579.247	2854
579.303	3137
579.360	3147
579.416	2561
579.473	2935
579.529	3295
579.586	3053
579.642	4090
579.698	1872
579.755	3680
579.811	3963
579.867	4298
579.924	4035
579.980	5953
580.036	6565
580.093	8435
580.149	12071
580.205	15319
580.261	11002
580.317	7905
580.374	5894
580.430	6307
580.486	5573
580.542	4258
580.598	3714
580.619	3986
580.654	4453
580.692	3913
580.710	3627
580.765	4405
580.767	4421
580.823	3733
580.838	3721
580.879	3658
580.911	3443
580.935	3261
580.984	4052
580.991	4159
581.047	3762
581.057	3896
581.103	4441
581.130	5050
581.159	5635
581.203	6786
581.215	7059
581.270	6646
581.276	6571
581.326	5712
581.349	5446
581.382	5010
581.422	5189
581.438	5259
581.494	4102
581.494	4117
581.550	4513
581.567	4623
581.606	4799
581.640	4884
581.661	4954
581.713	5477
581.717	5502
581.773	5697
581.786	5511
581.829	4855
581.859	4980
581.885	5092
581.932	4329
581.940	4177
581.996	5745
582.004	5673
582.052	5130
582.077	5162
582.107	5237
582.150	5551
582.163	5597
582.219	5501
582.223	5474
582.274	5301
582.296	5423
582.330	5493
582.368	5841
582.386	5998
582.441	6313
582.441	6306
582.497	5932
582.514	6216
582.552	7125
582.587	7307
582.608	7190
582.659	6597
582.663	6556
582.719	6550
582.732	6523
582.774	6492
582.805	6430
582.830	6380
582.877	7490
582.885	7693
582.941	7340
582.950	7580
582.996	8775
583.023	9187
583.052	10029
583.095	11479
583.107	11973
583.162	14878
583.168	15171
583.218	16508
583.240	15869
583.273	14069
583.313	12730
583.328	12397
583.384	10779
583.385	10771
583.439	10403
583.458	9877
583.494	9243
583.531	8867
583.549	8815
583.603	9617
583.605	9634
583.660	8619
583.676	8603
583.715	8799
583.748	8826
583.770	8769
583.820	8796
583.825	8840
583.881	9142
583.893	9139
583.936	8932
583.965	9169
583.991	9256
584.038	8536
584.046	8523
584.101	9593
584.110	9553
584.156	9176
584.183	9308
584.211	9410
584.255	9617
584.266	9723
584.321	10192
584.328	10143
584.376	9472
584.400	9720
584.431	10362
584.472	9866
584.486	9690
584.541	10099
584.545	10103
584.596	10272
584.617	10399
584.651	11100
584.689	11761
584.706	11877
584.761	11901
584.762	11881
584.816	11880
584.834	12014
584.871	12482
584.906	12446
584.926	12303
584.978	12397
584.980	12455
585.035	13222
585.051	13479
585.090	13852
585.123	13716
585.145	13685
585.195	14123
585.200	14204
585.254	14913
585.267	15079
585.309	16635
585.340	17573
585.364	17567
585.412	17426
585.419	17471
585.473	16814
585.484	16866
585.528	18144
585.556	19130
585.583	22078
585.628	28585
585.637	31401
585.692	50056
585.700	53420
585.747	66392
585.772	64533
585.801	47121
585.845	24547
585.856	22704
585.910	18132
585.917	17605
585.965	17181
585.989	16719
586.019	16702
586.061	17082
586.074	17214
586.128	17661
586.133	17621
586.183	18102
586.205	18391
586.237	18590
586.277	18222
586.292	18211
586.346	18488
586.349	18459
586.401	18569
586.421	18202
586.455	18317
586.493	19868
586.509	21364
586.564	24547
586.565	24625
586.618	33875
586.637	35288
586.672	29468
586.709	22578
586.727	21105
586.781	19563
586.781	19624
586.835	19202
586.853	18950
586.889	18833
586.925	18652
586.944	18674
586.996	18858
586.998	18957
587.052	20390
587.068	20607
587.106	20409
587.140	20296
587.161	20578
587.212	20216
587.215	20272
587.269	21467
587.284	21437
587.323	21310
587.356	21283
587.377	21522
587.427	22087
587.431	22214
587.485	22400
587.499	22426
587.539	22575
587.571	22665
587.593	23247
587.643	24099
587.648	24181
587.702	24296
587.715	24316
587.755	25559
587.786	26030
587.810	25989
587.858	25746
587.864	26021
587.917	27891
587.930	28301
587.971	29837
588.001	30545
588.025	30867
588.073	31436
588.079	31783
588.133	33531
588.145	33953
588.187	36467
588.217	37831
588.241	39515
588.288	42547
588.295	43282
588.348	48726
588.360	49578
588.402	54026
588.431	57409
588.456	60790
588.503	66298
588.510	67739
588.564	78359
588.575	80443
588.617	91032
588.646	98020
588.671	108486
588.718	128985
588.725	136801
588.778	198713
588.789	211895
588.832	368797
588.861	479652
588.886	691945
588.932	1111724
588.939	1145450
588.993	1362359
589.004	1378626
589.047	882501
589.075	558328
589.100	423527
589.147	193913
589.154	188028
589.207	141361
589.218	131560
589.261	126143
589.290	122348
589.314	129474
589.361	143650
589.368	153419
589.421	233981
589.433	251594
589.475	482784
589.504	649369
589.528	845803
589.576	1235358
589.582	1199175
589.635	751588
589.647	653321
589.689	354510
589.718	154518
589.742	130597
589.790	83258
589.795	82100
589.849	68962
589.861	65821
589.902	65195
589.932	63790
589.955	58786
590.004	47173
590.009	46995
590.062	44089
590.075	43006
590.115	41224
590.146	39840
590.168	39628
590.218	38163
590.222	38275
590.275	38124
590.289	37821
590.328	38046
590.360	37930
590.381	37759
590.431	36827
590.435	36975
590.488	36627
590.503	36462
590.541	36760
590.574	36585
590.594	36739
590.645	36511
590.647	36661
590.700	36345
590.716	36045
590.753	36631
590.787	36993
590.806	36861
590.859	35686
590.859	35855
590.912	36299
590.930	36179
590.965	36028
591.001	35759
591.018	36117
591.071	36534
591.072	36369
591.124	37556
591.143	37755
591.177	37263
591.214	36375
591.230	37142
591.283	39100
591.285	38995
591.336	39133
591.356	38915
591.389	38475
591.427	37533
591.442	37731
591.495	37724
591.498	37552
591.547	37281
591.569	36877
591.600	37127
591.640	37127
591.653	37509
591.706	38312
591.711	38227
591.759	39961
591.782	40485
591.811	41561
591.853	42791
591.864	42657
591.917	40871
591.924	40425
591.969	40922
591.995	40878
592.022	40896
592.066	40405
592.075	40913
592.127	42924
592.137	43090
592.180	46183
592.208	47822
592.233	46511
592.279	43403
592.285	43415
592.338	41774
592.350	41199
592.390	41142
592.421	40765
592.443	40883
592.491	40524
592.495	40755
592.548	41275
592.562	41225
592.600	41657
592.633	41665
592.653	41711
592.704	41085
592.705	41343
592.775	42300
592.846	42101
592.916	41855
592.987	43207
593.058	42766
593.128	41863
593.199	43297
593.270	42093
593.341	41903
593.411	42328
593.482	42936
593.553	43256
593.623	43996
593.694	46118
593.764	47670
593.835	45675
593.906	46187
593.976	47737
594.047	50169
594.117	53774
594.188	53840
594.258	49899
594.329	50307
594.399	49435
594.470	50160
594.540	48853
594.611	49472
594.681	49962
594.751	50063
594.822	51535
594.892	54505
594.963	53945
595.033	52496
595.103	52629
595.174	54533
595.244	61722
595.314	70781
595.384	55003
595.455	52890
595.525	54723
595.595	53993
595.665	54851
595.736	54128
595.806	54614
595.876	54872
595.946	54567
596.016	54942
596.087	55478
596.157	55496
596.227	55218
596.297	56555
596.367	59077
596.437	61856
596.507	67154
596.577	74758
596.647	64196
596.717	61975
596.787	61444
596.857	62819
596.927	64376
596.997	64865
597.067	68690
597.137	72273
597.207	70171
597.277	68018
597.347	66213
597.417	67052
597.487	67061
597.557	66747
597.626	67078
597.696	69126
597.766	72932
597.836	79478
597.906	68187
597.975	64103
598.045	63667
598.115	64698
598.185	65880
598.254	69618
598.324	72142
598.394	72440
598.464	70405
598.533	71378
598.603	70117
598.672	68714
598.742	68328
598.812	70401
598.881	71266
598.951	71020
599.020	71363
599.090	72879
599.159	74368
599.229	73974
599.299	72569
599.368	74387
599.437	74059
599.507	73722
599.576	72715
599.646	75984
599.715	78619
599.785	73978
599.854	74252
599.924	78555
599.993	77017
600.062	76125
600.132	76841
600.201	80488
600.270	84924
600.340	87279
600.409	86980
600.478	87705
600.547	89006
600.617	89774
600.686	83054
600.755	83330
600.824	82208
600.894	82198
600.963	84069
601.032	85478
601.101	86548
601.170	86242
601.239	86777
601.308	87642
601.378	91348
601.447	91719
601.516	91037
601.585	94374
601.654	96750
601.723	98330
601.792	101063
601.861	106923
601.930	114442
601.999	113452
602.068	109685
602.137	111401
602.206	110755
602.275	112963
602.343	115352
602.412	116181
602.481	115475
602.550	115301
602.619	117242
602.688	116966
602.756	120223
602.825	117891
602.894	120384
602.963	120085
603.032	121143
603.100	121683
603.169	117761
603.238	123954
603.307	117787
603.375	118956
603.444	124852
603.513	115214
603.581	116518
603.650	126294
603.719	105247
603.787	98631
603.856	99641
603.924	101469
603.993	103852
604.061	106632
604.130	107871
604.198	111094
604.267	111974
604.335	114818
604.404	113420
604.472	117525
604.541	117444
604.609	121836
604.678	125500
604.746	128196
604.815	134306
604.883	128314
604.951	123278
605.020	127882
605.088	117986
605.156	110193
605.225	109111
605.293	107230
605.361	110231
605.429	108737
605.498	111113
605.566	107954
605.634	114696
605.702	113419
605.771	113782
605.839	119214
605.907	106878
605.975	115718
606.043	110756
606.111	105497
606.180	119399
606.248	111931
606.316	112916
606.384	116157
606.452	95810
606.520	74825
606.588	72158
606.656	70878
606.724	70401
606.792	66519
606.860	62322
606.928	58947
606.996	57261
607.064	57274
607.132	57135
607.200	60377
607.267	60380
607.335	61855
607.403	63049
607.471	63051
607.539	60688
607.607	61450
607.674	55697
607.742	56222
607.810	55143
607.878	55663
607.946	53417
608.013	57942
608.081	57859
608.149	56773
608.216	57696
608.284	60444
608.352	59702
608.419	59843
608.487	65014
608.555	58273
608.622	55924
608.690	58883
608.757	60196
608.825	62601
608.893	61090
608.960	60932
609.028	61659
609.095	65634
609.163	58950
609.230	55125
609.298	50907
609.365	51107
609.432	54341
609.500	57788
609.567	63516
609.635	70029
609.702	74270
609.769	72614
609.837	64317
609.904	56642
609.971	57700
610.039	65572
610.106	83117
610.173	140252
610.241	303879
610.308	380212
610.375	238769
610.442	91671
610.509	64284
610.577	60533
610.644	57668
610.711	57899
610.778	59069
610.845	59844
610.912	63146
610.980	69112
611.047	82617
611.114	70799
611.181	59220
611.248	58063
611.315	62582
611.382	62187
611.449	63138
611.516	64748
611.583	64315
611.650	63029
611.717	65413
611.784	66078
611.851	68201
611.918	71167
611.984	77512
612.051	103171
612.118	185207
612.185	429760
612.252	312228
612.319	95021
612.386	79579
612.452	75530
612.519	73931
612.586	80574
612.653	75098
612.719	72931
612.786	70863
612.853	66632
612.919	63951
612.986	66903
613.053	62832
613.120	60862
613.186	57889
613.253	60078
613.319	57512
613.386	57783
613.453	59742
613.519	62115
613.586	62054
613.652	69039
613.719	65043
613.785	63371
613.852	61643
613.918	59945
613.985	63818
614.051	73670
614.118	101408
614.184	101567
614.250	62863
614.317	61955
614.383	60004
614.449	61059
614.516	60300
614.582	62306
614.648	60628
614.715	60207
614.781	58064
614.847	61011
614.914	60630
614.980	59738
615.046	59105
615.112	59770
615.179	59166
615.245	60354
615.311	59892
615.377	62049
615.443	62277
615.509	61816
615.575	62985
615.642	62436
615.708	65287
615.774	67362
615.840	72665
615.906	77177
615.972	86735
616.038	120453
616.104	232709
616.170	552482
616.236	527088
616.302	135722
616.368	95229
616.434	79307
616.500	75794
616.565	75921
616.631	83772
616.697	79038
616.763	77978
616.829	93936
616.895	137171
616.961	140141
617.026	86332
617.092	67586
617.158	66653
617.224	66094
617.289	62809
617.355	62665
617.421	62757
617.487	63411
617.552	60158
617.618	58084
617.684	58579
617.749	60888
617.815	56329
617.880	55450
617.946	57318
618.012	58331
618.077	59631
618.143	58335
618.208	58277
618.274	61991
618.339	62935
618.405	56664
618.470	57294
618.536	56568
618.601	60930
618.667	56673
618.732	54727
618.798	52969
618.863	51921
618.928	52519
618.994	54569
619.059	55650
619.124	60142
619.190	55763
619.255	53469
619.320	54336
619.386	53886
619.451	52153
619.516	52043
619.581	52796
619.647	53132
619.712	54841
619.777	53254
619.842	52978
619.907	53751
619.972	54414
620.038	55298
620.103	53722
620.168	51511
620.233	53062
620.298	52320
620.363	53191
620.428	53358
620.493	54528
620.558	55141
620.623	56457
620.688	54873
620.753	54093
620.818	54105
620.883	55771
620.948	55009
621.013	55793
621.078	54465
621.143	55883
621.207	60426
621.272	58301
621.337	57414
621.402	60053
621.467	66166
621.532	68394
621.596	64175
621.661	59333
621.726	57806
621.791	58967
621.855	60070
621.920	60223
621.985	61106
622.049	64364
622.114	63591
622.179	62337
622.243	66470
622.308	66583
622.373	67276
622.437	65499
622.502	63732
622.566	63953
622.631	63301
622.695	64059
622.760	63949
622.824	63244
622.889	63791
622.953	65253
623.018	71064
623.082	70888
623.147	64682
623.211	63881
623.276	64417
623.340	61068
623.404	59859
623.469	60733
623.533	62164
623.597	60494
623.662	59786
623.726	58959
623.790	56175
623.854	56642
623.919	58197
623.983	55446
624.047	56036
624.111	56400
624.176	58374
624.240	60216
624.304	61852
624.368	57037
624.432	56366
624.496	58254
624.560	59211
624.625	61032
624.689	59095
624.753	59957
624.817	57788
624.881	56741
624.945	54618
625.009	53302
625.073	52793
625.137	55084
625.201	58995
625.265	59555
625.329	54052
625.393	54544
625.456	54162
625.520	55394
625.584	56804
625.648	62849
625.712	73130
625.776	118532
625.839	131416
625.903	72249
625.967	53472
626.031	67049
626.095	88733
626.158	55987
626.222	45362
626.286	44285
626.349	43927
626.413	42049
626.477	43642
626.540	41575
626.604	41615
626.668	43293
626.731	41418
626.795	43138
626.858	43289
626.922	40979
626.986	41544
627.049	39250
627.113	42148
627.176	41695
627.240	39269
627.303	39900
627.366	40148
627.430	40882
627.493	39974
627.557	41288
627.620	42357
627.684	40229
627.747	40002
627.810	38674
627.874	38059
627.937	36219
628.000	40022
628.064	38536
628.127	33327
628.190	36094
628.253	35876
628.317	35204
628.380	34144
628.443	34092
628.506	34663
628.569	33136
628.632	32053
628.696	31843
628.759	32597
628.822	31122
628.885	29794
628.948	31323
629.011	31505
629.074	31180
629.137	29742
629.200	29128
629.263	32034
629.326	29128
629.389	29448
629.452	30220
629.515	31292
629.578	29297
629.641	30720
629.704	30190
629.767	31316
629.830	30509
629.892	30431
629.955	28913
630.018	30153
630.081	28757
630.144	31429
630.207	28616
630.269	31625
630.332	30479
630.395	28653
630.458	28239
630.520	25927
630.583	27946
630.646	25108
630.708	25211
630.771	25706
630.834	26931
630.896	26126
630.959	26120
631.021	24718
631.084	25603
631.146	27095
631.209	29744
631.272	25187
631.334	25860
631.397	24886
631.459	24133
631.522	25488
631.584	24702
631.646	26332
631.709	26175
631.771	27285
631.834	26557
631.896	25758
631.958	22960
632.021	25279
632.083	23223
632.145	25152
632.208	24266
632.270	24741
632.332	23267
632.395	23719
632.457	25384
632.519	23521
632.581	25067
632.643	22642
632.706	24204
632.768	22678
632.830	23917
632.892	23662
632.954	23247
633.016	24441
633.078	22248
633.141	23031
633.203	22460
633.265	22431
633.327	23572
633.389	22082
633.451	23542
633.513	25274
633.575	26090
633.637	24402
633.698	23848
633.760	23963
633.822	22946
633.884	22518
633.946	22883
634.008	23522
634.070	23864
634.132	28197
634.193	25830
634.255	23830
634.317	22198
634.379	23678
634.441	22977
634.502	23692
634.564	22896
634.626	20881
634.687	21998
634.749	22554
634.811	21384
634.873	19292
634.934	20173
634.996	22330
635.057	19853
635.119	20679
635.181	21403
635.242	21968
635.304	19075
635.365	22568
635.427	20581
635.488	20102
635.550	20127
635.611	20908
635.673	19932
635.734	22502
635.796	21490
635.857	22834
635.918	21031
635.980	22928
636.041	21491
636.102	22690
636.164	21652
636.225	22908
636.286	19988
636.348	22106
636.409	21742
636.470	20160
636.531	21086
636.593	20825
636.654	21435
636.715	19209
636.776	19256
636.838	18847
636.899	20786
636.960	20785
637.021	19943
637.082	19565
637.143	19545
637.204	18682
637.265	18172
637.326	19074
637.387	18138
637.448	17463
637.509	18319
637.570	19241
637.631	19683
637.692	17920
637.753	17543
637.814	19704
637.875	19463
637.936	19459
637.997	21064
638.058	24913
638.119	21164
638.179	18374
638.240	18904
638.301	17403
638.362	17873
638.423	18991
638.483	20011
638.544	20253
638.605	23480
638.666	24235
638.726	21441
638.787	23411
638.848	21358
638.908	19483
638.969	18607
639.030	19621
639.090	17257
639.151	18131
639.211	18786
639.272	20570
639.332	23731
639.393	20652
639.453	17950
639.514	19176
639.574	18840
639.635	17265
639.695	18778
639.756	17113
639.816	19293
639.877	18922
639.937	21578
639.997	24412
640.058	18549
640.118	17545
640.178	18920
640.239	18440
640.299	17677
640.359	17665
640.420	19227
640.480	19248
640.540	20702
640.600	21943
640.661	25569
640.721	34394
640.781	66683
640.841	95917
640.901	28605
640.961	20237
641.021	19527
641.082	18517
641.142	20969
641.202	19042
641.262	16860
641.322	18765
641.382	17730
641.442	18991
641.502	17973
641.562	18279
641.622	17335
641.682	17779
641.742	17564
641.802	18043
641.861	18810
641.921	17736
641.981	18392
642.041	18804
642.101	18897
642.161	16030
642.221	17232
642.280	17238
642.340	16953
642.400	16366
642.460	18441
642.519	18269
642.579	18476
642.639	18794
642.698	16073
642.758	19291
642.818	18667
642.877	18079
642.937	19413
642.997	20134
643.056	21818
643.116	18056
643.175	19592
643.235	18630
643.294	18280
643.354	19564
643.414	19960
643.473	20410
643.532	20939
643.592	23971
643.651	30150
643.711	43916
643.770	73546
643.830	159798
643.889	351833
643.948	95213
644.008	28403
644.067	21509
644.126	19936
644.186	19602
644.245	20189
644.304	17937
644.363	20638
644.423	17815
644.482	20239
644.541	20072
644.600	18053
644.659	22456
644.719	22003
644.778	24520
644.837	29638
644.896	42721
644.955	80863
645.014	41471
645.073	26554
645.132	20712
645.191	22488
645.250	20933
645.309	22616
645.368	20212
645.427	22614
645.486	22973
645.545	30505
645.604	21771
645.663	21569
645.722	20806
645.781	21595
645.840	21700
645.898	21653
645.957	25881
646.016	28676
646.075	42511
646.134	67377
646.192	157828
646.251	246240
646.310	48459
646.369	25192
646.427	24541
646.486	21242
646.545	22653
646.603	21991
646.662	20354
646.721	20518
646.779	19197
646.838	19076
646.896	20887
646.955	21837
647.014	24289
647.072	29959
647.131	55141
647.189	35870
647.248	19510
647.306	20539
647.365	19790
647.423	18135
647.481	20280
647.540	17638
647.598	18304
647.657	19525
647.715	19189
647.773	17888
647.832	19257
647.890	17753
647.948	18986
648.007	19202
648.065	18910
648.123	19031
648.181	20355
648.240	22767
648.298	20451
648.356	18847
648.414	18968
648.472	18622
648.531	19659
648.589	18669
648.647	19638
648.705	18832
648.763	17931
648.821	19805
648.879	19857
648.937	19652
648.995	19805
649.053	19409
649.111	21180
649.169	27083
649.227	36884
649.285	56040
649.343	137575
649.401	78142
649.459	33345
649.516	30270
649.574	25258
649.632	37061
649.690	43979
649.748	28058
649.806	32008
649.863	46228
649.921	46722
649.979	35032
650.037	20724
650.094	19334
650.152	22031
650.210	22692
650.268	26396
650.325	39029
650.383	68186
650.440	27447
650.498	20935
650.556	17561
650.613	15734
650.671	16567
650.728	17665
650.786	19464
650.843	18208
650.901	13481
650.958	15415
651.016	14837
651.073	16465
651.131	15464
651.188	15472
651.246	13403
651.303	11920
651.360	13077
651.418	12025
651.475	12037
651.532	10780
651.590	11189
651.647	10700
651.704	12258
651.762	11470
651.819	11492
651.876	10879
651.933	11669
651.990	12154
652.048	12073
652.105	11373
652.162	11961
652.219	10873
652.276	11446
652.333	12204
652.390	10568
652.448	11235
652.505	11683
652.562	11208
652.619	12890
652.676	19088
652.733	19816
652.790	10293
652.847	8701
652.904	10025
652.961	8755
653.017	9017
653.074	10103
653.131	10779
653.188	9576
653.245	9334
653.302	9481
653.359	9186
653.415	10410
653.472	9808
653.529	10218
653.586	8685
653.642	9228
653.699	10277
653.756	9334
653.813	9266
653.869	9552
653.926	9537
653.983	8499
654.039	9127
654.096	9820
654.152	9801
654.209	9325
654.266	9564
654.322	8923
654.379	10876
654.435	11292
654.492	10687
654.548	12979
654.605	17690
654.661	19325
654.717	12265
654.774	12023
654.830	13015
654.887	14055
654.943	17933
655.000	31192
655.056	19302
655.112	11616
655.168	9859
655.225	11060
655.281	11417
655.337	11606
655.394	15258
655.450	14157
655.506	12856
655.562	16275
655.618	14695
655.675	10117
655.731	10818
655.787	9398
655.843	11066
655.899	9935
655.955	10538
656.011	10412
656.067	9310
656.123	10641
656.179	11144
656.235	11802
656.291	9303
656.347	11528
656.403	9813
656.459	10599
656.515	10971
656.571	11618
656.627	10926
656.683	11671
656.739	11314
656.795	10636
656.850	11430
656.906	12416
656.962	11949
657.018	10400
657.074	10881
657.129	11514
657.185	12402
657.241	14817
657.297	13619
657.352	11678
657.408	11610
657.464	12311
657.519	12234
657.575	11599
657.630	11355
657.686	12285
657.742	11725
657.797	11590
657.853	11449
657.908	13787
657.964	10992
658.019	13079
658.075	12385
658.130	13147
658.186	11727
658.241	12479
658.297	11669
658.352	12388
658.407	13164
658.463	13091
658.518	13405
658.573	13599
658.629	13251
658.684	13109
658.739	13714
658.795	13234
658.850	13996
658.905	12910
658.960	14572
659.016	12516
659.071	13284
659.126	14309
659.181	13750
659.236	17409
659.291	16676
659.346	15022
659.401	16026
659.457	17711
659.512	20426
659.567	17902
659.622	15097
659.677	14399
659.732	13451
659.787	15342
659.842	15656
659.897	15905
659.952	15271
660.007	15526
660.061	15697
660.116	15507
660.171	15138
660.226	15841
660.281	16212
660.336	14950
660.391	16664
660.445	15808
660.500	16289
660.555	15205
660.610	15809
660.664	15982
660.719	14992
660.774	14977
660.828	15242
660.883	15178
660.938	15637
660.992	13294
661.047	15791
661.101	15703
661.156	14079
661.211	15263
661.265	15120
661.320	16005
661.374	14838
661.429	15485
661.483	16759
661.538	17397
661.592	20555
661.647	25029
661.701	39671
661.755	22596
661.810	16771
661.864	16860
661.919	15369
661.973	16613
662.027	16206
662.081	15783
662.136	15460
662.190	16459
662.244	16547
662.299	15465
662.353	15413
662.407	15469
662.461	15735
662.515	16005
662.569	16151
662.624	14786
662.678	13750
662.732	14146
662.786	14296
662.840	16063
662.894	16844
662.948	13512
663.002	12290
663.056	13548
663.110	12651
663.164	14631
663.218	14240
663.272	13149
663.326	12057
663.380	11934
663.434	11318
663.488	11588
663.542	12124
663.595	11853
663.649	11252
663.703	11587
663.757	10962
663.811	10790
663.864	10471
663.918	11752
663.972	11202
664.026	10842
664.079	10526
664.133	12985
664.187	11853
664.240	11917
664.294	14463
664.348	17012
664.401	11630
664.455	11543
664.508	10628
664.562	11377
664.615	12191
664.669	10586
664.722	11254
664.776	10746
664.829	10384
664.883	11984
664.936	11195
664.990	12179
665.043	12970
665.097	12777
665.150	14168
665.203	11960
665.257	12046
665.310	11568
665.363	12357
665.417	12248
665.470	12102
665.523	12500
665.576	10519
665.630	12089
665.683	11690
665.736	11024
665.789	11536
665.842	10759
665.895	11093
665.949	11830
666.002	11308
666.055	11973
666.108	13135
666.161	12372
666.214	12282
666.267	11839
666.320	11539
666.373	12047
666.426	12299
666.479	12043
666.532	11437
666.585	12745
666.638	13186
666.691	11858
666.744	13021
666.796	12448
666.849	11994
666.902	12366
666.955	11937
667.008	11388
667.060	10973
667.113	10135
667.166	11221
667.219	10803
667.271	11655
667.324	11269
667.377	11181
667.430	10861
667.482	12875
667.535	11968
667.587	12506
667.640	11841
667.693	11748
667.745	13267
667.798	13513
667.850	11360
667.903	11004
667.955	11779
668.008	11542
668.060	12426
668.113	12073
668.165	12279
668.218	11671
668.270	11885
668.322	10949
668.375	11805
668.427	12268
668.479	10501
668.532	11482
668.584	11421
668.636	11256
668.689	11242
668.741	10773
668.793	11335
668.845	10810
668.898	10310
668.950	11088
669.002	10759
669.054	10805
669.106	10929
669.158	12130
669.211	11475
669.263	11346
669.315	12016
669.367	13431
669.419	10945
669.471	12682
669.523	12609
669.575	13393
669.627	12603
669.679	11375
669.731	12066
669.783	11939
669.835	11755
669.886	12390
669.938	11760
669.990	11770
670.042	12738
670.094	13777
670.146	14148
670.197	15753
670.249	18210
670.301	20753
670.353	26073
670.404	35767
670.456	50487
670.508	76658
670.560	125694
670.611	212808
670.663	370449
670.715	765272
670.766	1009924
670.818	448438
670.869	119022
670.921	59238
670.972	40429
671.024	30572
671.075	24928
671.127	20687
671.178	17707
671.230	16163
671.281	15201
671.333	13669
671.384	13596
671.436	13731
671.487	13219
671.538	13289
671.590	14071
671.641	14291
671.692	18440
671.744	25043
671.795	21568
671.846	14468
671.897	12337
671.949	11145
672.000	9819
672.051	9834
672.102	10678
672.153	9914
672.204	9875
672.256	8992
672.307	10236
672.358	9437
672.409	10559
672.460	8536
672.511	8436
672.562	8344
672.613	8849
672.664	8903
672.715	9345
672.766	8736
672.817	8520
672.868	8456
672.919	8142
672.970	8164
673.021	8125
673.071	7685
673.122	8242
673.173	7921
673.224	8418
673.275	7167
673.326	7786
673.376	8124
673.427	7669
673.478	7646
673.528	8470
673.579	6876
673.630	7756
673.680	7515
673.731	6784
673.782	6135
673.832	7456
673.883	7855
673.934	7386
673.984	6261
674.035	7271
674.085	6624
674.136	7804
674.186	7827
674.237	8249
674.287	10220
674.338	8030
674.388	7111
674.438	7742
674.489	7558
674.539	7437
674.589	7898
674.640	8313
674.690	7289
674.740	7529
674.791	7867
674.841	7609
674.891	7395
674.942	7218
674.992	6439
675.042	6294
675.092	6417
675.142	6215
675.193	6746
675.243	6484
675.293	5748
675.343	6680
675.393	7724
675.443	7112
675.493	6408
675.543	6865
675.593	7368
675.643	6631
675.693	6718
675.743	7504
675.793	6610
675.843	7198
675.893	7060
675.943	7071
675.993	6782
676.043	6768
676.093	6776
676.142	6616
676.192	6585
676.242	5457
676.292	6228
676.341	6828
676.391	6111
676.441	5767
676.491	6026
676.540	6451
676.590	6950
676.640	6208
676.689	6570
676.739	6038
676.789	6153
676.838	5869
676.888	6337
676.937	6207
676.987	5468
677.037	5860
677.086	5664
677.136	4973
677.185	6569
677.235	5749
677.284	6077
677.333	5832
677.383	5792
677.432	5158
677.482	6222
677.531	6088
677.580	5932
677.630	5933
677.679	5085
677.728	6645
677.778	5775
677.827	5785
677.876	5289
677.925	6456
677.975	6455
678.024	6047
678.073	5891
678.122	7018
678.171	6915
678.220	6298
678.269	7885
678.319	7214
678.368	6176
678.417	5952
678.466	6483
678.515	6856
678.564	6524
678.613	6549
678.662	6184
678.711	7342
678.760	5979
678.809	6672
678.857	6920
678.906	7875
678.955	7830
679.004	9420
679.053	14410
679.102	13209
679.151	7951
679.199	6444
679.248	6450
679.297	6122
679.346	6299
679.394	6434
679.443	6338
679.492	6568
679.540	5591
679.589	6429
679.638	5744
679.686	5761
679.735	6150
679.784	5813
679.832	6662
679.881	5881
679.929	5240
679.978	5599
680.026	6124
680.075	5857
680.123	6141
680.172	5402
680.220	5325
680.268	5539
680.317	4789
680.365	5194
680.414	5695
680.462	6151
680.510	5552
680.559	4924
680.607	5233
680.655	6378
680.703	5526
680.752	5527
680.800	5281
680.848	5814
680.896	5587
680.945	5804
680.993	4469
681.041	5884
681.089	6137
681.137	5392
681.185	4792
681.233	5141
681.258	5158
681.281	5142
681.329	5638
681.377	5056
681.380	5124
681.425	5726
681.473	5391
681.502	5754
681.521	5936
681.569	6751
681.617	5915
681.624	5933
681.665	5801
681.713	6452
681.745	6474
681.761	6434
681.809	5718
681.857	5926
681.867	5919
681.904	5777
681.952	6095
681.989	5998
682.000	5926
682.048	6528
682.096	6118
682.111	6175
682.143	6170
682.191	6183
682.233	6974
682.239	7061
682.286	6379
682.334	6078
682.354	5936
682.382	5660
682.430	6245
682.476	6823
682.477	6808
682.525	6483
682.572	6371
682.598	6023
682.620	5668
682.667	6947
682.715	6396
682.720	6483
682.763	6988
682.810	6755
682.841	6789
682.857	6769
682.905	6826
682.952	6873
682.963	6937
683.000	7042
683.047	7011
683.085	7016
683.095	6971
683.142	7326
683.190	7057
683.206	6907
683.237	6565
683.284	6884
683.328	7400
683.332	7426
683.379	7109
683.426	7483
683.449	7116
683.473	6687
683.521	7329
683.568	7664
683.571	7698
683.615	7675
683.662	7432
683.693	7581
683.709	7684
683.757	6330
683.804	8444
683.814	8136
683.851	6926
683.898	7851
683.936	7914
683.945	7901
683.992	7514
684.039	7584
684.057	7734
684.086	7947
684.133	7635
684.179	7636
684.180	7615
684.227	8052
684.274	7996
684.300	8402
684.321	8697
684.368	7646
684.415	8641
684.422	8679
684.462	8793
684.509	8121
684.543	8108
684.556	8040
684.603	9097
684.649	7741
684.665	7822
684.696	8102
684.743	8563
684.786	8792
684.790	8793
684.837	9115
684.883	9720
684.908	9541
684.930	9301
684.977	9364
685.023	9728
685.029	9681
685.070	9068
685.117	9142
685.150	8918
685.164	8886
685.210	9793
685.257	9848
685.272	9842
685.303	9676
685.350	9762
685.393	9702
685.396	9688
685.443	9651
685.490	10376
685.514	10307
685.536	10237
685.583	10790
685.629	10508
685.636	10462
685.675	10019
685.722	9746
685.757	10297
685.768	10478
685.815	9942
685.861	10570
685.878	10655
685.908	10849
685.954	10096
686.000	11313
686.000	11326
686.047	10996
686.093	11857
686.121	11589
686.139	11238
686.185	11446
686.232	11298
686.242	11285
686.278	11262
686.324	11496
686.363	10787
686.370	10665
686.416	11306
686.463	11082
686.484	11245
686.509	11496
686.555	10909
686.601	10896
686.606	10900
686.647	10723
686.693	11032
686.727	10998
686.739	11030
686.785	11661
686.831	10770
686.848	10822
686.877	10789
686.923	10356
686.969	11009
686.969	11012
687.015	11060
687.061	11481
687.090	11604
687.107	11568
687.153	11461
687.199	11540
687.211	11392
687.245	11069
687.291	11317
687.332	12027
687.336	12137
687.382	12460
687.428	12191
687.453	12638
687.474	12961
687.520	13891
687.565	14408
687.574	14534
687.611	16091
687.657	18124
687.695	21427
687.702	22617
687.748	31519
687.794	44169
687.816	43062
687.839	36400
687.885	26203
687.931	19917
687.937	19093
687.976	16972
688.022	14318
688.058	12310
688.067	12347
688.113	12144
688.158	12385
688.179	12526
688.204	12678
688.249	12855
688.295	12879
688.300	12851
688.340	12728
688.386	13316
688.421	12789
688.431	12614
688.477	12619
688.522	13236
688.542	12959
688.567	12665
688.613	12332
688.658	12569
688.663	12551
688.703	12593
688.749	12561
688.784	13168
688.794	13361
688.839	13038
688.884	13542
688.905	13449
688.930	13299
688.975	13471
689.020	13608
689.026	13599
689.065	14337
689.110	15257
689.146	16395
689.155	16718
689.201	19118
689.246	20017
689.267	19721
689.291	18035
689.336	16248
689.381	14186
689.388	13895
689.426	13762
689.471	13981
689.509	13707
689.516	13677
689.561	13378
689.606	13884
689.630	13659
689.651	13555
689.696	12961
689.741	13310
689.750	13392
689.785	13820
689.830	13657
689.871	13643
689.875	13650
689.920	13935
689.965	13855
689.992	13944
690.010	14074
690.054	14221
690.099	14119
690.112	14186
690.144	14189
690.189	14194
690.233	13668
690.233	13686
690.278	14445
690.323	15111
690.354	15349
690.367	15480
690.412	16101
690.457	16267
690.474	16554
690.501	17011
690.546	17591
690.590	18329
690.595	18340
690.635	19479
690.680	20949
690.716	21842
690.724	22405
690.769	26365
690.813	30351
690.836	32060
690.857	36578
690.902	47080
690.946	58603
690.957	61564
690.991	85984
691.035	121366
691.077	154780
691.080	155247
691.124	147273
691.168	138113
691.198	134489
691.213	123892
691.257	93518
691.301	64005
691.318	52379
691.346	46851
691.390	37956
691.434	29281
691.439	28304
691.478	26229
691.522	23490
691.559	21531
691.567	21462
691.611	20675
691.655	19462
691.680	19008
691.699	18821
691.743	18592
691.787	18059
691.800	17787
691.831	17648
691.875	17455
691.919	17628
691.921	17599
691.964	17684
692.008	17927
692.041	17705
692.052	17638
692.096	17841
692.139	17729
692.162	17576
692.183	17463
692.227	17292
692.271	17368
692.282	17334
692.315	17410
692.359	17207
692.402	17355
692.403	17387
692.447	17348
692.490	17065
692.523	17310
692.534	17405
692.578	17423
692.622	17342
692.643	17310
692.666	17347
692.709	17263
692.753	17232
692.763	17238
692.797	17624
692.840	17604
692.884	18034
692.884	18073
692.928	18511
692.971	19012
693.004	19432
693.015	19554
693.059	19585
693.102	19641
693.124	19670
693.146	20204
693.189	21356
693.233	22266
693.245	22590
693.276	24076
693.320	25829
693.363	27356
693.365	27389
693.407	31173
693.450	34531
693.485	37261
693.493	38893
693.537	47046
693.580	55289
693.605	60435
693.624	70491
693.667	94020
693.710	118816
693.725	127824
693.753	174017
693.797	249415
693.840	324978
693.845	332071
693.883	320474
693.926	304889
693.966	293427
693.970	287128
694.013	218208
694.056	149468
694.086	102441
694.099	96554
694.142	77365
694.185	57980
694.206	48862
694.229	45915
694.272	39961
694.315	34067
694.326	32490
694.358	30898
694.401	28356
694.444	26093
694.446	25928
694.487	25188
694.530	24225
694.566	23244
694.573	23100
694.616	22247
694.659	21146
694.686	20355
694.702	20181
694.745	19828
694.787	19621
694.806	19352
694.830	19243
694.873	18847
694.916	18605
694.926	18581
694.959	18740
695.002	18466
695.044	18125
695.046	18088
695.087	18336
695.130	18105
695.166	18183
695.172	18295
695.215	18522
695.258	18775
695.286	19020
695.301	18981
695.343	18351
695.386	18173
695.406	17956
695.428	17812
695.471	17568
695.514	17207
695.526	17087
695.556	17496
695.599	17820
695.641	18287
695.646	18302
695.684	18204
695.726	17875
695.766	17765
695.769	17830
695.811	17881
695.854	18197
695.886	18397
695.896	18388
695.938	17884
695.981	17525
696.005	17181
696.023	17217
696.065	17625
696.108	17821
696.125	17812
696.150	17918
696.192	18180
696.235	18300
696.245	18340
696.277	18686
696.319	18840
696.361	19236
696.365	19213
696.404	19919
696.446	20682
696.485	21219
696.488	21220
696.530	20511
696.572	20089
696.604	19590
696.614	19472
696.656	18812
696.698	18132
696.724	17544
696.740	17509
696.783	17571
696.825	17621
696.844	17537
696.867	17687
696.909	17935
696.951	18286
696.964	18326
696.992	18211
697.034	17941
697.076	17626
697.083	17551
697.118	17537
697.160	17391
697.202	17170
697.203	17126
697.244	17271
697.286	17201
697.323	17055
697.327	17086
697.369	17056
697.411	17008
697.442	16905
697.453	16986
697.494	17194
697.536	17353
697.562	17416
697.578	17450
697.620	17441
697.661	17451
697.682	17383
697.703	17417
697.744	17433
697.786	17506
697.801	17453
697.828	17519
697.869	17556
697.911	17618
697.921	17591
697.952	17599
697.994	17508
698.035	17517
698.040	17458
698.077	17192
698.118	16905
698.160	16596
698.160	16551
698.201	16879
698.243	17114
698.279	17326
698.284	17398
698.325	17669
698.367	17869
698.399	18003
698.408	17990
698.449	17691
698.491	17438
698.518	17204
698.532	17285
698.573	17422
698.614	17535
698.638	17569
698.656	17763
698.697	18077
698.738	18400
698.757	18515
698.779	18580
698.820	18589
698.862	18612
698.877	18571
698.903	18769
698.944	19010
698.985	19259
698.996	19277
699.026	19262
699.067	19182
699.116	19037
699.235	18321
699.354	18145
699.474	17473
699.593	18741
699.713	18837
699.832	17539
699.951	17939
700.070	17449
700.190	17313
700.309	18195
700.428	17812
700.547	17064
700.667	17158
700.786	18384
700.905	16900
701.024	16760
701.143	16744
701.262	15957
701.381	17115
701.500	16562
701.619	16296
701.738	17051
701.857	16503
701.976	16216
702.095	15709
702.214	16034
702.333	15701
702.452	15692
702.571	15651
702.690	15826
702.809	15307
702.928	15074
703.047	16106
703.165	15331
703.284	14982
703.403	15714
703.522	15877
703.640	16302
703.759	16701
703.878	19181
703.997	14594
704.115	15180
704.234	15230
704.353	14446
704.471	14762
704.590	14562
704.708	13871
704.827	14979
704.946	13912
705.064	14877
705.183	15326
705.301	16707
705.420	24044
705.538	22471
705.656	19923
705.775	20426
705.893	33083
706.012	42072
706.130	20943
706.249	19534
706.367	18858
706.485	20568
706.604	21269
706.722	22765
706.840	33064
706.958	79010
707.077	50843
707.195	19756
707.313	18460
707.431	18145
707.549	17653
707.668	16870
707.786	17434
707.904	16537
708.022	17312
708.140	17085
708.258	16827
708.376	16672
708.494	16941
708.612	17791
708.730	23900
708.848	22895
708.966	20823
709.084	19861
709.202	19198
709.320	20413
709.438	19421
709.556	20281
709.674	19973
709.791	20110
709.909	19459
710.027	19210
710.145	19490
710.263	19444
710.380	17994
710.498	18380
710.616	18593
710.733	18863
710.851	19285
710.969	18980
711.086	18759
711.204	18308
711.322	18369
711.439	18040
711.557	18169
711.674	18013
711.792	18518
711.909	19522
712.027	20699
712.144	17415
712.262	16607
712.379	19285
712.497	25565
712.614	26319
712.732	22625
712.849	21897
712.966	22319
713.084	22774
713.201	22024
713.318	21617
713.436	20650
713.553	22023
713.670	22171
713.787	21823
713.905	21454
714.022	20631
714.139	20778
714.256	21126
714.373	22501
714.490	25537
714.608	38029
714.725	117755
714.842	135546
714.959	25006
715.076	19783
715.193	20176
715.310	19547
715.427	19572
715.544	17921
715.661	18383
715.778	18390
715.895	20214
716.011	20017
716.128	18563
716.245	17969
716.362	18215
716.479	19104
716.596	19334
716.713	20888
716.829	18992
716.946	17741
717.063	16645
717.180	17280
717.296	16908
717.413	17348
717.530	16799
717.646	15243
717.763	17232
717.880	16804
717.996	15465
718.113	16672
718.229	15872
718.346	15673
718.462	14899
718.579	17379
718.695	18313
718.812	18676
718.928	18480
719.045	15888
719.161	15359
719.277	15358
719.394	15042
719.510	16172
719.626	15815
719.743	18877
719.859	17335
719.975	18994
720.092	36079
720.208	75284
720.324	21392
720.440	16140
720.557	15788
720.673	18175
720.789	22032
720.905	36287
721.021	19335
721.137	15146
721.253	14582
721.369	14950
721.486	16227
721.602	17818
721.718	14891
721.834	13189
721.950	14064
722.066	13924
722.181	13175
722.297	13646
722.413	14749
722.529	13076
722.645	13358
722.761	13486
722.877	13198
722.993	13664
723.108	15172
723.224	14844
723.340	13300
723.456	13488
723.571	12032
723.687	12569
723.803	13105
723.918	11964
724.034	12129
724.150	12705
724.265	12913
724.381	18295
724.497	21284
724.612	12092
724.728	11844
724.843	12877
724.959	12493
725.074	17810
725.190	19670
725.305	12804
725.421	12580
725.536	11651
725.651	11632
725.767	12505
725.882	11458
725.997	11609
726.113	11228
726.228	11568
726.343	12263
726.459	9547
726.574	11374
726.689	11451
726.804	11257
726.920	11039
727.035	10605
727.150	11044
727.265	11449
727.380	11818
727.495	10875
727.610	11051
727.725	11011
727.841	12822
727.956	20744
728.071	18808
728.186	11392
728.301	9904
728.416	11479
728.531	10658
728.645	9973
728.760	10697
728.875	10614
728.990	10028
729.105	10518
729.220	9531
729.335	10166
729.449	9934
729.564	9768
729.679	9412
729.794	10348
729.908	10328
730.023	9813
730.138	9331
730.253	9705
730.367	9484
730.482	10103
730.596	9808
730.711	11912
730.826	16947
730.940	26753
731.055	11051
731.169	9253
731.284	9441
731.398	9378
731.513	10158
731.627	10117
731.742	9814
731.856	10732
731.970	8551
732.085	9471
732.199	10141
732.313	11294
732.428	16177
732.542	34477
732.656	24608
732.771	11299
732.885	9892
732.999	9594
733.113	9744
733.227	9728
733.342	9019
733.456	9155
733.570	9116
733.684	8670
733.798	8389
733.912	9371
734.026	9332
734.140	8616
734.254	9545
734.368	11218
734.482	13845
734.596	9241
734.710	9156
734.824	8561
734.938	8975
735.052	8134
735.166	8779
735.280	9468
735.393	9276
735.507	8422
735.621	10146
735.735	12378
735.849	8678
735.962	9263
736.076	8737
736.190	8685
736.303	9319
736.417	12133
736.531	8591
736.644	8529
736.758	8115
736.872	8984
736.985	8168
737.099	9324
737.212	7023
737.326	8644
737.439	8633
737.553	8522
737.666	9401
737.780	8193
737.893	8217
738.007	8757
738.120	7991
738.233	7836
738.347	7455
738.460	8087
738.573	8440
738.687	8157
738.800	8409
738.913	8030
739.026	8095
739.140	8100
739.253	8023
739.366	8847
739.479	7786
739.592	7495
739.705	8206
739.818	7948
739.932	7986
740.045	8405
740.158	7822
740.271	7656
740.384	6916
740.497	8216
740.610	8405
740.723	8231
740.836	7991
740.949	8860
741.062	8691
741.174	8486
741.287	7409
741.400	8024
741.513	7707
741.626	8047
741.739	8478
741.851	7210
741.964	7267
742.077	7728
742.189	7600
742.302	8216
742.415	8226
742.527	7721
742.640	7029
742.753	8266
742.865	7962
742.978	7070
743.090	7804
743.203	7025
743.316	7690
743.428	6853
743.541	7821
743.653	7853
743.766	7970
743.878	7949
743.990	7560
744.103	8362
744.215	7487
744.327	7511
744.440	8451
744.552	9294
744.664	7917
744.777	7445
744.889	6639
745.001	7845
745.113	7104
745.226	7676
745.338	7994
745.450	8143
745.562	7307
745.674	7441
745.786	7545
745.898	8293
746.010	8111
746.122	7537
746.234	7646
746.347	7622
746.459	7434
746.570	7034
746.682	7969
746.794	8177
746.906	7786
747.018	7473
747.130	7281
747.242	7246
747.354	7094
747.466	8412
747.577	7006
747.689	7515
747.801	7860
747.913	7665
748.024	7424
748.136	7231
748.248	7675
748.359	7664
748.471	6591
748.583	8654
748.694	8126
748.806	9727
748.918	8392
749.029	8244
749.141	8380
749.252	8381
749.364	7553
749.475	9154
749.587	8339
749.698	7256
749.809	8520
749.921	8107
750.032	8163
750.144	7469
750.255	7501
750.366	7361
750.478	8166
750.589	7549
750.700	7303
750.811	8308
750.923	8697
751.034	9133
751.145	9645
751.256	8366
751.367	8083
751.479	8486
751.590	7396
751.701	7507
751.812	7760
751.923	8212
752.034	8095
752.145	8257
752.256	7363
752.367	8088
752.478	8528
752.589	7997
752.700	8775
752.811	8080
752.922	8362
753.032	7978
753.143	8261
753.254	8194
753.365	8245
753.476	8942
753.586	8580
753.697	8849
753.808	8531
753.919	8371
754.029	7935
754.140	8690
754.251	9133
754.361	8686
754.472	9445
754.582	8459
754.693	8830
754.804	10175
754.914	9344
755.025	9676
755.135	9442
755.246	9792
755.356	8358
755.466	9937
755.577	10394
755.687	10104
755.798	9144
755.908	9199
756.018	9881
756.129	10454
756.239	9616
756.349	10265
756.460	10123
756.570	10543
756.680	10177
756.790	10343
756.900	11302
757.011	10220
757.121	10851
757.231	9932
757.341	11272
757.451	9958
757.561	10960
757.671	10818
757.781	10967
757.891	11681
758.001	11677
758.111	11924
758.221	12674
758.331	11969
758.441	12442
758.551	12432
758.661	13016
758.771	13462
758.880	13346
758.990	14337
759.100	14225
759.210	14188
759.320	14276
759.429	13899
759.539	15195
759.649	16022
759.758	14965
759.868	15439
759.978	14575
760.087	15640
760.197	16716
760.307	16147
760.416	16628
760.526	15905
760.635	17362
760.745	17850
760.854	18329
760.964	19650
761.073	18916
761.182	19222
761.292	20583
761.401	21025
761.511	21420
761.620	20890
761.729	21830
761.839	22124
761.948	24118
762.057	25312
762.166	26705
762.276	24888
762.385	26388
762.494	27505
762.603	28372
762.712	29794
762.822	30083
762.931	32621
763.040	32964
763.149	34950
763.258	36857
763.367	38410
763.476	40863
763.585	42515
763.694	43938
763.803	48703
763.912	49535
764.021	54011
764.130	56850
764.238	59836
764.347	64943
764.456	70138
764.565	75030
764.674	83008
764.783	90231
764.891	97978
765.000	114251
765.109	127474
765.217	143949
765.326	169497
765.435	198387
765.543	236393
765.652	290495
765.761	366074
765.869	471836
765.978	624500
766.086	844167
766.195	1121062
766.303	1306017
766.412	977281
766.520	959226
766.629	1179327
766.737	1039329
766.846	797048
766.954	594683
767.062	454149
767.171	354440
767.279	278672
767.387	226526
767.496	190393
767.604	162164
767.712	142730
767.820	127624
767.928	116790
768.037	107209
768.145	101141
768.253	96478
768.361	94209
768.469	94824
768.577	95946
768.685	102100
768.793	108302
768.901	120341
769.009	138232
769.117	165781
769.225	207932
769.333	280545
769.441	399540
769.549	605525
769.657	933463
769.765	1184200
769.873	916059
769.981	1026559
770.088	871166
770.196	596438
770.304	414572
770.412	304196
770.519	235103
770.627	185191
770.735	152966
770.842	127502
770.950	111160
771.058	96104
771.165	86284
771.273	77010
771.380	69370
771.488	64344
771.595	57903
771.703	53284
771.810	50715
771.918	45660
772.025	44332
772.133	41149
772.240	38500
772.348	36319
772.455	35242
772.562	32552
772.670	31357
772.777	30129
772.884	29569
772.991	27560
773.099	27494
773.206	25672
773.313	25623
773.420	24699
773.528	23438
773.635	21871
773.742	22122
773.849	20841
773.956	20121
774.063	19519
774.170	18595
774.277	19518
774.384	18540
774.491	17235
774.598	17522
774.705	17278
774.812	16807
774.919	17089
775.026	16564
775.133	16354
775.239	15327
775.346	14910
775.453	15387
775.560	14272
775.667	15085
775.773	14392
775.880	14768
775.987	13891
776.093	14255
776.200	13198
776.307	12404
776.413	12716
776.520	12482
776.627	12902
776.733	10883
776.840	10553
776.946	12804
777.053	12313
777.159	10908
777.266	9966
777.372	11984
777.478	11016
777.585	11360
777.691	10403
777.798	10967
777.904	11180
778.010	12705
778.117	9988
778.223	10388
778.329	9869
778.435	9921
778.542	10015
778.648	8951
778.754	9452
778.860	9044
778.966	9569
779.072	9081
779.178	8782
779.284	9786
779.391	10273
779.497	10531
779.603	15853
779.708	21341
779.815	48259
779.920	169962
780.026	308834
780.132	61521
780.238	16771
780.344	12208
780.450	10324
780.556	8814
780.661	8601
780.767	7507
780.873	7732
780.979	8114
781.085	6268
781.190	7653
781.296	6971
781.402	6651
781.507	7159
781.613	6579
781.719	6883
781.824	6681
781.930	6846
782.035	6300
782.141	6751
782.246	6439
782.352	5924
782.457	7494
782.563	5540
782.668	6262
782.773	6444
782.879	5731
782.984	5828
783.090	6341
783.195	6655
783.300	6161
783.405	5824
783.511	6301
783.616	6258
783.721	5891
783.826	6449
783.932	7410
784.037	5471
784.142	6304
784.247	4564
784.352	5635
784.457	5131
784.562	5041
784.667	5501
784.772	4969
784.877	4360
784.982	5938
785.087	5351
785.192	5957
785.297	3885
785.402	4481
785.507	5893
785.611	5505
785.716	4724
785.821	4980
785.926	4730
786.031	5293
786.135	5169
786.240	4924
786.345	3571
786.450	5801
786.554	4663
786.659	4464
786.763	4200
786.868	4383
786.973	4825
787.077	4152
787.182	3956
787.286	5077
787.391	4395
787.495	4919
787.600	4534
787.704	3474
787.809	4565
787.913	3206
788.017	4756
788.122	4369
788.226	4544
788.330	3691
788.435	4288
788.539	4386
788.643	4193
788.747	3722
788.852	4174
788.956	3343
789.060	4426
789.164	3506
789.268	3658
789.372	4274
789.476	3878
789.580	3828
789.684	3642
789.788	4225
789.892	3432
789.996	3819
790.100	3775
790.204	3408
790.308	3437
790.412	3746
790.516	4937
790.620	4345
790.724	4204
790.828	3472
790.931	2365
791.035	4588
791.139	4401
791.242	2718
791.346	4187
791.450	3404
791.554	3468
791.657	2526
791.761	3607
791.864	4196
791.968	3589
792.072	3707
792.175	3177
792.279	2973
792.382	3369
792.486	3246
792.589	3487
792.693	3249
792.796	1944
792.899	3730
793.003	3329
793.106	2473
793.209	3281
793.313	3794
793.416	2148
793.519	4269
793.623	4538
793.726	4085
793.829	4017
793.932	3923
794.035	2656
794.138	4180
794.242	5016
794.345	5652
794.448	10920
794.551	25922
794.654	92015
794.757	188789
794.860	38061
794.963	7872
795.066	4287
795.169	5217
795.272	3731
795.375	3173
795.477	2348
795.580	3599
795.683	2872
795.786	3712
795.889	1439
795.991	3895
796.094	4239
796.197	2419
796.300	4126
796.402	2763
796.505	1990
796.608	2748
796.710	2813
796.813	3266
796.915	3536
797.018	2943
797.120	2430
797.223	2365
797.326	4683
797.428	1722
797.530	2150
797.633	2244
797.735	3312
797.838	2720
797.940	4280
798.042	2276
798.145	2305
798.247	3231
798.349	718
798.452	3076
798.554	2102
798.656	1362
798.758	3612
798.860	2698
798.962	2475
799.065	2134
799.167	1539
799.269	3998
799.371	3403
799.473	2505
799.575	2473
799.677	2894
799.779	3832
799.881	1537
799.983	2145
800.085	2852
800.187	2777
800.289	1078
800.390	1768
800.492	2855
800.594	2313
800.696	1985
800.798	1832
800.899	1462
801.001	2551
801.103	2066
801.205	2164
801.306	1912
801.408	1420
801.509	2089
801.611	2234
801.713	2178
801.814	2102
801.916	2205
802.017	1870
802.119	884
802.220	1892
802.322	64
802.423	3525
802.525	637
802.626	1747
802.727	1994
802.829	1742
802.930	249
803.031	3234
803.133	1619
803.234	1497
803.335	1790
803.436	1469
803.538	1861
803.639	723
803.740	2425
803.841	1101
803.942	2318
804.043	2482
804.144	771
804.245	1823
804.346	1370
804.447	1164
804.548	1778
804.649	2322
804.750	1365
804.851	1180
804.952	1821
805.053	2034
805.154	1400
805.255	1711
805.355	1265
805.456	1173
805.557	836
805.658	1027
805.758	2432
805.859	1386
805.960	1758
806.061	585
806.161	1405
806.262	1770
806.362	1012
806.463	1644
806.564	1928
806.664	2184
806.765	1843
806.865	1917
806.966	1807
807.066	1711
807.166	2161
807.267	2148
807.367	1540
807.468	1865
807.568	-267
807.668	2058
807.769	1735
807.869	807
807.969	1239
808.069	981
808.170	1105
808.270	934
808.370	2425
808.470	1733
808.570	917
808.670	1742
808.770	980
808.870	409
808.970	1945
809.070	1060
809.170	861
809.271	1785
809.370	1810
809.470	1196
809.570	611
809.670	941
809.770	1139
809.870	1395
809.970	1500
810.070	1267
810.169	1665
810.269	-191
810.369	1764
810.469	838
810.568	1154
810.668	601
810.768	737
810.867	932
810.967	1311
811.066	1125
811.166	623
811.265	1401
811.365	782
811.464	893
811.564	902
811.663	1354
811.763	-132
811.862	1432
811.962	1369
812.061	1349
812.160	667
812.260	1507
812.359	2118
812.458	2654
812.557	8691
812.657	14360
812.756	5367
812.855	1668
812.954	1437
813.053	2125
813.153	692
813.252	987
813.351	1439
813.450	571
813.549	-33
813.648	1347
813.747	1395
813.846	2011
813.945	683
814.044	1773
814.143	723
814.242	1750
814.341	329
814.439	653
814.538	1003
814.637	572
814.736	794
814.835	1231
814.933	573
815.032	1192
815.131	1187
815.229	177
815.328	1536
815.427	817
815.525	2202
815.624	1446
815.722	146
815.821	1109
815.919	944
816.018	747
816.116	1742
816.215	669
816.313	440
816.412	998
816.510	1074
816.609	1877
816.707	1091
816.805	1372
816.904	-1
817.002	2361
817.100	1927
817.198	1665
817.296	784
817.395	1291
817.493	1812
817.591	561
817.689	3081
817.787	747
817.885	2011
817.983	2826
818.081	5340
818.179	11162
818.277	28527
818.375	29490
818.473	7861
818.571	2847
818.669	2407
818.767	2382
818.865	2059
818.963	2213
819.061	2270
819.158	3975
819.256	10491
819.354	24143
819.452	60225
819.549	46479
819.647	11861
819.745	4254
819.842	2610
819.940	3086
820.038	1734
820.135	1568
820.233	2435
820.330	802
820.428	879
820.525	1959
820.623	631
820.720	749
820.818	2233
820.915	996
821.012	1636
821.110	-155
821.207	2082
821.304	311
821.402	1362
821.499	1902
821.596	1356
821.693	347
821.791	1102
821.888	650
821.985	2723
822.082	1574
822.179	2030
822.276	295
822.373	1087
822.470	567
822.567	767
822.664	29
822.761	1891
822.858	-397
822.955	1260
823.052	334
823.149	951
823.246	1149
823.343	1022
823.440	2006
823.536	1207
823.633	1049
823.730	1197
823.827	1256
823.923	718
824.020	1197
824.117	220
824.213	63
824.310	1584
824.407	1763
824.503	831
824.600	1052
824.696	518
824.793	977
824.889	462
824.986	807
825.082	885
825.179	950
825.275	1104
825.371	446
825.468	1418
825.564	-36
825.660	1162
825.757	720
825.853	1319
825.949	-166
826.045	1479
826.142	-371
826.238	318
826.334	740
826.430	-243
826.526	1860
826.622	680
826.718	749
826.814	137
826.910	1305
827.006	470
827.102	-396
827.198	1038
827.294	223
827.390	1041
827.486	924
827.582	-310
827.678	-253
827.774	940
827.869	-387
827.965	1889
828.061	507
828.157	511
828.252	713
828.348	-518
828.444	1284
828.539	-446
828.635	601
828.731	1586
828.826	73
828.922	623
829.017	186
829.113	1299
829.208	190
829.304	509
829.399	1694
829.495	389
829.590	987
829.685	303
829.781	-167
829.876	594
829.971	494
830.066	1056
830.162	-4
830.257	-40
830.352	285
830.447	1519
830.543	496
830.638	-473
830.733	552
830.828	552
830.923	526
831.018	344
831.113	541
831.208	-84
831.303	48
831.398	145
831.493	144
831.588	1371
831.683	-273
831.778	973
831.873	1047
831.967	1623
832.062	158
832.157	-77
832.252	611
832.346	492
832.441	694
832.536	943
832.631	1845
832.725	1462
832.820	-458
832.914	-198
833.009	286
833.104	580
833.198	658
833.293	444
833.387	855
833.482	334
833.576	-607
833.670	887
833.765	123
833.859	-49
833.954	1059
834.048	1116
834.142	1012
834.237	456
834.331	-17
834.425	784
834.519	-1020
834.613	576
834.708	-418
834.802	942
834.896	288
834.990	437
835.084	397
835.178	256
835.272	-83
835.366	598
835.460	850
835.554	-76
835.648	276
835.742	350
835.836	202
835.930	-30
836.024	-25
836.117	1693
836.211	76
836.305	1177
836.399	1182
836.493	-606
836.586	931
836.680	-63
836.774	-711
836.867	782
836.961	-237
837.055	-835
837.148	508
837.242	626
837.335	-33
837.429	155
837.522	-183
837.616	445
837.709	893
837.803	440
837.896	-77
837.989	670
838.083	1064
838.176	1605
838.269	1541
838.363	254
838.456	472
838.549	932
838.642	173
838.735	2869
838.829	1418
838.922	549
839.015	195
839.108	-750
839.201	-51
839.294	853
839.387	225
839.480	-281
839.573	786
839.666	598
839.759	-83
839.852	55
839.945	-213
840.038	-401
840.131	-513
840.223	276
840.316	842
840.409	826
840.502	-90
840.594	677
840.687	-156
840.780	1037
840.873	-479
840.965	-144
841.058	483
841.150	1368
841.243	545
841.336	826
841.428	188
841.521	-386
841.613	-506
841.706	769
841.798	-283
841.890	439
841.983	278
842.075	818
842.167	-53
842.260	245
842.352	634
842.444	67
842.537	1243
842.629	3895
842.721	563
842.813	267
842.905	-423
842.997	532
843.090	23
843.182	1329
843.274	1576
843.366	4809
843.458	8801
843.550	6319
843.642	689
843.734	255
843.826	248
843.918	603
844.009	396
844.101	95
844.193	413
844.285	-561
844.377	929
844.469	926
844.560	281
844.652	727
844.744	-121
844.835	810
844.927	529
845.019	-17
845.110	287
845.202	796
845.293	527
845.385	-94
845.476	397
845.568	269
845.659	381
845.751	952
845.842	-526
845.934	258
846.025	18
846.116	241
846.208	-157
846.299	-23
846.390	23
846.482	553
846.573	313
846.664	828
846.755	402
846.846	849
846.937	-1127
847.029	-56
847.120	10
847.211	49
847.302	701
847.393	-731
847.484	380
847.575	292
847.666	598
847.757	-1
847.847	-312
847.938	77
848.029	-431
848.120	-683
848.211	214
848.302	457
848.392	39
848.483	640
848.574	-321
848.664	-591
848.755	466
848.846	478
848.936	-428
849.027	238
849.118	-250
849.208	282
849.299	-418
849.389	953
849.480	312
849.570	751
849.661	2426
849.751	3799
849.841	1681
849.932	-501
850.022	-57
850.112	557
850.203	-628
850.293	370
850.383	375
850.474	-302
850.564	-857
850.654	330
850.744	1387
850.834	693
850.924	448
851.014	-6
851.104	321
851.194	36
851.284	563
851.374	669
851.464	249
851.554	-11
851.644	692
851.734	1191
851.824	855
851.914	1507
852.004	3199
852.094	3386
852.183	1406
852.273	497
852.363	121
852.452	514
852.542	-458
852.632	-597
852.721	950
852.811	-126
852.901	1039
852.990	-711
853.080	-245
853.169	192
853.259	-562
853.348	-1124
853.438	-26
853.527	32
853.617	886
853.706	1488
853.795	1223
853.885	4373
853.974	7575
854.063	14263
854.152	26390
854.242	10490
854.331	842
854.420	634
854.509	-174
854.598	482
854.687	-231
854.777	734
854.866	-615
854.955	25
855.044	64
855.133	441
855.222	-490
855.311	-243
855.400	721
855.488	-228
855.577	75
855.666	570
855.755	354
855.844	371
855.933	704
856.021	752
856.110	456
856.199	-959
856.288	-496
856.376	494
856.465	-435
856.554	-330
856.642	-458
856.731	-20
856.819	-1352
856.908	-258
856.996	-601
857.085	-256
857.173	-560
857.262	-183
857.350	-317
857.438	178
857.527	-613
857.615	407
857.703	17
857.792	-1168
857.880	-587
857.968	-774
858.056	-366
858.145	157
858.233	-385
858.321	-826
858.409	575
858.497	-794
858.585	-1377
858.673	-333
858.761	-1073
858.849	-806
858.937	-226
859.025	-508
859.113	41
859.201	-744
859.289	260
859.377	-264
859.465	-61
859.552	488
859.640	-450
859.728	-419
859.816	-9
859.903	293
859.991	-453
860.079	382
860.166	-636
860.254	-248
860.342	-391
860.429	-931
860.517	-318
860.604	-246
860.692	-344
860.779	-411
860.867	-248
860.954	95
861.042	-362
861.129	-158
861.216	-361
861.304	-543
861.391	342
861.478	-630
861.565	387
861.653	908
861.740	-1440
861.827	-487
861.914	379
862.001	279
862.089	-516
862.176	-1105
862.263	-394
862.350	-847
862.437	-1987
862.524	-99
862.611	-582
862.698	-223
862.785	-321
862.871	-183
862.958	-748
863.045	-20
863.132	-435
863.219	-531
863.306	-1397
863.392	-481
863.479	-13
863.566	-588
863.652	629
863.739	-676
863.826	84
863.912	-673
863.999	-914
864.086	-792
864.172	-530
864.259	-1057
864.345	15
864.432	-451
864.518	-596
864.604	-692
864.691	-763
864.777	-163
864.863	90
864.950	99
865.036	-625
865.122	-523
865.209	-82
865.295	390
865.381	-101
865.467	-269
865.553	275
865.639	-173
865.726	537
865.812	1848
865.898	3477
865.984	5690
866.070	10492
866.156	13027
866.242	2244
866.328	85
866.414	-268
866.499	57
866.585	-121
866.671	-569
866.757	33
866.843	128
866.928	-223
867.014	-901
867.100	10
867.186	-113
867.271	-353
867.357	-3
867.442	980
867.528	-414
867.614	-667
867.699	-209
867.785	93
867.870	-133
867.956	-379
868.041	132
868.127	-645
868.212	-73
868.297	-326
868.383	-205
868.468	345
868.553	1535
868.639	1635
868.724	1479
868.809	1997
868.894	-388
868.979	-1251
869.065	-154
869.150	-1343
869.235	-333
869.320	-14
869.405	-741
869.490	-583
869.575	-1009
869.660	-608
869.745	464
869.830	-41
869.915	-457
870.000	-429
870.085	-702
870.169	-429
870.254	-314
870.339	-39
870.424	-1035
870.509	-577
870.593	-924
870.678	-547
870.763	-531
870.847	-651
870.932	-1411
871.016	-98
871.101	-846
871.186	-807
871.270	-590
871.355	-1083
871.439	-731
871.523	-1262
871.608	293
871.692	-541
871.777	-305
871.861	-924
871.945	277
872.030	-389
872.114	-949
872.198	-670
872.282	-390
872.367	-704
872.451	-1017
872.535	-359
872.619	410
872.703	-42
872.787	-654
872.871	-1458
872.955	-343
873.039	-811
873.123	-1242
873.207	-1312
873.291	-636
873.375	-397
873.459	250
873.543	-1037
873.627	-1299
873.711	-814
873.794	162
873.878	-453
873.962	-909
874.045	-648
874.129	-105
874.137	-201
874.213	-1158
874.245	-755
874.296	-107
874.352	-846
874.380	-1209
874.460	-394
874.464	-361
874.547	-28
874.568	-237
874.631	-846
874.676	-478
874.714	-181
874.784	-194
874.798	-196
874.881	808
874.892	610
874.965	-739
874.999	-705
875.048	-677
875.107	-844
875.131	-902
875.215	-214
875.215	-214
875.298	-1433
875.323	-1199
875.381	-590
875.430	-107
875.465	227
875.538	-476
875.548	-574
875.631	-486
875.646	-587
875.714	-1069
875.753	-1065
875.798	-1054
875.861	-654
875.881	-544
875.964	-561
875.968	-577
876.047	-803
876.076	-700
876.130	-498
876.183	-606
876.213	-664
876.291	-97
876.296	-63
876.379	-950
876.398	-740
876.462	-6
876.506	-424
876.545	-807
876.613	-796
876.628	-795
876.711	-385
876.721	-362
876.794	-122
876.828	-194
876.877	-344
876.935	-850
876.960	-1001
877.043	-439
877.043	-436
877.125	200
877.150	175
877.208	361
877.258	457
877.291	374
877.365	9
877.374	-12
877.456	-443
877.472	-359
877.539	-186
877.579	-296
877.622	-222
877.687	-192
877.704	-249
877.787	-477
877.794	-515
877.869	-638
877.901	-321
877.952	67
878.008	-53
878.034	-117
878.115	-755
878.117	-768
878.199	-159
878.222	-281
878.282	-464
878.329	-467
878.364	-494
878.437	-608
878.447	-629
878.529	-643
878.544	-595
878.611	-505
878.651	-821
878.694	-941
878.758	-568
878.776	-490
878.858	285
878.865	266
878.941	-241
878.972	-382
879.023	-511
879.078	-643
879.105	-644
879.185	-820
879.187	-826
879.269	-306
879.292	-457
879.351	-775
879.399	-587
879.433	-441
879.506	-370
879.516	-384
879.598	-327
879.613	-486
879.680	-924
879.720	-755
879.762	-626
879.827	-409
879.844	-406
879.926	-237
879.933	-271
880.007	-310
880.040	-383
880.089	-606
880.147	-550
880.171	-439
880.253	672
880.254	674
880.335	796
880.360	829
880.417	1170
880.467	2339
880.499	3069
880.574	3988
880.580	3996
880.662	801
880.680	581
880.744	-215
880.787	-673
880.825	-741
880.893	-718
880.907	-776
880.989	-561
881.000	-642
881.070	-651
881.106	-399
881.152	-478
881.213	-656
881.233	-608
881.315	-665
881.319	-660
881.396	-600
881.426	-745
881.478	-989
881.532	-266
881.559	76
881.639	-424
881.641	-434
881.722	-589
881.745	-574
881.803	-340
881.852	-133
881.885	-217
881.958	-384
881.966	-400
882.047	-844
882.064	-820
882.129	-327
882.171	-211
882.210	-180
882.277	299
882.291	385
882.372	138
882.383	91
882.454	-188
882.489	-237
882.535	-282
882.596	-31
882.616	-76
882.697	-896
882.702	-904
882.778	-276
882.808	-175
882.859	-301
882.914	-410
882.940	-271
883.020	3
883.021	-2
883.102	-540
883.127	-921
883.183	-892
883.233	-375
883.264	-82
883.339	391
883.345	390
883.426	8
883.445	-44
883.507	-401
883.551	-566
883.587	-407
883.657	-225
883.668	-253
883.749	-314
883.763	-387
883.830	-474
883.869	-280
883.910	-159
883.975	-62
883.991	-45
884.072	-465
884.081	-496
884.152	-530
884.187	-449
884.233	-416
884.292	-389
884.314	-383
884.394	-307
884.398	-318
884.475	-133
884.504	48
884.555	-14
884.610	-133
884.636	-37
884.716	40
884.716	42
884.797	-70
884.821	-120
884.877	-284
884.927	-393
884.958	-437
885.033	-415
885.038	-418
885.118	-757
885.139	-856
885.199	-769
885.244	-537
885.279	-375
885.350	-350
885.359	-396
885.439	-330
885.456	-431
885.520	-607
885.561	-510
885.600	-269
885.667	17
885.680	-7
885.760	-291
885.773	-319
885.840	-79
885.878	98
885.920	-63
885.984	-555
886.000	-546
886.080	-32
886.089	-17
886.160	-424
886.195	-589
886.240	-482
886.300	-340
886.320	-281
886.400	102
886.406	108
886.480	-243
886.511	-324
886.560	-280
886.616	-276
886.640	-233
886.720	-59
886.722	-54
886.800	-220
886.827	-318
886.879	-517
886.932	-820
886.959	-633
887.038	44
887.039	40
887.119	-498
887.143	-679
887.198	-368
887.248	41
887.278	126
887.354	91
887.358	82
887.437	-11
887.459	-70
887.517	-51
887.564	59
887.596	129
887.669	101
887.676	56
887.755	-441
887.774	-573
887.835	-293
887.880	10
887.914	-112
887.985	-458
887.994	-484
888.073	-875
888.090	-902
888.153	-97
888.195	410
888.232	21
888.300	-675
888.311	-626
888.391	-406
888.405	-339
888.470	196
888.510	465
888.549	163
888.615	-232
888.628	-173
888.708	121
888.720	172
888.787	-165
888.825	-396
888.866	-258
888.930	56
888.945	61
889.024	-16
889.035	-13
889.103	227
889.140	324
889.182	152
889.245	-86
889.261	-132
889.340	-322
889.349	-345
889.419	-314
889.454	-292
889.498	-81
889.559	220
889.577	179
889.656	11
889.664	-2
889.735	308
889.768	456
889.814	214
889.873	-103
889.978	307
890.083	322
890.187	-393
890.292	-270
890.397	436
890.501	-589
890.606	675
890.710	473
890.815	146
890.919	-237
891.024	-12
891.128	-748
891.233	473
891.337	-369
891.442	-575
891.546	-1049
891.650	-247
891.755	236
891.859	454
891.963	-739
892.068	5
892.172	-140
892.276	-1004
892.380	-626
892.484	-890
892.589	1
892.693	96
892.797	-332
892.901	253
893.005	-721
893.109	173
893.213	-230
893.317	703
893.421	-218
893.525	-830
893.629	357
893.733	-37
893.837	106
893.941	-420
894.045	293
894.148	143
894.252	86
894.356	25
894.460	936
894.564	-81
894.667	-39
894.771	-108
894.875	-823
894.978	-60
895.082	-156
895.186	280
895.289	743
895.393	279
895.496	-375
895.600	232
895.703	-431
895.807	218
895.910	-256
896.014	-783
896.117	-410
896.221	-593
896.324	-640
896.427	487
896.531	-452
896.634	-372
896.737	-127
896.840	-359
896.944	-280
897.047	368
897.150	236
897.253	-689
897.356	-832
897.460	-407
897.563	-329
897.666	-615
897.769	23
897.872	117
897.975	-314
898.078	295
898.181	-512
898.284	-120
898.387	-692
898.490	-629
898.593	-79
898.695	95
898.798	-345
898.901	-764
899.004	-238
899.107	-309
899.209	-32
899.312	155
899.415	-1179
899.518	-653
899.620	-168
899.723	-227
899.826	-894
899.928	-225
900.031	-648
900.133	-202
900.236	-703
900.338	-244
900.441	437
900.543	-784
900.646	-801
900.748	-113
900.851	31
900.953	-119
901.055	-888
901.158	111
901.260	-529
901.362	-490
901.465	234
901.567	-189
901.669	-14
901.771	-797
901.873	-207
901.976	-130
902.078	-115
902.180	-599
902.282	-341
902.384	-562
902.486	-176
902.588	-166
902.690	191
902.792	-529
902.894	-537
902.996	-266
903.098	-509
903.200	-1310
903.302	71
903.404	-156
903.505	-170
903.607	-246
903.709	-77
903.811	30
903.913	-584
904.014	-931
904.116	-626
904.218	212
904.319	-134
904.421	278
904.523	101
904.624	485
904.726	-615
904.827	-43
904.929	-837
905.030	-529
905.132	-233
905.233	-53
905.335	32
905.436	-61
905.537	261
905.639	651
905.740	-1026
905.841	-31
905.943	277
906.044	-772
906.145	-56
906.247	-450
906.348	-242
906.449	-446
906.550	-463
906.651	-224
906.752	-407
906.854	-99
906.955	-553
907.056	76
907.157	-764
907.258	134
907.359	-240
907.460	-36
907.561	-61
907.662	-314
907.762	-92
907.863	-277
907.964	-93
908.065	-332
908.166	-502
908.267	-370
908.367	-181
908.468	73
908.569	-138
908.670	-544
908.770	-215
908.871	-482
908.971	125
909.072	-224
909.173	-565
909.273	-55
909.374	-617
909.474	193
909.575	-398
909.675	-398
909.776	-375
909.876	-448
909.977	-246
910.077	-132
910.177	-909
910.278	412
910.378	-625
910.478	-11
910.579	-379
910.679	311
910.779	32
910.879	345
910.980	-162
911.080	-506
911.180	-541
911.280	-15
911.380	527
911.480	-292
911.580	-185
911.680	-538
911.780	-17
911.880	205
911.980	-674
912.080	-42
912.180	458
912.280	-435
912.380	-487
912.480	96
912.580	121
912.679	508
912.779	-63
912.879	554
912.979	45
913.078	102
913.178	-779
913.278	180
913.377	-588
913.477	297
913.577	-245
913.676	5
913.776	-40
913.875	-507
913.975	-119
914.074	-262
914.174	-72
914.273	-413
914.373	-661
914.472	209
914.572	-705
914.671	-170
914.770	-12
914.870	-341
914.969	-413
915.068	-317
915.167	-403
915.267	627
915.366	-349
915.465	-11
915.564	346
915.663	-374
915.763	-129
915.862	389
915.961	-783
916.060	-402
916.159	100
916.258	-26
916.357	-813
916.456	300
916.555	305
916.654	7
916.752	216
916.851	-89
916.950	-403
917.049	680
917.148	-147
917.247	235
917.345	10
917.444	-398
917.543	-88
917.642	806
917.740	-635
917.839	-349
917.937	-48
918.036	793
918.135	359
918.233	-409
918.332	-315
918.430	-961
918.529	-383
918.627	-562
918.726	-203
918.824	-90
918.923	616
919.021	-264
919.119	-384
919.218	124
919.316	270
919.414	-520
919.512	-488
919.611	-31
919.709	-669
919.807	-20
919.905	-315
920.003	-239
920.102	-410
920.200	368
920.298	-330
920.396	-221
920.494	-546
920.592	-424
920.690	1044
920.788	237
920.886	120
920.984	23
921.082	-418
921.180	419
921.277	-848
921.375	-214
921.473	-364
921.571	-898
921.669	-1142
921.766	-283
921.864	-213
921.962	110
922.060	6
922.157	-378
922.255	14
922.352	155
922.450	-157
922.548	-377
922.645	170
922.743	-202
922.840	-305
922.938	-659
923.035	-178
923.133	-441
923.230	-461
923.327	-25
923.425	141
923.522	-328
923.619	-577
923.717	-392
923.814	98
923.911	81
924.008	391
924.106	702
924.203	-221
924.300	-599
924.397	346
924.494	-519
924.591	523
924.688	89
924.786	-571
924.883	303
924.979	-374
925.077	-231
925.173	-202
925.270	-238
925.367	-440
925.464	55
925.561	-462
925.658	-807
925.755	236
925.852	-229
925.948	-758
926.045	74
926.142	-369
926.239	-162
926.335	-550
926.432	-282
926.529	18
926.625	380
926.722	-596
926.818	-73
926.915	-126
927.011	486
927.108	91
927.204	-32
927.301	169
927.397	-80
927.494	-995
927.590	-747
927.687	-520
927.783	-715
927.879	-795
927.976	-1055
928.072	-903
928.168	-694
928.264	-350
928.361	-1272
928.457	-400
928.553	-1101
928.649	-538
928.745	368
928.841	32
928.937	-1171
929.033	-144
929.129	-18
929.225	-354
929.321	-380
929.417	-571
929.513	-109
929.609	869
929.705	-710
929.801	-754
929.897	-1054
929.993	48
930.089	-191
930.184	-208
930.280	-869
930.376	43
930.471	-381
930.567	-402
930.663	335
930.758	-828
930.854	-482
930.950	-681
931.045	-479
931.141	52
931.236	-212
931.332	-587
931.427	-1074
931.523	-15
931.618	-481
931.714	-47
931.809	177
931.905	-627
932.000	-245
932.095	-432
932.191	-345
932.286	-956
932.381	-677
932.476	-608
932.572	-317
932.667	-329
932.762	-978
932.857	-577
932.952	-344
933.047	-1176
933.142	-327
933.237	-796
933.332	-273
933.427	-638
933.522	-266
933.617	-533
933.712	292
933.807	-1241
933.902	-658
933.997	-346
934.092	6
934.187	-745
934.282	282
934.376	-883
934.471	-485
934.566	-861
934.661	-295
934.755	-1230
934.850	-266
934.945	554
935.039	-223
935.134	-1036
935.228	-1004
935.323	-846
935.417	-287
935.512	-625
935.606	-640
935.701	-658
935.795	-836
935.890	-823
935.984	-879
936.079	-506
936.173	-239
936.267	-93
936.362	-450
936.456	-1475
936.550	-1008
936.644	-1369
936.738	-1116
936.833	-899
936.927	-533
937.021	-953
937.115	-757
937.209	-1670
937.303	74
937.397	-1129
937.491	-203
937.585	-13
937.679	-334
937.773	-1235
937.867	-137
937.961	-433
938.055	-265
938.149	-116
938.243	-440
938.337	-1148
938.430	-890
938.524	-1210
938.618	-943
938.712	-789
938.805	-93
938.899	-475
938.993	-176
939.086	-329
939.180	-976
939.274	-937
939.367	-195
939.461	-482
939.554	-783
939.648	-1025
939.741	-1093
939.835	-1048
939.928	-938
940.022	-305
940.115	-840
940.208	175
940.302	-45
940.395	-213
940.488	-1404
940.582	-206
940.675	-1073
940.768	-419
940.861	-1135
940.954	-378
941.048	-1069
941.141	-1370
941.234	-1687
941.327	-531
941.420	470
941.513	-1422
941.606	-584
941.699	-480
941.792	-959
941.885	-909
941.978	-1157
942.071	-800
942.164	-1016
942.257	-485
942.349	-552
942.442	-691
942.535	-1969
942.628	-603
942.721	526
942.813	-1283
942.906	505
942.999	-413
943.091	-1114
943.184	-623
943.277	-1361
943.369	-790
943.462	-866
943.554	-331
943.647	-429
943.739	-988
943.832	-1535
943.924	-1161
944.017	-541
944.109	-1457
944.201	-999
944.294	-680
944.386	-934
944.478	-1221
944.571	-846
944.663	-1537
944.755	-1089
944.847	-1474
944.940	-1308
945.032	-1951
945.124	-909
945.216	-280
945.308	-1378
945.400	-644
945.492	-33
945.584	-1652
945.676	-799
945.768	-378
945.860	-570
945.952	-1090
946.044	-951
946.136	-994
946.228	-430
946.320	-771
946.412	-1679
946.503	-1780
946.595	-48
946.687	-871
946.779	-1490
946.870	-1076
946.962	-735
947.054	-800
947.145	-1081
947.237	-640
947.329	-671
947.420	-1719
947.512	-111
947.603	-1408
947.695	-119
947.786	-1457
947.878	-1156
947.969	-859
948.061	-1137
948.152	-864
948.243	-916
948.335	-1078
948.426	-1539
948.517	-882
948.609	-1415
948.700	-1222
948.791	-748
948.882	-826
948.973	-848
949.065	-1366
949.156	-709
949.247	-713
949.338	-805
949.429	-722
949.520	-775
949.611	-1425
949.702	-792
949.793	-520
949.884	-844
949.975	-1350
950.066	-1108
950.157	-974
950.247	-489
950.338	-775
950.429	-1191
950.520	-1002
950.611	-1421
950.701	-299
950.792	-1810
950.883	-407
950.973	-1198
951.064	-1040
951.155	-1053
951.245	-1001
951.336	-397
951.427	-1141
951.517	-972
951.608	-584
951.698	-1390
951.788	-861
951.879	-1693
951.969	-1510
952.060	-1082
952.150	-730
952.240	-533
952.331	-2477
952.421	213
952.511	-791
952.602	-1454
952.692	-1412
952.782	-502
952.872	-1242
952.962	-1533
953.052	-1162
953.143	-1476
953.233	-385
953.323	61
953.413	-1156
953.503	-353
953.593	-975
953.683	-1289
953.773	-1987
953.863	-1481
953.953	-1240
954.042	-1101
954.132	-853
954.222	-333
954.312	-1271
954.402	-901
954.492	-1006
954.581	-845
954.671	-1927
954.761	-1421
954.850	-432
954.940	-1141
955.030	-704
955.119	-1096
955.209	-1192
955.298	-659
955.388	-1210
955.477	-90
955.567	-830
955.656	-607
955.746	-280
955.835	-662
955.925	-1091
956.014	-1066
956.103	-1128
956.193	-219
956.282	-1800
956.371	-1064
956.461	-601
956.550	-1138
956.639	-884
956.728	-1929
956.817	-1349
956.906	-982
956.995	-753
957.085	-1304
957.174	-1253
957.263	-1489
957.352	-218
957.441	-200
957.530	-1203
957.619	-361
957.708	-1168
957.796	-1726
957.885	-1126
957.974	-962
958.063	-1456
958.152	-1096
958.241	-628
958.329	-840
958.418	-624
958.507	-1086
958.596	-792
958.684	-1526
958.773	-1375
958.861	-146
958.950	-822
959.039	-799
959.127	-1609
959.216	-476
959.304	-526
959.393	-991
959.481	-1054
959.570	-883
959.658	-1902
959.746	-1177
959.835	-537
959.923	-610
960.011	-2118
960.100	-836
960.188	-1520
960.276	-1222
960.365	-554
960.453	-1372
960.541	-500
960.629	-918
960.717	-1153
960.805	-920
960.893	-434
960.981	-1636
961.069	63
961.158	-978
961.245	-513
961.333	-884
961.421	-1498
961.509	-1141
961.597	-1009
961.685	-859
961.773	-958
961.861	-1074
961.949	-905
962.036	-415
962.124	-716
962.212	-1024
962.299	-914
962.387	-1634
962.475	-536
962.562	-1768
962.650	-499
962.738	-618
962.825	-642
962.913	-1149
963.000	-1343
963.088	-732
963.175	-1417
963.263	-347
963.350	-1378
963.438	-698
963.525	-1601
963.612	-161
963.700	-1069
963.787	655
963.874	-272
963.962	-807
964.049	-1226
964.136	-1477
964.223	-1749
964.310	-546
964.398	-1126
964.485	-1220
964.572	-1453
964.659	80
964.746	-1012
964.833	-284
964.920	-1327
965.007	-1290
965.094	-1630
965.181	-1194
965.268	-1078
965.355	-1599
965.441	-634
965.528	-951
965.615	-713
965.702	-1088
965.789	-1729
965.875	-954
965.962	-1481
966.049	-1247
966.136	-1112
966.222	-1316
966.309	-1233
966.395	-1113
966.482	-475
966.569	-838
966.655	-1018
966.742	-1365
966.828	-1267
966.915	-1008
967.001	-826
967.087	-1373
967.174	-1342
967.260	-1031
967.347	-1362
967.433	-923
967.519	1226
967.605	-1168
967.692	-1306
967.778	-1109
967.864	-1717
967.950	-1296
968.036	-1662
968.123	-747
968.209	-1204
968.295	-965
968.381	-9
968.467	-1079
968.553	-1793
968.639	-64
968.725	-1817
968.811	-916
968.897	-753
968.983	-892
969.069	-1940
969.154	-339
969.240	-575
969.326	-1201
969.412	-1881
969.497	-1634
969.583	-563
969.669	-387
969.755	-611
969.840	-654
969.926	-961
970.012	-992
970.097	-852
970.183	-1319
970.268	-870
970.354	-265
970.439	-1690
970.525	69
970.610	-1806
970.696	-225
970.781	-239
970.866	-955
970.952	-902
971.037	-1030
971.122	-1867
971.208	-351
971.293	-930
971.378	-2151
971.463	-1066
971.549	-736
971.634	-837
971.719	-789
971.804	-1158
971.889	-407
971.974	-1396
972.059	-1584
972.144	-362
972.229	-1121
972.314	-1879
972.399	-787
972.484	-1819
972.569	-883
972.654	-1924
972.739	-1007
972.824	-1707
972.908	-979
972.993	-1046
973.078	-831
973.163	-1310
973.247	-876
973.332	-2179
973.417	-16
973.501	-1904
973.586	-639
973.671	-1188
973.755	-572
973.840	-849
973.924	-152
974.009	-1831
974.093	-1675
974.178	-895
974.262	-739
974.346	-1406
974.431	-1038
974.515	-1411
974.600	-1094
974.684	-670
974.768	-1799
974.852	-643
974.937	-1878
975.021	-519
975.105	-1296
975.189	-994
975.273	-768
975.358	-1938
975.442	-2114
975.526	-882
975.610	-2528
975.694	-1332
975.778	-866
975.862	-2199
975.946	-2542
976.030	-39
976.114	-1016
976.198	-739
976.281	-1979
976.365	-906
976.449	-1502
976.533	-1548
976.617	-1624
976.700	-1017
976.784	-1414
976.868	-1846
976.951	-1161
977.035	-1076
977.119	-957
977.202	-1344
977.286	-976
977.369	-1244
977.453	-972
977.536	-1984
977.620	-1610
977.703	-605
977.787	-1650
977.870	-933
977.953	-571
978.037	-1839
978.120	-200
978.203	-754
978.287	-1161
978.370	-1217
978.453	-1184
978.536	-1877
978.620	-1148
978.703	-836
978.786	-1350
978.869	-2230
978.952	-2327
979.035	-77
979.118	-1034
979.201	-1857
979.284	-126
979.367	-1756
979.450	-1132
979.533	-1977
979.616	-1376
979.699	-1511
979.782	-878
979.865	-1651
979.948	-721
980.030	-845
980.113	-1268
980.196	-2725
980.279	-874
980.361	-1694
980.444	-1467
980.526	-944
980.609	-1569
980.692	-1586
980.774	-2113
980.857	-1627
980.939	302
981.022	-1830
981.104	-1555
981.187	-1704
981.269	-721
981.352	-797
981.434	-2624
981.516	-1921
981.599	-151
981.681	-1379
981.763	-1596
981.846	-1495
981.928	-1291
982.010	-1126
982.092	-1785
982.174	-594
982.256	-1946
982.339	-1572
982.421	-1443
982.503	-529
982.585	-1943
982.667	-2206
982.749	-1368
982.831	-1103
982.913	-2036
982.995	-1192
983.077	-1909
983.158	-214
983.240	-1750
983.322	-1496
983.404	-468
983.486	-2085
983.568	-1053
983.649	-1766
983.731	-1076
983.813	-2020
983.894	-1148
983.976	-1187
984.058	-1496
984.139	-445
984.221	-2219
984.302	-453
984.384	-1507
984.465	-2027
984.547	-1209
984.628	-2100
984.710	-1060
984.791	-1080
984.872	-1262
984.954	-1892
985.035	-1600
985.116	-1501
985.198	-1164
985.279	-803
985.360	-1991
985.441	-1550
985.522	-933
985.604	-1899
985.685	-2966
985.766	373
985.847	-350
985.928	-1419
986.009	-946
986.090	-1223
986.171	-1226
986.252	-1696
986.333	-244
986.414	-1547
986.495	-693
986.576	-1965
986.656	-1578
986.737	-1278
986.818	-1824
986.899	-1365
986.980	-1438
987.060	-1813
987.141	-1072
987.222	-1908
987.302	-1760
987.383	-1138
987.464	-1506
987.544	-666
987.625	-1535
987.705	-1099
987.786	-1109
987.866	-1415
987.947	-633
988.027	-1060
988.108	-1425
988.188	-1245
988.268	-1175
988.349	-1041
988.429	-1771
988.509	-191
988.589	-1359
988.670	-2521
988.750	-192
988.830	-1977
988.910	-653
988.990	-1070
989.070	-1115
989.151	-764
989.231	-1916
989.311	-1106
989.391	-825
989.471	-1097
989.551	-1799
989.631	-1840
989.711	-1508
989.791	-1711
989.870	-2192
989.950	176
990.030	-1731
990.110	-1422
990.190	-1788
990.269	-1464
990.349	-936
990.429	-1266
990.509	-289
990.588	-2188
990.668	-768
990.747	-1874
990.827	-946
990.907	-1481
990.986	-1306
991.066	-695
991.145	-1029
991.225	-1081
991.304	-1871
991.383	-1021
991.463	-1615
991.542	-1340
991.622	-1370
991.701	-1814
991.780	-2028
991.859	-1200
991.939	-942
992.018	-941
992.097	-1230
992.176	-1444
992.256	-1823
992.335	-2214
992.414	-1360
992.493	-1143
992.572	-2424
992.651	-309
992.730	-1300
992.809	-1383
992.888	-2028
992.967	-1777
993.046	-1070
993.125	-1814
993.203	-1310
993.282	-1145
993.361	-1287
993.440	-1093
993.519	-1910
993.597	-278
993.676	-1428
993.755	-613
993.834	-1914
993.912	-1992
993.991	300
994.069	-2110
994.148	-1646
994.226	-926
994.305	-1668
994.384	-2381
994.462	-195
994.540	-2127
994.619	-1261
994.697	-787
994.776	-2377
994.854	-620
994.932	-1163
995.011	-1473
995.089	-1471
995.167	-1355
995.245	-1687
995.324	-2017
995.402	-1445
995.480	-1541
995.558	-634
995.636	-2450
995.714	-1281
995.792	-634
995.870	-2254
995.948	-1510
996.026	-1580
996.104	-1781
996.182	-965
996.260	-2463
996.338	-1064
996.416	-1792
996.494	-1372
996.572	-993
996.649	-1054
996.727	-2618
996.805	-1543
996.883	-1876
996.960	-984
997.038	-886
997.116	-764
997.193	-1556
997.271	-1291
997.348	-1489
997.426	-1244
997.504	-2352
997.581	-708
997.658	-659
997.736	-1360
997.813	-1819
997.891	-827
997.968	-1675
998.046	-1965
998.123	-1287
998.200	-851
998.277	-2215
998.355	-1650
998.432	-2556
998.509	-334
998.586	-660
998.663	-1050
998.741	-1003
998.818	-1496
998.895	-1774
998.972	-675
999.049	-1457
999.126	-1424
999.203	-993
999.280	-1347
999.357	-2099
999.434	-1522
999.511	-2245
999.587	-1806
999.664	-1999
999.741	-1650
999.818	-780
999.895	-2136
999.971	-1888
1000.048	-1443
1000.125	-813
1000.202	-2267
1000.278	-1780
1000.355	-1278
1000.431	-1183
1000.508	-1818
1000.584	-1710
1000.661	-1692
1000.738	-1679
1000.814	-1180
1000.890	-1512
1000.967	-1150
1001.043	-1479
1001.120	-2053
1001.196	-1546
1001.272	-1241
1001.349	-1411
1001.425	-1209
1001.501	-660
1001.577	-1603
1001.654	-1158
1001.730	-1389
1001.806	-1725
1001.882	-2935
1001.958	-1163
1002.034	-1145
1002.110	-1436
1002.186	-2088
1002.262	-1698
1002.338	-1995
1002.414	-1403
1002.490	-936
1002.566	-1810
1002.642	-2477
1002.718	-907
1002.794	-815
1002.870	-1120
1002.945	-1642
1003.021	-1496
1003.097	-2071
1003.173	-1415
1003.248	-2424
1003.324	-1289
1003.400	-1279
1003.475	-2146
1003.551	-1523
1003.626	-1808
1003.702	-740
1003.777	-1777
1003.853	-1381
1003.928	-2017
1004.004	-1979
1004.079	-1581
1004.155	-1914
1004.230	-2553
1004.305	-686
1004.381	-1853
1004.456	-637
1004.531	-2479
1004.607	-2205
1004.682	-1161
1004.757	-1719
1004.832	-2069
1004.907	-2844
1004.982	-1654
1005.057	-1724
1005.133	-1378
1005.208	-1852
1005.283	-1847
1005.358	-1480
1005.433	-2144
1005.508	-1125
1005.583	-2163
1005.657	-2046
1005.732	-1202
1005.807	-2759
1005.882	-2408
1005.957	-781
1006.032	-1557
1006.106	-2204
1006.181	-2327
1006.256	-1750
1006.331	-2652
1006.405	-2088
1006.480	-1496
1006.554	-2301
1006.629	-2493
1006.704	-2731
1006.778	-2154
1006.853	-1362
1006.927	-1921
1007.002	-2974
1007.076	-1510
1007.150	-2012
1007.225	-1431
1007.299	-1944
1007.373	-2649
1007.448	-2212
1007.522	-488
1007.596	-1273
1007.671	-2636
1007.745	-1382
1007.819	-1446
1007.893	-2157
1007.967	-1574
1008.041	-1855
1008.115	-1188
1008.190	-1957
1008.264	-1193
1008.338	-2261
1008.412	-2697
1008.486	-2047
1008.560	-2156
1008.633	-2470
1008.707	-2020
1008.781	-1201
1008.855	-2265
1008.929	-2138
1009.003	-2807
1009.076	-1583
1009.150	-1158
1009.224	-1816
1009.298	-1642
1009.371	-3248
1009.445	-1375
1009.519	-1429
1009.592	-2902
1009.666	-2215
1009.739	-1819
1009.813	-3185
1009.886	-930
1009.960	-1897
1010.033	-1420
1010.107	-1810
1010.180	-2707
1010.253	-2061
1010.327	-2033
1010.400	-2373
1010.473	-1635
1010.547	-1374
1010.620	-2938
1010.693	-1506
1010.766	-2786
1010.840	-2167
1010.913	-2483
1010.986	-2422
1011.059	-1935
1011.132	-2535
1011.205	-1982
1011.278	-2438
1011.351	-2294
1011.424	-1645
1011.497	-2225
1011.570	-1722
1011.643	-1743
1011.716	-2260
1011.789	-1562
1011.862	-1419
1011.934	-1271
1012.007	-2908
1012.080	-1458
1012.153	-2383
1012.225	-2411
1012.298	-2091
1012.371	-1216
1012.443	-1541
1012.516	-2273
1012.588	-1104
1012.661	-2704
1012.733	-2098
1012.806	-1370
1012.879	-1789
1012.951	-1285
1013.023	-1493
1013.096	-1791
1013.168	-2376
1013.241	-1464
1013.313	-2083
1013.385	-2668
1013.458	-1802
1013.530	-1123
1013.602	-2270
1013.674	-1409
1013.746	-1748
1013.819	-2019
1013.891	-2153
1013.963	-2643
1014.035	-2500
1014.107	-1568
1014.179	-1960
1014.251	-2619
1014.323	-1815
1014.395	-2312
1014.467	-2137
1014.539	-2333
1014.611	-2019
1014.683	-2112
1014.754	-1709
1014.826	-2551
1014.898	-2484
1014.970	-2306
1015.042	-1412
1015.113	-2046
1015.185	-2258
1015.257	-2423
1015.328	-1473
1015.400	-2665
1015.471	-1660
1015.543	-3275
1015.615	-1733
1015.686	-2141
1015.757	-1685
1015.829	-2535
1015.901	-1943
1015.972	-2020
1016.043	-2882
1016.115	-2122
1016.186	-1983
1016.257	-2843
1016.328	-1316
1016.400	-1616
1016.471	-2316
1016.542	-1963
1016.613	-1217
1016.685	-1976
1016.756	-1784
1016.827	-2689
1016.898	-1971
1016.969	-1667
1017.040	-1581
1017.111	-1840
1017.182	-2770
1017.253	-2097
1017.324	-1982
1017.395	-1928
1017.466	-1996
1017.537	-1533
1017.608	-2807
1017.678	-2305
1017.749	-1301
1017.820	-3177
1017.891	-3062
1017.961	-2337
1018.032	-1847
1018.103	-1651
1018.173	-2167
1018.244	-1846
1018.315	-1917
1018.385	-2120
1018.456	-1367
1018.526	-2911
1018.597	-2620
1018.667	-2479
1018.738	-2347
1018.808	-2454
1018.878	-2920
1018.949	-1424
1019.019	-2189
1019.089	-2011
1019.160	-2073
1019.230	-2675
1019.300	-1206
1019.371	-3136
1019.441	-1643
1019.511	-1588
1019.581	-2576
1019.651	-1811
1019.721	-1900
1019.791	-2119
1019.861	-2346
1019.931	-2183
1020.001	-1627
1020.071	-1664
1020.141	-2834
1020.211	-2980
1020.281	-2110
1020.351	-2162
1020.421	-2347
1020.491	-1497
1020.560	-2205
1020.630	-2113
1020.700	-1857
1020.770	-2800
1020.839	-2135
1020.909	-1835
1020.979	-2136
1021.048	-2292
1021.118	-2334
1021.187	-2168
1021.257	-2094
1021.326	-833
1021.396	-2041
1021.465	-2645
1021.535	-2260
1021.604	-2150
1021.674	-995
1021.743	-1213
1021.812	-1592
1021.882	-2668
1021.951	-1847
1022.020	-2513
1022.089	-2149
1022.159	-2310
1022.228	-1396
1022.297	-2295
1022.366	-2158
1022.435	-2692
1022.504	-2272
1022.573	-1871
1022.642	-1829
1022.711	-2382
1022.781	-2266
1022.849	-1847
1022.918	-2141
1022.987	-1667
1023.056	-2433
1023.125	-1975
1023.194	-2180
1023.263	-2357
1023.331	-2008
1023.400	-1923
1023.469	-1770
1023.538	-901
1023.606	-2327
1023.675	-2261
1023.744	-3241
1023.812	-2068
1023.881	-2260
1023.949	-2170
1024.018	-1471
1024.086	-2063
1024.155	-2597
1024.223	-2428
1024.292	-1695
1024.360	-1752
1024.429	-2263
1024.497	-2535
1024.565	-2264
1024.634	-1826
1024.702	-2491
1024.770	-2772
1024.838	-1863
1024.907	-1677
1024.975	-2221
1025.043	-2197
1025.111	-2812
1025.179	-1473
1025.247	-2682
1025.315	-2349
1025.383	-2411
1025.451	-2327
1025.519	-2081
1025.587	-2103
1025.655	-2139
1025.723	-1611
1025.791	-1838
1025.859	-2101
1025.927	-1953
1025.995	-2888
1026.062	-1650
1026.130	-1897
1026.198	-1832
1026.266	-2768
1026.333	-1775
1026.401	-1496
1026.469	-2173
1026.536	-2120
1026.604	-1909
1026.671	-2720
1026.739	-2629
1026.806	-1375
1026.874	-2734
1026.941	-2163
1027.009	-1586
1027.076	-2280
1027.144	-732
1027.211	-3530
1027.278	-2245
1027.345	-1612
1027.413	-2252
1027.480	-2726
1027.547	-2181
1027.614	-2294
1027.682	-1454
1027.749	-1800
1027.816	-2250
1027.883	-2144
1027.950	-2273
1028.017	-2417
1028.084	-1883
1028.151	-2497
1028.218	-1683
1028.285	-2468
1028.352	-2792
1028.419	-2498
1028.486	-2649
1028.553	-2602
1028.619	-2515
1028.686	-2474
1028.753	-2183
1028.820	-2360
1028.886	-2134
1028.953	-2415
1029.020	-1639
1029.086	-1750
1029.153	-2526
1029.220	-1723
1029.286	-2040
1029.353	-2116
1029.419	-1709
1029.486	-2671
1029.552	-1893
1029.619	-1690
1029.685	-1862
1029.751	-2105
1029.818	-1753
1029.884	-2231
1029.951	-1645
1030.017	-3130
1030.083	-1821
1030.149	-1667
1030.216	-2341
1030.282	-1491
1030.348	-2430
1030.414	-2498
1030.480	-2293
1030.546	-1952
1030.612	-1593
1030.678	-2134
1030.744	-2470
1030.810	-2380
1030.876	-2308
1030.942	-2541
1031.008	-1717
1031.074	-1499
1031.140	-1835
1031.206	-2642
1031.272	-2723
1031.337	-1975
1031.403	-2220
1031.469	-1587
1031.534	-2576
1031.600	-2420
1031.666	-3165
1031.731	-1702
1031.797	-1781
1031.863	-2359
1031.928	-1800
1031.994	-2176
1032.059	-2373
1032.125	-2409
1032.190	-2258
1032.256	-2477
1032.321	-2366
1032.386	-1881
1032.452	-1255
1032.517	-2297
1032.582	-2624
1032.647	-1403
1032.713	-2284
1032.778	-2042
1032.843	-1924
1032.908	-2346
1032.974	-1985
1033.039	-2088
1033.104	-1314
1033.169	-3206
1033.234	-1631
1033.299	-1990
1033.364	-1508
1033.429	-2025
1033.494	-1920
1033.559	-2167
1033.624	-1520
1033.688	-2750
1033.753	-2155
1033.818	-2513
1033.883	-2502
1033.948	-2481
1034.013	-2545
1034.077	-2666
1034.142	-1965
1034.207	-2658
1034.271	-1727
1034.336	-1586
1034.400	-1619
1034.465	-2398
1034.530	-2470
1034.594	-1917
1034.658	-2929
1034.723	-2716
1034.787	-2678
1034.852	-2092
1034.916	-3160
1034.981	-2133
1035.045	-2387
1035.109	-2130
1035.173	-2258
1035.238	-2475
1035.302	-2804
1035.366	-2414
1035.430	-2074
1035.495	-2752
1035.559	-1936
1035.623	-2593
1035.687	-2529
1035.751	-2361
1035.815	-2345
1035.879	-2795
1035.943	-1800
1036.007	-2520
1036.071	-1687
1036.135	-1366
1036.198	-2097
1036.262	-2529
1036.326	-2656
1036.390	-1669
1036.454	-1613
1036.517	-1556
1036.581	-2083
1036.645	-2710
1036.709	-1936
1036.772	-2304
1036.836	-2063
1036.900	-2076
1036.963	-2396
1037.026	-2549
1037.090	-1745
1037.154	-2773
1037.217	-2078
1037.280	-3244
1037.344	-2671
1037.407	-2389
1037.471	-2076
1037.534	-1772
1037.597	-1621
1037.661	-1684
1037.724	-2406
1037.787	-2670
1037.850	-3034
1037.913	-2442
1037.977	-2130
1038.040	-2445
1038.103	-2010
1038.166	-2055
1038.229	-2647
1038.292	-2598
1038.355	-2608
1038.418	-1978
1038.481	-1961
1038.544	-3047
1038.607	-2633
1038.670	-2443
1038.732	-2310
1038.795	-2525
1038.858	-2438
1038.921	-1899
1038.984	-2006
1039.046	-2214
1039.109	-1690
1039.172	-2921
1039.234	-2830
1039.297	-2508
1039.360	-2114
1039.422	-2665
1039.485	-1572
1039.547	-3455
1039.610	-2024
1039.672	-3008
1039.734	-2039
1039.797	-2251
1039.859	-2199
1039.922	-1859
1039.984	-2005
1040.046	-2996
1040.109	-1919
1040.171	-2310
1040.233	-1569
1040.295	-2891
1040.358	-2291
1040.420	-2504
1040.482	-1437
1040.544	-2281
1040.606	-2268
1040.668	-2804
1040.730	-1623
1040.792	-2021
1040.854	-2154
1040.916	-2287
1040.978	-2975
1041.040	-1932
1041.102	-2390
1041.164	-2149
1041.225	-2619
1041.287	-2272
1041.349	-2730
1041.411	-2621
1041.472	-2638
1041.534	-2121
1041.596	-2937
1041.657	-1458
1041.719	-2077
1041.781	-2433
1041.842	-2058
1041.904	-2198
1041.965	-1702
1042.027	-1983
1042.088	-1796
1042.150	-2387
1042.211	-2250
1042.272	-2344
1042.334	-2888
1042.395	-2452
1042.456	-2565
1042.518	-2698
1042.579	-2569
1042.640	-1608
1042.701	-2083
1042.763	-1886
1042.824	-1996
1042.885	-2547
1042.946	-2244
1043.007	-2600
1043.068	-2152
1043.129	-2398
1043.190	-1920
1043.251	-2691
1043.312	-1627
1043.373	-1629
1043.434	-2168
1043.495	-2169
1043.556	-1691
1043.616	-2870
1043.677	-2385
1043.738	-2698
1043.799	-2727
1043.859	-2350
1043.920	-2019
1043.981	-2695
1044.041	-2095
1044.102	-2631
1044.162	-2726
1044.223	-2776
1044.284	-2260
1044.344	-2372
1044.405	-2341
1044.465	-1354
1044.525	-2320
1044.586	-2535
1044.646	-1797
1044.707	-2013
1044.767	-1437
1044.827	-1878
1044.887	-2726
1044.948	-1950
1045.008	-1828
1045.068	-891
1045.128	-1947
1045.188	-1469
1045.249	-1227
1045.309	-1988
1045.369	-2133
1045.429	-1312
1045.489	-2059
1045.549	-1711
1045.609	-893
1045.669	-1702
1045.729	-1913
1045.789	-1776
1045.848	-2192
1045.908	-1608
1045.968	-1205
1046.028	-1387
1046.088	-2144
1046.147	-1639
1046.207	-1831
1046.267	-1605
1046.326	-1276
1046.386	-1263
1046.446	-1577
1046.505	-2153
1046.565	-744
1046.624	-807
1046.684	-1208
1046.743	-873
1046.803	-491
1046.862	-188
1046.922	0
