'Start Wavelength	183.907
'End Wavelength	1046.922
'Gate Delay	5.000
'Gate Width (ms)	1.050
'Laser Output Level	0.000
'X Position	0.000
'Y Position	0.000
'Z Position	0.000
'Grid Point Number	1.000
'Shot Number	100.000
183.907	608.000
183.977	385.000
184.047	-141
184.116	-14
184.186	-340
184.256	-318
184.325	-168
184.395	-570
184.465	881
184.534	651
184.604	1
184.674	504
184.743	-922
184.813	240
184.883	-138
184.952	-172
185.022	-90
185.092	46
185.161	-466
185.231	312
185.301	-334
185.370	773
185.440	-505
185.509	-341
185.579	11
185.649	306
185.718	136
185.788	569
185.857	-349
185.927	-140
185.996	-284
186.066	-583
186.136	64
186.205	279
186.275	-272
186.344	301
186.414	259
186.483	-142
186.553	625
186.622	1110
186.692	-425
186.761	158
186.831	453
186.900	-533
186.970	216
187.039	-197
187.109	-19
187.178	-311
187.248	78
187.317	-556
187.387	-164
187.456	-218
187.526	790
187.595	548
187.664	-33
187.734	-81
187.803	-784
187.873	839
187.942	153
188.012	126
188.081	-377
188.150	-85
188.220	-52
188.289	801
188.358	-8
188.428	-64
188.497	-907
188.567	930
188.636	-409
188.705	-37
188.775	-300
188.844	-641
188.913	716
188.983	-176
189.052	23
189.121	108
189.191	94
189.260	777
189.329	-143
189.399	226
189.468	201
189.537	218
189.606	243
189.676	-304
189.745	-139
189.814	552
189.883	-128
189.953	-112
190.022	-149
190.091	208
190.161	-12
190.230	470
190.299	-179
190.368	-44
190.437	-210
190.507	246
190.576	-397
190.645	430
190.714	-285
190.783	-406
190.853	348
190.922	408
190.991	135
191.060	-51
191.129	-44
191.198	279
191.268	-256
191.337	369
191.406	543
191.475	-153
191.544	-318
191.613	766
191.682	403
191.752	445
191.821	-170
191.890	68
191.959	43
192.028	-575
192.097	348
192.166	452
192.235	-836
192.304	807
192.373	-247
192.442	595
192.511	-46
192.580	-33
192.650	-383
192.719	114
192.788	1232
192.857	-3
192.926	791
192.995	399
193.064	436
193.133	237
193.202	-69
193.271	435
193.340	471
193.409	-115
193.478	701
193.547	-73
193.615	469
193.684	729
193.753	422
193.822	41
193.891	-82
193.960	859
194.029	-162
194.098	584
194.167	727
194.236	656
194.305	-32
194.374	8
194.443	84
194.512	631
194.580	-346
194.649	42
194.718	771
194.787	849
194.856	-199
194.925	178
194.994	-35
195.062	150
195.131	99
195.200	-28
195.269	572
195.338	494
195.407	372
195.475	-291
195.544	712
195.613	32
195.682	365
195.751	-208
195.819	-305
195.888	303
195.957	273
196.026	-1
196.094	217
196.163	712
196.232	241
196.301	-463
196.369	-64
196.438	-395
196.507	183
196.576	399
196.644	-500
196.713	537
196.782	-211
196.850	917
196.919	785
196.988	865
197.056	-293
197.125	382
197.194	-259
197.262	-364
197.331	448
197.400	-606
197.468	-142
197.537	100
197.606	575
197.674	735
197.743	187
197.812	22
197.880	-303
197.949	-36
198.017	-97
198.086	325
198.155	78
198.223	-74
198.292	-225
198.360	347
198.429	-417
198.497	-30
198.566	995
198.635	229
198.703	885
198.772	1363
198.840	5
198.909	73
198.977	69
199.046	638
199.114	476
199.183	25
199.251	-146
199.320	87
199.388	-265
199.457	297
199.525	-158
199.594	718
199.662	283
199.731	1243
199.799	-27
199.867	-73
199.936	948
200.004	617
200.073	1071
200.141	372
200.210	256
200.278	-212
200.346	575
200.415	18
200.483	-435
200.552	765
200.620	-8
200.688	424
200.757	315
200.825	-169
200.893	-291
200.962	63
201.030	-114
201.098	313
201.167	-39
201.235	521
201.303	-354
201.372	284
201.440	288
201.508	192
201.577	223
201.645	852
201.713	-78
201.781	-299
201.850	-436
201.918	554
201.986	266
202.055	508
202.123	-449
202.191	593
202.259	445
202.327	747
202.396	96
202.464	202
202.532	68
202.600	662
202.669	-133
202.737	55
202.805	-750
202.873	341
202.941	60
203.009	130
203.078	-180
203.146	794
203.214	193
203.282	-408
203.350	729
203.418	364
203.487	496
203.555	58
203.623	-508
203.691	309
203.759	-556
203.827	-228
203.895	-536
203.963	319
204.031	224
204.099	224
204.168	268
204.236	637
204.304	291
204.372	400
204.440	-402
204.508	-574
204.576	52
204.644	90
204.712	-534
204.780	-418
204.848	234
204.916	-449
204.984	231
205.052	93
205.120	435
205.188	-69
205.256	-379
205.324	682
205.392	-420
205.460	445
205.528	-95
205.596	382
205.664	6
205.732	-3
205.799	788
205.867	588
205.935	-308
206.003	965
206.071	-85
206.139	-302
206.207	437
206.275	194
206.343	51
206.411	599
206.478	-286
206.546	429
206.614	-175
206.682	542
206.750	481
206.818	885
206.885	364
206.953	-642
207.021	1402
207.089	978
207.157	-432
207.225	742
207.292	-171
207.360	-588
207.428	-64
207.496	-23
207.563	-298
207.631	550
207.699	-713
207.767	1025
207.834	514
207.902	244
207.970	-481
208.038	578
208.105	195
208.173	-52
208.241	443
208.309	-52
208.376	-61
208.444	969
208.512	-190
208.579	264
208.647	-47
208.715	766
208.782	-414
208.850	422
208.918	-237
208.985	148
209.053	-155
209.120	-442
209.188	19
209.256	-427
209.323	-141
209.391	-531
209.459	1573
209.526	734
209.594	52
209.661	647
209.729	1060
209.796	923
209.864	60
209.932	-102
209.999	1123
210.067	887
210.134	525
210.202	658
210.269	575
210.337	901
210.404	380
210.472	8
210.539	692
210.607	869
210.674	76
210.742	620
210.809	152
210.877	526
210.944	971
211.012	533
211.079	1058
211.146	774
211.214	-61
211.281	585
211.349	1476
211.416	1138
211.484	55
211.551	27
211.618	104
211.686	141
211.753	-549
211.821	1158
211.888	545
211.955	251
212.023	858
212.090	-115
212.157	447
212.225	770
212.292	858
212.359	1110
212.427	2466
212.494	1475
212.561	831
212.629	209
212.696	325
212.763	615
212.831	715
212.898	769
212.965	3
213.032	531
213.100	123
213.167	516
213.234	717
213.301	516
213.369	1177
213.436	120
213.503	523
213.570	550
213.638	-109
213.705	-392
213.772	218
213.839	-177
213.906	1117
213.973	331
214.041	318
214.108	995
214.175	-313
214.242	112
214.309	775
214.376	1066
214.444	29
214.511	414
214.578	147
214.645	689
214.712	405
214.779	263
214.846	100
214.913	1095
214.980	1154
215.048	1113
215.115	1176
215.182	109
215.249	629
215.316	422
215.383	744
215.450	761
215.517	-432
215.584	974
215.651	421
215.718	324
215.785	329
215.852	415
215.919	148
215.986	1387
216.053	22
216.120	-100
216.187	312
216.254	562
216.321	-202
216.388	-574
216.455	704
216.522	405
216.589	354
216.656	1341
216.722	1051
216.789	1058
216.856	384
216.923	234
216.990	463
217.057	372
217.124	879
217.191	866
217.258	554
217.324	1030
217.391	1569
217.458	730
217.525	692
217.592	756
217.659	118
217.725	758
217.792	887
217.859	420
217.926	321
217.993	695
218.059	673
218.126	525
218.193	219
218.260	-76
218.327	116
218.393	99
218.460	158
218.527	-416
218.594	-228
218.660	181
218.727	235
218.794	-121
218.860	926
218.927	808
218.994	-175
219.061	-163
219.127	-415
219.194	308
219.261	-272
219.327	-596
219.394	546
219.461	-102
219.527	236
219.594	858
219.661	149
219.727	-493
219.794	1262
219.860	-54
219.927	911
219.994	1840
220.060	2026
220.127	2763
220.193	1232
220.260	915
220.326	1292
220.393	2387
220.460	1983
220.526	1789
220.593	514
220.659	1959
220.726	796
220.792	2433
220.859	1675
220.925	3332
220.992	4055
221.058	3006
221.125	2066
221.191	1469
221.258	879
221.324	913
221.391	665
221.457	1066
221.524	1045
221.590	1536
221.657	1805
221.723	1225
221.789	662
221.856	1359
221.922	-107
221.989	953
222.055	1144
222.121	-6
222.188	1920
222.254	879
222.321	1017
222.387	558
222.453	483
222.520	921
222.586	437
222.652	940
222.719	-718
222.785	1109
222.851	363
222.918	143
222.984	373
223.050	81
223.116	-462
223.183	1654
223.249	-377
223.315	-220
223.382	-285
223.448	247
223.514	-566
223.580	381
223.647	310
223.713	113
223.779	-486
223.845	548
223.911	-69
223.978	-348
224.044	-166
224.110	221
224.176	-110
224.242	336
224.309	-902
224.375	537
224.441	657
224.507	244
224.573	-520
224.639	373
224.705	-167
224.772	702
224.838	162
224.904	404
224.970	-267
225.036	-138
225.102	-606
225.168	645
225.234	532
225.300	136
225.366	363
225.432	732
225.499	65
225.565	228
225.631	289
225.697	554
225.763	66
225.829	501
225.895	566
225.961	750
226.027	1212
226.093	348
226.159	1482
226.225	2120
226.291	4292
226.357	5951
226.423	2800
226.489	1726
226.554	839
226.620	1170
226.686	993
226.752	2028
226.818	3217
226.884	6218
226.950	5488
227.016	2393
227.082	2756
227.148	369
227.214	751
227.279	1194
227.345	919
227.411	1452
227.477	1888
227.543	3424
227.609	2991
227.674	3546
227.740	1147
227.806	259
227.872	709
227.938	1356
228.003	799
228.069	1146
228.135	136
228.201	333
228.267	-116
228.332	289
228.398	-35
228.464	654
228.530	-405
228.595	73
228.661	-895
228.727	100
228.792	703
228.858	-235
228.924	-1563
228.990	1205
229.055	-774
229.121	750
229.187	146
229.252	-370
229.318	142
229.384	483
229.449	811
229.515	-601
229.581	-783
229.646	1296
229.712	-93
229.777	501
229.843	163
229.909	460
229.974	1483
230.040	926
230.105	874
230.171	95
230.236	785
230.302	1874
230.368	224
230.433	-26
230.499	516
230.564	1053
230.630	-332
230.695	392
230.761	715
230.826	-403
230.892	1404
230.957	263
231.023	-279
231.088	-71
231.154	1065
231.219	778
231.284	-30
231.350	997
231.415	-1139
231.481	745
231.546	723
231.612	682
231.677	-592
231.742	-618
231.808	1574
231.873	309
231.939	-1173
232.004	747
232.069	863
232.135	-178
232.200	-7
232.265	1115
232.331	-93
232.396	156
232.461	79
232.527	-693
232.592	-361
232.657	569
232.723	286
232.788	328
232.853	74
232.918	53
232.984	39
233.049	191
233.114	-268
233.179	479
233.245	1051
233.310	213
233.375	-1090
233.440	23
233.506	-943
233.571	-99
233.636	-135
233.701	388
233.766	-596
233.832	617
233.897	-393
233.962	-1084
234.027	1746
234.092	406
234.157	-186
234.222	305
234.288	276
234.353	1235
234.418	734
234.483	1391
234.548	366
234.613	724
234.678	1299
234.743	701
234.808	1584
234.873	-150
234.938	1145
235.004	327
235.069	507
235.134	-29
235.199	758
235.264	1146
235.329	-706
235.394	864
235.459	1218
235.524	83
235.589	403
235.654	-71
235.719	-399
235.784	1027
235.849	520
235.913	545
235.978	10
236.043	882
236.108	-121
236.173	-385
236.238	1003
236.303	-247
236.368	213
236.433	1427
236.498	566
236.563	1500
236.627	2724
236.692	8851
236.757	8528
236.822	3414
236.887	1463
236.952	2131
237.017	654
237.081	2007
237.146	1227
237.211	5226
237.276	8464
237.341	11606
237.405	6540
237.470	3366
237.535	1301
237.600	1951
237.664	1320
237.729	864
237.794	859
237.859	3756
237.923	1564
237.988	1023
238.053	968
238.118	937
238.182	1927
238.247	2634
238.312	-351
238.376	809
238.441	-543
238.506	1370
238.570	-521
238.635	894
238.700	102
238.764	151
238.829	861
238.893	700
238.958	512
239.023	593
239.087	407
239.152	781
239.216	-295
239.281	1142
239.346	321
239.410	470
239.475	-93
239.539	2425
239.604	941
239.668	1938
239.733	323
239.797	3326
239.862	6574
239.926	5713
239.991	2597
240.055	651
240.120	925
240.184	1100
240.249	300
240.313	686
240.378	152
240.442	986
240.507	820
240.571	1089
240.635	299
240.700	893
240.764	-309
240.829	37
240.893	-1356
240.957	122
241.022	1178
241.086	1937
241.151	-181
241.215	-499
241.279	1431
241.344	430
241.408	606
241.472	417
241.537	943
241.601	797
241.665	-286
241.730	329
241.794	995
241.858	556
241.922	775
241.987	1567
242.051	446
242.115	-617
242.179	661
242.244	124
242.308	782
242.372	1035
242.436	664
242.501	311
242.565	-226
242.629	375
242.693	861
242.757	333
242.822	354
242.886	1704
242.950	416
243.014	145
243.078	858
243.142	104
243.206	-219
243.271	1496
243.335	297
243.399	1286
243.463	2339
243.527	9824
243.591	2569
243.655	1370
243.719	-406
243.783	1588
243.847	1649
243.911	2167
243.975	768
244.040	-13
244.104	1095
244.168	301
244.232	258
244.296	249
244.360	2454
244.424	-301
244.488	597
244.552	872
244.615	-1487
244.679	624
244.743	-548
244.807	-31
244.871	398
244.935	-29
244.999	-1296
245.063	153
245.127	1743
245.191	1251
245.255	522
245.319	575
245.383	-665
245.446	1618
245.510	-1163
245.574	231
245.638	1354
245.702	-1046
245.766	1384
245.829	1739
245.893	-617
245.957	-220
246.021	947
246.085	651
246.149	3
246.212	2420
246.276	2061
246.340	461
246.404	1052
246.467	1367
246.531	-91
246.595	1299
246.659	772
246.722	-710
246.786	663
246.850	756
246.913	1093
246.977	-352
247.041	447
247.104	677
247.168	932
247.232	1297
247.295	3498
247.359	1508
247.423	553
247.486	1106
247.550	1738
247.614	115
247.677	-133
247.741	630
247.804	-43
247.868	938
247.932	853
247.995	4255
248.059	248
248.122	-97
248.186	1575
248.249	1994
248.313	5360
248.376	6637
248.440	3164
248.503	598
248.567	1803
248.630	780
248.694	2124
248.757	3620
248.821	5577
248.884	5434
248.948	2781
249.011	5220
249.075	7240
249.138	6304
249.202	2317
249.265	861
249.328	2758
249.392	674
249.455	1095
249.519	928
249.582	685
249.645	2430
249.709	996
249.772	1680
249.835	1513
249.899	800
249.962	1653
250.025	506
250.089	2947
250.152	3483
250.215	1826
250.279	1486
250.342	1970
250.405	1239
250.468	597
250.532	2145
250.595	2810
250.658	8897
250.721	16605
250.785	5389
250.848	4091
250.911	1322
250.974	1652
251.038	1829
251.101	4747
251.164	2739
251.227	2618
251.290	1344
251.354	3272
251.417	12923
251.480	13998
251.543	9380
251.606	23883
251.669	19529
251.732	7360
251.795	7139
251.859	6624
251.922	14183
251.985	9786
252.048	4286
252.111	2563
252.174	1525
252.237	3723
252.300	7791
252.363	8484
252.426	18132
252.489	6834
252.552	3953
252.615	1352
252.678	2947
252.741	5576
252.804	7997
252.867	20441
252.930	11352
252.993	5957
253.056	4001
253.119	1797
253.182	1106
253.245	2662
253.308	2585
253.371	710
253.434	1600
253.497	2315
253.559	2907
253.622	1374
253.685	2370
253.748	1972
253.811	1353
253.874	2050
253.937	1339
254.000	1115
254.062	2709
254.125	3446
254.188	4675
254.251	2761
254.314	956
254.376	1957
254.439	2262
254.502	1816
254.565	863
254.628	3826
254.690	1776
254.753	835
254.816	90
254.878	1293
254.941	2027
255.004	2773
255.067	1227
255.129	-142
255.192	-39
255.255	-835
255.317	229
255.380	-283
255.443	45
255.505	290
255.568	-42
255.631	-91
255.693	1586
255.756	-151
255.819	947
255.881	-35
255.944	20
256.006	421
256.069	192
256.132	263
256.194	304
256.257	624
256.319	930
256.382	862
256.444	2312
256.507	1670
256.569	856
256.632	673
256.694	1505
256.757	5145
256.819	16372
256.882	5666
256.944	2707
257.007	2061
257.069	782
257.132	596
257.194	1846
257.257	792
257.319	547
257.381	107
257.444	4905
257.506	15954
257.569	19687
257.631	7435
257.693	3511
257.756	2029
257.818	872
257.880	601
257.943	1004
258.005	588
258.067	379
258.130	912
258.192	659
258.254	664
258.317	548
258.379	964
258.441	1762
258.503	1994
258.566	1429
258.628	1797
258.690	169
258.753	1118
258.815	955
258.877	634
258.939	254
259.001	1311
259.064	609
259.126	-861
259.188	541
259.250	661
259.312	689
259.375	1443
259.437	1172
259.499	1025
259.561	491
259.623	610
259.685	492
259.747	324
259.809	1348
259.872	2219
259.934	4191
259.996	6244
260.058	2947
260.120	390
260.182	92
260.244	888
260.306	88
260.368	1207
260.430	-61
260.492	2592
260.554	4736
260.616	789
260.678	2908
260.740	2687
260.802	1031
260.864	1341
260.926	-824
260.988	1451
261.050	1031
261.112	2580
261.174	6362
261.236	2568
261.298	1065
261.359	543
261.421	2598
261.483	414
261.545	1604
261.607	-716
261.669	960
261.731	952
261.793	2289
261.854	311
261.916	1647
261.978	763
262.040	1232
262.102	862
262.164	-254
262.225	548
262.287	905
262.349	865
262.411	1370
262.472	931
262.534	129
262.596	846
262.658	1227
262.719	-82
262.781	1350
262.843	322
262.904	1607
262.966	173
263.028	1144
263.090	3997
263.151	12667
263.213	5386
263.275	2623
263.336	1429
263.398	1163
263.459	-830
263.521	671
263.583	1157
263.644	1417
263.706	58
263.767	-442
263.829	231
263.891	630
263.952	93
264.014	-98
264.075	1118
264.137	5296
264.198	2080
264.260	-147
264.321	516
264.383	1876
264.444	7163
264.506	1582
264.567	479
264.629	3016
264.690	5881
264.752	2275
264.813	1586
264.875	-188
264.936	1277
264.998	261
265.059	780
265.120	1669
265.182	889
265.243	8800
265.305	9216
265.366	2961
265.427	801
265.489	1657
265.550	-209
265.611	625
265.673	-379
265.734	970
265.795	865
265.857	24
265.918	-204
265.979	3001
266.040	13570
266.102	13486
266.163	3681
266.224	2265
266.286	1485
266.347	337
266.408	343
266.469	998
266.530	-343
266.592	260
266.653	1170
266.714	1708
266.775	506
266.836	221
266.898	-391
266.959	472
267.020	965
267.081	2099
267.142	101
267.203	81
267.264	-971
267.326	792
267.387	299
267.448	-592
267.509	1143
267.570	569
267.631	524
267.692	-718
267.753	615
267.814	-459
267.875	979
267.936	2509
267.997	1357
268.058	1043
268.119	451
268.180	137
268.241	-62
268.302	1030
268.363	307
268.424	60
268.485	1016
268.546	-160
268.607	91
268.668	71
268.729	57
268.790	537
268.851	228
268.912	1296
268.972	1105
269.033	453
269.094	187
269.155	585
269.216	772
269.277	276
269.338	-227
269.398	326
269.459	-847
269.520	912
269.581	692
269.642	1053
269.702	-101
269.763	546
269.824	-631
269.885	725
269.945	708
270.006	427
270.067	-154
270.128	2
270.188	-196
270.249	589
270.310	-409
270.370	545
270.431	742
270.492	296
270.553	890
270.613	527
270.674	1553
270.734	590
270.795	244
270.856	679
270.916	139
270.977	660
271.038	150
271.098	358
271.159	367
271.219	858
271.280	325
271.340	654
271.401	-258
271.462	996
271.522	154
271.583	475
271.643	946
271.704	217
271.764	-288
271.825	1711
271.885	5518
271.946	7987
272.006	2522
272.066	3488
272.127	7124
272.187	5858
272.248	2426
272.308	948
272.369	3544
272.429	2161
272.489	1234
272.550	2002
272.610	1424
272.671	1267
272.731	1381
272.791	983
272.852	777
272.912	1491
272.972	-189
273.033	585
273.093	230
273.153	1729
273.214	890
273.274	511
273.334	3590
273.394	6526
273.455	1476
273.515	2804
273.575	4983
273.635	2452
273.696	2267
273.756	5123
273.816	2595
273.876	1636
273.936	686
273.997	3445
274.057	402
274.117	5
274.177	1613
274.237	7390
274.297	5667
274.358	2454
274.418	4070
274.478	3716
274.538	856
274.598	179
274.658	1108
274.718	2258
274.778	1432
274.838	1300
274.898	610
274.958	2920
275.018	4442
275.078	3510
275.138	1288
275.198	583
275.258	104
275.318	606
275.378	855
275.438	2061
275.498	1617
275.558	1848
275.618	3891
275.678	3211
275.738	2291
275.798	2665
275.858	645
275.918	569
275.978	669
276.038	908
276.098	488
276.157	840
276.217	3993
276.277	1726
276.337	967
276.397	352
276.457	507
276.517	1553
276.576	321
276.636	-66
276.696	933
276.756	2649
276.815	1718
276.875	629
276.935	799
276.995	1078
277.055	444
277.114	952
277.174	585
277.234	3240
277.293	751
277.353	965
277.413	84
277.472	767
277.532	252
277.592	550
277.651	2422
277.711	6521
277.771	1412
277.830	7410
277.890	7324
277.950	3579
278.009	12393
278.069	4730
278.128	4697
278.188	7508
278.248	2385
278.307	7844
278.367	5072
278.426	1973
278.486	482
278.545	878
278.605	24
278.664	-10
278.724	859
278.783	1670
278.843	6008
278.902	2214
278.962	650
279.021	911
279.081	1923
279.140	1328
279.199	1200
279.259	1313
279.318	1702
279.378	3196
279.437	3069
279.496	10851
279.556	28548
279.615	22603
279.675	5997
279.734	3750
279.793	4169
279.853	9424
279.912	4066
279.971	2948
280.031	2402
280.090	4026
280.149	7995
280.208	4031
280.268	19745
280.327	21169
280.386	4338
280.445	4322
280.505	3254
280.564	2256
280.623	1697
280.682	1810
280.742	3315
280.801	1269
280.860	1565
280.919	900
280.978	1467
281.037	1240
281.097	-447
281.156	1287
281.215	41
281.274	1345
281.333	3701
281.392	3476
281.451	-46
281.510	1429
281.569	898
281.628	120
281.688	768
281.747	1237
281.806	292
281.865	1458
281.924	630
281.983	772
282.042	182
282.101	218
282.160	988
282.219	315
282.278	311
282.337	1901
282.396	964
282.454	964
282.513	1400
282.572	3068
282.631	2015
282.690	285
282.749	410
282.808	1018
282.867	913
282.926	434
282.985	856
283.043	175
283.102	399
283.161	948
283.220	1892
283.279	4966
283.338	1163
283.396	608
283.455	447
283.514	1319
283.573	760
283.631	1145
283.690	472
283.749	963
283.808	1508
283.866	2170
283.925	408
283.984	1329
284.043	1119
284.101	1029
284.160	483
284.219	1572
284.277	1311
284.336	658
284.395	5090
284.453	4336
284.512	1680
284.570	3263
284.629	2610
284.688	2146
284.746	1560
284.805	2612
284.863	3319
284.922	4506
284.981	5270
285.039	8369
285.098	13810
285.156	29846
285.215	44950
285.273	43449
285.332	33628
285.390	19387
285.449	10713
285.507	7093
285.566	5495
285.624	4687
285.683	3375
285.741	2803
285.799	1883
285.858	2091
285.916	1867
285.975	1174
286.033	1438
286.091	1968
286.150	704
286.208	1300
286.267	647
286.325	970
286.383	1725
286.442	1712
286.500	1366
286.558	765
286.616	907
286.675	1541
286.733	1287
286.791	477
286.850	1301
286.908	256
286.966	1975
287.024	842
287.083	903
287.141	938
287.199	1435
287.257	1327
287.315	1304
287.374	675
287.432	2269
287.490	1970
287.548	290
287.606	722
287.664	1254
287.723	1637
287.781	1543
287.839	1312
287.897	896
287.955	2921
288.013	2093
288.071	4304
288.129	18481
288.187	52771
288.245	26391
288.303	8179
288.361	4606
288.419	3797
288.477	2218
288.535	1806
288.593	2219
288.651	1596
288.709	665
288.767	1306
288.825	-24
288.883	873
288.941	827
288.999	163
289.057	442
289.115	280
289.173	182
289.231	1064
289.289	564
289.346	302
289.404	1035
289.462	2198
289.520	1010
289.578	952
289.636	454
289.694	686
289.751	318
289.809	1022
289.867	929
289.925	1636
289.983	532
290.040	1477
290.098	439
290.156	340
290.214	900
290.271	417
290.329	1908
290.387	273
290.444	464
290.502	192
290.560	1375
290.617	652
290.675	592
290.733	686
290.790	741
290.848	1249
290.906	457
290.963	440
291.021	1169
291.078	432
291.136	536
291.194	2844
291.251	6499
291.309	1910
291.366	988
291.424	-246
291.481	752
291.539	772
291.596	1247
291.654	553
291.711	952
291.769	1372
291.826	1213
291.884	1008
291.941	105
291.999	593
292.056	788
292.114	397
292.171	638
292.228	1731
292.286	1133
292.343	719
292.401	1679
292.458	1459
292.515	204
292.573	1510
292.630	905
292.687	1205
292.745	371
292.802	1650
292.859	3360
292.917	5335
292.974	3117
293.031	1221
293.089	701
293.146	748
293.203	528
293.260	402
293.318	437
293.375	2406
293.432	1084
293.489	1037
293.546	-169
293.604	869
293.661	2217
293.718	7958
293.775	4660
293.832	3007
293.889	2481
293.947	979
294.004	816
294.061	727
294.118	2838
294.175	5544
294.232	10388
294.289	4979
294.346	1549
294.403	1567
294.460	1308
294.517	1489
294.574	626
294.631	1828
294.688	1403
294.745	2614
294.802	9542
294.859	13479
294.916	4093
294.973	2303
295.030	1718
295.087	1042
295.144	548
295.201	1379
295.258	772
295.315	868
295.372	2700
295.429	6198
295.486	2832
295.542	1689
295.599	6462
295.656	11249
295.713	6052
295.770	7106
295.827	2290
295.883	1728
295.940	1667
295.997	1922
296.054	1333
296.111	1192
296.167	1310
296.224	1737
296.281	534
296.338	419
296.394	1212
296.451	699
296.508	2393
296.564	6016
296.621	5104
296.678	6494
296.734	10121
296.791	4483
296.848	2555
296.904	1495
296.961	3910
297.018	6744
297.074	6472
297.131	2516
297.187	1884
297.244	2634
297.301	5320
297.357	12203
297.414	4011
297.470	2212
297.527	1841
297.583	667
297.640	1208
297.696	1223
297.753	119
297.809	858
297.866	340
297.922	813
297.979	70
298.035	11
298.092	1334
298.148	3066
298.204	4614
298.261	2015
298.317	4070
298.374	8188
298.430	5379
298.486	1932
298.543	553
298.599	813
298.656	1296
298.712	2662
298.768	6755
298.824	5478
298.881	1381
298.937	1524
298.993	351
299.050	1082
299.106	1110
299.162	782
299.218	1607
299.275	645
299.331	1022
299.387	2092
299.443	8044
299.500	13815
299.556	8881
299.612	4006
299.668	2595
299.724	8590
299.780	10326
299.837	4448
299.893	3551
299.949	10223
300.005	14401
300.061	9620
300.117	15800
300.173	8251
300.229	3706
300.285	3321
300.341	3031
300.397	1553
300.453	1354
300.510	1383
300.566	1483
300.622	3825
300.678	12518
300.734	19611
300.790	10360
300.845	9224
300.901	9077
300.957	14317
301.013	8841
301.069	3177
301.125	2346
301.181	2651
301.237	1502
301.293	1069
301.349	860
301.405	846
301.461	513
301.516	1003
301.572	1065
301.628	1383
301.684	1048
301.740	2526
301.796	4195
301.851	3191
301.907	5326
301.963	3900
302.019	6268
302.074	18314
302.130	18535
302.186	9341
302.242	4348
302.297	2472
302.353	1748
302.409	4450
302.464	3552
302.520	3363
302.576	6256
302.631	8248
302.687	4063
302.743	2269
302.798	956
302.854	1446
302.910	1146
302.965	1291
303.021	2839
303.076	1799
303.132	2509
303.187	3253
303.243	1908
303.299	1410
303.354	1232
303.410	2113
303.465	1041
303.521	1067
303.576	362
303.632	716
303.687	2467
303.743	6397
303.798	5721
303.853	2442
303.909	1347
303.964	1367
304.020	1869
304.075	1817
304.130	2094
304.186	3633
304.241	5056
304.297	3855
304.352	1005
304.358	1069
304.407	1580
304.449	987
304.463	785
304.518	1821
304.539	1479
304.573	923
304.629	1690
304.630	1699
304.684	2216
304.720	4068
304.739	4968
304.794	7468
304.811	6710
304.850	4647
304.902	2037
304.905	1879
304.960	1551
304.992	1661
305.015	1765
305.071	2260
305.083	2051
305.126	1235
305.173	1234
305.181	1247
305.236	483
305.264	971
305.292	1430
305.347	988
305.354	1117
305.402	2109
305.445	2063
305.457	1991
305.512	2553
305.535	2519
305.567	2534
305.622	1798
305.626	1876
305.678	4608
305.716	7655
305.733	8306
305.788	9898
305.807	8680
305.843	7119
305.897	9136
305.898	9145
305.953	7992
305.988	5243
306.008	3950
306.063	2808
306.078	2538
306.118	2184
306.168	1489
306.173	1425
306.228	1770
306.259	1824
306.283	1902
306.338	861
306.349	1011
306.393	1787
306.440	2501
306.448	2611
306.503	2141
306.530	2266
306.558	3145
306.613	6696
306.620	6928
306.668	8564
306.711	10686
306.723	10399
306.778	8308
306.801	6316
306.833	4632
306.888	3198
306.892	3104
306.943	2704
306.982	2634
306.997	2647
307.052	2641
307.072	2480
307.107	2504
307.162	3089
307.163	3093
307.217	4778
307.253	5700
307.272	5769
307.327	5819
307.343	5565
307.381	4851
307.434	3707
307.436	3849
307.491	8357
307.524	11510
307.546	11771
307.600	10971
307.614	10248
307.655	7202
307.704	4490
307.710	4578
307.765	5050
307.795	6393
307.819	8039
307.874	11737
307.885	12239
307.929	10937
307.975	8816
307.984	9379
308.038	14305
308.065	17131
308.093	29889
308.148	59272
308.156	64713
308.202	93384
308.246	113738
308.257	107742
308.312	60634
308.336	40060
308.366	30733
308.421	17914
308.426	16695
308.475	11831
308.517	8682
308.530	8318
308.585	7587
308.607	7294
308.639	7603
308.694	7689
308.697	7726
308.748	12676
308.787	17144
308.803	16727
308.857	12738
308.877	11501
308.912	11438
308.967	11252
308.967	11228
309.021	15981
309.058	19212
309.076	24470
309.130	42364
309.148	48545
309.185	85060
309.238	142995
309.239	143580
309.293	148824
309.328	143945
309.348	124832
309.402	65150
309.418	48790
309.457	36150
309.508	21660
309.511	21464
309.566	18696
309.598	17336
309.620	19055
309.674	23881
309.688	25225
309.729	24232
309.778	21675
309.783	21285
309.837	15606
309.868	12684
309.892	14406
309.946	18605
309.959	19725
310.001	24870
310.049	30210
310.055	29078
310.109	17301
310.139	10580
310.163	9065
310.218	6752
310.229	6232
310.272	6045
310.319	6091
310.326	6050
310.381	5030
310.409	4867
310.435	5160
310.489	5383
310.499	5438
310.543	5686
310.589	5703
310.598	5743
310.652	6208
310.679	6215
310.706	5929
310.760	5497
310.769	5384
310.814	5106
310.859	4983
310.868	5049
310.923	5027
310.948	5175
310.977	5754
311.031	6440
311.038	6541
311.085	5831
311.128	5096
311.139	5247
311.193	5895
311.218	6108
311.247	5816
311.301	5292
311.308	5198
311.356	5587
311.398	5970
311.410	5850
311.464	5087
311.488	4745
311.518	5120
311.572	5660
311.578	5705
311.626	6514
311.668	7192
311.680	7294
311.734	7562
311.758	7644
311.788	7681
311.842	7679
311.847	7652
311.896	9536
311.937	11096
311.950	10907
312.004	9880
312.027	9383
312.058	8371
312.112	6519
312.117	6310
312.165	6501
312.207	6623
312.297	9246
312.386	7127
312.476	5832
312.566	9153
312.656	7024
312.745	6357
312.835	7667
312.925	7688
313.015	7383
313.104	7715
313.194	7405
313.284	7528
313.374	8751
313.463	7030
313.553	8351
313.643	7736
313.732	8395
313.822	8040
313.912	10121
314.001	10804
314.091	11925
314.180	13994
314.270	12223
314.360	11316
314.449	11421
314.539	10012
314.628	10949
314.718	10942
314.808	12638
314.897	11163
314.987	11260
315.076	11551
315.166	12365
315.255	12102
315.345	12390
315.434	11180
315.524	10713
315.613	11696
315.703	14587
315.792	27558
315.881	97123
315.971	34906
316.060	16275
316.150	16468
316.239	17913
316.328	12022
316.418	11385
316.507	10742
316.597	13819
316.686	12694
316.775	14652
316.865	19541
316.954	10294
317.043	9186
317.133	9632
317.222	7757
317.311	7337
317.400	5914
317.490	9689
317.579	10135
317.668	10727
317.757	16126
317.847	43831
317.936	145900
318.025	49347
318.114	38504
318.203	21051
318.293	13684
318.382	22445
318.471	23364
318.560	27755
318.649	54724
318.738	15018
318.828	10119
318.917	9686
319.006	10237
319.095	20895
319.184	57614
319.273	28417
319.362	13285
319.451	8366
319.540	8337
319.629	11457
319.718	16102
319.807	11812
319.896	20634
319.985	68907
320.074	24148
320.163	10445
320.252	12144
320.341	14429
320.430	13474
320.519	14133
320.608	11332
320.697	12556
320.786	13441
320.875	15700
320.964	16384
321.053	19622
321.142	23295
321.230	25664
321.319	26141
321.408	40000
321.497	27861
321.586	23796
321.675	23747
321.764	24421
321.852	20690
321.941	25273
322.030	20989
322.119	24837
322.207	37348
322.296	38209
322.385	31290
322.474	33831
322.562	46894
322.651	33302
322.740	24717
322.829	28284
322.917	27119
323.006	19041
323.095	16328
323.183	15382
323.272	16620
323.361	22345
323.449	54742
323.538	22483
323.626	39806
323.715	27106
323.804	13895
323.892	36306
323.981	19821
324.069	11465
324.158	23144
324.246	21348
324.335	11478
324.424	13731
324.512	8808
324.601	9472
324.689	9861
324.778	14242
324.866	15724
324.954	8996
325.043	8795
325.131	11045
325.220	16726
325.308	18561
325.397	14991
325.485	11545
325.574	8064
325.662	8560
325.750	7529
325.839	7932
325.927	7160
326.015	9164
326.104	9657
326.192	11405
326.280	7322
326.369	6523
326.457	8815
326.545	11622
326.634	7195
326.722	7022
326.810	7437
326.898	8167
326.987	9934
327.075	11933
327.163	11643
327.251	8990
327.340	9993
327.428	12845
327.516	12268
327.604	10051
327.692	8635
327.781	8720
327.869	10125
327.957	8877
328.045	7092
328.133	7661
328.221	6635
328.309	7414
328.397	6451
328.485	9088
328.574	12911
328.662	24819
328.750	16532
328.838	10216
328.926	7705
329.014	7282
329.102	8625
329.190	17038
329.278	11125
329.366	7196
329.454	5277
329.542	6710
329.630	6503
329.718	7316
329.806	6097
329.893	8088
329.981	7225
330.069	6904
330.157	11275
330.245	26702
330.333	15021
330.421	7661
330.509	8434
330.597	19324
330.684	15203
330.772	9369
330.860	13151
330.948	16952
331.036	9090
331.123	6725
331.211	7086
331.299	8803
331.387	15012
331.475	22491
331.562	8206
331.650	7441
331.738	7236
331.825	9217
331.913	6714
332.001	6417
332.089	7966
332.176	11671
332.264	20504
332.352	16988
332.439	9147
332.527	8627
332.614	7229
332.702	8865
332.790	7586
332.877	11941
332.965	19252
333.052	10242
333.140	8835
333.228	16697
333.315	8884
333.403	8731
333.490	14826
333.578	13895
333.665	19230
333.753	14199
333.840	9364
333.928	12595
334.015	19252
334.103	29515
334.190	77894
334.278	37158
334.365	33941
334.452	32319
334.540	23360
334.627	24450
334.715	30424
334.802	45592
334.889	104348
334.977	118412
335.064	53559
335.151	29779
335.239	22901
335.326	22058
335.413	45948
335.501	60493
335.588	21536
335.675	21531
335.762	28490
335.850	40653
335.937	48304
336.024	80625
336.111	155946
336.199	111636
336.286	50517
336.373	28983
336.460	20355
336.547	16765
336.635	16312
336.722	14386
336.809	12017
336.896	13332
336.983	26768
337.070	57043
337.157	76026
337.245	47641
337.332	34358
337.419	12932
337.506	10427
337.593	11121
337.680	22846
337.767	62139
337.854	18572
337.941	20061
338.028	19686
338.115	10742
338.202	12985
338.289	18297
338.376	41942
338.463	18504
338.550	36402
338.637	37651
338.724	12439
338.811	17068
338.898	7935
338.984	8040
339.071	8905
339.158	8823
339.245	13266
339.332	10476
339.419	12519
339.506	13631
339.593	6689
339.679	8116
339.766	7090
339.853	8911
339.940	10022
340.027	8096
340.113	6821
340.200	8779
340.287	7199
340.374	8039
340.460	9422
340.547	7425
340.634	8614
340.720	20330
340.807	13547
340.894	7447
340.980	6994
341.067	7188
341.154	7707
341.240	9453
341.327	12603
341.414	8311
341.500	6710
341.587	7341
341.674	6976
341.760	10338
341.847	9639
341.933	7388
342.020	5549
342.106	6623
342.193	6660
342.279	8640
342.366	7322
342.452	10358
342.539	7510
342.625	10514
342.712	19817
342.798	11179
342.885	8859
342.971	6421
343.058	6069
343.144	6505
343.230	6540
343.317	6862
343.403	5480
343.490	6438
343.576	6120
343.662	7310
343.749	7085
343.835	8808
343.921	9602
344.008	36156
344.094	82623
344.180	21097
344.267	9524
344.353	26214
344.439	28277
344.525	13690
344.612	10672
344.698	10129
344.784	7746
344.870	6916
344.957	5581
345.043	8200
345.129	6428
345.215	8927
345.301	6900
345.387	6958
345.474	5381
345.560	6600
345.646	6254
345.732	6914
345.818	6765
345.904	6925
345.990	7208
346.076	7523
346.162	9715
346.249	8557
346.335	6443
346.421	7680
346.507	12525
346.593	36740
346.679	12021
346.765	10540
346.851	12883
346.937	10648
347.023	7671
347.108	7850
347.194	6913
347.280	8194
347.366	9007
347.452	27292
347.538	58903
347.624	35969
347.710	28600
347.796	9913
347.882	8441
347.967	7686
348.053	8087
348.139	8333
348.225	6837
348.311	7347
348.397	7119
348.482	8609
348.568	8858
348.654	10857
348.740	29272
348.825	35545
348.911	17366
348.997	24147
349.083	41546
349.168	11303
349.254	6922
349.340	8407
349.425	6732
349.511	8290
349.597	8367
349.682	10632
349.768	26579
349.854	14996
349.939	7737
350.025	7064
350.110	6964
350.196	6750
350.282	6341
350.367	7164
350.453	7772
350.538	8396
350.624	7822
350.709	8397
350.795	5972
350.880	6357
350.966	7500
351.051	9379
351.137	6744
351.222	7153
351.308	10712
351.393	23196
351.479	8763
351.564	6510
351.649	6456
351.735	6651
351.820	6428
351.906	6459
351.991	7397
352.076	15037
352.162	21364
352.247	7966
352.332	6731
352.418	9499
352.503	9767
352.588	28949
352.673	22397
352.759	8929
352.844	6518
352.929	7175
353.014	7764
353.100	7895
353.185	10108
353.270	11546
353.355	10401
353.441	7672
353.526	6363
353.611	9910
353.696	9731
353.781	8933
353.866	5565
353.952	7399
354.037	8074
354.122	15625
354.207	12675
354.292	8431
354.377	6822
354.462	6802
354.547	6741
354.632	8208
354.717	10220
354.802	11814
354.887	6726
354.972	7103
355.057	6198
355.142	6116
355.227	6617
355.312	7806
355.397	10722
355.482	21061
355.567	12634
355.652	11728
355.737	11278
355.822	28270
355.907	23740
355.991	9008
356.076	5285
356.161	7209
356.246	6414
356.331	7039
356.416	9693
356.501	44396
356.585	45639
356.670	10921
356.755	10029
356.840	10749
356.924	30243
357.009	95824
357.094	37901
357.179	11854
357.263	9481
357.348	10060
357.433	9529
357.517	9528
357.602	7840
357.687	7982
357.771	10407
357.856	23246
357.941	15662
358.025	24621
358.110	93265
358.195	46790
358.279	10849
358.364	8970
358.448	19933
358.533	48038
358.617	35218
358.702	36512
358.787	15081
358.871	10649
358.956	10715
359.040	7793
359.125	6324
359.209	7969
359.294	13872
359.378	24753
359.462	15059
359.547	9743
359.631	8044
359.716	6464
359.800	7723
359.885	11690
359.969	7258
360.053	8822
360.138	7253
360.222	9101
360.306	9976
360.391	10499
360.475	13891
360.559	23969
360.644	20372
360.728	16619
360.812	25926
360.896	68458
360.981	31996
361.065	20516
361.149	10154
361.233	9649
361.318	9093
361.402	10897
361.486	9828
361.570	9207
361.654	10895
361.739	15476
361.823	44301
361.907	69455
361.991	19732
362.075	18425
362.159	27881
362.243	41286
362.327	86955
362.411	123853
362.495	53220
362.580	27436
362.664	24074
362.748	28738
362.832	42146
362.916	83006
363.000	208835
363.084	298359
363.168	166826
363.252	51293
363.336	28454
363.420	26894
363.503	59009
363.587	69636
363.671	22017
363.755	19068
363.839	23475
363.923	20748
364.007	28971
364.091	38060
364.175	60809
364.258	163100
364.342	263227
364.426	402189
364.510	227722
364.594	80344
364.677	46083
364.761	72980
364.845	52096
364.929	22991
365.013	19171
365.096	16724
365.180	17536
365.264	26486
365.347	81965
365.431	40068
365.515	15424
365.598	10189
365.682	11152
365.766	15547
365.849	18478
365.933	10701
366.017	13906
366.100	13553
366.184	9136
366.267	10600
366.351	9483
366.435	8437
366.518	8217
366.602	8974
366.685	8559
366.769	9710
366.852	13782
366.936	18120
367.019	11864
367.103	12429
367.186	20314
367.270	11510
367.353	9035
367.436	11114
367.520	9719
367.603	11709
367.687	10910
367.770	14221
367.853	11862
367.937	22807
368.020	33644
368.104	12308
368.187	12585
368.270	14477
368.353	12114
368.437	14887
368.520	28889
368.603	19559
368.687	21705
368.770	39931
368.853	12679
368.936	15235
369.020	17199
369.103	8554
369.186	7911
369.269	7952
369.352	9722
369.436	13116
369.519	10433
369.602	6588
369.685	8818
369.768	7743
369.851	9042
369.934	7422
370.018	7673
370.101	10379
370.184	11619
370.267	10684
370.350	11379
370.433	16059
370.516	39389
370.599	76820
370.682	31227
370.765	23380
370.848	26643
370.931	47347
371.014	24491
371.097	9567
371.180	8467
371.263	8153
371.346	5788
371.429	7152
371.511	6879
371.594	9256
371.677	13231
371.760	18356
371.843	10787
371.926	36181
372.009	81582
372.091	30939
372.174	19535
372.257	47814
372.340	22012
372.423	20365
372.505	25081
372.588	13273
372.671	17214
372.754	43932
372.836	25864
372.919	27154
373.002	54473
373.085	17752
373.167	12232
373.250	21161
373.332	44439
373.415	55498
373.498	107288
373.580	48711
373.663	96650
373.746	116324
373.828	26767
373.911	15606
373.993	15381
374.076	50432
374.159	48292
374.241	18734
374.324	40230
374.406	29793
374.489	33954
374.571	92203
374.654	42710
374.736	22682
374.819	59690
374.901	80640
374.983	82025
375.066	21570
375.148	14638
375.231	41498
375.313	77778
375.395	34176
375.478	14555
375.560	13044
375.643	12857
375.725	22136
375.807	71298
375.890	61089
375.972	28007
376.054	18959
376.136	26143
376.219	15519
376.301	25027
376.383	64335
376.465	28138
376.548	16918
376.630	20678
376.712	55590
376.794	27954
376.877	8888
376.959	6683
377.041	8741
377.123	14885
377.205	18566
377.287	7366
377.369	8206
377.452	8420
377.534	8231
377.616	7529
377.698	8382
377.780	6680
377.862	8851
377.944	7707
378.026	6918
378.108	7463
378.190	7636
378.272	7808
378.354	7211
378.436	6804
378.518	9960
378.600	23257
378.682	19472
378.764	28346
378.846	24267
378.928	11098
379.010	12693
379.091	9700
379.173	8129
379.255	6217
379.337	8341
379.419	15140
379.501	39454
379.583	19498
379.664	8598
379.746	12386
379.828	27300
379.910	34663
379.991	32531
380.073	9749
380.155	8772
380.237	7715
380.318	7550
380.400	6873
380.482	10686
380.564	11553
380.645	13412
380.727	12137
380.809	10231
380.890	8304
380.972	7711
381.053	7949
381.135	9503
381.217	12454
381.298	28963
381.380	16346
381.461	14728
381.543	50787
381.624	65384
381.706	16178
381.787	11825
381.869	11232
381.951	24643
382.032	79993
382.113	54207
382.195	14608
382.276	14635
382.358	21430
382.439	48733
382.521	52894
382.602	80842
382.684	38937
382.765	66236
382.846	78743
382.928	110549
383.009	66110
383.090	48642
383.172	160536
383.253	234648
383.334	86195
383.416	81396
383.497	45851
383.578	28188
383.659	46393
383.741	146279
383.822	337565
383.903	177777
383.984	61704
384.066	91132
384.147	58666
384.228	22459
384.309	19420
384.390	18042
384.471	16775
384.553	16330
384.634	16832
384.715	15798
384.796	12383
384.877	13541
384.958	28842
385.039	33802
385.120	16896
385.201	13756
385.282	14810
385.363	16829
385.444	15616
385.525	19324
385.606	44214
385.687	41684
385.768	19608
385.849	19687
385.930	44862
386.011	74303
386.092	29817
386.173	16744
386.254	14641
386.335	16496
386.416	15091
386.496	24755
386.577	34842
386.658	22373
386.739	16373
386.820	19801
386.901	17174
386.981	18248
387.062	17717
387.143	21471
387.224	38511
387.304	41096
387.385	27642
387.466	25588
387.547	28515
387.627	25349
387.708	29769
387.789	61019
387.869	69113
387.950	31910
388.031	18885
388.111	18499
388.192	26394
388.273	32966
388.353	23149
388.434	15734
388.514	17863
388.595	48717
388.676	60862
388.756	32801
388.837	29141
388.917	21703
388.998	11458
389.078	13099
389.159	11664
389.239	10629
389.320	13556
389.400	11923
389.480	18478
389.561	34868
389.641	21971
389.722	13163
389.802	14041
389.883	19942
389.963	39325
390.043	29779
390.124	15547
390.204	16502
390.284	32868
390.365	25572
390.445	39209
390.525	79974
390.605	66515
390.686	24031
390.766	14772
390.846	13378
390.927	11182
391.007	11889
391.087	13972
391.167	14307
391.247	12674
391.328	16138
391.408	21445
391.488	19469
391.568	12304
391.648	15619
391.728	17677
391.808	17656
391.888	17338
391.969	27305
392.049	37646
392.129	28963
392.209	28864
392.289	49084
392.369	38132
392.449	43068
392.529	36003
392.609	34965
392.689	40436
392.769	65017
392.849	69137
392.929	77047
393.009	120792
393.089	146022
393.169	225555
393.248	461037
393.328	750435
393.408	755810
393.488	482757
393.568	232918
393.648	127646
393.728	82380
393.807	58349
393.887	47853
393.967	39202
394.047	34556
394.127	33648
394.206	39646
394.286	82344
394.366	275789
394.446	308679
394.525	97128
394.605	36315
394.685	30133
394.764	44722
394.844	80205
394.924	77573
395.003	30351
395.083	19618
395.163	19083
395.242	16957
395.322	18317
395.402	16853
395.481	21715
395.561	35272
395.640	95277
395.720	132457
395.799	112407
395.879	71200
395.958	48154
396.038	117717
396.117	352045
396.197	400392
396.276	163562
396.356	73829
396.435	67546
396.515	68227
396.594	91418
396.673	170823
396.753	402483
396.832	693942
396.912	591732
396.991	265393
397.070	115181
397.150	67235
397.229	54900
397.308	86588
397.388	163294
397.467	86837
397.546	32839
397.625	21184
397.705	23253
397.784	20069
397.863	17331
397.942	16057
398.022	15853
398.101	27749
398.180	64608
398.259	37386
398.338	17097
398.417	12782
398.497	11150
398.576	11903
398.655	10663
398.734	9921
398.813	11465
398.892	22162
398.971	63065
399.050	34558
399.129	10065
399.208	8966
399.287	10027
399.366	7547
399.445	9308
399.524	9137
399.603	7717
399.682	10135
399.761	19402
399.840	61137
399.919	52801
399.998	11752
400.077	7396
400.156	6327
400.235	10044
400.313	7773
400.392	8009
400.471	16998
400.550	24508
400.629	9864
400.708	7522
400.786	7890
400.865	18711
400.944	17380
401.023	11069
401.102	4921
401.180	7134
401.259	7255
401.338	7078
401.416	8686
401.495	7549
401.574	7379
401.652	6292
401.731	7467
401.810	7059
401.888	5795
401.967	5088
402.046	6428
402.124	7430
402.203	8023
402.281	7919
402.360	8828
402.438	21124
402.517	15225
402.596	8653
402.674	7143
402.753	7389
402.831	7297
402.910	8688
402.988	16005
403.066	47427
403.145	29861
403.223	17778
403.302	40224
403.380	32524
403.459	31905
403.537	16820
403.615	9638
403.694	6837
403.772	7076
403.850	7073
403.929	5704
404.007	7191
404.085	10685
404.164	10615
404.242	7765
404.320	14021
404.398	33504
404.477	36196
404.555	66309
404.633	62007
404.711	28119
404.789	19088
404.868	8274
404.946	6345
405.024	5666
405.102	5615
405.180	5488
405.258	4654
405.336	5395
405.415	4624
405.493	9177
405.571	9043
405.649	6166
405.727	5281
405.805	8429
405.883	9113
405.961	9095
406.039	9546
406.117	5400
406.195	7427
406.273	16279
406.351	54511
406.429	37382
406.507	10891
406.585	6016
406.663	6022
406.740	6435
406.818	5755
406.896	4480
406.974	7070
407.052	6573
407.130	32874
407.208	45676
407.285	12904
407.363	5109
407.441	6134
407.519	5647
407.596	8635
407.674	24109
407.752	101167
407.830	85138
407.907	22128
407.985	7444
408.063	6417
408.141	5898
408.218	9418
408.296	8212
408.373	7768
408.451	7635
408.529	7947
408.606	6259
408.684	6823
408.762	7021
408.839	7898
408.917	8251
408.994	8517
409.072	9314
409.149	12486
409.227	19038
409.304	27860
409.382	31892
409.459	34670
409.537	43498
409.614	42041
409.692	33972
409.769	32389
409.846	43513
409.924	55930
410.001	43966
410.079	32904
410.156	24456
410.233	19653
410.311	16456
410.388	13154
410.465	12021
410.543	11971
410.620	11823
410.697	11098
410.775	11073
410.852	9371
410.929	11416
411.006	12466
411.083	10435
411.161	12346
411.238	12945
411.315	11583
411.392	8113
411.469	9177
411.547	8511
411.624	6654
411.701	6642
411.778	7497
411.855	8115
411.932	6693
412.009	5847
412.086	5486
412.163	6723
412.240	7553
412.317	7772
412.394	7565
412.471	5375
412.548	6398
412.625	5237
412.702	6563
412.779	7393
412.856	8074
412.933	4998
413.010	5886
413.087	5500
413.164	13118
413.241	18085
413.318	7293
413.395	6526
413.471	6570
413.548	4150
413.625	5849
413.702	5213
413.779	6381
413.855	3683
413.932	4520
414.009	3093
414.086	4636
414.162	5127
414.239	5412
414.316	13857
414.393	26746
414.469	11036
414.546	4947
414.623	4460
414.699	4101
414.776	3921
414.853	4712
414.929	4684
415.006	3983
415.082	5661
415.159	5391
415.236	4276
415.312	5295
415.389	4688
415.465	6191
415.542	4707
415.618	4457
415.695	4769
415.771	3639
415.848	4286
415.924	4887
416.000	4512
416.077	5927
416.153	2299
416.230	4350
416.306	3217
416.383	3797
416.459	4333
416.535	3942
416.612	3608
416.688	3876
416.764	4232
416.841	3597
416.917	3892
416.993	4674
417.069	4944
417.146	5413
417.222	5577
417.298	4957
417.374	3963
417.451	5598
417.527	3978
417.603	5140
417.679	3948
417.755	4909
417.831	3285
417.908	4176
417.984	4003
418.060	3372
418.136	5898
418.212	7045
418.288	5446
418.364	5463
418.440	4123
418.516	6681
418.592	7901
418.668	9776
418.744	9898
418.820	9089
418.896	4602
418.972	4693
419.048	4727
419.124	7373
419.200	5654
419.276	4907
419.352	4279
419.428	5301
419.504	5028
419.579	5970
419.655	5195
419.731	6441
419.807	7931
419.883	12066
419.959	10465
420.034	8001
420.110	8519
420.186	19985
420.262	17921
420.337	8297
420.413	8350
420.489	8144
420.565	9219
420.640	9113
420.716	9603
420.792	9425
420.867	11060
420.943	11108
421.019	12737
421.094	13509
421.170	13680
421.245	13609
421.321	15869
421.397	18273
421.472	33272
421.548	81157
421.623	54507
421.699	28478
421.774	29300
421.850	31742
421.925	38579
422.001	44796
422.076	52820
422.152	68065
422.227	87427
422.302	121613
422.378	171724
422.453	261556
422.529	365126
422.604	343569
422.679	221013
422.755	320809
422.830	379921
422.905	280786
422.981	192369
423.056	135695
423.131	101726
423.207	76658
423.282	60271
423.357	52810
423.432	43170
423.508	37913
423.583	36592
423.658	31998
423.733	26467
423.808	24114
423.883	24710
423.959	25609
424.034	27324
424.109	25269
424.184	20470
424.259	15897
424.334	14078
424.409	13069
424.484	11809
424.559	11297
424.634	10193
424.709	10410
424.784	10243
424.859	9241
424.934	9307
425.009	16366
425.084	22709
425.159	13366
425.234	8033
425.309	7352
425.384	10823
425.459	12938
425.534	7651
425.609	7374
425.683	5911
425.758	6553
425.833	6064
425.908	7805
425.983	9664
426.058	21169
426.132	11937
426.207	7305
426.282	9889
426.357	8403
426.431	5221
426.506	5824
426.581	5958
426.655	6069
426.730	4811
426.805	4575
426.879	5382
426.954	6203
427.029	6290
427.103	20297
427.178	44548
427.253	23367
427.327	6808
427.402	8084
427.476	14819
427.551	9188
427.625	6204
427.700	6037
427.774	5849
427.849	6821
427.923	5655
427.998	6506
428.072	8177
428.147	16337
428.221	60456
428.296	169708
428.370	101844
428.444	19847
428.519	12760
428.593	18366
428.667	16512
428.742	19839
428.816	28838
428.890	111987
428.965	168818
429.039	53880
429.113	22089
429.188	11536
429.262	6323
429.336	7602
429.410	11890
429.485	10783
429.559	15285
429.633	13885
429.707	9319
429.781	23964
429.855	113041
429.930	162299
430.004	66580
430.078	76043
430.152	102197
430.226	220580
430.300	220896
430.374	61999
430.448	21031
430.522	27143
430.596	62178
430.670	55980
430.744	138267
430.818	163494
430.892	36060
430.966	9499
431.040	6371
431.114	4424
431.188	3792
431.262	4271
431.336	4265
431.410	7817
431.484	17703
431.557	12002
431.631	6301
431.705	11260
431.779	45469
431.853	159828
431.927	113434
432.000	21128
432.074	6444
432.148	6609
432.222	4738
432.295	4205
432.369	2579
432.443	4440
432.516	18581
432.590	45938
432.664	17838
432.737	3924
432.811	2088
432.885	2760
432.958	2598
433.032	2157
433.106	1933
433.179	1919
433.253	2409
433.326	2651
433.400	2204
433.473	2793
433.547	1641
433.620	3127
433.694	3231
433.767	3533
433.841	2331
433.914	3547
433.988	1833
434.061	3326
434.134	2447
434.208	2153
434.281	2043
434.355	2647
434.428	3025
434.501	2464
434.575	1505
434.648	3149
434.721	2384
434.795	2385
434.868	2541
434.941	3036
435.014	2746
435.088	3928
435.161	4151
435.234	6125
435.307	6475
435.381	7382
435.454	10821
435.527	19636
435.600	21821
435.673	20641
435.746	14639
435.819	11640
435.892	8054
435.966	6836
436.039	5867
436.112	6035
436.185	3859
436.258	4108
436.331	2105
436.404	3364
436.477	2411
436.550	2898
436.623	2578
436.696	2829
436.769	2254
436.842	2621
436.915	2746
436.987	3547
437.060	2105
437.133	2303
437.206	2024
437.279	3124
437.352	1872
437.425	2499
437.498	2226
437.570	3347
437.643	3104
437.716	2843
437.789	2070
437.861	3029
437.934	4997
438.007	3065
438.080	1208
438.152	2737
438.225	4099
438.298	22026
438.370	60193
438.443	24239
438.516	4860
438.588	2881
438.661	1787
438.734	2353
438.806	2900
438.879	3327
438.951	1878
439.024	3389
439.096	1845
439.169	2121
439.241	1390
439.314	1659
439.386	3606
439.459	3813
439.531	4771
439.604	2807
439.676	1786
439.749	2154
439.821	1625
439.893	2416
439.966	1947
440.038	3200
440.110	1803
440.183	2156
440.255	1925
440.327	3471
440.400	9848
440.472	38562
440.544	23416
440.617	4973
440.689	3175
440.761	4503
440.833	4370
440.905	4714
440.978	1650
441.050	2135
441.122	1823
441.194	2143
441.266	2292
441.338	2681
441.411	3775
441.483	12382
441.555	16540
441.627	5643
441.699	4768
441.771	6207
441.843	2896
441.915	3800
441.987	3389
442.059	3843
442.131	5334
442.203	8387
442.275	9318
442.347	14539
442.419	31914
442.491	128577
442.563	259692
442.635	114837
442.706	35386
442.778	19757
442.850	8608
442.922	8528
442.994	8843
443.066	11276
443.137	11396
443.209	15208
443.281	22243
443.353	49257
443.425	149490
443.496	361166
443.568	385393
443.640	177835
443.711	45803
443.783	20362
443.855	13074
443.926	8967
443.998	7852
444.070	8773
444.141	6928
444.213	6809
444.285	7548
444.356	6633
444.428	6240
444.499	5724
444.571	4467
444.642	6486
444.714	5729
444.785	7593
444.857	9010
444.928	17405
445.000	12853
445.071	16845
445.143	21113
445.214	24159
445.285	41832
445.357	101883
445.428	258358
445.500	408894
445.571	368551
445.642	252663
445.714	98684
445.785	43665
445.856	18726
445.928	12697
445.999	9522
446.070	8280
446.141	5789
446.213	7246
446.284	4396
446.355	5714
446.426	4493
446.497	4242
446.569	5407
446.640	6425
446.711	3679
446.782	3288
446.853	2946
446.924	3588
446.995	1470
447.066	4468
447.138	4653
447.209	3657
447.280	993
447.351	1722
447.422	1448
447.493	2961
447.564	1488
447.635	2182
447.706	1509
447.777	2076
447.847	1213
447.918	1307
447.989	2112
448.060	3442
448.131	7394
448.202	5796
448.273	2864
448.344	1999
448.414	1370
448.485	1569
448.556	1515
448.627	1454
448.698	1546
448.768	1219
448.839	1036
448.910	3733
448.981	3832
449.051	1950
449.122	1323
449.193	1262
449.263	1329
449.334	1490
449.405	1560
449.475	3372
449.546	2675
449.616	4883
449.687	3234
449.758	2216
449.828	399
449.899	1585
449.969	1019
450.040	1761
450.110	1709
450.181	2332
450.251	640
450.322	2050
450.392	1127
450.463	1443
450.533	1126
450.604	1996
450.674	2007
450.744	3728
450.815	2314
450.885	2735
450.955	2337
451.026	3711
451.096	2052
451.166	3261
451.237	6569
451.307	13437
451.377	6019
451.447	2231
451.518	1230
451.588	2458
451.658	2453
451.728	3295
451.799	12398
451.869	12757
451.939	2484
452.009	2105
452.079	1007
452.149	1689
452.219	4165
452.289	14158
452.360	9453
452.430	3222
452.500	4522
452.570	7859
452.640	16224
452.710	44398
452.780	51237
452.850	26877
452.920	12655
452.990	6870
453.060	4956
453.129	4167
453.199	3993
453.269	16065
453.339	28305
453.409	40594
453.479	44924
453.549	63903
453.619	67281
453.688	21761
453.758	3865
453.828	2799
453.898	1739
453.968	2017
454.037	1795
454.087	1147
454.107	876
454.168	949
454.177	945
454.247	1752
454.249	1746
454.316	1433
454.330	1741
454.386	2865
454.411	4016
454.456	5781
454.492	7731
454.525	9511
454.574	4653
454.595	2537
454.655	1765
454.665	1637
454.734	1635
454.736	1728
454.804	4557
454.817	6008
454.873	11788
454.898	11855
454.943	11865
454.979	7442
455.013	3466
455.060	2223
455.082	1801
455.141	2412
455.152	2454
455.221	8764
455.222	8882
455.291	15592
455.303	14845
455.360	11216
455.384	15772
455.430	24046
455.465	17755
455.499	11705
455.546	10879
455.569	10390
455.627	7006
455.638	6399
455.707	1438
455.708	1455
455.777	2439
455.789	2300
455.846	1546
455.869	1597
455.916	1751
455.950	1702
455.985	1543
456.031	1689
456.054	1764
456.112	1732
456.124	1747
456.193	2204
456.193	2191
456.262	1766
456.274	2018
456.332	3247
456.355	2955
456.401	2352
456.436	2350
456.470	2211
456.516	1637
456.540	1401
456.597	2434
456.609	2625
456.678	2073
456.678	2060
456.747	1910
456.759	1811
456.817	1425
456.840	1609
456.886	1911
456.920	1794
456.955	1646
457.001	2225
457.024	2474
457.082	2523
457.093	2588
457.162	3857
457.163	3870
457.232	3210
457.243	3217
457.301	3026
457.324	2738
457.370	2522
457.405	3154
457.439	3654
457.485	3504
457.508	3471
457.566	4840
457.577	5243
457.646	6743
457.647	6793
457.715	13933
457.727	15793
457.784	26359
457.808	37598
457.853	55198
457.889	67630
457.922	73005
457.969	47896
457.991	42530
458.050	43968
458.060	44358
458.129	83281
458.130	84359
458.198	108094
458.211	97982
458.267	53089
458.292	37643
458.336	20952
458.372	19389
458.405	23215
458.453	32520
458.474	39410
458.533	73320
458.543	76629
458.611	143650
458.614	143968
458.680	106952
458.694	88191
458.749	35406
458.775	25360
458.818	14065
458.855	10971
458.887	8588
458.936	6791
458.955	6445
459.016	5419
459.024	5253
459.093	5502
459.097	5449
459.162	4563
459.177	4698
459.230	4909
459.257	4529
459.299	4033
459.338	4162
459.368	4268
459.418	4408
459.437	4367
459.499	3818
459.505	3793
459.574	3338
459.579	3380
459.643	3735
459.659	3677
459.711	3485
459.740	3695
459.780	4089
459.820	4225
459.849	4169
459.900	4302
459.917	4389
459.981	4381
459.986	4345
460.054	3635
460.061	3633
460.123	4284
460.141	4444
460.191	4465
460.222	4338
460.260	4333
460.302	4795
460.328	4935
460.382	4599
460.397	4608
460.462	5668
460.465	5876
460.534	9769
460.543	10454
460.602	28143
460.623	35195
460.671	52033
460.703	72486
460.739	74123
460.783	62305
460.808	54051
460.864	14820
460.876	10465
460.944	5136
460.945	5071
461.013	4771
461.024	4543
461.081	3871
461.104	4099
461.150	4141
461.184	3637
461.218	3840
461.264	4826
461.286	4882
461.345	4096
461.355	4031
461.423	4174
461.425	4172
461.491	4312
461.505	4459
461.559	5935
461.585	6403
461.628	8727
461.665	11834
461.696	13287
461.745	16655
461.764	15568
461.825	6874
461.832	6572
461.901	4668
461.905	4672
461.969	4138
461.985	3932
462.037	4596
462.065	4860
462.105	4458
462.145	4416
462.173	5598
462.225	7681
462.241	8093
462.305	10592
462.310	10436
462.378	7699
462.385	7115
462.446	4500
462.465	4190
462.514	4573
462.545	4887
462.582	4767
462.625	4551
462.650	4554
462.705	4062
462.718	3977
462.785	4101
462.786	4123
462.854	5318
462.865	5571
462.922	6789
462.945	7240
462.990	6390
463.025	5161
463.058	4522
463.104	4112
463.126	4057
463.184	3915
463.194	4016
463.262	4479
463.264	4503
463.330	4592
463.344	4625
463.398	4927
463.424	4940
463.466	4885
463.504	4997
463.533	5184
463.583	5374
463.601	5414
463.663	5179
463.669	5177
463.737	5808
463.743	5835
463.805	8029
463.823	8670
463.873	11822
463.903	13927
463.940	15043
463.982	16670
464.008	14535
464.062	8050
464.076	7479
464.142	5412
464.144	5377
464.211	4241
464.221	4088
464.279	4341
464.301	4433
464.347	4830
464.381	5212
464.414	5478
464.461	5645
464.482	5737
464.540	6418
464.550	6311
464.617	4871
464.620	4821
464.685	5676
464.699	5855
464.753	6153
464.779	6408
464.820	7285
464.859	7993
464.888	7708
464.938	7199
464.956	7792
465.018	9747
465.023	9590
465.091	7465
465.098	7225
465.158	6681
465.177	6507
465.226	6472
465.257	6538
465.293	6863
465.336	7193
465.361	7256
465.416	7215
465.428	7619
465.495	9922
465.496	9971
465.563	15126
465.575	16122
465.631	18896
465.654	20064
465.698	14501
465.734	9158
465.765	8000
465.813	6560
465.833	6457
465.893	6358
465.900	6360
465.968	6201
465.972	6188
466.035	5799
466.052	5683
466.102	6295
466.131	6629
466.170	6819
466.210	6917
466.237	6817
466.290	6731
466.304	6773
466.369	6717
466.372	6727
466.439	6823
466.449	6807
466.506	7745
466.528	8135
466.573	10133
466.607	11542
466.641	14921
466.687	19628
466.708	21491
466.766	26756
466.775	24935
466.842	10721
466.845	10025
466.909	7776
466.925	7307
466.977	8090
467.004	8485
467.044	8570
467.083	8659
467.111	8946
467.163	9419
467.178	9701
467.242	10804
467.245	10765
467.312	9583
467.321	9413
467.379	9354
467.400	9304
467.446	10110
467.480	10667
467.559	10489
467.638	9309
467.717	9593
467.796	10713
467.875	9397
467.955	10751
468.034	15156
468.113	26405
468.192	37938
468.271	18253
468.350	18658
468.429	23289
468.508	24546
468.588	17475
468.667	12971
468.746	12191
468.825	11067
468.904	9569
468.983	10217
469.062	12180
469.141	14678
469.220	8937
469.299	9043
469.378	8559
469.456	12148
469.535	10437
469.614	8710
469.693	9665
469.772	12177
469.851	13799
469.930	11037
470.009	8916
470.088	9899
470.166	9726
470.245	10145
470.324	11814
470.403	10158
470.482	9374
470.560	9228
470.639	7747
470.718	9290
470.797	8260
470.875	9587
470.954	11485
471.033	12713
471.111	7802
471.190	8371
471.269	8667
471.347	8227
471.426	8318
471.505	9050
471.583	10648
471.662	9130
471.740	9004
471.819	8874
471.898	8666
471.976	9281
472.055	8926
472.133	10376
472.212	13512
472.290	11510
472.369	9376
472.447	8920
472.526	8051
472.604	8856
472.683	8094
472.761	8065
472.839	7422
472.918	8586
472.996	9067
473.075	10111
473.153	9180
473.231	8851
473.310	9040
473.388	9092
473.466	8853
473.545	9310
473.623	9975
473.701	10035
473.780	9345
473.858	8198
473.936	10040
474.014	8756
474.093	10321
474.171	13344
474.249	15120
474.327	10876
474.405	7463
474.484	8756
474.562	8083
474.640	8376
474.718	7579
474.796	9063
474.874	8163
474.952	7534
475.030	7672
475.108	7582
475.187	8317
475.265	7282
475.343	10018
475.421	10926
475.499	8534
475.577	8709
475.655	10346
475.733	15325
475.811	24368
475.889	21576
475.966	16705
476.044	8855
476.122	9358
476.200	8730
476.278	9022
476.356	8029
476.434	9002
476.512	9530
476.590	9964
476.667	9647
476.745	8374
476.823	8385
476.901	8474
476.979	8454
477.056	8447
477.134	8959
477.212	9005
477.290	8231
477.367	7745
477.445	8527
477.523	6924
477.601	8266
477.678	8027
477.756	9283
477.834	9919
477.911	8289
477.989	8060
478.066	7129
478.144	9057
478.222	8266
478.299	10580
478.377	12233
478.454	9219
478.532	7825
478.609	7762
478.687	8092
478.764	6859
478.842	7767
478.919	7322
478.997	7818
479.074	7421
479.152	8622
479.229	10966
479.307	7927
479.384	7149
479.461	7927
479.539	8022
479.616	8550
479.694	7834
479.771	7972
479.848	8561
479.926	9084
480.003	12028
480.080	7660
480.157	7572
480.235	6921
480.312	8644
480.389	9035
480.467	11001
480.544	13261
480.621	10055
480.698	9961
480.775	9893
480.853	8884
480.930	9029
481.007	8700
481.084	12428
481.161	17667
481.238	14810
481.315	7311
481.392	8086
481.470	8228
481.547	9270
481.624	8908
481.701	8561
481.778	9409
481.855	10063
481.932	12969
482.009	17793
482.086	14115
482.163	11301
482.240	12315
482.317	15611
482.393	13384
482.470	11001
482.547	10119
482.624	9181
482.701	9297
482.778	9047
482.855	8884
482.932	9685
483.009	9499
483.085	11962
483.162	14900
483.239	15506
483.316	11012
483.393	11306
483.469	11049
483.546	11250
483.623	11166
483.699	9269
483.776	8390
483.853	9423
483.930	11486
484.006	22193
484.083	37379
484.160	23597
484.236	30364
484.313	24264
484.389	19276
484.466	19701
484.543	20861
484.619	22249
484.696	25024
484.772	21853
484.849	20095
484.925	17150
485.002	16748
485.078	16227
485.155	16609
485.231	15593
485.308	15418
485.384	14765
485.461	18336
485.537	25762
485.614	30067
485.690	14984
485.766	14570
485.843	13956
485.919	15079
485.995	16358
486.072	14193
486.148	14938
486.224	13841
486.301	13772
486.377	16163
486.453	15265
486.530	15998
486.606	19625
486.682	20861
486.758	24037
486.835	26477
486.911	22182
486.987	29751
487.063	27425
487.139	26321
487.215	27791
487.292	24666
487.368	20239
487.444	24910
487.520	31334
487.596	42537
487.672	87633
487.748	245229
487.824	392594
487.900	172801
487.976	51076
488.052	31179
488.128	24667
488.204	19854
488.280	18237
488.356	18776
488.432	29542
488.508	41098
488.584	18184
488.660	13600
488.736	14221
488.812	13385
488.888	15929
488.964	16681
489.039	20265
489.115	26703
489.191	22151
489.267	14254
489.343	13920
489.418	12153
489.494	12228
489.570	11570
489.646	13850
489.722	12293
489.797	12587
489.873	17542
489.949	30635
490.024	28469
490.100	13557
490.176	12251
490.251	12907
490.327	12968
490.403	11890
490.478	11011
490.554	10846
490.629	11534
490.705	10859
490.781	11408
490.856	10621
490.932	11839
491.007	11716
491.083	11364
491.158	11069
491.234	13892
491.309	23368
491.385	26047
491.460	10576
491.536	12298
491.611	11199
491.686	10350
491.762	11318
491.837	15112
491.913	20233
491.988	25881
492.063	29012
492.139	17618
492.214	14333
492.289	10072
492.365	8917
492.440	10018
492.515	10280
492.590	10670
492.666	9805
492.741	11663
492.816	16483
492.891	11926
492.967	9561
493.042	9416
493.117	9279
493.192	9794
493.267	14011
493.342	27682
493.418	38187
493.493	12969
493.568	9140
493.643	8249
493.718	9693
493.793	11665
493.868	11685
493.943	8222
494.018	8098
494.093	7987
494.168	9831
494.243	7749
494.318	8454
494.393	8649
494.468	8320
494.543	7761
494.618	7897
494.693	7251
494.768	8178
494.842	8943
494.917	7554
494.992	7765
495.067	7572
495.142	7224
495.217	8519
495.292	7114
495.366	7569
495.441	8777
495.516	11545
495.591	10947
495.665	21150
495.740	40168
495.815	25302
495.890	9691
495.964	8806
496.039	11404
496.114	13042
496.188	18235
496.263	16941
496.338	9571
496.412	9792
496.487	11870
496.561	10582
496.636	9905
496.710	11270
496.785	11138
496.860	12507
496.934	9324
497.009	8906
497.083	8416
497.158	9280
497.232	11690
497.307	12246
497.381	10951
497.455	11608
497.530	15339
497.604	11597
497.679	10236
497.753	16168
497.827	17011
497.902	14164
497.976	16951
498.050	41682
498.125	150995
498.199	176008
498.273	23221
498.348	12605
498.422	12048
498.496	11735
498.570	11862
498.645	10567
498.719	10269
498.793	13761
498.867	17824
498.941	25709
499.016	67437
499.090	174245
499.164	80009
499.238	11873
499.312	10048
499.386	11404
499.460	11344
499.534	11331
499.609	12239
499.683	17314
499.757	17597
499.831	32652
499.905	115057
499.979	128381
500.053	22574
500.127	19663
500.201	12487
500.275	11464
500.349	11262
500.422	11000
500.496	12601
500.570	21935
500.644	65018
500.718	128708
500.792	39818
500.866	12437
500.940	13891
501.013	13078
501.087	10831
501.161	14760
501.235	18957
501.309	42801
501.382	113578
501.456	115168
501.530	25179
501.603	39809
501.677	21696
501.751	9171
501.825	11808
501.898	19119
501.972	47049
502.046	37972
502.119	10905
502.193	22646
502.266	51316
502.340	32590
502.413	24125
502.487	47326
502.561	29521
502.634	12665
502.708	9068
502.781	8420
502.855	9019
502.928	8435
503.002	8304
503.075	8938
503.149	8894
503.222	8774
503.295	9450
503.369	11959
503.442	14895
503.516	38038
503.589	90842
503.662	69623
503.736	27174
503.809	47864
503.882	50546
503.956	65932
504.029	91251
504.102	150181
504.175	232135
504.249	111143
504.322	42384
504.395	25094
504.468	17002
504.542	14012
504.615	10368
504.688	9036
504.761	7497
504.834	9963
504.907	8526
504.980	10594
505.053	7863
505.127	6883
505.200	11823
505.273	11001
505.346	7558
505.419	6835
505.492	8093
505.565	6907
505.638	6759
505.711	6934
505.784	5625
505.857	6465
505.930	7609
506.003	6536
506.076	8797
506.149	9153
506.221	8426
506.294	9747
506.367	19769
506.440	62496
506.513	41998
506.586	10932
506.659	7360
506.731	6756
506.804	6179
506.877	7949
506.950	7005
507.022	7095
507.095	6584
507.168	9374
507.241	6766
507.313	5174
507.386	5640
507.459	6849
507.531	6827
507.604	4778
507.677	6274
507.749	4837
507.822	7618
507.894	9689
507.967	14444
508.040	9363
508.112	9501
508.185	8852
508.257	6946
508.330	10349
508.402	7203
508.475	8568
508.547	9249
508.620	8447
508.692	12325
508.765	10036
508.837	6931
508.909	7831
508.982	7124
509.054	8024
509.127	7527
509.199	6701
509.271	6221
509.344	6681
509.416	7364
509.488	6854
509.560	7405
509.633	7224
509.705	6548
509.777	7573
509.849	8289
509.922	7721
509.994	7301
510.066	7953
510.138	7042
510.210	14713
510.283	12517
510.355	11496
510.427	9738
510.499	8287
510.571	8568
510.643	7922
510.715	9932
510.787	8536
510.859	9655
510.931	8753
511.003	10201
511.076	10292
511.148	7892
511.219	9489
511.291	12072
511.363	14589
511.435	8697
511.507	7780
511.579	8666
511.651	8471
511.723	7371
511.795	7565
511.867	7536
511.939	9143
512.010	13601
512.082	13933
512.154	7276
512.226	8441
512.298	11027
512.369	13241
512.441	12245
512.513	10342
512.585	8597
512.656	10734
512.728	9833
512.800	8219
512.871	8536
512.943	8766
513.015	8076
513.086	8853
513.158	9149
513.230	7481
513.301	9003
513.373	10412
513.444	8043
513.516	8043
513.588	7558
513.659	8878
513.731	8001
513.802	7413
513.874	11664
513.945	13310
514.016	9138
514.088	8262
514.159	7578
514.231	10368
514.302	12119
514.374	11935
514.445	9596
514.516	18592
514.588	14551
514.659	10706
514.730	14751
514.802	13144
514.873	7494
514.944	10324
515.016	10066
515.087	8541
515.158	12096
515.229	17604
515.301	8894
515.372	10084
515.443	6654
515.514	8960
515.585	7841
515.656	9163
515.728	8658
515.799	7603
515.870	9417
515.941	8928
516.012	7712
516.083	11634
516.154	10564
516.225	12347
516.296	12229
516.367	10372
516.438	10068
516.509	11946
516.580	15226
516.651	36146
516.722	105936
516.793	65541
516.864	17285
516.935	16687
517.006	17904
517.077	21019
517.148	37725
517.219	125848
517.289	231458
517.360	96935
517.431	40348
517.502	12983
517.573	13097
517.643	12370
517.714	14354
517.785	14174
517.856	13463
517.926	17065
517.997	16825
518.068	18200
518.138	23090
518.209	31167
518.280	92382
518.350	312126
518.421	171621
518.492	35476
518.562	31851
518.633	38599
518.703	54080
518.774	115975
518.845	287051
518.915	310019
518.986	104448
519.056	44528
519.127	32710
519.197	36869
519.268	74275
519.338	63436
519.408	19137
519.479	15316
519.549	13367
519.620	12998
519.690	11065
519.760	11601
519.831	10948
519.901	10417
519.971	9672
520.042	10247
520.112	11179
520.182	11711
520.253	11480
520.323	9703
520.393	10236
520.463	14248
520.534	9351
520.604	18916
520.674	13291
520.744	11582
520.814	15993
520.885	17909
520.955	26924
521.025	85832
521.095	45481
521.165	12090
521.235	9793
521.305	9009
521.375	8978
521.445	10027
521.515	8157
521.585	10840
521.655	8192
521.725	9870
521.795	10879
521.865	7459
521.935	13633
522.005	11499
522.075	8820
522.145	10327
522.215	9977
522.285	14088
522.355	14855
522.424	26281
522.494	24406
522.564	14234
522.634	13450
522.704	26901
522.774	15969
522.843	10461
522.913	9136
522.983	9851
523.053	7716
523.122	9611
523.192	9171
523.262	14674
523.331	16723
523.401	9476
523.471	7499
523.540	8897
523.610	7699
523.680	9361
523.749	9376
523.819	11779
523.888	13130
523.958	9243
524.027	8754
524.097	10278
524.166	9175
524.236	8056
524.305	11259
524.375	8466
524.444	7743
524.514	11777
524.583	9353
524.653	10416
524.722	12238
524.791	9393
524.861	10524
524.930	8422
524.999	8987
525.069	11735
525.138	11029
525.207	12049
525.277	11765
525.346	11437
525.415	11799
525.484	13350
525.554	14963
525.623	18387
525.692	22002
525.761	23507
525.830	25051
525.900	30400
525.969	49185
526.038	96469
526.107	186543
526.176	543048
526.245	495033
526.314	149377
526.383	258482
526.452	411479
526.522	482864
526.591	530786
526.660	110559
526.729	51037
526.797	53334
526.867	79409
526.935	237548
527.004	702386
527.073	543670
527.142	93521
527.211	34790
527.280	24481
527.349	18670
527.418	14517
527.487	13060
527.555	10911
527.624	10839
527.693	9446
527.762	10936
527.831	8529
527.899	9988
527.968	9309
528.037	7961
528.106	9735
528.174	11498
528.243	11322
528.312	12920
528.380	14093
528.449	9425
528.518	9585
528.586	6033
528.655	8782
528.723	8110
528.792	8572
528.861	8027
528.929	8082
528.998	9987
529.066	11078
529.135	14780
529.203	13929
529.272	15893
529.340	20761
529.409	19968
529.477	17830
529.545	19006
529.614	22284
529.682	22343
529.751	26124
529.819	26987
529.887	28980
529.956	24927
530.024	24586
530.092	22344
530.161	23190
530.229	23479
530.297	25428
530.365	25159
530.434	25707
530.502	26303
530.570	25230
530.638	21414
530.707	20933
530.775	21473
530.843	20936
530.911	23091
530.979	22816
531.047	23799
531.115	25089
531.183	22459
531.252	23263
531.320	21753
531.388	20428
531.456	23183
531.524	23326
531.592	26028
531.660	30536
531.728	25133
531.796	24245
531.864	24143
531.932	24243
532.000	23913
532.067	26174
532.135	28125
532.203	30915
532.271	30691
532.339	31751
532.407	35488
532.475	32086
532.542	27921
532.610	29431
532.678	30469
532.746	45215
532.814	74712
532.881	43752
532.949	30206
533.017	29052
533.084	27026
533.152	26322
533.220	25623
533.287	26476
533.355	27219
533.423	27627
533.490	26784
533.558	26814
533.625	27780
533.693	25653
533.761	25899
533.828	26629
533.896	24583
533.963	29782
534.031	30504
534.098	34166
534.166	31673
534.233	28347
534.300	30527
534.368	29414
534.435	28349
534.503	27809
534.570	30814
534.637	31931
534.705	35143
534.772	40991
534.840	64935
534.907	232397
534.974	353160
535.041	66340
535.109	32303
535.176	25658
535.243	27077
535.310	25024
535.378	24458
535.445	23758
535.512	23119
535.579	23218
535.646	22141
535.714	23966
535.781	25123
535.848	25204
535.915	25150
535.982	24017
536.049	23952
536.116	24471
536.183	22014
536.250	21466
536.317	20900
536.384	22635
536.451	23251
536.518	23222
536.585	20066
536.652	25159
536.719	24677
536.786	21070
536.853	21460
536.920	24264
536.987	23867
537.053	22723
537.120	39459
537.187	41506
537.254	21981
537.321	21512
537.388	22984
537.454	20771
537.521	19954
537.588	19876
537.654	20505
537.721	22365
537.788	22119
537.855	19772
537.921	21009
537.988	20339
538.055	20551
538.121	17969
538.188	18341
538.254	19223
538.321	21461
538.388	20240
538.454	21173
538.521	21456
538.587	20739
538.654	20238
538.720	19662
538.787	19926
538.853	19730
538.920	20117
538.986	19914
539.053	19103
539.119	19066
539.185	17670
539.252	20235
539.318	21524
539.385	23164
539.451	21349
539.517	21207
539.583	21931
539.650	24494
539.716	35023
539.782	22404
539.849	17816
539.915	19134
539.981	18890
540.047	18449
540.114	17748
540.180	19674
540.246	18978
540.312	21688
540.378	22036
540.444	23100
540.510	23572
540.576	35225
540.643	24517
540.709	17946
540.775	19409
540.841	18436
540.907	19979
540.973	23457
541.039	21104
541.105	20257
541.171	19955
541.237	20561
541.303	20649
541.369	21663
541.435	20999
541.500	22043
541.566	19749
541.632	17378
541.698	18228
541.764	19540
541.830	18327
541.896	17838
541.961	19785
542.027	17771
542.093	19992
542.159	19860
542.224	18425
542.290	22149
542.356	21104
542.421	21386
542.487	19015
542.553	18430
542.618	19345
542.684	18057
542.750	18469
542.815	19536
542.881	21403
542.947	33298
543.012	31819
543.078	17283
543.143	16960
543.209	19195
543.274	17834
543.340	19166
543.405	22958
543.471	27168
543.536	20675
543.602	19475
543.667	16999
543.732	20231
543.798	18059
543.863	20057
543.928	18727
543.994	18236
544.059	19278
544.124	18982
544.190	19718
544.255	20187
544.320	20977
544.386	19109
544.451	22128
544.516	22066
544.581	21313
544.646	28912
544.712	36816
544.777	23684
544.842	22926
544.907	23354
544.972	22410
545.037	22981
545.102	25454
545.168	23002
545.233	25475
545.298	25950
545.363	25175
545.428	27127
545.493	28318
545.558	33747
545.623	29095
545.688	24717
545.753	26600
545.818	26483
545.883	28766
545.947	28063
546.012	30741
546.077	30354
546.142	32177
546.207	32277
546.272	34877
546.337	34948
546.401	34539
546.466	38327
546.531	37415
546.596	40144
546.661	42895
546.725	44432
546.790	44650
546.855	48920
546.919	52889
546.984	57852
547.049	62629
547.113	71749
547.178	77680
547.243	87948
547.307	101500
547.372	113341
547.436	115715
547.501	118240
547.565	128255
547.630	116506
547.695	112014
547.759	115745
547.823	116451
547.888	116984
547.952	120016
548.017	125523
548.081	134171
548.146	131963
548.210	130387
548.274	137373
548.339	136876
548.403	125340
548.468	116960
548.532	115094
548.596	119285
548.660	119287
548.725	129232
548.789	141875
548.853	139508
548.917	132614
548.982	130379
549.046	121147
549.110	104921
549.174	106354
549.238	123918
549.303	136476
549.367	140394
549.431	135180
549.495	125600
549.559	125391
549.623	141517
549.687	159716
549.751	156414
549.815	182333
549.879	186970
549.943	178460
550.007	184434
550.071	186775
550.135	172237
550.199	161134
550.263	159484
550.327	149120
550.391	157395
550.455	171477
550.519	178884
550.582	186119
550.646	212236
550.710	217653
550.774	211441
550.838	214060
550.901	220205
550.965	234451
551.029	243160
551.093	261948
551.156	284148
551.220	325532
551.284	354269
551.347	283466
551.411	255400
551.475	248261
551.538	235000
551.602	219410
551.666	204256
551.729	194219
551.793	190772
551.856	186355
551.920	182585
551.983	182380
552.047	179916
552.110	180581
552.174	182695
552.237	188006
552.301	176625
552.364	166136
552.428	162759
552.491	166437
552.554	170504
552.618	168982
552.681	172394
552.745	166606
552.808	171667
552.871	181548
552.934	179289
552.998	171834
553.061	166698
553.124	161915
553.187	161081
553.251	166375
553.314	168279
553.377	168170
553.440	179742
553.503	205506
553.567	228164
553.630	184914
553.693	180495
553.756	178729
553.819	175680
553.882	168100
553.945	169397
554.008	171035
554.071	172706
554.134	174146
554.197	164166
554.260	159814
554.323	161888
554.386	163241
554.449	172261
554.512	172146
554.575	163734
554.638	163195
554.701	161649
554.764	160879
554.827	154702
554.889	149883
554.952	141921
555.015	136560
555.078	141444
555.141	143279
555.203	139261
555.266	139209
555.329	141429
555.391	133011
555.454	132307
555.517	126693
555.580	123772
555.642	118502
555.705	117987
555.768	116135
555.830	114744
555.893	107492
555.955	104524
556.018	103674
556.080	103078
556.143	106471
556.206	105866
556.268	102410
556.330	102219
556.393	99366
556.455	97610
556.518	96298
556.580	94332
556.643	87677
556.705	86529
556.767	84228
556.830	83789
556.892	82196
556.955	81552
557.017	79455
557.079	78857
557.142	76759
557.204	77087
557.266	78159
557.328	74908
557.391	67242
557.453	65609
557.515	65519
557.577	67115
557.639	68212
557.701	66943
557.764	66696
557.826	67595
557.888	69603
557.950	70617
558.012	76103
558.074	95422
558.136	181108
558.198	433157
558.260	202383
558.322	76513
558.384	72560
558.446	74016
558.508	79277
558.570	85541
558.632	98638
558.694	127898
558.756	197989
558.818	474307
558.880	983147
558.942	517576
559.003	459017
559.065	270115
559.127	96965
559.189	88232
559.251	95900
559.312	131774
559.374	275068
559.436	739486
559.498	478117
559.559	122109
559.621	89427
559.683	98766
559.744	151557
559.806	400742
559.868	644996
559.929	191206
559.991	103010
560.052	149664
560.114	400216
560.176	309724
560.237	228743
560.299	401680
560.360	119180
560.422	46523
560.483	38721
560.545	37180
560.606	34991
560.667	33434
560.729	33476
560.790	31595
560.852	31187
560.913	30900
560.974	30211
561.036	29528
561.097	28460
561.158	29166
561.220	28282
561.281	27266
561.342	27316
561.403	27199
561.465	27988
561.526	30639
561.587	33529
561.648	25379
561.709	25696
561.771	25587
561.832	24555
561.893	24985
561.954	23706
562.015	24140
562.076	24458
562.137	22901
562.198	23865
562.259	23469
562.320	23198
562.381	22990
562.442	23756
562.503	24052
562.564	22808
562.625	22509
562.686	22260
562.747	22396
562.808	21852
562.869	21452
562.930	24734
562.991	23298
563.051	21107
563.112	21793
563.173	20632
563.234	20926
563.294	20791
563.355	20634
563.416	20509
563.477	21188
563.537	20501
563.598	20644
563.659	20427
563.720	20208
563.780	19873
563.841	19951
563.901	20936
563.962	20796
564.023	19996
564.083	19973
564.144	18901
564.204	19935
564.265	19566
564.325	20885
564.386	25893
564.446	26670
564.507	19586
564.567	19404
564.628	19866
564.688	17759
564.749	18633
564.809	19740
564.869	21817
564.930	18682
564.990	18475
565.050	18696
565.111	18645
565.171	18935
565.231	16874
565.292	18594
565.352	17537
565.412	19086
565.472	17879
565.532	19220
565.593	17583
565.653	18391
565.713	17022
565.773	19159
565.833	18809
565.893	19748
565.953	17748
566.013	17638
566.074	17821
566.134	21689
566.194	21610
566.254	24868
566.314	20251
566.374	17636
566.434	18383
566.494	17557
566.554	17110
566.614	17820
566.673	17604
566.733	19011
566.793	18671
566.853	18336
566.913	18721
566.973	18393
567.033	19350
567.092	18871
567.152	18220
567.212	18741
567.272	19023
567.331	19596
567.391	19651
567.451	20292
567.511	21978
567.570	22798
567.630	18788
567.690	18749
567.749	17783
567.809	19181
567.868	18566
567.928	18742
567.988	19185
568.047	19794
568.107	18631
568.166	19831
568.226	20346
568.285	23217
568.345	22148
568.404	21687
568.464	20053
568.523	20222
568.582	20096
568.642	20465
568.701	21456
568.761	21300
568.820	24700
568.879	25308
568.939	26002
568.998	22462
569.057	20585
569.116	19382
569.176	19085
569.235	17892
569.294	18152
569.353	18005
569.413	17609
569.472	17649
569.531	16562
569.590	17153
569.649	17497
569.708	17392
569.767	17182
569.827	17815
569.886	17481
569.945	17191
570.004	17926
570.063	16977
570.122	17825
570.181	18235
570.240	18714
570.299	19677
570.358	17959
570.417	18179
570.475	17415
570.534	18760
570.593	17608
570.652	17535
570.711	18001
570.770	17204
570.829	18103
570.887	17865
570.946	18226
571.005	18283
571.064	18231
571.122	18691
571.181	18311
571.240	18264
571.299	16781
571.357	16859
571.416	17726
571.475	18434
571.533	19575
571.592	19059
571.650	19434
571.709	18550
571.768	19924
571.826	20234
571.885	20397
571.943	18083
572.002	16997
572.060	18373
572.119	16958
572.177	17329
572.236	16428
572.294	16693
572.352	18320
572.411	17448
572.469	17310
572.528	16600
572.586	16734
572.644	16385
572.703	16850
572.761	16458
572.819	15106
572.877	15260
572.936	15068
572.994	15020
573.052	14683
573.110	15367
573.169	16825
573.227	15680
573.285	15857
573.343	15885
573.401	14839
573.459	15379
573.517	15987
573.576	16676
573.634	15203
573.692	16197
573.750	16945
573.808	15013
573.866	15256
573.924	16774
573.982	16768
574.040	14985
574.098	14841
574.155	15041
574.213	14092
574.271	15459
574.329	15949
574.387	15256
574.445	14399
574.503	14416
574.560	13816
574.618	14141
574.676	13691
574.734	14979
574.792	14102
574.849	13274
574.907	12276
574.965	11611
575.022	11973
575.080	12241
575.138	11763
575.195	12886
575.253	11443
575.311	12488
575.368	11737
575.426	11038
575.483	12653
575.541	12603
575.598	11728
575.656	12691
575.713	13682
575.771	12886
575.828	11932
575.886	13337
575.943	12783
576.001	11924
576.058	12015
576.115	12140
576.173	13409
576.230	14368
576.287	13629
576.345	13426
576.402	12198
576.459	12746
576.517	12562
576.574	12408
576.631	12387
576.688	12538
576.746	11107
576.803	12265
576.860	11370
576.917	12311
576.974	12495
577.031	11745
577.089	11665
577.146	12166
577.203	10773
577.260	12031
577.317	12094
577.374	12424
577.431	11785
577.488	11326
577.545	11109
577.602	11538
577.659	11906
577.716	11504
577.773	12778
577.830	11745
577.886	11085
577.943	11203
578.000	11449
578.057	11827
578.114	11750
578.171	12321
578.227	13818
578.284	12842
578.341	12444
578.398	11848
578.454	12284
578.511	12515
578.568	12288
578.625	12206
578.681	11288
578.738	12165
578.794	10155
578.851	11426
578.908	11260
578.964	12470
579.021	12054
579.077	10866
579.134	12599
579.190	11010
579.247	11388
579.303	10533
579.360	10543
579.416	12011
579.473	11007
579.529	11061
579.586	11227
579.642	12417
579.698	11342
579.755	11524
579.811	12152
579.867	11569
579.924	12621
579.980	12434
580.036	13549
580.093	14935
580.149	15695
580.205	17864
580.261	15230
580.317	14837
580.374	13469
580.430	13851
580.486	14422
580.542	13953
580.598	13553
580.619	13501
580.654	13419
580.692	13766
580.710	13956
580.765	13846
580.767	13852
580.823	14489
580.838	14253
580.879	13662
580.911	13150
580.935	12792
580.984	13170
580.991	13233
581.047	13758
581.057	13809
581.103	14094
581.130	14111
581.159	14113
581.203	14793
581.215	14989
581.270	14435
581.276	14318
581.326	13269
581.349	13465
581.382	13788
581.422	14009
581.438	14102
581.494	14437
581.494	14424
581.550	13492
581.567	13822
581.606	14575
581.640	14776
581.661	14885
581.713	14676
581.717	14671
581.773	13841
581.786	14045
581.829	14703
581.859	15183
581.885	15632
581.932	15623
581.940	15614
581.996	15359
582.004	15391
582.052	15575
582.077	15199
582.107	14763
582.150	15204
582.163	15345
582.219	15499
582.223	15492
582.274	15481
582.296	15656
582.330	15940
582.368	16049
582.386	16111
582.441	16166
582.441	16166
582.497	15418
582.514	15630
582.552	16228
582.587	16371
582.608	16350
582.659	16857
582.663	16911
582.719	16839
582.732	16680
582.774	16341
582.805	16899
582.830	17288
582.877	18423
582.885	18644
582.941	19610
582.950	19972
582.996	21755
583.023	22443
583.052	23308
583.095	23954
583.107	24029
583.162	22890
583.168	22908
583.218	22878
583.240	21998
583.273	20551
583.313	19488
583.328	19195
583.384	18644
583.385	18623
583.439	17890
583.458	17505
583.494	16899
583.531	17746
583.549	18164
583.603	17054
583.605	17024
583.660	18124
583.676	18056
583.715	17851
583.748	17831
583.770	17852
583.820	17908
583.825	17901
583.881	18005
583.893	17970
583.936	17901
583.965	18048
583.991	18165
584.038	17701
584.046	17623
584.101	17882
584.110	18014
584.156	18953
584.183	19117
584.211	19110
584.255	18921
584.266	18928
584.321	19894
584.328	19880
584.376	19744
584.400	20276
584.431	20921
584.472	20117
584.486	19893
584.541	21318
584.545	21331
584.596	21541
584.617	21610
584.651	21943
584.689	22352
584.706	22413
584.761	23895
584.762	23882
584.816	23661
584.834	23962
584.871	24063
584.906	24996
584.926	25660
584.978	25633
584.980	25650
585.035	27480
585.051	27721
585.090	28814
585.123	29858
585.145	30341
585.195	32032
585.200	32327
585.254	35407
585.267	36598
585.309	41237
585.340	44886
585.364	47791
585.412	52975
585.419	53985
585.473	65044
585.484	68250
585.528	87826
585.556	106379
585.583	143169
585.628	223642
585.637	255078
585.692	506349
585.700	550209
585.747	708782
585.772	651944
585.801	453183
585.845	189466
585.856	154933
585.910	77406
585.917	69888
585.965	53445
585.989	47342
586.019	43677
586.061	40200
586.074	39415
586.128	36478
586.133	36182
586.183	34373
586.205	33995
586.237	33951
586.277	33367
586.292	33088
586.346	31963
586.349	31913
586.401	31699
586.421	31646
586.455	31719
586.493	31720
586.509	32341
586.564	33645
586.565	33750
586.618	42384
586.637	43442
586.672	42713
586.709	42279
586.727	42568
586.781	45007
586.781	45044
586.835	37679
586.853	35692
586.889	32880
586.925	30788
586.944	30269
586.996	29759
586.998	29804
587.052	29835
587.068	29792
587.106	30082
587.140	30096
587.161	29866
587.212	29564
587.215	29645
587.269	30611
587.284	30833
587.323	31209
587.356	31380
587.377	31522
587.427	32271
587.431	32409
587.485	33942
587.499	33955
587.539	33995
587.571	34746
587.593	35448
587.643	36314
587.648	36494
587.702	37451
587.715	37831
587.755	38233
587.786	38266
587.810	38494
587.858	38920
587.864	39099
587.917	40273
587.930	40448
587.971	41319
588.001	42031
588.025	42408
588.073	42541
588.079	42702
588.133	43974
588.145	44174
588.187	45629
588.217	46752
588.241	48326
588.288	51691
588.295	52342
588.348	56103
588.360	57028
588.402	60377
588.431	62332
588.456	64640
588.503	69448
588.510	70508
588.564	79065
588.575	80830
588.617	89959
588.646	96516
588.671	104974
588.718	123118
588.725	128705
588.778	175806
588.789	186892
588.832	290258
588.861	368371
588.886	489511
588.932	739087
588.939	756881
588.993	841326
589.004	841685
589.047	594051
589.075	422286
589.100	324707
589.147	173312
589.154	167164
589.207	129160
589.218	121805
589.261	116587
589.290	114360
589.314	119155
589.361	130589
589.368	137103
589.421	193841
589.433	207502
589.475	346807
589.504	453372
589.528	558579
589.576	759806
589.582	742520
589.635	497722
589.647	442617
589.689	256120
589.718	140058
589.742	119383
589.790	83835
589.795	82809
589.849	73136
589.861	71140
589.902	68241
589.932	65495
589.955	62594
590.004	55403
590.009	55142
590.062	52408
590.075	51537
590.115	49987
590.146	48833
590.168	48603
590.218	47607
590.222	47748
590.275	48433
590.289	48541
590.328	48506
590.360	48151
590.381	48332
590.431	48222
590.435	48322
590.488	48527
590.503	48434
590.541	48812
590.574	49132
590.594	49435
590.645	49601
590.647	49763
590.700	51127
590.716	51418
590.753	51921
590.787	52296
590.806	52786
590.859	53768
590.859	53906
590.912	54659
590.930	54802
590.965	55300
591.001	55353
591.018	55303
591.071	54936
591.072	54800
591.124	54084
591.143	53548
591.177	54161
591.214	54792
591.230	55221
591.283	56096
591.285	55991
591.336	55239
591.356	54762
591.389	55808
591.427	56670
591.442	56320
591.495	54492
591.498	54230
591.547	55034
591.569	55232
591.600	55635
591.640	55676
591.653	56255
591.706	58320
591.711	58383
591.759	59994
591.782	60674
591.811	61814
591.853	62912
591.864	62877
591.917	61895
591.924	61592
591.969	61729
591.995	61572
592.022	62047
592.066	62496
592.075	63064
592.127	65500
592.137	65801
592.180	68404
592.208	69776
592.233	69556
592.279	68623
592.285	68878
592.338	69525
592.350	69502
592.390	69347
592.421	68911
592.443	69936
592.491	71604
592.495	71868
592.548	72891
592.562	72985
592.600	73071
592.633	72786
592.653	72613
592.704	71278
592.705	71729
592.775	73838
592.846	76167
592.916	76608
592.987	75679
593.058	77790
593.128	78270
593.199	78369
593.270	78462
593.341	78971
593.411	82660
593.482	84409
593.553	87054
593.623	86481
593.694	90334
593.764	91902
593.835	91900
593.906	91235
593.976	94116
594.047	96895
594.117	102204
594.188	105550
594.258	102313
594.329	103244
594.399	104205
594.470	108497
594.540	111065
594.611	111692
594.681	112072
594.751	112085
594.822	116294
594.892	120678
594.963	124003
595.033	127432
595.103	131165
595.174	132800
595.244	138523
595.314	145719
595.384	140897
595.455	143076
595.525	148638
595.595	152578
595.665	154939
595.736	151839
595.806	153560
595.876	155733
595.946	159341
596.016	164011
596.087	165965
596.157	167860
596.227	169063
596.297	178977
596.367	190162
596.437	200575
596.507	202598
596.577	203269
596.647	204511
596.717	213824
596.787	217827
596.857	218179
596.927	220727
596.997	219786
597.067	224065
597.137	228684
597.207	228415
597.277	230752
597.347	221978
597.417	215069
597.487	214768
597.557	220616
597.626	227362
597.696	229806
597.766	229422
597.836	220657
597.906	206576
597.975	202393
598.045	207309
598.115	214734
598.185	230540
598.254	254791
598.324	271870
598.394	280875
598.464	272413
598.533	267348
598.603	252810
598.672	244712
598.742	250341
598.812	252256
598.881	262324
598.951	257325
599.020	264256
599.090	270945
599.159	275577
599.229	267845
599.299	264196
599.368	271250
599.437	267806
599.507	249384
599.576	243796
599.646	242765
599.715	241337
599.785	238507
599.854	233676
599.924	233308
599.993	232920
600.062	236785
600.132	244663
600.201	257124
600.270	290645
600.340	307045
600.409	303206
600.478	300791
600.547	307012
600.617	286470
600.686	241316
600.755	224164
600.824	216575
600.894	214742
600.963	216277
601.032	214015
601.101	214030
601.170	206660
601.239	206173
601.308	206076
601.378	210403
601.447	211072
601.516	214519
601.585	217810
601.654	222781
601.723	225921
601.792	232588
601.861	238741
601.930	250108
601.999	256519
602.068	250911
602.137	255377
602.206	257857
602.275	261395
602.343	264943
602.412	265463
602.481	266481
602.550	269673
602.619	277000
602.688	273648
602.756	278874
602.825	279703
602.894	288721
602.963	288414
603.032	295487
603.100	295578
603.169	289527
603.238	297707
603.307	290130
603.375	294939
603.444	306487
603.513	295276
603.581	299164
603.650	312742
603.719	285996
603.787	282213
603.856	289674
603.924	294585
603.993	305672
604.061	315847
604.130	329121
604.198	334984
604.267	337571
604.335	343726
604.404	347573
604.472	356931
604.541	357364
604.609	365514
604.678	367747
604.746	373535
604.815	387810
604.883	383685
604.951	378824
605.020	387473
605.088	381041
605.156	376948
605.225	383658
605.293	379936
605.361	382110
605.429	385054
605.498	392649
605.566	394384
605.634	412550
605.702	424817
605.771	433408
605.839	435740
605.907	420299
605.975	416657
606.043	406176
606.111	400224
606.180	412090
606.248	397450
606.316	395038
606.384	401125
606.452	378843
606.520	366006
606.588	376696
606.656	379831
606.724	371377
606.792	349470
606.860	319134
606.928	294319
606.996	280977
607.064	275739
607.132	284270
607.200	299135
607.267	311520
607.335	315863
607.403	322004
607.471	311534
607.539	302682
607.607	303118
607.674	270901
607.742	270337
607.810	267724
607.878	268158
607.946	275665
608.013	287377
608.081	291455
608.149	291811
608.216	303093
608.284	312049
608.352	311975
608.419	309867
608.487	303511
608.555	296826
608.622	306105
608.690	320291
608.757	352935
608.825	359344
608.893	350787
608.960	331431
609.028	317185
609.095	319415
609.163	314763
609.230	284392
609.298	259790
609.365	273996
609.432	294682
609.500	316916
609.567	360699
609.635	411477
609.702	436230
609.769	412667
609.837	327344
609.904	282569
609.971	291256
610.039	319130
610.106	387906
610.173	638463
610.241	1238745
610.308	879704
610.375	412428
610.442	319005
610.509	299233
610.577	294941
610.644	298304
610.711	308334
610.778	314129
610.845	324854
610.912	347944
610.980	361295
611.047	363269
611.114	356308
611.181	341766
611.248	341719
611.315	358649
611.382	369766
611.449	381807
611.516	386929
611.583	381977
611.650	385232
611.717	389217
611.784	394663
611.851	409269
611.918	429303
611.984	480913
612.051	608488
612.118	963559
612.185	1721435
612.252	1367858
612.319	633617
612.386	515764
612.452	466307
612.519	441013
612.586	430435
612.653	438703
612.719	447301
612.786	433383
612.853	402157
612.919	393274
612.986	399561
613.053	379217
613.120	356848
613.186	341168
613.253	346009
613.319	346991
613.386	347583
613.453	354464
613.519	356058
613.586	350216
613.652	355922
613.719	351178
613.785	356097
613.852	360034
613.918	357290
613.985	360904
614.051	377772
614.118	383474
614.184	369465
614.250	354594
614.317	362071
614.383	357477
614.449	366601
614.516	363942
614.582	363513
614.648	358281
614.715	354049
614.781	346429
614.847	349806
614.914	347569
614.980	337552
615.046	335543
615.112	345717
615.179	346148
615.245	352016
615.311	347432
615.377	355067
615.443	357699
615.509	360405
615.575	370862
615.642	371234
615.708	376172
615.774	392114
615.840	414418
615.906	436304
615.972	496247
616.038	666021
616.104	1121774
616.170	1852944
616.236	1709604
616.302	851022
616.368	658360
616.434	502052
616.500	451765
616.565	485437
616.631	597466
616.697	517736
616.763	510285
616.829	704130
616.895	1154449
616.961	1139826
617.026	587653
617.092	414436
617.158	380947
617.224	366299
617.289	339740
617.355	324703
617.421	321097
617.487	320884
617.552	303384
617.618	301094
617.684	302381
617.749	301425
617.815	289488
617.880	286305
617.946	284027
618.012	288938
618.077	295512
618.143	283316
618.208	284748
618.274	305315
618.339	308575
618.405	258376
618.470	254987
618.536	254040
618.601	253797
618.667	237221
618.732	222232
618.798	221833
618.863	219254
618.928	219137
618.994	221419
619.059	220388
619.124	224735
619.190	220230
619.255	217244
619.320	218819
619.386	220132
619.451	219589
619.516	210819
619.581	215692
619.647	221836
619.712	221924
619.777	212743
619.842	213181
619.907	217190
619.972	219632
620.038	221057
620.103	212867
620.168	213250
620.233	216825
620.298	218407
620.363	220874
620.428	225524
620.493	230789
620.558	233016
620.623	236442
620.688	235644
620.753	233877
620.818	239242
620.883	239398
620.948	239630
621.013	235519
621.078	234137
621.143	235934
621.207	239793
621.272	235624
621.337	229646
621.402	227554
621.467	227102
621.532	227956
621.596	225662
621.661	220701
621.726	217910
621.791	220213
621.855	219319
621.920	217635
621.985	222540
622.049	227165
622.114	227499
622.179	229818
622.243	235524
622.308	240873
622.373	250241
622.437	244166
622.502	233065
622.566	229447
622.631	228234
622.695	233244
622.760	233262
622.824	230454
622.889	232314
622.953	233295
623.018	246982
623.082	249334
623.147	246238
623.211	240108
623.276	239870
623.340	229996
623.404	223969
623.469	225691
623.533	227684
623.597	222881
623.662	221153
623.726	207681
623.790	194739
623.854	189883
623.919	192074
623.983	195629
624.047	198698
624.111	199732
624.176	203387
624.240	204515
624.304	211032
624.368	201746
624.432	201656
624.496	206637
624.560	216707
624.625	219915
624.689	215688
624.753	228407
624.817	215879
624.881	210414
624.945	191672
625.009	186265
625.073	189632
625.137	194996
625.201	203976
625.265	205091
625.329	194985
625.393	197343
625.456	199629
625.520	203661
625.584	207262
625.648	214222
625.712	225186
625.776	244138
625.839	237295
625.903	183968
625.967	164837
626.031	181290
626.095	219729
626.158	193397
626.222	152612
626.286	142247
626.349	136887
626.413	128605
626.477	127986
626.540	130129
626.604	127687
626.668	126354
626.731	125467
626.795	126952
626.858	124624
626.922	121919
626.986	122393
627.049	120852
627.113	127239
627.176	124715
627.240	119503
627.303	119103
627.366	117725
627.430	120296
627.493	119587
627.557	118797
627.620	121450
627.684	123447
627.747	126180
627.810	114702
627.874	105665
627.937	99671
628.000	106972
628.064	102639
628.127	91054
628.190	90138
628.253	88212
628.317	84585
628.380	82417
628.443	80073
628.506	80000
628.569	76807
628.632	73007
628.696	71075
628.759	71552
628.822	70044
628.885	68590
628.948	68229
629.011	65662
629.074	64197
629.137	62233
629.200	61915
629.263	61906
629.326	59800
629.389	60814
629.452	60715
629.515	59325
629.578	57331
629.641	60579
629.704	59672
629.767	59227
629.830	57114
629.892	56693
629.955	56061
630.018	58202
630.081	56768
630.144	58249
630.207	54484
630.269	58317
630.332	55476
630.395	53956
630.458	53494
630.520	50532
630.583	52650
630.646	52547
630.708	52206
630.771	53507
630.834	56352
630.896	55001
630.959	54912
631.021	53456
631.084	53418
631.146	54154
631.209	55634
631.272	55205
631.334	55693
631.397	55022
631.459	56620
631.522	58084
631.584	59457
631.646	63723
631.709	64398
631.771	66390
631.834	63670
631.896	60588
631.958	56675
632.021	56731
632.083	54083
632.145	54047
632.208	52308
632.270	52217
632.332	51016
632.395	50218
632.457	51630
632.519	51416
632.581	51159
632.643	49047
632.706	50414
632.768	49482
632.830	50804
632.892	51435
632.954	53234
633.016	54011
633.078	50717
633.141	51165
633.203	50666
633.265	50896
633.327	50222
633.389	49881
633.451	51376
633.513	51096
633.575	53526
633.637	51678
633.698	53266
633.760	56634
633.822	57154
633.884	57484
633.946	60018
634.008	60517
634.070	62547
634.132	66857
634.193	70278
634.255	75393
634.317	75347
634.379	75971
634.441	68697
634.502	62935
634.564	58566
634.626	55431
634.687	51960
634.749	50993
634.811	51553
634.873	49182
634.934	49114
634.996	49806
635.057	49489
635.119	50976
635.181	52477
635.242	52518
635.304	49725
635.365	53493
635.427	50592
635.488	51309
635.550	49990
635.611	53278
635.673	50705
635.734	56553
635.796	57435
635.857	62680
635.918	65884
635.980	71862
636.041	75970
636.102	80499
636.164	80555
636.225	78516
636.286	68384
636.348	62151
636.409	55608
636.470	52590
636.531	52390
636.593	49395
636.654	49518
636.715	46852
636.776	46053
636.838	44234
636.899	44324
636.960	43128
637.021	42911
637.082	41941
637.143	40654
637.204	40085
637.265	41172
637.326	41077
637.387	43131
637.448	42607
637.509	41994
637.570	41524
637.631	41854
637.692	39700
637.753	38217
637.814	39740
637.875	38162
637.936	39629
637.997	38375
638.058	38412
638.119	39293
638.179	39354
638.240	38021
638.301	38773
638.362	37810
638.423	37213
638.483	37583
638.544	34182
638.605	36764
638.666	36151
638.726	37447
638.787	37219
638.848	36086
638.908	35307
638.969	34544
639.030	34816
639.090	32892
639.151	34028
639.211	36161
639.272	36636
639.332	37690
639.393	36842
639.453	37399
639.514	39155
639.574	34896
639.635	33380
639.695	33657
639.756	31732
639.816	31815
639.877	32332
639.937	34182
639.997	35354
640.058	32408
640.118	31501
640.178	33552
640.239	31946
640.299	31948
640.359	33082
640.420	34508
640.480	39040
640.540	43302
640.600	45418
640.661	39753
640.721	38777
640.781	44218
640.841	43439
640.901	34847
640.961	33391
641.021	34609
641.082	36812
641.142	34022
641.202	33217
641.262	29401
641.322	31567
641.382	29559
641.442	30813
641.502	31139
641.562	32052
641.622	30764
641.682	35422
641.742	36827
641.802	36308
641.861	31821
641.921	30158
641.981	30526
642.041	29085
642.101	28721
642.161	27336
642.221	28169
642.280	28935
642.340	27181
642.400	28017
642.460	29704
642.519	29050
642.579	29486
642.639	30799
642.698	27363
642.758	32566
642.818	30763
642.877	30235
642.937	29938
642.997	30953
643.056	31136
643.116	30236
643.175	31056
643.235	31741
643.294	31719
643.354	34084
643.414	37094
643.473	41112
643.532	46835
643.592	60544
643.651	86924
643.711	140766
643.770	256406
643.830	551131
643.889	978576
643.948	363603
644.008	96276
644.067	58386
644.126	44821
644.186	39736
644.245	34773
644.304	31688
644.363	33300
644.423	29858
644.482	30550
644.541	32857
644.600	32558
644.659	41326
644.719	48280
644.778	69895
644.837	113936
644.896	221360
644.955	479189
645.014	184971
645.073	52205
645.132	38529
645.191	35223
645.250	33777
645.309	36694
645.368	38984
645.427	51247
645.486	82298
645.545	145502
645.604	48793
645.663	31261
645.722	30079
645.781	33067
645.840	36571
645.898	43185
645.957	57000
646.016	80352
646.075	132705
646.134	244967
646.192	569530
646.251	789753
646.310	199663
646.369	70400
646.427	54730
646.486	41143
646.545	34012
646.603	30524
646.662	30181
646.721	28031
646.779	28198
646.838	29451
646.896	35844
646.955	46832
647.014	72003
647.072	130059
647.131	339956
647.189	180063
647.248	36579
647.306	28240
647.365	26468
647.423	22536
647.481	23724
647.540	21175
647.598	22932
647.657	22633
647.715	21911
647.773	19641
647.832	21576
647.890	18907
647.948	18832
648.007	20204
648.065	18616
648.123	18627
648.181	20301
648.240	20111
648.298	18286
648.356	18626
648.414	18950
648.472	17983
648.531	18260
648.589	17557
648.647	17949
648.705	17636
648.763	18010
648.821	18198
648.879	19798
648.937	20390
648.995	24628
649.053	30518
649.111	42047
649.169	64741
649.227	111593
649.285	226229
649.343	575143
649.401	313218
649.459	60049
649.516	35090
649.574	28757
649.632	33542
649.690	39077
649.748	38454
649.806	55590
649.863	100130
649.921	252102
649.979	179661
650.037	31177
650.094	19060
650.152	19292
650.210	16237
650.268	18342
650.325	18203
650.383	21923
650.440	14912
650.498	14755
650.556	13829
650.613	13262
650.671	13614
650.728	14014
650.786	15410
650.843	20721
650.901	15268
650.958	13623
651.016	12348
651.073	12384
651.131	11480
651.188	11954
651.246	12274
651.303	10999
651.360	11957
651.418	10443
651.475	11747
651.532	11244
651.590	11864
651.647	9980
651.704	11095
651.762	11358
651.819	10927
651.876	10916
651.933	10170
651.990	10925
652.048	9517
652.105	10043
652.162	10901
652.219	9931
652.276	10194
652.333	11218
652.390	8702
652.448	9992
652.505	10247
652.562	10715
652.619	10090
652.676	12435
652.733	13079
652.790	10083
652.847	8966
652.904	10367
652.961	8454
653.017	9294
653.074	9362
653.131	9669
653.188	8309
653.245	9466
653.302	9052
653.359	9153
653.415	9819
653.472	8674
653.529	9312
653.586	8877
653.642	8820
653.699	9526
653.756	7948
653.813	9823
653.869	10425
653.926	9022
653.983	8435
654.039	10411
654.096	8600
654.152	9524
654.209	7388
654.266	9010
654.322	8470
654.379	9651
654.435	9508
654.492	8270
654.548	9306
654.605	11240
654.661	11474
654.717	9124
654.774	9136
654.830	8887
654.887	8683
654.943	9240
655.000	11624
655.056	10929
655.112	9524
655.168	8602
655.225	9091
655.281	10666
655.337	9895
655.394	11587
655.450	10450
655.506	9550
655.562	10887
655.618	11279
655.675	7893
655.731	8526
655.787	8186
655.843	9712
655.899	7199
655.955	8842
656.011	9271
656.067	8776
656.123	8960
656.179	8996
656.235	10273
656.291	7980
656.347	9937
656.403	8902
656.459	9185
656.515	8556
656.571	8854
656.627	8830
656.683	8995
656.739	9207
656.795	8179
656.850	8641
656.906	9164
656.962	9965
657.018	9188
657.074	11309
657.129	14308
657.185	21808
657.241	46624
657.297	28907
657.352	10065
657.408	8057
657.464	9006
657.519	8952
657.575	6728
657.630	7985
657.686	7626
657.742	7129
657.797	7213
657.853	7935
657.908	8698
657.964	6707
658.019	7814
658.075	7872
658.130	7448
658.186	6808
658.241	7444
658.297	6617
658.352	8210
658.407	7614
658.463	6472
658.518	7253
658.573	7796
658.629	6915
658.684	7478
658.739	8263
658.795	6346
658.850	7907
658.905	6479
658.960	8073
659.016	6753
659.071	6847
659.126	7354
659.181	7028
659.236	8746
659.291	8766
659.346	6976
659.401	8350
659.457	8115
659.512	8339
659.567	8349
659.622	6954
659.677	6944
659.732	6275
659.787	7735
659.842	7005
659.897	8196
659.952	7613
660.007	7028
660.061	7369
660.116	5959
660.171	6299
660.226	7567
660.281	7582
660.336	5872
660.391	7209
660.445	5870
660.500	7092
660.555	6207
660.610	5644
660.664	6810
660.719	7305
660.774	6366
660.828	5985
660.883	6428
660.938	7662
660.992	6314
661.047	6045
661.101	6756
661.156	6374
661.211	6170
661.265	6151
661.320	5695
661.374	7453
661.429	5865
661.483	6801
661.538	6098
661.592	6960
661.647	8095
661.701	10046
661.755	6999
661.810	6778
661.864	5845
661.919	6728
661.973	7033
662.027	6349
662.081	5696
662.136	7074
662.190	6236
662.244	6959
662.299	5767
662.353	7434
662.407	6190
662.461	5929
662.515	6700
662.569	6449
662.624	6965
662.678	5780
662.732	5698
662.786	5859
662.840	6691
662.894	6250
662.948	5654
663.002	6271
663.056	5976
663.110	5193
663.164	6722
663.218	5898
663.272	6437
663.326	6937
663.380	6194
663.434	5287
663.488	6068
663.542	5738
663.595	6244
663.649	5562
663.703	6581
663.757	5545
663.811	5945
663.864	6232
663.918	6420
663.972	6336
664.026	6624
664.079	5574
664.133	6458
664.187	7082
664.240	6259
664.294	7355
664.348	7542
664.401	5990
664.455	6925
664.508	5675
664.562	5495
664.615	6188
664.669	5924
664.722	6166
664.776	5098
664.829	6198
664.883	5702
664.936	6165
664.990	6476
665.043	6461
665.097	6118
665.150	8095
665.203	6327
665.257	6714
665.310	6665
665.363	7072
665.417	6530
665.470	7109
665.523	7093
665.576	6523
665.630	7195
665.683	6827
665.736	6984
665.789	6975
665.842	6418
665.895	6343
665.949	6857
666.002	6752
666.055	6989
666.108	7267
666.161	6507
666.214	6655
666.267	6526
666.320	7217
666.373	7303
666.426	7706
666.479	6559
666.532	7701
666.585	7401
666.638	8048
666.691	7622
666.744	7361
666.796	6759
666.849	7450
666.902	7142
666.955	6532
667.008	6478
667.060	7077
667.113	6359
667.166	6346
667.219	7529
667.271	6920
667.324	6190
667.377	6974
667.430	6382
667.482	7082
667.535	7121
667.587	7032
667.640	7149
667.693	7040
667.745	8542
667.798	7591
667.850	5954
667.903	6648
667.955	6934
668.008	6784
668.060	7410
668.113	7251
668.165	6897
668.218	8597
668.270	6940
668.322	7740
668.375	6015
668.427	7499
668.479	6747
668.532	6457
668.584	6267
668.636	6844
668.689	6184
668.741	6736
668.793	6284
668.845	6939
668.898	6803
668.950	6358
669.002	6499
669.054	5696
669.106	5836
669.158	7512
669.211	6289
669.263	6179
669.315	6992
669.367	7637
669.419	6616
669.471	6933
669.523	6423
669.575	8293
669.627	7368
669.679	7124
669.731	6975
669.783	7639
669.835	7454
669.886	6319
669.938	6633
669.990	6637
670.042	6138
670.094	6672
670.146	7015
670.197	7697
670.249	8231
670.301	9613
670.353	12138
670.404	15921
670.456	19879
670.508	29612
670.560	47094
670.611	77005
670.663	130883
670.715	289901
670.766	444312
670.818	162875
670.869	34081
670.921	19373
670.972	14657
671.024	11170
671.075	9881
671.127	10221
671.178	8932
671.230	9175
671.281	9157
671.333	9547
671.384	9992
671.436	13476
671.487	19102
671.538	26408
671.590	38211
671.641	61052
671.692	105340
671.744	190346
671.795	145424
671.846	55741
671.897	26940
671.949	18046
672.000	13665
672.051	11259
672.102	9605
672.153	7917
672.204	7417
672.256	7534
672.307	7089
672.358	7448
672.409	6143
672.460	5657
672.511	5790
672.562	5733
672.613	6116
672.664	5264
672.715	5424
672.766	5596
672.817	5047
672.868	4947
672.919	5161
672.970	4791
673.021	4653
673.071	4742
673.122	4863
673.173	4981
673.224	5098
673.275	5890
673.326	5381
673.376	5165
673.427	4083
673.478	4739
673.528	4832
673.579	5672
673.630	4965
673.680	5370
673.731	4450
673.782	5242
673.832	5340
673.883	4976
673.934	4548
673.984	5349
674.035	4478
674.085	5284
674.136	5319
674.186	5681
674.237	5301
674.287	6232
674.338	5705
674.388	5099
674.438	5791
674.489	5847
674.539	5744
674.589	5562
674.640	5898
674.690	5555
674.740	5283
674.791	5448
674.841	5189
674.891	4449
674.942	3807
674.992	5402
675.042	4025
675.092	4695
675.142	4077
675.193	4052
675.243	3793
675.293	4363
675.343	4288
675.393	4739
675.443	5411
675.493	4296
675.543	4480
675.593	5482
675.643	4202
675.693	5057
675.743	3954
675.793	4269
675.843	4020
675.893	4736
675.943	3905
675.993	3508
676.043	3524
676.093	4141
676.142	3485
676.192	4682
676.242	3920
676.292	3593
676.341	2965
676.391	4836
676.441	3345
676.491	3846
676.540	3951
676.590	4100
676.640	3474
676.689	3517
676.739	3491
676.789	2915
676.838	3481
676.888	3775
676.937	3216
676.987	4284
677.037	3651
677.086	3744
677.136	2901
677.185	2990
677.235	3016
677.284	3332
677.333	3606
677.383	3752
677.432	2406
677.482	3654
677.531	3313
677.580	3355
677.630	3182
677.679	2503
677.728	2765
677.778	3952
677.827	2902
677.876	3035
677.925	3643
677.975	3718
678.024	3868
678.073	4191
678.122	3815
678.171	4338
678.220	4414
678.269	5637
678.319	3507
678.368	5861
678.417	4639
678.466	4548
678.515	4395
678.564	4442
678.613	2978
678.662	2869
678.711	3171
678.760	3426
678.809	3145
678.857	3694
678.906	3478
678.955	3498
679.004	3332
679.053	4502
679.102	3964
679.151	3626
679.199	3932
679.248	3266
679.297	3006
679.346	3234
679.394	2328
679.443	2679
679.492	2873
679.540	3597
679.589	3161
679.638	3019
679.686	3667
679.735	3616
679.784	4214
679.832	5488
679.881	3137
679.929	3625
679.978	3075
680.026	3473
680.075	3233
680.123	2786
680.172	2231
680.220	3306
680.268	2675
680.317	3230
680.365	1917
680.414	1894
680.462	2661
680.510	2401
680.559	3572
680.607	2761
680.655	2337
680.703	2948
680.752	2771
680.800	2971
680.848	2098
680.896	2829
680.945	2456
680.993	2059
681.041	2166
681.089	2208
681.137	2385
681.185	2517
681.233	2843
681.258	2614
681.281	2368
681.329	2496
681.377	2877
681.380	2881
681.425	2435
681.473	3500
681.502	3062
681.521	2708
681.569	3720
681.617	3110
681.624	3178
681.665	3394
681.713	3273
681.745	3310
681.761	3285
681.809	2832
681.857	3629
681.867	3618
681.904	3459
681.952	3762
681.989	3075
682.000	2832
682.048	3817
682.096	3730
682.111	3925
682.143	4261
682.191	3114
682.233	3712
682.239	3772
682.286	3041
682.334	3435
682.354	3431
682.382	3363
682.430	4248
682.476	3621
682.477	3583
682.525	3806
682.572	3769
682.598	3616
682.620	3443
682.667	4072
682.715	4029
682.720	4064
682.763	4071
682.810	4236
682.841	4522
682.857	4656
682.905	4441
682.952	4945
682.963	4744
683.000	3925
683.047	4545
683.085	4486
683.095	4448
683.142	3785
683.190	5046
683.206	4906
683.237	4562
683.284	5061
683.328	4642
683.332	4582
683.379	4935
683.426	4246
683.449	4580
683.473	4932
683.521	4897
683.568	5207
683.571	5203
683.615	4801
683.662	5444
683.693	4877
683.709	4517
683.757	5182
683.804	5087
683.814	5063
683.851	4940
683.898	5032
683.936	5744
683.945	5897
683.992	5643
684.039	5042
684.057	5061
684.086	5068
684.133	5424
684.179	4698
684.180	4656
684.227	5720
684.274	6424
684.300	6138
684.321	5857
684.368	5482
684.415	5712
684.422	5736
684.462	5831
684.509	5570
684.543	5880
684.556	5984
684.603	5502
684.649	5595
684.665	5963
684.696	6640
684.743	6558
684.786	6721
684.790	6723
684.837	5375
684.883	6900
684.908	6856
684.930	6764
684.977	7260
685.023	6977
685.029	7002
685.070	7075
685.117	6793
685.150	6924
685.164	6981
685.210	7045
685.257	7583
685.272	7625
685.303	7598
685.350	7301
685.393	6989
685.396	6954
685.443	6761
685.490	7767
685.514	7308
685.536	6848
685.583	6581
685.629	7466
685.636	7372
685.675	6913
685.722	7812
685.757	7031
685.768	6769
685.815	7450
685.861	7327
685.878	7535
685.908	7821
685.954	7724
686.000	7728
686.000	7724
686.047	7933
686.093	8392
686.121	8492
686.139	8452
686.185	7802
686.232	8265
686.242	8198
686.278	7991
686.324	8161
686.363	8027
686.370	8004
686.416	7388
686.463	8686
686.484	8577
686.509	8467
686.555	8555
686.601	8395
686.606	8427
686.647	8504
686.693	8797
686.727	8734
686.739	8733
686.785	7971
686.831	7881
686.848	8022
686.877	8322
686.923	7961
686.969	8354
686.969	8354
687.015	8743
687.061	8153
687.090	8872
687.107	9300
687.153	9320
687.199	9651
687.211	9410
687.245	8599
687.291	8445
687.332	9206
687.336	9330
687.382	9857
687.428	9324
687.453	10091
687.474	10386
687.520	9770
687.565	9708
687.574	9541
687.611	9490
687.657	10466
687.695	11023
687.702	11235
687.748	13087
687.794	15115
687.816	15047
687.839	13801
687.885	12004
687.931	11141
687.937	10946
687.976	10594
688.022	9932
688.058	10086
688.067	10178
688.113	9991
688.158	9614
688.179	9756
688.204	10108
688.249	10537
688.295	10849
688.300	10888
688.340	10944
688.386	11003
688.421	10364
688.431	10208
688.477	10276
688.522	10521
688.542	10671
688.567	11069
688.613	11086
688.658	11063
688.663	11100
688.703	10950
688.749	10813
688.784	10876
688.794	10983
688.839	11319
688.884	11398
688.905	11511
688.930	11374
688.975	11017
689.020	9895
689.026	9816
689.065	10017
689.110	11026
689.146	11065
689.155	11056
689.201	11727
689.246	11716
689.267	11890
689.291	11805
689.336	11101
689.381	10774
689.388	10775
689.426	11263
689.471	11364
689.509	10951
689.516	10894
689.561	11670
689.606	11584
689.630	11725
689.651	11688
689.696	10758
689.741	11279
689.750	11213
689.785	11514
689.830	11389
689.871	12047
689.875	12075
689.920	12139
689.965	11310
689.992	11460
690.010	11700
690.054	11867
690.099	11720
690.112	11658
690.144	11440
690.189	11427
690.233	11223
690.233	11237
690.278	11409
690.323	11434
690.354	11719
690.367	11904
690.412	11772
690.457	12043
690.474	12230
690.501	12380
690.546	11930
690.590	11655
690.595	11640
690.635	11977
690.680	12397
690.716	12210
690.724	12282
690.769	13423
690.813	14660
690.836	14778
690.857	15431
690.902	17483
690.946	18972
690.957	19642
690.991	24621
691.035	30833
691.077	36672
691.080	36640
691.124	33110
691.168	29889
691.198	28142
691.213	26749
691.257	21880
691.301	17716
691.318	16022
691.346	15606
691.390	14865
691.434	13901
691.439	13810
691.478	13599
691.522	13354
691.559	13035
691.567	13087
691.611	13665
691.655	14003
691.680	14009
691.699	13846
691.743	13500
691.787	13096
691.800	12991
691.831	13224
691.875	13417
691.919	14049
691.921	14030
691.964	13632
692.008	13562
692.041	13258
692.052	13266
692.096	13155
692.139	13053
692.162	13005
692.183	13029
692.227	13315
692.271	12800
692.282	12916
692.315	13095
692.359	12662
692.402	12391
692.403	12418
692.447	12338
692.490	13333
692.523	13547
692.534	13536
692.578	13352
692.622	13064
692.643	13174
692.666	13395
692.709	13193
692.753	13351
692.763	13354
692.797	13436
692.840	13400
692.884	13627
692.884	13655
692.928	13354
692.971	13443
693.004	13580
693.015	13727
693.059	13963
693.102	14090
693.124	14308
693.146	14345
693.189	14249
693.233	14110
693.245	14007
693.276	14249
693.320	14922
693.363	14912
693.365	14897
693.407	15626
693.450	16379
693.485	16972
693.493	17270
693.537	18670
693.580	19605
693.605	20544
693.624	22534
693.667	26800
693.710	31269
693.725	32769
693.753	41658
693.797	56428
693.840	70986
693.845	72413
693.883	65910
693.926	58009
693.966	51362
693.970	50372
694.013	39386
694.056	28494
694.086	20705
694.099	20159
694.142	18483
694.185	16726
694.206	16182
694.229	16467
694.272	16165
694.315	16201
694.326	16133
694.358	15990
694.401	15878
694.444	15532
694.446	15498
694.487	15476
694.530	15259
694.566	15001
694.573	15007
694.616	14622
694.659	14543
694.686	14359
694.702	14411
694.745	14674
694.787	14742
694.806	14741
694.830	14786
694.873	14965
694.916	15093
694.926	15059
694.959	15229
695.002	15374
695.044	15579
695.046	15561
695.087	15553
695.130	15073
695.166	14732
695.172	14800
695.215	15182
695.258	15476
695.286	15659
695.301	15793
695.343	16077
695.386	16430
695.406	16407
695.428	16617
695.471	17280
695.514	17836
695.526	18018
695.556	19134
695.599	20469
695.641	21703
695.646	21783
695.684	20814
695.726	19708
695.766	18839
695.769	18880
695.811	18619
695.854	18553
695.886	18295
695.896	18325
695.938	18380
695.981	18522
696.005	18452
696.023	18810
696.065	19727
696.108	20712
696.125	20979
696.150	21162
696.192	21505
696.235	21709
696.245	21713
696.277	21995
696.319	22380
696.361	22841
696.365	22817
696.404	22495
696.446	22232
696.485	21717
696.488	21754
696.530	21666
696.572	21531
696.604	21439
696.614	21454
696.656	21108
696.698	20877
696.724	20761
696.740	20972
696.783	21147
696.825	21468
696.844	21558
696.867	21638
696.909	21655
696.951	21741
696.964	21704
696.992	21822
697.034	21833
697.076	21938
697.083	21891
697.118	22279
697.160	22735
697.202	23191
697.203	23142
697.244	22816
697.286	22711
697.323	22435
697.327	22501
697.369	22523
697.411	22614
697.442	22618
697.453	22670
697.494	22647
697.536	22650
697.562	22605
697.578	22739
697.620	22836
697.661	23020
697.682	23077
697.703	23498
697.744	24098
697.786	24783
697.801	24966
697.828	24928
697.869	24772
697.911	24523
697.921	24419
697.952	24372
697.994	24200
698.035	24064
698.040	23983
698.077	24084
698.118	24119
698.160	24148
698.160	24085
698.201	24632
698.243	25117
698.279	25573
698.284	25698
698.325	26171
698.367	26655
698.399	26994
698.408	27101
698.449	27248
698.491	27415
698.518	27457
698.532	27583
698.573	27745
698.614	27914
698.638	27941
698.656	28074
698.697	28208
698.738	28352
698.757	28349
698.779	28252
698.820	27913
698.862	27590
698.877	27396
698.903	27645
698.944	27939
698.985	28226
698.996	28236
699.026	28419
699.067	28567
699.116	28673
699.235	27321
699.354	28930
699.474	26257
699.593	25257
699.713	26487
699.832	26741
699.951	27075
700.070	27242
700.190	26187
700.309	24852
700.428	24761
700.547	23816
700.667	24493
700.786	24111
700.905	23071
701.024	23504
701.143	23816
701.262	24597
701.381	24497
701.500	24811
701.619	24270
701.738	25204
701.857	24528
701.976	23176
702.095	22164
702.214	24908
702.333	23629
702.452	23954
702.571	24392
702.690	23819
702.809	23258
702.928	22273
703.047	22049
703.165	22483
703.284	21579
703.403	21166
703.522	22187
703.640	20637
703.759	20801
703.878	21828
703.997	20573
704.115	21027
704.234	22025
704.353	21631
704.471	20815
704.590	20186
704.708	20424
704.827	19996
704.946	19781
705.064	19914
705.183	19574
705.301	21358
705.420	21464
705.538	22117
705.656	19524
705.775	19125
705.893	25148
706.012	26751
706.130	20470
706.249	20952
706.367	19655
706.485	20483
706.604	19258
706.722	19472
706.840	23133
706.958	31862
707.077	24202
707.195	18943
707.313	18869
707.431	18161
707.549	18167
707.668	16936
707.786	19180
707.904	18679
708.022	18918
708.140	17687
708.258	16616
708.376	19199
708.494	15981
708.612	19083
708.730	21441
708.848	19900
708.966	19374
709.084	18911
709.202	19122
709.320	17777
709.438	17826
709.556	18818
709.674	16610
709.791	18868
709.909	17395
710.027	18145
710.145	16476
710.263	18135
710.380	17973
710.498	16670
710.616	16286
710.733	15941
710.851	16055
710.969	16553
711.086	15152
711.204	16721
711.322	16398
711.439	16157
711.557	15625
711.674	15604
711.792	15832
711.909	15163
712.027	15829
712.144	14744
712.262	15587
712.379	16698
712.497	18221
712.614	19049
712.732	17728
712.849	16636
712.966	16822
713.084	17840
713.201	16621
713.318	17362
713.436	17535
713.553	17339
713.670	17923
713.787	18396
713.905	17025
714.022	17091
714.139	18314
714.256	20330
714.373	28469
714.490	48582
714.608	118757
714.725	454006
714.842	421286
714.959	46301
715.076	23761
715.193	20474
715.310	18466
715.427	16033
715.544	15855
715.661	15922
715.778	15525
715.895	15662
716.011	15993
716.128	14802
716.245	14659
716.362	15017
716.479	14602
716.596	14384
716.713	14900
716.829	14137
716.946	13596
717.063	13820
717.180	12225
717.296	13697
717.413	12922
717.530	12912
717.646	12507
717.763	13488
717.880	12697
717.996	12432
718.113	11851
718.229	12174
718.346	11752
718.462	11739
718.579	13229
718.695	12433
718.812	12823
718.928	12872
719.045	11514
719.161	12839
719.277	12429
719.394	12791
719.510	13044
719.626	13118
719.743	16478
719.859	23183
719.975	46294
720.092	173229
720.208	344336
720.324	45600
720.440	16011
720.557	14557
720.673	13993
720.789	15509
720.905	20912
721.021	12960
721.137	10497
721.253	11429
721.369	11022
721.486	11589
721.602	11391
721.718	10908
721.834	10547
721.950	10521
722.066	9515
722.181	9489
722.297	10537
722.413	10611
722.529	9984
722.645	10035
722.761	9613
722.877	10040
722.993	10982
723.108	12671
723.224	10963
723.340	11204
723.456	8847
723.571	9641
723.687	9030
723.803	10585
723.918	9898
724.034	9326
724.150	9488
724.265	10184
724.381	12016
724.497	12146
724.612	9847
724.728	9372
724.843	8534
724.959	10386
725.074	12103
725.190	11970
725.305	9034
725.421	8934
725.536	10145
725.651	8998
725.767	8463
725.882	8160
725.997	8976
726.113	9108
726.228	8480
726.343	8758
726.459	8499
726.574	8394
726.689	8403
726.804	8306
726.920	8412
727.035	8302
727.150	8823
727.265	8118
727.380	9070
727.495	8221
727.610	8287
727.725	8396
727.841	8720
727.956	11607
728.071	10145
728.186	7834
728.301	8039
728.416	8367
728.531	8310
728.645	7971
728.760	8338
728.875	7776
728.990	7917
729.105	7372
729.220	8439
729.335	8143
729.449	7542
729.564	7875
729.679	7241
729.794	8130
729.908	7930
730.023	7580
730.138	7437
730.253	8398
730.367	7869
730.482	8850
730.596	8185
730.711	8928
730.826	12892
730.940	12434
731.055	8982
731.169	9796
731.284	9457
731.398	9292
731.513	9864
731.627	11040
731.742	13269
731.856	15454
731.970	14868
732.085	17560
732.199	25122
732.313	42250
732.428	108401
732.542	305633
732.656	164517
732.771	33920
732.885	21193
732.999	19791
733.113	20759
733.227	19865
733.342	18260
733.456	17795
733.570	18020
733.684	17584
733.798	17125
733.912	16510
734.026	16336
734.140	15993
734.254	16239
734.368	16660
734.482	18216
734.596	16969
734.710	15744
734.824	15306
734.938	15051
735.052	16093
735.166	15771
735.280	15375
735.393	14912
735.507	14904
735.621	15565
735.735	15140
735.849	15251
735.962	13888
736.076	13947
736.190	14466
736.303	15168
736.417	16318
736.531	13576
736.644	14076
736.758	12431
736.872	13734
736.985	13671
737.099	11856
737.212	13902
737.326	11764
737.439	13412
737.553	12433
737.666	13253
737.780	11636
737.893	12563
738.007	12107
738.120	12174
738.233	12170
738.347	12361
738.460	11981
738.573	13119
738.687	11105
738.800	12720
738.913	13025
739.026	12076
739.140	10966
739.253	12287
739.366	11628
739.479	10669
739.592	11313
739.705	10352
739.818	12539
739.932	11164
740.045	11687
740.158	11263
740.271	12160
740.384	11632
740.497	10504
740.610	11282
740.723	11023
740.836	10610
740.949	11327
741.062	11299
741.174	11838
741.287	11345
741.400	11474
741.513	9717
741.626	11430
741.739	10724
741.851	9978
741.964	11419
742.077	10110
742.189	9670
742.302	11158
742.415	9559
742.527	9913
742.640	10096
742.753	8914
742.865	9833
742.978	9933
743.090	9094
743.203	9813
743.316	9098
743.428	9879
743.541	9566
743.653	8530
743.766	10056
743.878	9069
743.990	9259
744.103	10635
744.215	10360
744.327	8277
744.440	10603
744.552	9198
744.664	7962
744.777	9447
744.889	8791
745.001	8073
745.113	9454
745.226	8977
745.338	8382
745.450	9231
745.562	8746
745.674	7752
745.786	9629
745.898	8455
746.010	8019
746.122	8732
746.234	8641
746.347	8687
746.459	8977
746.570	6735
746.682	9267
746.794	10026
746.906	7400
747.018	7330
747.130	9247
747.242	7754
747.354	8081
747.466	7985
747.577	7657
747.689	8482
747.801	8259
747.913	7693
748.024	7169
748.136	7230
748.248	7620
748.359	7911
748.471	8627
748.583	7067
748.694	7290
748.806	9048
748.918	6695
749.029	7264
749.141	7738
749.252	8249
749.364	7889
749.475	8049
749.587	6701
749.698	7486
749.809	7491
749.921	7630
750.032	7669
750.144	6471
750.255	5958
750.366	6662
750.478	6853
750.589	6735
750.700	6059
750.811	7680
750.923	7055
751.034	6925
751.145	8299
751.256	6271
751.367	5636
751.479	7278
751.590	6180
751.701	6412
751.812	5407
751.923	6191
752.034	7362
752.145	7245
752.256	6658
752.367	7283
752.478	6571
752.589	6968
752.700	7052
752.811	5387
752.922	6130
753.032	5789
753.143	7477
753.254	6757
753.365	7418
753.476	7440
753.586	6835
753.697	6594
753.808	6643
753.919	6349
754.029	6695
754.140	5830
754.251	6191
754.361	6569
754.472	7056
754.582	5484
754.693	6233
754.804	7695
754.914	5836
755.025	5740
755.135	6755
755.246	6824
755.356	5814
755.466	5549
755.577	5486
755.687	6213
755.798	5949
755.908	6145
756.018	6212
756.129	5952
756.239	6315
756.349	6658
756.460	5781
756.570	6757
756.680	6378
756.790	5852
756.900	6242
757.011	5465
757.121	5614
757.231	6251
757.341	6612
757.451	4677
757.561	5294
757.671	6110
757.781	5274
757.891	6178
758.001	5890
758.111	7003
758.221	7288
758.331	6447
758.441	5901
758.551	6451
758.661	6836
758.771	7376
758.880	7279
758.990	6916
759.100	6492
759.210	6883
759.320	7433
759.429	7807
759.539	7820
759.649	8079
759.758	7673
759.868	9307
759.978	7493
760.087	8746
760.197	8191
760.307	8480
760.416	7868
760.526	7457
760.635	9038
760.745	8607
760.854	9294
760.964	10415
761.073	10799
761.182	9583
761.292	9044
761.401	9222
761.511	8214
761.620	8452
761.729	7681
761.839	7079
761.948	7423
762.057	7790
762.166	8008
762.276	7633
762.385	8916
762.494	7339
762.603	8298
762.712	8879
762.822	8936
762.931	9240
763.040	8030
763.149	9083
763.258	9105
763.367	9817
763.476	9542
763.585	10043
763.694	10605
763.803	11155
763.912	11021
764.021	11772
764.130	12333
764.238	13573
764.347	13013
764.456	13661
764.565	15163
764.674	16040
764.783	16854
764.891	17631
765.000	21261
765.109	23151
765.217	25871
765.326	30292
765.435	36585
765.543	42467
765.652	53585
765.761	71085
765.869	97029
765.978	143922
766.086	227410
766.195	385903
766.303	640610
766.412	643091
766.520	611968
766.629	531450
766.737	313477
766.846	192050
766.954	128974
767.062	94783
767.171	70249
767.279	55334
767.387	44323
767.496	36549
767.604	33302
767.712	29343
767.820	25872
767.928	23370
768.037	22349
768.145	21874
768.253	21714
768.361	19217
768.469	19487
768.577	19020
768.685	20824
768.793	22979
768.901	23941
769.009	28710
769.117	33900
769.225	42734
769.333	59952
769.441	93192
769.549	159757
769.657	312854
769.765	571838
769.873	567310
769.981	473238
770.088	245648
770.196	131883
770.304	84736
770.412	61792
770.519	46240
770.627	37150
770.735	30046
770.842	25569
770.950	22880
771.058	21091
771.165	20660
771.273	18661
771.380	19220
771.488	19901
771.595	20299
771.703	17598
771.810	16178
771.918	17541
772.025	18418
772.133	18994
772.240	17729
772.348	19642
772.455	18280
772.562	16881
772.670	15880
772.777	16166
772.884	15901
772.991	15012
773.099	15622
773.206	14083
773.313	14492
773.420	14623
773.528	13325
773.635	14033
773.742	15091
773.849	13779
773.956	13812
774.063	13588
774.170	12759
774.277	13614
774.384	12166
774.491	12866
774.598	13386
774.705	11992
774.812	12122
774.919	12656
775.026	12226
775.133	12436
775.239	12486
775.346	11530
775.453	12188
775.560	10864
775.667	11882
775.773	11489
775.880	11356
775.987	10857
776.093	11788
776.200	12264
776.307	9593
776.413	11037
776.520	11888
776.627	10358
776.733	9882
776.840	9723
776.946	13496
777.053	11324
777.159	12412
777.266	9608
777.372	11908
777.478	11548
777.585	10362
777.691	8398
777.798	10314
777.904	9390
778.010	10040
778.117	10981
778.223	9354
778.329	9305
778.435	8507
778.542	9678
778.648	8418
778.754	8431
778.860	9306
778.966	8941
779.072	8783
779.178	8873
779.284	7808
779.391	8242
779.497	8669
779.603	11348
779.708	11728
779.815	20968
779.920	65650
780.026	105430
780.132	19486
780.238	9270
780.344	8454
780.450	9683
780.556	6744
780.661	8215
780.767	8274
780.873	6580
780.979	7537
781.085	8022
781.190	7006
781.296	6465
781.402	7126
781.507	7491
781.613	5327
781.719	7757
781.824	8992
781.930	6604
782.035	7766
782.141	7713
782.246	6936
782.352	6792
782.457	7324
782.563	6734
782.668	7508
782.773	6121
782.879	6340
782.984	6769
783.090	6719
783.195	6522
783.300	7978
783.405	6580
783.511	4852
783.616	6968
783.721	7174
783.826	5299
783.932	6034
784.037	6769
784.142	6619
784.247	5467
784.352	6635
784.457	4967
784.562	6254
784.667	5972
784.772	5065
784.877	4618
784.982	6550
785.087	5955
785.192	5744
785.297	5117
785.402	6024
785.507	5640
785.611	4805
785.716	4547
785.821	5230
785.926	5988
786.031	5246
786.135	5343
786.240	4904
786.345	4397
786.450	5694
786.554	5271
786.659	4890
786.763	4240
786.868	5719
786.973	6155
787.077	4004
787.182	4522
787.286	5490
787.391	6168
787.495	3396
787.600	4147
787.704	4867
787.809	5842
787.913	4360
788.017	5535
788.122	5746
788.226	4527
788.330	2643
788.435	4125
788.539	5450
788.643	4163
788.747	2675
788.852	4725
788.956	4427
789.060	4544
789.164	4626
789.268	4321
789.372	5566
789.476	4085
789.580	3239
789.684	2984
789.788	4948
789.892	4759
789.996	5163
790.100	3758
790.204	5411
790.308	5008
790.412	3536
790.516	3229
790.620	3880
790.724	5249
790.828	4435
790.931	2820
791.035	4540
791.139	4093
791.242	3676
791.346	4695
791.450	4461
791.554	3384
791.657	3494
791.761	4145
791.864	4954
791.968	3960
792.072	3789
792.175	3700
792.279	3051
792.382	3434
792.486	3766
792.589	4105
792.693	3948
792.796	2494
792.899	3976
793.003	4507
793.106	2394
793.209	4072
793.313	3723
793.416	1730
793.519	3916
793.623	3913
793.726	4300
793.829	2740
793.932	2987
794.035	2020
794.138	4690
794.242	4698
794.345	3936
794.448	5760
794.551	9555
794.654	33833
794.757	59976
794.860	10836
794.963	4308
795.066	2578
795.169	4583
795.272	2503
795.375	4700
795.477	2128
795.580	3510
795.683	2436
795.786	3670
795.889	2642
795.991	4092
796.094	3576
796.197	2150
796.300	4062
796.402	3006
796.505	1769
796.608	2242
796.710	2740
796.813	3525
796.915	2787
797.018	3378
797.120	3165
797.223	2007
797.326	4038
797.428	2497
797.530	1847
797.633	2296
797.735	3603
797.838	2769
797.940	3748
798.042	2322
798.145	2804
798.247	2682
798.349	1968
798.452	3016
798.554	3588
798.656	2560
798.758	3417
798.860	2268
798.962	2896
799.065	2294
799.167	1899
799.269	3074
799.371	2668
799.473	4012
799.575	3000
799.677	2210
799.779	2860
799.881	1226
799.983	3932
800.085	3372
800.187	2522
800.289	1929
800.390	2243
800.492	3300
800.594	3914
800.696	2430
800.798	2282
800.899	2440
801.001	3057
801.103	2040
801.205	2522
801.306	2341
801.408	1479
801.509	2736
801.611	3114
801.713	2687
801.814	1378
801.916	1660
802.017	1202
802.119	1856
802.220	2162
802.322	1890
802.423	3284
802.525	1107
802.626	2623
802.727	2010
802.829	3093
802.930	869
803.031	2924
803.133	2314
803.234	1609
803.335	3130
803.436	1060
803.538	2624
803.639	801
803.740	3000
803.841	2061
803.942	2458
804.043	2450
804.144	1546
804.245	2005
804.346	1418
804.447	1266
804.548	1472
804.649	2598
804.750	1813
804.851	1705
804.952	2398
805.053	2302
805.154	1690
805.255	3164
805.355	1741
805.456	1652
805.557	1128
805.658	1146
805.758	2415
805.859	2143
805.960	1820
806.061	1609
806.161	1355
806.262	1576
806.362	1363
806.463	1359
806.564	2230
806.664	1786
806.765	1685
806.865	1490
806.966	1271
807.066	883
807.166	2622
807.267	2515
807.367	1305
807.468	1844
807.568	505
807.668	2458
807.769	2528
807.869	1463
807.969	2261
808.069	1445
808.170	1832
808.270	1300
808.370	2262
808.470	2338
808.570	360
808.670	1780
808.770	1930
808.870	1549
808.970	1760
809.070	1850
809.170	1303
809.271	1698
809.370	1680
809.470	1772
809.570	1168
809.670	1514
809.770	1902
809.870	1621
809.970	1950
810.070	2158
810.169	2941
810.269	325
810.369	2007
810.469	1597
810.568	1665
810.668	1076
810.768	1304
810.867	1482
810.967	466
811.066	1663
811.166	1674
811.265	1914
811.365	2012
811.464	1188
811.564	2226
811.663	2445
811.763	550
811.862	1564
811.962	2322
812.061	1131
812.160	996
812.260	1344
812.359	1596
812.458	1263
812.557	4421
812.657	4318
812.756	2378
812.855	1827
812.954	1033
813.053	2541
813.153	1614
813.252	465
813.351	1448
813.450	2002
813.549	1303
813.648	1462
813.747	2492
813.846	1585
813.945	1960
814.044	2432
814.143	1603
814.242	2147
814.341	1554
814.439	1398
814.538	1809
814.637	1687
814.736	1643
814.835	2250
814.933	2289
815.032	3540
815.131	4687
815.229	6501
815.328	9993
815.427	7004
815.525	7453
815.624	5352
815.722	5700
815.821	6820
815.919	6282
816.018	6210
816.116	6634
816.215	5968
816.313	7318
816.412	8233
816.510	7906
816.609	9173
816.707	9324
816.805	8421
816.904	7989
817.002	7695
817.100	8378
817.198	9243
817.296	7709
817.395	7862
817.493	8365
817.591	7339
817.689	8392
817.787	8225
817.885	8114
817.983	8831
818.081	11778
818.179	18882
818.277	40638
818.375	32818
818.473	12020
818.571	8045
818.669	9050
818.767	8599
818.865	7333
818.963	7641
819.061	8786
819.158	10625
819.256	18005
819.354	32780
819.452	70762
819.549	43022
819.647	13702
819.745	8510
819.842	7322
819.940	7046
820.038	6785
820.135	5191
820.233	7403
820.330	5968
820.428	5647
820.525	6546
820.623	5704
820.720	4531
820.818	6486
820.915	6771
821.012	5840
821.110	4503
821.207	5775
821.304	5756
821.402	6750
821.499	6860
821.596	5193
821.693	6063
821.791	6340
821.888	5018
821.985	6674
822.082	5036
822.179	5471
822.276	6355
822.373	5093
822.470	4769
822.567	5722
822.664	4545
822.761	5630
822.858	4928
822.955	5184
823.052	4359
823.149	4813
823.246	5007
823.343	3772
823.440	4362
823.536	5981
823.633	5021
823.730	3879
823.827	4657
823.923	4652
824.020	4997
824.117	4987
824.213	4604
824.310	4683
824.407	3509
824.503	4473
824.600	4008
824.696	3521
824.793	5288
824.889	5223
824.986	3944
825.082	2935
825.179	4647
825.275	4589
825.371	4675
825.468	3985
825.564	2221
825.660	4440
825.757	5329
825.853	4619
825.949	2556
826.045	3517
826.142	2912
826.238	5048
826.334	4234
826.430	3280
826.526	3050
826.622	2159
826.718	4317
826.814	5238
826.910	3651
827.006	1695
827.102	1253
827.198	4963
827.294	3974
827.390	3913
827.486	3584
827.582	2236
827.678	1684
827.774	5209
827.869	2054
827.965	3340
828.061	2636
828.157	4760
828.252	3225
828.348	2476
828.444	3123
828.539	2448
828.635	3530
828.731	4137
828.826	2301
828.922	3776
829.017	3886
829.113	3878
829.208	2283
829.304	2780
829.399	4707
829.495	3076
829.590	3217
829.685	3344
829.781	3621
829.876	3503
829.971	2688
830.066	1950
830.162	2201
830.257	4582
830.352	3153
830.447	2044
830.543	2457
830.638	2649
830.733	5300
830.828	2496
830.923	3193
831.018	2302
831.113	3675
831.208	2301
831.303	1405
831.398	1802
831.493	3381
831.588	5277
831.683	2443
831.778	1663
831.873	2601
831.967	4056
832.062	2264
832.157	1849
832.252	2498
832.346	2118
832.441	2269
832.536	2763
832.631	3179
832.725	2450
832.820	2248
832.914	3283
833.009	1242
833.104	2112
833.198	2159
833.293	2326
833.387	3267
833.482	2929
833.576	2418
833.670	3600
833.765	2437
833.859	2556
833.954	2736
834.048	2029
834.142	2045
834.237	1142
834.331	2244
834.425	2366
834.519	1716
834.613	1985
834.708	1117
834.802	2755
834.896	2485
834.990	1954
835.084	1222
835.178	1400
835.272	952
835.366	2592
835.460	3061
835.554	1704
835.648	1668
835.742	881
835.836	1004
835.930	1332
836.024	2298
836.117	2828
836.211	1331
836.305	1882
836.399	2191
836.493	1513
836.586	2356
836.680	1663
836.774	1431
836.867	1921
836.961	1092
837.055	1223
837.148	689
837.242	1505
837.335	1874
837.429	1316
837.522	1219
837.616	1250
837.709	2668
837.803	1928
837.896	2802
837.989	1750
838.083	1501
838.176	1982
838.269	881
838.363	2324
838.456	969
838.549	2320
838.642	532
838.735	1294
838.829	860
838.922	721
839.015	1057
839.108	46
839.201	1450
839.294	1877
839.387	1905
839.480	131
839.573	1040
839.666	46
839.759	1448
839.852	123
839.945	1566
840.038	810
840.131	1069
840.223	1328
840.316	1231
840.409	2155
840.502	637
840.594	1725
840.687	-40
840.780	507
840.873	516
840.965	731
841.058	1603
841.150	2224
841.243	247
841.336	1614
841.428	921
841.521	845
841.613	735
841.706	1229
841.798	715
841.890	1801
841.983	764
842.075	1300
842.167	632
842.260	1106
842.352	2331
842.444	2032
842.537	1431
842.629	2516
842.721	937
842.813	1050
842.905	171
842.997	1275
843.090	1440
843.182	1780
843.274	572
843.366	3429
843.458	4179
843.550	3742
843.642	1341
843.734	1614
843.826	102
843.918	1420
844.009	531
844.101	805
844.193	1051
844.285	926
844.377	1401
844.469	1438
844.560	485
844.652	1075
844.744	103
844.835	1333
844.927	1157
845.019	560
845.110	982
845.202	1301
845.293	443
845.385	189
845.476	897
845.568	1664
845.659	402
845.751	969
845.842	1388
845.934	599
846.025	629
846.116	1201
846.208	793
846.299	-99
846.390	220
846.482	1457
846.573	1689
846.664	890
846.755	885
846.846	940
846.937	-88
847.029	-355
847.120	451
847.211	572
847.302	2119
847.393	209
847.484	1732
847.575	-217
847.666	49
847.757	-332
847.847	234
847.938	2011
848.029	1210
848.120	1005
848.211	690
848.302	836
848.392	207
848.483	918
848.574	564
848.664	478
848.755	1294
848.846	831
848.936	-486
849.027	1350
849.118	807
849.208	1040
849.299	1838
849.389	2992
849.480	5754
849.570	10338
849.661	20530
849.751	34330
849.841	12207
849.932	1338
850.022	1140
850.112	1267
850.203	361
850.293	972
850.383	196
850.474	672
850.564	878
850.654	189
850.744	718
850.834	-195
850.924	536
851.014	1182
851.104	490
851.194	170
851.284	856
851.374	713
851.464	530
851.554	656
851.644	338
851.734	1156
851.824	941
851.914	1050
852.004	2858
852.094	1370
852.183	573
852.273	728
852.363	409
852.452	329
852.542	522
852.632	123
852.721	376
852.811	837
852.901	1413
852.990	620
853.080	1319
853.169	926
853.259	1406
853.348	573
853.438	1400
853.527	2392
853.617	2323
853.706	7216
853.795	10739
853.885	25320
853.974	45898
854.063	79819
854.152	117141
854.242	48584
854.331	10181
854.420	4550
854.509	3042
854.598	2838
854.687	1827
854.777	2163
854.866	1108
854.955	1124
855.044	198
855.133	833
855.222	410
855.311	688
855.400	1004
855.488	452
855.577	-396
855.666	746
855.755	1541
855.844	1067
855.933	424
856.021	722
856.110	801
856.199	362
856.288	-162
856.376	-319
856.465	-648
856.554	135
856.642	963
856.731	1207
856.819	598
856.908	693
856.996	299
857.085	-847
857.173	564
857.262	888
857.350	33
857.438	-44
857.527	802
857.615	356
857.703	565
857.792	-807
857.880	-134
857.968	673
858.056	480
858.145	162
858.233	220
858.321	178
858.409	754
858.497	479
858.585	-296
858.673	733
858.761	-191
858.849	-50
858.937	28
859.025	989
859.113	331
859.201	863
859.289	798
859.377	284
859.465	1164
859.552	269
859.640	627
859.728	523
859.816	-708
859.903	502
859.991	-497
860.079	994
860.166	-517
860.254	410
860.342	696
860.429	-213
860.517	178
860.604	267
860.692	222
860.779	-800
860.867	333
860.954	1046
861.042	491
861.129	317
861.216	135
861.304	851
861.391	-395
861.478	313
861.565	955
861.653	691
861.740	269
861.827	-335
861.914	598
862.001	198
862.089	235
862.176	1185
862.263	720
862.350	1258
862.437	-178
862.524	-189
862.611	757
862.698	492
862.785	40
862.871	1352
862.958	383
863.045	284
863.132	563
863.219	640
863.306	-832
863.392	986
863.479	254
863.566	-58
863.652	778
863.739	106
863.826	327
863.912	485
863.999	88
864.086	1027
864.172	1242
864.259	851
864.345	407
864.432	1229
864.518	1151
864.604	1692
864.691	619
864.777	947
864.863	2153
864.950	3256
865.036	4231
865.122	8219
865.209	8524
865.295	7055
865.381	7662
865.467	6894
865.553	7110
865.639	8542
865.726	11207
865.812	17919
865.898	28610
865.984	40588
866.070	69061
866.156	73003
866.242	24644
866.328	10379
866.414	6734
866.499	7261
866.585	5608
866.671	5214
866.757	5985
866.843	6603
866.928	5264
867.014	5210
867.100	5812
867.186	5782
867.271	5047
867.357	5106
867.442	5363
867.528	5850
867.614	4457
867.699	5387
867.785	5716
867.870	5315
867.956	4894
868.041	5815
868.127	4308
868.212	4970
868.297	5039
868.383	4697
868.468	4705
868.553	5272
868.639	4908
868.724	4807
868.809	5046
868.894	5245
868.979	3713
869.065	4598
869.150	4511
869.235	4374
869.320	4185
869.405	3411
869.490	4317
869.575	4420
869.660	3756
869.745	5014
869.830	3987
869.915	3141
870.000	3849
870.085	3704
870.169	4804
870.254	5541
870.339	3493
870.424	3093
870.509	4029
870.593	4716
870.678	4430
870.763	3421
870.847	2266
870.932	4178
871.016	3946
871.101	2859
871.186	2711
871.270	5312
871.355	2549
871.439	3519
871.523	3851
871.608	2755
871.692	3461
871.777	4087
871.861	3639
871.945	3175
872.030	3843
872.114	3598
872.198	2737
872.282	3321
872.367	3562
872.451	3019
872.535	3579
872.619	3812
872.703	2908
872.787	3506
872.871	3251
872.955	3265
873.039	1835
873.123	3500
873.207	3078
873.291	1616
873.375	2145
873.459	4214
873.543	2862
873.627	2622
873.711	2678
873.794	4112
873.878	3354
873.962	1837
874.045	1742
874.129	2540
874.137	2510
874.213	2216
874.245	2256
874.296	2313
874.352	2070
874.380	1956
874.460	2834
874.464	2868
874.547	2497
874.568	2596
874.631	2927
874.676	2686
874.714	2468
874.784	3079
874.798	3202
874.881	3784
874.892	3570
874.965	2130
874.999	2360
875.048	2631
875.107	3064
875.131	3246
875.215	1507
875.215	1507
875.298	1979
875.323	2162
875.381	2642
875.430	3672
875.465	4382
875.538	2685
875.548	2450
875.631	1853
875.646	1737
875.714	1189
875.753	1455
875.798	1803
875.861	2134
875.881	2211
875.964	1924
875.968	1915
876.047	1844
876.076	1964
876.130	2205
876.183	2269
876.213	2261
876.291	2810
876.296	2853
876.379	2055
876.398	2137
876.462	2334
876.506	2191
876.545	2105
876.613	2314
876.628	2382
876.711	2464
876.721	2554
876.794	3096
876.828	2925
876.877	2575
876.935	1832
876.960	1621
877.043	1694
877.043	1695
877.125	1922
877.150	2182
877.208	2745
877.258	2226
877.291	1915
877.365	1738
877.374	1703
877.456	2332
877.472	2243
877.539	1998
877.579	2442
877.622	2895
877.687	2347
877.704	2188
877.787	2010
877.794	1967
877.869	1702
877.901	2124
877.952	2506
878.008	1505
878.034	1094
878.115	1841
878.117	1865
878.199	1735
878.222	2031
878.282	2607
878.329	2896
878.364	2995
878.437	2393
878.447	2339
878.529	930
878.544	1131
878.611	1910
878.651	1527
878.694	1391
878.758	2551
878.776	2763
878.858	2585
878.865	2526
878.941	1789
878.972	1389
879.023	872
879.078	1329
879.105	1661
879.185	2344
879.187	2352
879.269	2187
879.292	2150
879.351	2151
879.399	2235
879.433	2114
879.506	1712
879.516	1743
879.598	2065
879.613	2175
879.680	2136
879.720	2068
879.762	2251
879.827	2175
879.844	2086
879.926	1823
879.933	1856
880.007	2359
880.040	2107
880.089	1779
880.147	2188
880.171	2393
880.253	3182
880.254	3178
880.335	2027
880.360	2018
880.417	2648
880.467	3501
880.499	3813
880.574	3378
880.580	3325
880.662	2659
880.680	2432
880.744	1597
880.787	1359
880.825	1513
880.893	2174
880.907	2159
880.989	1716
881.000	1734
881.070	2573
881.106	2431
881.152	1845
881.213	1377
881.233	1374
881.315	1810
881.319	1842
881.396	2502
881.426	2611
881.478	2674
881.532	2908
881.559	3001
881.639	2484
881.641	2463
881.722	2036
881.745	1774
881.803	1952
881.852	2233
881.885	2074
881.958	2057
881.966	2065
882.047	1668
882.064	1601
882.129	1849
882.171	2029
882.210	1700
882.277	1254
882.291	1350
882.372	2141
882.383	2181
882.454	2365
882.489	2495
882.535	2452
882.596	2158
882.616	2089
882.697	2292
882.702	2284
882.778	1980
882.808	1813
882.859	1598
882.914	1818
882.940	2090
883.020	1951
883.021	1953
883.102	2447
883.127	2553
883.183	2827
883.233	2956
883.264	2652
883.339	1611
883.345	1603
883.426	1634
883.445	1621
883.507	1457
883.551	1812
883.587	2267
883.657	2478
883.668	2550
883.749	3297
883.763	3340
883.830	2437
883.869	1921
883.910	1708
883.975	1513
883.991	1536
884.072	1796
884.081	1877
884.152	3046
884.187	3143
884.233	3106
884.292	3375
884.314	2981
884.394	914
884.398	843
884.475	1398
884.504	1508
884.555	1283
884.610	1167
884.636	1424
884.716	2379
884.716	2391
884.797	3459
884.821	3610
884.877	3230
884.927	3032
884.958	2710
885.033	1756
885.038	1754
885.118	1816
885.139	1799
885.199	1416
885.244	1317
885.279	1675
885.350	2337
885.359	2421
885.439	2948
885.456	2983
885.520	2528
885.561	2417
885.600	2261
885.667	1922
885.680	2026
885.760	2810
885.773	2847
885.840	1701
885.878	1342
885.920	1797
885.984	2156
886.000	2192
886.080	2616
886.089	2643
886.160	2859
886.195	2832
886.240	2337
886.300	1793
886.320	1971
886.400	2950
886.406	2988
886.480	2236
886.511	1983
886.560	2218
886.616	2325
886.640	2315
886.720	2356
886.722	2350
886.800	2334
886.827	2358
886.879	2336
886.932	2309
886.959	2644
887.038	3507
887.039	3502
887.119	2355
887.143	2067
887.198	2466
887.248	2680
887.278	2510
887.354	2168
887.358	2193
887.437	2646
887.459	2710
887.517	2639
887.564	2637
887.596	2503
887.669	2060
887.676	2012
887.755	1514
887.774	1376
887.835	1986
887.880	2500
887.914	2638
887.985	2705
887.994	2750
888.073	3227
888.090	3300
888.153	3324
888.195	3283
888.232	2970
888.300	2512
888.311	2465
888.391	1960
888.405	1884
888.470	2058
888.510	2075
888.549	2166
888.615	2463
888.628	2540
888.708	2905
888.720	2939
888.787	2718
888.825	2603
888.866	2047
888.930	1207
888.945	1384
889.024	2303
889.035	2413
889.103	2957
889.140	3261
889.182	3192
889.245	3048
889.261	3023
889.340	2894
889.349	2872
889.419	2559
889.454	2381
889.498	1990
889.559	1456
889.577	1642
889.656	2461
889.664	2540
889.735	2601
889.768	2621
889.814	2751
889.873	2912
889.978	2471
890.083	1965
890.187	2454
890.292	2654
890.397	3552
890.501	2798
890.606	2002
890.710	2924
890.815	2739
890.919	1630
891.024	2465
891.128	2449
891.233	2146
891.337	2939
891.442	3152
891.546	3401
891.650	2732
891.755	2436
891.859	3959
891.963	3182
892.068	3072
892.172	1878
892.276	1863
892.380	2427
892.484	3441
892.589	2680
892.693	2890
892.797	797
892.901	2165
893.005	2175
893.109	3014
893.213	3119
893.317	2480
893.421	2245
893.525	1649
893.629	1331
893.733	3094
893.837	2838
893.941	2274
894.045	2097
894.148	1957
894.252	2603
894.356	3647
894.460	3662
894.564	2184
894.667	2380
894.771	1678
894.875	854
894.978	2866
895.082	2253
895.186	3494
895.289	2144
895.393	2548
895.496	2661
895.600	1808
895.703	1574
895.807	2233
895.910	1936
896.014	3022
896.117	2214
896.221	2702
896.324	1830
896.427	2454
896.531	1624
896.634	2249
896.737	1624
896.840	2306
896.944	2648
897.047	2609
897.150	3141
897.253	1733
897.356	2118
897.460	1405
897.563	2187
897.666	2318
897.769	2382
897.872	1639
897.975	1849
898.078	1975
898.181	1119
898.284	1635
898.387	2842
898.490	2657
898.593	2667
898.695	2361
898.798	2133
898.901	2098
899.004	2093
899.107	1307
899.209	2234
899.312	2810
899.415	1250
899.518	1838
899.620	1226
899.723	991
899.826	1851
899.928	2101
900.031	2238
900.133	2101
900.236	1724
900.338	1280
900.441	1511
900.543	2413
900.646	1802
900.748	2295
900.851	2349
900.953	1236
901.055	841
901.158	1652
901.260	1353
901.362	861
901.465	461
901.567	2164
901.669	1580
901.771	1957
901.873	1645
901.976	1690
902.078	2278
902.180	1472
902.282	970
902.384	1937
902.486	2994
902.588	2715
902.690	1211
902.792	1386
902.894	519
902.996	2167
903.098	1995
903.200	783
903.302	1973
903.404	1638
903.505	994
903.607	2191
903.709	2474
903.811	2080
903.913	1496
904.014	1691
904.116	844
904.218	1601
904.319	1846
904.421	2894
904.523	2227
904.624	1948
904.726	1141
904.827	2338
904.929	1177
905.030	747
905.132	1717
905.233	2083
905.335	464
905.436	1241
905.537	1081
905.639	770
905.740	1798
905.841	2565
905.943	1359
906.044	1225
906.145	192
906.247	1044
906.348	1497
906.449	1748
906.550	2332
906.651	1955
906.752	1011
906.854	1011
906.955	518
907.056	1872
907.157	2032
907.258	2137
907.359	936
907.460	839
907.561	1308
907.662	1839
907.762	1609
907.863	1833
907.964	1864
908.065	2169
908.166	632
908.267	1524
908.367	850
908.468	752
908.569	979
908.670	2201
908.770	1273
908.871	1807
908.971	1560
909.072	754
909.173	1082
909.273	1634
909.374	2030
909.474	1142
909.575	1677
909.675	1178
909.776	1100
909.876	2136
909.977	1013
910.077	2024
910.177	1736
910.278	923
910.378	1170
910.478	1727
910.579	1852
910.679	1747
910.779	2312
910.879	1568
910.980	1080
911.080	993
911.180	1528
911.280	754
911.380	346
911.480	2077
911.580	1131
911.680	2039
911.780	1886
911.880	1757
911.980	1571
912.080	1086
912.180	1410
912.280	1271
912.380	513
912.480	1681
912.580	2061
912.679	1310
912.779	2202
912.879	1446
912.979	1000
913.078	943
913.178	1532
913.278	854
913.377	875
913.477	1821
913.577	752
913.676	2202
913.776	2100
913.875	2676
913.975	1808
914.074	1761
914.174	1641
914.273	1609
914.373	2056
914.472	2413
914.572	460
914.671	1750
914.770	845
914.870	1890
914.969	1370
915.068	1800
915.167	1745
915.267	862
915.366	1511
915.465	1117
915.564	1947
915.663	1508
915.763	1935
915.862	3340
915.961	1764
916.060	1601
916.159	857
916.258	1034
916.357	1212
916.456	2274
916.555	1666
916.654	1179
916.752	2624
916.851	2027
916.950	1785
917.049	1629
917.148	1133
917.247	1270
917.345	1888
917.444	1343
917.543	378
917.642	1757
917.740	1038
917.839	3114
917.937	2603
918.036	2986
918.135	1455
918.233	2461
918.332	1318
918.430	1103
918.529	1162
918.627	1764
918.726	1511
918.824	1560
918.923	1035
919.021	1828
919.119	1631
919.218	916
919.316	2497
919.414	1584
919.512	2142
919.611	1811
919.709	2415
919.807	3126
919.905	2490
920.003	2955
920.102	2973
920.200	2841
920.298	2248
920.396	2057
920.494	2895
920.592	1927
920.690	1918
920.788	2141
920.886	2353
920.984	3483
921.082	2082
921.180	3434
921.277	2670
921.375	3426
921.473	3690
921.571	4272
921.669	3933
921.766	2629
921.864	3022
921.962	4165
922.060	4134
922.157	3987
922.255	4814
922.352	4498
922.450	4782
922.548	5049
922.645	4363
922.743	7154
922.840	9948
922.938	11029
923.035	10391
923.133	9486
923.230	11728
923.327	13648
923.425	11974
923.522	12671
923.619	11471
923.717	10109
923.814	9578
923.911	10188
924.008	9625
924.106	9371
924.203	8960
924.300	10508
924.397	9956
924.494	9935
924.591	9180
924.688	9510
924.786	8996
924.883	9931
924.979	9994
925.077	9271
925.173	8850
925.270	9247
925.367	8720
925.464	10084
925.561	9381
925.658	10046
925.755	8832
925.852	9918
925.948	10160
926.045	9486
926.142	9579
926.239	10186
926.335	7417
926.432	9338
926.529	9610
926.625	10118
926.722	7761
926.818	8765
926.915	8822
927.011	9376
927.108	8385
927.204	9338
927.301	7592
927.397	9194
927.494	9452
927.590	7459
927.687	7405
927.783	9997
927.879	9483
927.976	7896
928.072	7025
928.168	8571
928.264	8436
928.361	7995
928.457	9340
928.553	7534
928.649	7443
928.745	8504
928.841	7334
928.937	8512
929.033	7631
929.129	7624
929.225	9215
929.321	8071
929.417	6851
929.513	7950
929.609	6787
929.705	7950
929.801	8370
929.897	6964
929.993	6909
930.089	7546
930.184	6925
930.280	8573
930.376	7779
930.471	6381
930.567	6556
930.663	7135
930.758	6547
930.854	6793
930.950	6637
931.045	6336
931.141	6890
931.236	9445
931.332	6910
931.427	6057
931.523	8110
931.618	7422
931.714	5545
931.809	6984
931.905	7839
932.000	5314
932.095	4670
932.191	7873
932.286	8592
932.381	5921
932.476	5396
932.572	6503
932.667	5714
932.762	5791
932.857	7075
932.952	7220
933.047	5919
933.142	5834
933.237	7178
933.332	6613
933.427	7573
933.522	5946
933.617	5628
933.712	5891
933.807	7383
933.902	8381
933.997	8016
934.092	5006
934.187	5923
934.282	6347
934.376	5491
934.471	6570
934.566	5630
934.661	5498
934.755	6754
934.850	6338
934.945	5355
935.039	5161
935.134	4737
935.228	6276
935.323	8441
935.417	4895
935.512	4540
935.606	4801
935.701	6368
935.795	6605
935.890	5880
935.984	5406
936.079	3442
936.173	5960
936.267	5363
936.362	4404
936.456	5692
936.550	6804
936.644	5432
936.738	4084
936.833	4611
936.927	3525
937.021	4432
937.115	6116
937.209	4810
937.303	5284
937.397	4259
937.491	4809
937.585	5811
937.679	6087
937.773	3706
937.867	4050
937.961	4600
938.055	6249
938.149	5186
938.243	4207
938.337	3800
938.430	5037
938.524	6013
938.618	5592
938.712	4791
938.805	3925
938.899	6128
938.993	6798
939.086	4489
939.180	4150
939.274	3956
939.367	5703
939.461	5296
939.554	4742
939.648	3666
939.741	3929
939.835	5032
939.928	6082
940.022	5212
940.115	3736
940.208	5173
940.302	5762
940.395	5372
940.488	4116
940.582	4381
940.675	2523
940.768	4217
940.861	4687
940.954	5275
941.048	3068
941.141	2759
941.234	3151
941.327	3525
941.420	4669
941.513	4659
941.606	3865
941.699	4018
941.792	4662
941.885	3775
941.978	3905
942.071	4026
942.164	3307
942.257	3326
942.349	3661
942.442	4239
942.535	3362
942.628	2952
942.721	4034
942.813	3446
942.906	4887
942.999	3617
943.091	3042
943.184	3963
943.277	3607
943.369	3508
943.462	2419
943.554	3979
943.647	3575
943.739	5220
943.832	3928
943.924	1929
944.017	2552
944.109	2597
944.201	2813
944.294	2564
944.386	4484
944.478	3257
944.571	3035
944.663	2828
944.755	3592
944.847	4173
944.940	3820
945.032	2064
945.124	3147
945.216	3987
945.308	4039
945.400	3661
945.492	2989
945.584	4129
945.676	4740
945.768	3436
945.860	4144
945.952	4237
946.044	3627
946.136	3012
946.228	3839
946.320	2839
946.412	3208
946.503	4167
946.595	4692
946.687	2929
946.779	2232
946.870	1829
946.962	3745
947.054	3211
947.145	3555
947.237	2812
947.329	3940
947.420	3561
947.512	3765
947.603	2251
947.695	3374
947.786	2522
947.878	2998
947.969	3474
948.061	2662
948.152	2809
948.243	2547
948.335	1835
948.426	2205
948.517	3023
948.609	3136
948.700	3362
948.791	2968
948.882	2504
948.973	2863
949.065	3370
949.156	2673
949.247	1846
949.338	2354
949.429	2035
949.520	2132
949.611	2482
949.702	3014
949.793	3044
949.884	3088
949.975	1881
950.066	1971
950.157	1830
950.247	2494
950.338	1764
950.429	2035
950.520	2447
950.611	2850
950.701	2592
950.792	3678
950.883	3565
950.973	2420
951.064	2775
951.155	3262
951.245	2626
951.336	3039
951.427	3333
951.517	4177
951.608	4215
951.698	2346
951.788	2051
951.879	2459
951.969	1576
952.060	2582
952.150	2863
952.240	4480
952.331	2866
952.421	2546
952.511	1534
952.602	2383
952.692	1788
952.782	1510
952.872	1566
952.962	3353
953.052	2038
953.143	1494
953.233	2605
953.323	2801
953.413	2150
953.503	3136
953.593	2993
953.683	2566
953.773	835
953.863	1367
953.953	1113
954.042	2750
954.132	2611
954.222	3095
954.312	1865
954.402	1304
954.492	2053
954.581	3332
954.671	2137
954.761	2561
954.850	2424
954.940	852
955.030	1765
955.119	1207
955.209	1319
955.298	1936
955.388	2973
955.477	3822
955.567	983
955.656	2127
955.746	2700
955.835	1733
955.925	2258
956.014	2098
956.103	3441
956.193	3215
956.282	2952
956.371	1856
956.461	2085
956.550	2070
956.639	1554
956.728	1213
956.817	2045
956.906	2472
956.995	2885
957.085	2028
957.174	1642
957.263	1898
957.352	1255
957.441	1680
957.530	2316
957.619	1379
957.708	1367
957.796	1941
957.885	2214
957.974	2005
958.063	1801
958.152	1392
958.241	1281
958.329	2184
958.418	1685
958.507	1633
958.596	2745
958.684	2169
958.773	2566
958.861	1285
958.950	1591
959.039	2268
959.127	1573
959.216	2590
959.304	1578
959.393	2555
959.481	2137
959.570	1547
959.658	1294
959.746	2264
959.835	1946
959.923	1927
960.011	1583
960.100	2031
960.188	3299
960.276	1430
960.365	2050
960.453	1155
960.541	478
960.629	895
960.717	894
960.805	619
960.893	1155
960.981	1459
961.069	1753
961.158	2086
961.245	2687
961.333	2153
961.421	1112
961.509	2082
961.597	1994
961.685	2584
961.773	1116
961.861	1938
961.949	2454
962.036	1946
962.124	1527
962.212	1994
962.299	1186
962.387	1611
962.475	1123
962.562	1398
962.650	2212
962.738	1478
962.825	1509
962.913	1336
963.000	1163
963.088	1456
963.175	1187
963.263	1819
963.350	1869
963.438	1272
963.525	1498
963.612	2553
963.700	2015
963.787	4419
963.874	3041
963.962	1555
964.049	1690
964.136	1627
964.223	547
964.310	833
964.398	1050
964.485	1621
964.572	1932
964.659	2194
964.746	1870
964.833	1667
964.920	464
965.007	912
965.094	1900
965.181	1719
965.268	1264
965.355	1434
965.441	1794
965.528	1067
965.615	2114
965.702	1920
965.789	557
965.875	1441
965.962	1246
966.049	457
966.136	2211
966.222	2498
966.309	1876
966.395	1565
966.482	2240
966.569	2561
966.655	2282
966.742	1674
966.828	1933
966.915	2009
967.001	1560
967.087	1200
967.174	501
967.260	2003
967.347	1952
967.433	1882
967.519	3123
967.605	1899
967.692	557
967.778	998
967.864	2065
967.950	1057
968.036	1013
968.123	1791
968.209	1278
968.295	229
968.381	2103
968.467	1692
968.553	1054
968.639	2417
968.725	259
968.811	2396
968.897	1109
968.983	1348
969.069	547
969.154	860
969.240	829
969.326	1230
969.412	1187
969.497	894
969.583	402
969.669	2504
969.755	1519
969.840	1755
969.926	2276
970.012	2651
970.097	3616
970.183	2467
970.268	2389
970.354	1601
970.439	1224
970.525	2903
970.610	1398
970.696	2271
970.781	1165
970.866	376
970.952	1466
971.037	206
971.122	1436
971.208	1812
971.293	1144
971.378	918
971.463	965
971.549	530
971.634	1170
971.719	1600
971.804	1269
971.889	1137
971.974	374
972.059	1680
972.144	1133
972.229	680
972.314	674
972.399	1111
972.484	996
972.569	1466
972.654	-17
972.739	2155
972.824	1436
972.908	1132
972.993	13
973.078	533
973.163	1273
973.247	1809
973.332	-952
973.417	2501
973.501	217
973.586	708
973.671	1172
973.755	1552
973.840	1695
973.924	1394
974.009	1857
974.093	1995
974.178	2573
974.262	2441
974.346	2563
974.431	1907
974.515	1933
974.600	670
974.684	1011
974.768	790
974.852	2677
974.937	958
975.021	1280
975.105	1813
975.189	1096
975.273	1493
975.358	235
975.442	377
975.526	1450
975.610	412
975.694	-36
975.778	1381
975.862	890
975.946	-311
976.030	1724
976.114	1461
976.198	969
976.281	743
976.365	2189
976.449	1402
976.533	1563
976.617	1036
976.700	1208
976.784	488
976.868	1355
976.951	1671
977.035	893
977.119	1258
977.202	1179
977.286	1492
977.369	1932
977.453	3278
977.536	1764
977.620	2074
977.703	1283
977.787	1120
977.870	2142
977.953	2566
978.037	213
978.120	2110
978.203	1359
978.287	1990
978.370	2251
978.453	1154
978.536	1201
978.620	1544
978.703	1476
978.786	1812
978.869	602
978.952	894
979.035	1309
979.118	1794
979.201	299
979.284	1880
979.367	825
979.450	917
979.533	294
979.616	919
979.699	1085
979.782	2062
979.865	872
979.948	303
980.030	412
980.113	1178
980.196	-32
980.279	1132
980.361	-578
980.444	1086
980.526	1741
980.609	2284
980.692	2721
980.774	3073
980.857	622
980.939	2625
981.022	1140
981.104	1636
981.187	1496
981.269	2325
981.352	1883
981.434	1389
981.516	541
981.599	2433
981.681	798
981.763	1541
981.846	1035
981.928	1725
982.010	926
982.092	527
982.174	1991
982.256	635
982.339	458
982.421	1405
982.503	814
982.585	683
982.667	989
982.749	1415
982.831	2020
982.913	1463
982.995	1598
983.077	1242
983.158	2016
983.240	338
983.322	2591
983.404	2681
983.486	1984
983.568	2179
983.649	1319
983.731	2538
983.813	1430
983.894	2543
983.976	983
984.058	1388
984.139	1978
984.221	471
984.302	1730
984.384	620
984.465	867
984.547	1722
984.628	1544
984.710	1907
984.791	1776
984.872	1473
984.954	1422
985.035	2337
985.116	432
985.198	1170
985.279	2455
985.360	1757
985.441	1479
985.522	2253
985.604	1562
985.685	-165
985.766	1512
985.847	2633
985.928	1684
986.009	2169
986.090	1353
986.171	2693
986.252	1409
986.333	2105
986.414	945
986.495	2879
986.576	2189
986.656	1968
986.737	2808
986.818	1258
986.899	1674
986.980	1333
987.060	2061
987.141	2672
987.222	2710
987.302	2095
987.383	2710
987.464	1787
987.544	2234
987.625	2756
987.705	2774
987.786	1950
987.866	1723
987.947	2986
988.027	2661
988.108	1949
988.188	2331
988.268	2505
988.349	2421
988.429	2220
988.509	2374
988.589	1962
988.670	-143
988.750	3880
988.830	2476
988.910	2517
988.990	1846
989.070	1539
989.151	2161
989.231	1866
989.311	1504
989.391	1899
989.471	1788
989.551	2291
989.631	1596
989.711	2457
989.791	2132
989.870	803
989.950	1982
990.030	1901
990.110	1465
990.190	1040
990.269	1140
990.349	1724
990.429	1548
990.509	2389
990.588	7
990.668	1837
990.747	1711
990.827	1500
990.907	1727
990.986	1565
991.066	1784
991.145	1883
991.225	2061
991.304	1150
991.383	1924
991.463	992
991.542	2096
991.622	1104
991.701	1470
991.780	1546
991.859	103
991.939	1175
992.018	1242
992.097	2068
992.176	653
992.256	1066
992.335	916
992.414	1382
992.493	827
992.572	388
992.651	2059
992.730	733
992.809	1709
992.888	171
992.967	959
993.046	1381
993.125	38
993.203	764
993.282	1565
993.361	1277
993.440	1375
993.519	197
993.597	466
993.676	830
993.755	457
993.834	1378
993.912	275
993.991	1513
994.069	-489
994.148	830
994.226	224
994.305	493
994.384	544
994.462	1257
994.540	-316
994.619	751
994.697	615
994.776	855
994.854	1084
994.932	-100
995.011	397
995.089	-196
995.167	6
995.245	1299
995.324	-364
995.402	1210
995.480	227
995.558	207
995.636	80
995.714	391
995.792	1298
995.870	276
995.948	-330
996.026	799
996.104	-267
996.182	864
996.260	-758
996.338	614
996.416	-459
996.494	338
996.572	988
996.649	-454
996.727	-635
996.805	825
996.883	81
996.960	47
997.038	485
997.116	1439
997.193	-13
997.271	346
997.348	239
997.426	595
997.504	102
997.581	889
997.658	430
997.736	-1310
997.813	-1258
997.891	469
997.968	-304
998.046	296
998.123	180
998.200	929
998.277	23
998.355	910
998.432	-656
998.509	-368
998.586	-30
998.663	-135
998.741	211
998.818	-369
998.895	-869
998.972	804
999.049	-263
999.126	-123
999.203	339
999.280	-309
999.357	-92
999.434	183
999.511	80
999.587	1178
999.664	-105
999.741	219
999.818	460
999.895	142
999.971	-758
1000.048	-123
1000.125	-310
1000.202	-282
1000.278	107
1000.355	150
1000.431	-654
1000.508	-252
1000.584	573
1000.661	744
1000.738	-1253
1000.814	-559
1000.890	-102
1000.967	-275
1001.043	-140
1001.120	-995
1001.196	-628
1001.272	-1185
1001.349	-905
1001.425	600
1001.501	105
1001.577	-1150
1001.654	394
1001.730	-328
1001.806	91
1001.882	-767
1001.958	-451
1002.034	9
1002.110	-119
1002.186	-274
1002.262	-1000
1002.338	-665
1002.414	86
1002.490	-71
1002.566	-797
1002.642	-869
1002.718	530
1002.794	-750
1002.870	-1318
1002.945	-396
1003.021	-719
1003.097	-109
1003.173	-945
1003.248	-1130
1003.324	-533
1003.400	238
1003.475	-886
1003.551	148
1003.626	-962
1003.702	-1257
1003.777	-299
1003.853	-646
1003.928	-1236
1004.004	-289
1004.079	-601
1004.155	-112
1004.230	-1069
1004.305	1008
1004.381	-1344
1004.456	156
1004.531	-62
1004.607	169
1004.682	-1320
1004.757	-866
1004.832	-898
1004.907	-140
1004.982	-623
1005.057	-386
1005.133	-63
1005.208	-844
1005.283	-681
1005.358	674
1005.433	-1560
1005.508	-439
1005.583	-1510
1005.657	-1239
1005.732	178
1005.807	-563
1005.882	-395
1005.957	-578
1006.032	-835
1006.106	-876
1006.181	-1025
1006.256	324
1006.331	-1595
1006.405	-171
1006.480	-754
1006.554	-341
1006.629	-1430
1006.704	-1049
1006.778	-1128
1006.853	196
1006.927	-1336
1007.002	-1326
1007.076	-773
1007.150	-571
1007.225	-899
1007.299	18
1007.373	-614
1007.448	-756
1007.522	-835
1007.596	-1045
1007.671	-1315
1007.745	32
1007.819	-1614
1007.893	-442
1007.967	-1234
1008.041	-1831
1008.115	113
1008.190	-1333
1008.264	-1358
1008.338	-1904
1008.412	-1206
1008.486	-805
1008.560	-1062
1008.633	-783
1008.707	-1236
1008.781	14
1008.855	-892
1008.929	-456
1009.003	-1748
1009.076	-674
1009.150	-1556
1009.224	-1028
1009.298	-1218
1009.371	-1722
1009.445	-782
1009.519	-1012
1009.592	-1979
1009.666	-1062
1009.739	-684
1009.813	-2356
1009.886	-1112
1009.960	-1332
1010.033	-834
1010.107	-1240
1010.180	-1879
1010.253	-850
1010.327	-532
1010.400	-1405
1010.473	-1340
1010.547	-81
1010.620	-1381
1010.693	-845
1010.766	-1487
1010.840	-319
1010.913	-1161
1010.986	-755
1011.059	-1417
1011.132	-1321
1011.205	-616
1011.278	-609
1011.351	-1057
1011.424	-1030
1011.497	-1131
1011.570	-455
1011.643	-1913
1011.716	-1761
1011.789	-860
1011.862	-963
1011.934	-973
1012.007	-1863
1012.080	-673
1012.153	-866
1012.225	-1413
1012.298	-1740
1012.371	-821
1012.443	-525
1012.516	-2211
1012.588	-645
1012.661	-1693
1012.733	-1899
1012.806	-890
1012.879	-1907
1012.951	-1729
1013.023	-1039
1013.096	-1495
1013.168	-1585
1013.241	-626
1013.313	-913
1013.385	-786
1013.458	-1547
1013.530	-743
1013.602	-2554
1013.674	-701
1013.746	-1814
1013.819	-1125
1013.891	-576
1013.963	-1422
1014.035	-787
1014.107	-708
1014.179	-533
1014.251	-2043
1014.323	-701
1014.395	-1378
1014.467	-477
1014.539	-1515
1014.611	-1422
1014.683	-1087
1014.754	-1437
1014.826	-2200
1014.898	-871
1014.970	-2340
1015.042	-926
1015.113	-1279
1015.185	-765
1015.257	-2389
1015.328	-730
1015.400	-1250
1015.471	-1346
1015.543	-1979
1015.615	-2183
1015.686	-1435
1015.757	-422
1015.829	-755
1015.901	-1104
1015.972	-1522
1016.043	-1073
1016.115	-1159
1016.186	-1347
1016.257	-2201
1016.328	-1747
1016.400	-793
1016.471	-1795
1016.542	-1334
1016.613	-1223
1016.685	-1323
1016.756	-860
1016.827	-2080
1016.898	-1934
1016.969	-1202
1017.040	-2090
1017.111	-1926
1017.182	-2124
1017.253	-2252
1017.324	-1582
1017.395	-1925
1017.466	-250
1017.537	-1481
1017.608	-1147
1017.678	-1784
1017.749	-1342
1017.820	-1089
1017.891	-1327
1017.961	-1251
1018.032	-991
1018.103	-942
1018.173	-749
1018.244	-1831
1018.315	-1755
1018.385	-1332
1018.456	-1496
1018.526	-2325
1018.597	-319
1018.667	-1607
1018.738	-1673
1018.808	-1515
1018.878	-641
1018.949	-1210
1019.019	-765
1019.089	-1468
1019.160	-751
1019.230	-2961
1019.300	-1066
1019.371	-2245
1019.441	-1100
1019.511	-1576
1019.581	-881
1019.651	-1732
1019.721	-1467
1019.791	-1381
1019.861	-1652
1019.931	-1826
1020.001	-826
1020.071	-1645
1020.141	-1600
1020.211	-2256
1020.281	-2377
1020.351	-2023
1020.421	-1479
1020.491	-1084
1020.560	-1803
1020.630	-2028
1020.700	-1730
1020.770	-2669
1020.839	-1575
1020.909	-2201
1020.979	-2042
1021.048	-2457
1021.118	-1075
1021.187	-1181
1021.257	-1894
1021.326	-1263
1021.396	-1231
1021.465	-1894
1021.535	-1462
1021.604	-2000
1021.674	-1709
1021.743	-1577
1021.812	-2119
1021.882	-1580
1021.951	-776
1022.020	-1760
1022.089	-1139
1022.159	-2714
1022.228	-1469
1022.297	-1775
1022.366	-1890
1022.435	-1808
1022.504	-1926
1022.573	-2301
1022.642	-1963
1022.711	-1152
1022.781	-1966
1022.849	-1137
1022.918	-1997
1022.987	-1763
1023.056	-1926
1023.125	-1386
1023.194	-1718
1023.263	-1514
1023.331	-1486
1023.400	-2050
1023.469	-1770
1023.538	-1326
1023.606	-1574
1023.675	-1837
1023.744	-2192
1023.812	-2311
1023.881	-1561
1023.949	-2576
1024.018	-1710
1024.086	-1326
1024.155	-1720
1024.223	-1933
1024.292	-1492
1024.360	-875
1024.429	-1164
1024.497	-2612
1024.565	-1216
1024.634	-1780
1024.702	-2052
1024.770	-1903
1024.838	-1473
1024.907	-2213
1024.975	-1133
1025.043	-1637
1025.111	-1593
1025.179	-2140
1025.247	-1839
1025.315	-1898
1025.383	-1923
1025.451	-2383
1025.519	-1560
1025.587	-1738
1025.655	-1527
1025.723	-1282
1025.791	-1399
1025.859	-1210
1025.927	-1862
1025.995	-2947
1026.062	-1934
1026.130	-1903
1026.198	-2209
1026.266	-1576
1026.333	-2108
1026.401	-828
1026.469	-2695
1026.536	-1815
1026.604	-1593
1026.671	-1602
1026.739	-1463
1026.806	-2104
1026.874	-1630
1026.941	-2819
1027.009	-2181
1027.076	-1944
1027.144	-1419
1027.211	-2645
1027.278	-1928
1027.345	-1698
1027.413	-823
1027.480	-1593
1027.547	-2287
1027.614	-2088
1027.682	-1475
1027.749	-1287
1027.816	-1636
1027.883	-1770
1027.950	-1804
1028.017	-2252
1028.084	-1466
1028.151	-2572
1028.218	-1691
1028.285	-2428
1028.352	-979
1028.419	-2677
1028.486	-2098
1028.553	-1415
1028.619	-1621
1028.686	-1021
1028.753	-981
1028.820	-1308
1028.886	-1537
1028.953	-2276
1029.020	-888
1029.086	-2352
1029.153	-2011
1029.220	-2163
1029.286	-1689
1029.353	-1626
1029.419	-1624
1029.486	-2197
1029.552	-2017
1029.619	-2669
1029.685	-1808
1029.751	-2315
1029.818	-1348
1029.884	-2059
1029.951	-931
1030.017	-1491
1030.083	-2527
1030.149	-1776
1030.216	-1467
1030.282	-1910
1030.348	-1633
1030.414	-2210
1030.480	-1449
1030.546	-2096
1030.612	-2000
1030.678	-2398
1030.744	-1898
1030.810	-2252
1030.876	-1468
1030.942	-2331
1031.008	-1802
1031.074	-2306
1031.140	-1362
1031.206	-2385
1031.272	-2928
1031.337	-1908
1031.403	-1535
1031.469	-1650
1031.534	-2361
1031.600	-1968
1031.666	-1923
1031.731	-2308
1031.797	-2332
1031.863	-1806
1031.928	-2044
1031.994	-2184
1032.059	-1483
1032.125	-2136
1032.190	-2181
1032.256	-1949
1032.321	-2005
1032.386	-1758
1032.452	-1329
1032.517	-2631
1032.582	-1582
1032.647	-2744
1032.713	-1947
1032.778	-1571
1032.843	-1939
1032.908	-2047
1032.974	-2118
1033.039	-2032
1033.104	-1388
1033.169	-2098
1033.234	-1921
1033.299	-1350
1033.364	-1655
1033.429	-1675
1033.494	-2024
1033.559	-1381
1033.624	-1488
1033.688	-1147
1033.753	-2188
1033.818	-1906
1033.883	-1453
1033.948	-2061
1034.013	-1491
1034.077	-1784
1034.142	-1489
1034.207	-896
1034.271	304
1034.336	281
1034.400	-1112
1034.465	-1368
1034.530	-1300
1034.594	-1843
1034.658	-2238
1034.723	-2377
1034.787	-1830
1034.852	-1815
1034.916	-2635
1034.981	-2125
1035.045	-1394
1035.109	-1478
1035.173	-1366
1035.238	-2437
1035.302	-2113
1035.366	-1952
1035.430	-2164
1035.495	-2074
1035.559	-1709
1035.623	-2096
1035.687	-2759
1035.751	-2517
1035.815	-2537
1035.879	-2345
1035.943	-1990
1036.007	-1722
1036.071	-1871
1036.135	-1968
1036.198	-1328
1036.262	-1996
1036.326	-1689
1036.390	-3024
1036.454	-1312
1036.517	-2702
1036.581	-2486
1036.645	-2442
1036.709	-1160
1036.772	-1931
1036.836	-1718
1036.900	-1520
1036.963	-1886
1037.026	-2171
1037.090	-2198
1037.154	-2059
1037.217	-2150
1037.280	-2055
1037.344	-1838
1037.407	-2048
1037.471	-2355
1037.534	-1697
1037.597	-1689
1037.661	-2314
1037.724	-1700
1037.787	-2645
1037.850	-2159
1037.913	-2786
1037.977	-839
1038.040	-2229
1038.103	-2177
1038.166	-1576
1038.229	-1783
1038.292	-2671
1038.355	-1808
1038.418	-2348
1038.481	-1215
1038.544	-1638
1038.607	-1166
1038.670	-1332
1038.732	-1548
1038.795	-2241
1038.858	-2133
1038.921	-1032
1038.984	-910
1039.046	-2016
1039.109	-1698
1039.172	-1841
1039.234	-1812
1039.297	-1947
1039.360	-1431
1039.422	-2569
1039.485	-2138
1039.547	-2216
1039.610	-1545
1039.672	-2175
1039.734	-1817
1039.797	-2486
1039.859	-2127
1039.922	-2953
1039.984	-2135
1040.046	-2518
1040.109	-2535
1040.171	-2242
1040.233	-2202
1040.295	-2381
1040.358	-2230
1040.420	-2656
1040.482	-1827
1040.544	-2022
1040.606	-1751
1040.668	-1678
1040.730	-2245
1040.792	-1770
1040.854	-1336
1040.916	-2098
1040.978	-1619
1041.040	-1814
1041.102	-1674
1041.164	-2284
1041.225	-2453
1041.287	-1039
1041.349	-1960
1041.411	-2340
1041.472	-2157
1041.534	-2842
1041.596	-1993
1041.657	-1665
1041.719	-1817
1041.781	-2089
1041.842	-2051
1041.904	-2069
1041.965	-1800
1042.027	-2226
1042.088	-1948
1042.150	-2136
1042.211	-1615
1042.272	-2004
1042.334	-2074
1042.395	-2331
1042.456	-2209
1042.518	-1820
1042.579	-2172
1042.640	-2810
1042.701	-1935
1042.763	-1930
1042.824	-1965
1042.885	-2345
1042.946	-1542
1043.007	-1763
1043.068	-1084
1043.129	-2003
1043.190	-2275
1043.251	-1955
1043.312	-2140
1043.373	-1572
1043.434	-2258
1043.495	-1531
1043.556	-1394
1043.616	-1401
1043.677	-2231
1043.738	-1541
1043.799	-1910
1043.859	-1225
1043.920	-1768
1043.981	-1532
1044.041	-1842
1044.102	-1647
1044.162	-1854
1044.223	-2677
1044.284	-1975
1044.344	-2289
1044.405	-1972
1044.465	-1950
1044.525	-2277
1044.586	-1850
1044.646	-1986
1044.707	-1952
1044.767	-2138
1044.827	-2416
1044.887	-1169
1044.948	-2342
1045.008	-2355
1045.068	-2020
1045.128	-1724
1045.188	-2151
1045.249	-1074
1045.309	-1891
1045.369	-1180
1045.429	-1366
1045.489	-1751
1045.549	-1756
1045.609	-2375
1045.669	-2042
1045.729	-2312
1045.789	-2314
1045.848	-1361
1045.908	-1741
1045.968	-1657
1046.028	-1480
1046.088	-1497
1046.147	-1847
1046.207	-1352
1046.267	-907
1046.326	-1176
1046.386	-1956
1046.446	-1545
1046.505	-1365
1046.565	-1019
1046.624	-672
1046.684	-282
1046.743	-265
1046.803	187
1046.862	-419
1046.922	0
