'Start Wavelength	183.907
'End Wavelength	1046.922
'Gate Delay	5.000
'Gate Width (ms)	1.050
'Laser Output Level	0.000
'X Position	0.000
'Y Position	0.000
'Z Position	0.000
'Grid Point Number	1.000
'Shot Number	100.000
183.907	87.000
183.977	412.000
184.047	-332
184.116	465
184.186	-115
184.256	-322
184.325	-14
184.395	-584
184.465	487
184.534	425
184.604	-228
184.674	341
184.743	218
184.813	788
184.883	291
184.952	790
185.022	-494
185.092	-531
185.161	-59
185.231	-636
185.301	10
185.370	-182
185.440	-592
185.509	-464
185.579	-41
185.649	-365
185.718	289
185.788	923
185.857	-179
185.927	-172
185.996	-437
186.066	258
186.136	308
186.205	-63
186.275	-95
186.344	33
186.414	-202
186.483	113
186.553	1362
186.622	595
186.692	-411
186.761	227
186.831	773
186.900	350
186.970	0
187.039	-43
187.109	-155
187.178	88
187.248	679
187.317	-195
187.387	-154
187.456	326
187.526	-218
187.595	228
187.664	-30
187.734	199
187.803	-307
187.873	190
187.942	35
188.012	-101
188.081	73
188.150	-46
188.220	190
188.289	-12
188.358	-100
188.428	676
188.497	13
188.567	-51
188.636	-619
188.705	795
188.775	-294
188.844	-199
188.913	-22
188.983	378
189.052	103
189.121	-93
189.191	-708
189.260	-134
189.329	-225
189.399	495
189.468	562
189.537	109
189.606	773
189.676	630
189.745	415
189.814	160
189.883	96
189.953	-293
190.022	251
190.091	-216
190.161	391
190.230	583
190.299	447
190.368	-327
190.437	-691
190.507	45
190.576	-792
190.645	610
190.714	-506
190.783	58
190.853	896
190.922	-64
190.991	272
191.060	445
191.129	-792
191.198	-219
191.268	14
191.337	880
191.406	452
191.475	-187
191.544	1139
191.613	479
191.682	-906
191.752	523
191.821	25
191.890	163
191.959	126
192.028	-199
192.097	-67
192.166	1418
192.235	-915
192.304	887
192.373	184
192.442	441
192.511	134
192.580	102
192.650	414
192.719	450
192.788	357
192.857	-121
192.926	679
192.995	494
193.064	-233
193.133	224
193.202	195
193.271	625
193.340	230
193.409	302
193.478	965
193.547	-7
193.615	-194
193.684	1295
193.753	-28
193.822	275
193.891	-900
193.960	493
194.029	-275
194.098	733
194.167	177
194.236	519
194.305	-211
194.374	308
194.443	-67
194.512	804
194.580	630
194.649	346
194.718	-135
194.787	-285
194.856	106
194.925	500
194.994	-830
195.062	298
195.131	574
195.200	479
195.269	-439
195.338	804
195.407	1075
195.475	-538
195.544	-232
195.613	-28
195.682	-174
195.751	337
195.819	-648
195.888	18
195.957	-20
196.026	-222
196.094	142
196.163	732
196.232	-499
196.301	-504
196.369	-152
196.438	-146
196.507	47
196.576	89
196.644	-418
196.713	466
196.782	375
196.850	331
196.919	-2
196.988	-238
197.056	270
197.125	-362
197.194	254
197.262	-542
197.331	-354
197.400	541
197.468	-67
197.537	19
197.606	-314
197.674	937
197.743	141
197.812	-143
197.880	272
197.949	362
198.017	-23
198.086	310
198.155	192
198.223	614
198.292	-210
198.360	-486
198.429	-582
198.497	-6
198.566	-69
198.635	1013
198.703	52
198.772	387
198.840	-102
198.909	-130
198.977	183
199.046	332
199.114	-279
199.183	713
199.251	170
199.320	-182
199.388	-651
199.457	-752
199.525	690
199.594	-457
199.662	436
199.731	-370
199.799	140
199.867	691
199.936	70
200.004	875
200.073	935
200.141	-776
200.210	-678
200.278	577
200.346	-759
200.415	491
200.483	470
200.552	853
200.620	-815
200.688	-535
200.757	-128
200.825	278
200.893	-296
200.962	-33
201.030	-756
201.098	205
201.167	-416
201.235	243
201.303	-455
201.372	208
201.440	198
201.508	-174
201.577	118
201.645	611
201.713	-539
201.781	131
201.850	-185
201.918	-394
201.986	-849
202.055	67
202.123	774
202.191	146
202.259	233
202.327	-76
202.396	-113
202.464	1238
202.532	12
202.600	620
202.669	-91
202.737	-220
202.805	-992
202.873	721
202.941	545
203.009	-262
203.078	-122
203.146	750
203.214	-163
203.282	-138
203.350	398
203.418	-44
203.487	118
203.555	491
203.623	-4
203.691	612
203.759	342
203.827	295
203.895	439
203.963	674
204.031	-1182
204.099	262
204.168	-295
204.236	881
204.304	254
204.372	-313
204.440	355
204.508	-723
204.576	-137
204.644	356
204.712	-101
204.780	53
204.848	-484
204.916	-42
204.984	172
205.052	144
205.120	-8
205.188	-269
205.256	-75
205.324	-142
205.392	235
205.460	-99
205.528	-575
205.596	524
205.664	-89
205.732	990
205.799	138
205.867	465
205.935	-244
206.003	302
206.071	-418
206.139	134
206.207	-30
206.275	-125
206.343	92
206.411	448
206.478	-73
206.546	783
206.614	-424
206.682	-108
206.750	75
206.818	457
206.885	92
206.953	-743
207.021	983
207.089	162
207.157	-502
207.225	408
207.292	80
207.360	271
207.428	-484
207.496	-619
207.563	-527
207.631	271
207.699	-252
207.767	548
207.834	0
207.902	209
207.970	-254
208.038	688
208.105	-86
208.173	114
208.241	240
208.309	404
208.376	450
208.444	255
208.512	98
208.579	-371
208.647	429
208.715	460
208.782	-22
208.850	94
208.918	-38
208.985	-162
209.053	36
209.120	320
209.188	-481
209.256	164
209.323	-393
209.391	454
209.459	932
209.526	303
209.594	359
209.661	65
209.729	400
209.796	965
209.864	326
209.932	-996
209.999	1264
210.067	668
210.134	-600
210.202	203
210.269	601
210.337	594
210.404	-202
210.472	209
210.539	448
210.607	-243
210.674	385
210.742	1155
210.809	179
210.877	62
210.944	812
211.012	-465
211.079	1133
211.146	778
211.214	379
211.281	85
211.349	-133
211.416	749
211.484	807
211.551	-671
211.618	598
211.686	-286
211.753	-711
211.821	781
211.888	-51
211.955	283
212.023	-376
212.090	94
212.157	-92
212.225	612
212.292	810
212.359	800
212.427	1475
212.494	927
212.561	139
212.629	57
212.696	-322
212.763	511
212.831	63
212.898	831
212.965	-766
213.032	499
213.100	-223
213.167	-396
213.234	348
213.301	972
213.369	525
213.436	477
213.503	-319
213.570	558
213.638	571
213.705	425
213.772	-110
213.839	431
213.906	-167
213.973	-162
214.041	-1207
214.108	927
214.175	771
214.242	475
214.309	-128
214.376	358
214.444	-169
214.511	-509
214.578	438
214.645	227
214.712	741
214.779	436
214.846	-353
214.913	-140
214.980	281
215.048	740
215.115	324
215.182	471
215.249	194
215.316	-355
215.383	66
215.450	335
215.517	-164
215.584	487
215.651	-211
215.718	1601
215.785	181
215.852	-152
215.919	-54
215.986	414
216.053	424
216.120	-437
216.187	-604
216.254	1063
216.321	-312
216.388	304
216.455	-3
216.522	-84
216.589	294
216.656	861
216.722	676
216.789	636
216.856	543
216.923	676
216.990	333
217.057	694
217.124	160
217.191	766
217.258	86
217.324	452
217.391	509
217.458	118
217.525	-244
217.592	896
217.659	-1110
217.725	1006
217.792	-625
217.859	1213
217.926	-618
217.993	447
218.059	870
218.126	165
218.193	662
218.260	429
218.327	-664
218.393	471
218.460	-519
218.527	392
218.594	260
218.660	526
218.727	-20
218.794	361
218.860	635
218.927	-227
218.994	-360
219.061	-268
219.127	108
219.194	127
219.261	399
219.327	-112
219.394	848
219.461	-305
219.527	-351
219.594	792
219.661	-529
219.727	-442
219.794	105
219.860	-840
219.927	-516
219.994	1191
220.060	935
220.127	1102
220.193	1176
220.260	656
220.326	-249
220.393	1498
220.460	1015
220.526	802
220.593	-33
220.659	1088
220.726	-207
220.792	1109
220.859	777
220.925	2481
220.992	2857
221.058	2091
221.125	1756
221.191	1218
221.258	-153
221.324	970
221.391	42
221.457	613
221.524	291
221.590	193
221.657	1147
221.723	706
221.789	65
221.856	1231
221.922	-1369
221.989	662
222.055	193
222.121	-1190
222.188	1613
222.254	293
222.321	-655
222.387	-65
222.453	152
222.520	309
222.586	-359
222.652	140
222.719	-572
222.785	1023
222.851	96
222.918	-115
222.984	-27
223.050	186
223.116	-1570
223.183	742
223.249	-488
223.315	211
223.382	-205
223.448	276
223.514	-402
223.580	50
223.647	47
223.713	-989
223.779	-317
223.845	733
223.911	663
223.978	-1095
224.044	78
224.110	9
224.176	-101
224.242	-197
224.309	-688
224.375	492
224.441	-66
224.507	-75
224.573	-1259
224.639	594
224.705	-724
224.772	500
224.838	-425
224.904	365
224.970	-507
225.036	-170
225.102	-987
225.168	-50
225.234	-179
225.300	-563
225.366	-174
225.432	187
225.499	247
225.565	-165
225.631	-376
225.697	268
225.763	229
225.829	404
225.895	-615
225.961	46
226.027	141
226.093	1043
226.159	837
226.225	1040
226.291	2325
226.357	4248
226.423	1845
226.489	1312
226.554	1032
226.620	942
226.686	669
226.752	1135
226.818	2128
226.884	5253
226.950	4396
227.016	2540
227.082	189
227.148	290
227.214	276
227.279	1127
227.345	265
227.411	356
227.477	229
227.543	1639
227.609	1339
227.674	1090
227.740	614
227.806	-94
227.872	-707
227.938	126
228.003	-472
228.069	194
228.135	-229
228.201	634
228.267	-354
228.332	-303
228.398	-833
228.464	-23
228.530	-466
228.595	-357
228.661	-840
228.727	-151
228.792	621
228.858	79
228.924	-1164
228.990	857
229.055	-967
229.121	722
229.187	-165
229.252	-244
229.318	-923
229.384	-29
229.449	-100
229.515	-1598
229.581	-1215
229.646	1381
229.712	-40
229.777	277
229.843	-181
229.909	660
229.974	151
230.040	65
230.105	263
230.171	278
230.236	690
230.302	-4
230.368	-767
230.433	-1397
230.499	-118
230.564	193
230.630	-608
230.695	214
230.761	307
230.826	-1233
230.892	438
230.957	-658
231.023	-364
231.088	-118
231.154	8
231.219	165
231.284	-552
231.350	69
231.415	-890
231.481	351
231.546	-351
231.612	-238
231.677	-1053
231.742	-1174
231.808	1151
231.873	-226
231.939	-2162
232.004	797
232.069	1219
232.135	-535
232.200	-838
232.265	236
232.331	-1478
232.396	-370
232.461	-481
232.527	-525
232.592	-846
232.657	222
232.723	-728
232.788	-450
232.853	131
232.918	280
232.984	-1398
233.049	-655
233.114	-1560
233.179	180
233.245	37
233.310	0
233.375	-590
233.440	-125
233.506	-381
233.571	-424
233.636	-81
233.701	216
233.766	-271
233.832	147
233.897	-1073
233.962	-922
234.027	260
234.092	374
234.157	453
234.222	-223
234.288	-321
234.353	587
234.418	956
234.483	799
234.548	-222
234.613	197
234.678	448
234.743	-323
234.808	1540
234.873	-947
234.938	179
235.004	95
235.069	-862
235.134	100
235.199	1041
235.264	37
235.329	-1751
235.394	568
235.459	385
235.524	-490
235.589	275
235.654	-882
235.719	-2005
235.784	671
235.849	119
235.913	169
235.978	547
236.043	1206
236.108	-33
236.173	-670
236.238	537
236.303	-460
236.368	-634
236.433	1050
236.498	-29
236.563	452
236.627	1908
236.692	6126
236.757	4821
236.822	2884
236.887	528
236.952	980
237.017	-1069
237.081	1518
237.146	769
237.211	3617
237.276	5437
237.341	8211
237.405	4676
237.470	2914
237.535	1078
237.600	638
237.664	837
237.729	-238
237.794	-378
237.859	2946
237.923	863
237.988	567
238.053	768
238.118	270
238.182	291
238.247	1919
238.312	-824
238.376	60
238.441	-1481
238.506	1245
238.570	-717
238.635	1553
238.700	539
238.764	265
238.829	-577
238.893	-560
238.958	375
239.023	381
239.087	397
239.152	431
239.216	-698
239.281	310
239.346	-329
239.410	-278
239.475	-964
239.539	1900
239.604	-602
239.668	652
239.733	590
239.797	1232
239.862	2380
239.926	2808
239.991	673
240.055	-71
240.120	86
240.184	-343
240.249	-1010
240.313	-150
240.378	394
240.442	615
240.507	957
240.571	333
240.635	-359
240.700	1114
240.764	76
240.829	23
240.893	-1094
240.957	592
241.022	822
241.086	1579
241.151	-288
241.215	-387
241.279	-12
241.344	15
241.408	649
241.472	-1604
241.537	622
241.601	537
241.665	-1115
241.730	-505
241.794	133
241.858	-534
241.922	171
241.987	-200
242.051	-262
242.115	-448
242.179	19
242.244	-1089
242.308	414
242.372	-361
242.436	19
242.501	834
242.565	-890
242.629	-1378
242.693	487
242.757	-370
242.822	-358
242.886	261
242.950	23
243.014	-501
243.078	-597
243.142	194
243.206	-438
243.271	214
243.335	-1076
243.399	-8
243.463	768
243.527	5946
243.591	829
243.655	400
243.719	-1032
243.783	1051
243.847	208
243.911	911
243.975	441
244.040	-370
244.104	977
244.168	295
244.232	-586
244.296	487
244.360	275
244.424	-126
244.488	-230
244.552	822
244.615	-1391
244.679	350
244.743	-168
244.807	-65
244.871	-516
244.935	813
244.999	-1849
245.063	-73
245.127	606
245.191	9
245.255	-620
245.319	-802
245.383	-1088
245.446	629
245.510	-694
245.574	-315
245.638	754
245.702	-1309
245.766	908
245.829	507
245.893	-1255
245.957	-920
246.021	97
246.085	-765
246.149	56
246.212	943
246.276	588
246.340	274
246.404	112
246.467	814
246.531	-1319
246.595	1009
246.659	945
246.722	-721
246.786	281
246.850	8
246.913	14
246.977	-986
247.041	-63
247.104	432
247.168	233
247.232	1092
247.295	2380
247.359	1139
247.423	-240
247.486	603
247.550	324
247.614	-163
247.677	-627
247.741	-245
247.804	-585
247.868	5
247.932	-7
247.995	2028
248.059	327
248.122	-617
248.186	1870
248.249	1632
248.313	3617
248.376	3930
248.440	1981
248.503	-367
248.567	1907
248.630	380
248.694	740
248.757	2689
248.821	4162
248.884	3754
248.948	1533
249.011	3374
249.075	5010
249.138	4742
249.202	996
249.265	-15
249.328	1938
249.392	382
249.455	1234
249.519	1
249.582	874
249.645	1488
249.709	16
249.772	703
249.835	41
249.899	461
249.962	713
250.025	-70
250.089	801
250.152	2965
250.215	758
250.279	551
250.342	942
250.405	539
250.468	-60
250.532	698
250.595	1030
250.658	3220
250.721	8964
250.785	2341
250.848	2129
250.911	-164
250.974	452
251.038	319
251.101	2981
251.164	980
251.227	977
251.290	946
251.354	1414
251.417	7148
251.480	6824
251.543	5353
251.606	13018
251.669	11581
251.732	3963
251.795	3412
251.859	4129
251.922	7377
251.985	5253
252.048	1847
252.111	1300
252.174	508
252.237	1915
252.300	5985
252.363	4573
252.426	12777
252.489	3315
252.552	2453
252.615	596
252.678	1204
252.741	3202
252.804	4722
252.867	11564
252.930	7162
252.993	3060
253.056	2436
253.119	1208
253.182	275
253.245	-20
253.308	1423
253.371	-331
253.434	445
253.497	1235
253.559	2176
253.622	936
253.685	1892
253.748	1831
253.811	95
253.874	1254
253.937	77
254.000	29
254.062	1036
254.125	1971
254.188	2895
254.251	1324
254.314	329
254.376	1210
254.439	2273
254.502	790
254.565	672
254.628	3164
254.690	966
254.753	40
254.816	204
254.878	568
254.941	1452
255.004	1313
255.067	244
255.129	-79
255.192	836
255.255	-442
255.317	-163
255.380	-152
255.443	85
255.505	-516
255.568	-1383
255.631	-324
255.693	151
255.756	-717
255.819	586
255.881	-1629
255.944	-305
256.006	-549
256.069	-777
256.132	-902
256.194	-93
256.257	122
256.319	867
256.382	-541
256.444	439
256.507	99
256.569	324
256.632	-476
256.694	185
256.757	3226
256.819	11056
256.882	4373
256.944	1616
257.007	1241
257.069	-36
257.132	340
257.194	1003
257.257	-846
257.319	-961
257.381	551
257.444	3211
257.506	11037
257.569	14207
257.631	4933
257.693	2576
257.756	194
257.818	-198
257.880	68
257.943	688
258.005	-927
258.067	-563
258.130	-132
258.192	-569
258.254	-478
258.317	-157
258.379	167
258.441	852
258.503	1488
258.566	813
258.628	1518
258.690	-394
258.753	-688
258.815	1256
258.877	-604
258.939	51
259.001	440
259.064	-118
259.126	-921
259.188	-202
259.250	-88
259.312	-87
259.375	-19
259.437	-772
259.499	-322
259.561	-777
259.623	-385
259.685	-204
259.747	196
259.809	485
259.872	1477
259.934	3459
259.996	4854
260.058	1827
260.120	-817
260.182	183
260.244	-448
260.306	-1150
260.368	276
260.430	-1061
260.492	694
260.554	3063
260.616	-346
260.678	1083
260.740	993
260.802	-97
260.864	137
260.926	-729
260.988	1007
261.050	123
261.112	657
261.174	4807
261.236	1367
261.298	324
261.359	439
261.421	1369
261.483	-834
261.545	1178
261.607	-1531
261.669	0
261.731	39
261.793	1366
261.854	-1194
261.916	28
261.978	333
262.040	304
262.102	206
262.164	-420
262.225	214
262.287	243
262.349	68
262.411	813
262.472	666
262.534	-339
262.596	300
262.658	-316
262.719	-1010
262.781	551
262.843	-152
262.904	144
262.966	-110
263.028	-307
263.090	2117
263.151	8602
263.213	2732
263.275	1106
263.336	11
263.398	127
263.459	-912
263.521	-1032
263.583	732
263.644	472
263.706	-418
263.767	-528
263.829	-1031
263.891	-106
263.952	-499
264.014	-467
264.075	-459
264.137	2042
264.198	376
264.260	-665
264.321	-317
264.383	384
264.444	4115
264.506	837
264.567	-565
264.629	1538
264.690	2089
264.752	458
264.813	-314
264.875	-306
264.936	269
264.998	-325
265.059	-460
265.120	167
265.182	-653
265.243	7169
265.305	7767
265.366	441
265.427	-361
265.489	904
265.550	-1863
265.611	-233
265.673	-1053
265.734	21
265.795	-172
265.857	-201
265.918	-683
265.979	1474
266.040	8774
266.102	9882
266.163	2660
266.224	974
266.286	-453
266.347	-1022
266.408	14
266.469	-41
266.530	-234
266.592	-780
266.653	72
266.714	187
266.775	-70
266.836	-420
266.898	-874
266.959	-77
267.020	-871
267.081	441
267.142	-1063
267.203	-935
267.264	-1014
267.326	353
267.387	-737
267.448	-1274
267.509	-92
267.570	-1275
267.631	-789
267.692	-1447
267.753	-736
267.814	-307
267.875	-184
267.936	1027
267.997	-683
268.058	-314
268.119	-572
268.180	-373
268.241	-915
268.302	-578
268.363	-799
268.424	-322
268.485	-776
268.546	-367
268.607	-685
268.668	-745
268.729	-1782
268.790	-663
268.851	-507
268.912	-111
268.972	47
269.033	-320
269.094	-967
269.155	-423
269.216	-255
269.277	90
269.338	-1290
269.398	-973
269.459	-979
269.520	43
269.581	107
269.642	301
269.702	-854
269.763	-194
269.824	-600
269.885	-363
269.945	105
270.006	-1220
270.067	-1405
270.128	-713
270.188	-416
270.249	-694
270.310	-866
270.370	-674
270.431	-652
270.492	-279
270.553	-1145
270.613	-270
270.674	1139
270.734	103
270.795	-311
270.856	-112
270.916	-1096
270.977	-201
271.038	-133
271.098	-178
271.159	-503
271.219	-408
271.280	-9
271.340	-483
271.401	-1824
271.462	-1043
271.522	-208
271.583	-1084
271.643	-259
271.704	-151
271.764	-636
271.825	528
271.885	3945
271.946	6157
272.006	1422
272.066	2393
272.127	3655
272.187	1574
272.248	145
272.308	-605
272.369	2433
272.429	1637
272.489	134
272.550	76
272.610	871
272.671	673
272.731	174
272.791	-527
272.852	-331
272.912	-433
272.972	-782
273.033	-238
273.093	-550
273.153	174
273.214	-142
273.274	-844
273.334	2286
273.394	4249
273.455	1014
273.515	1461
273.575	3862
273.635	1979
273.696	1295
273.756	3681
273.816	1201
273.876	382
273.936	236
273.997	2324
274.057	-246
274.117	541
274.177	-396
274.237	5198
274.297	4243
274.358	1984
274.418	1757
274.478	2569
274.538	274
274.598	-345
274.658	1326
274.718	1606
274.778	-518
274.838	488
274.898	307
274.958	2252
275.018	3796
275.078	2662
275.138	1288
275.198	334
275.258	-679
275.318	108
275.378	576
275.438	668
275.498	12
275.558	733
275.618	3288
275.678	2935
275.738	915
275.798	883
275.858	134
275.918	-291
275.978	-873
276.038	409
276.098	165
276.157	127
276.217	2737
276.277	1153
276.337	-830
276.397	-216
276.457	-668
276.517	193
276.576	-831
276.636	-615
276.696	-564
276.756	1506
276.815	1648
276.875	214
276.935	-484
276.995	-106
277.055	26
277.114	480
277.174	-147
277.234	2323
277.293	-10
277.353	-766
277.413	-716
277.472	-509
277.532	-328
277.592	-59
277.651	781
277.711	3658
277.771	-253
277.830	4474
277.890	3117
277.950	1178
278.009	7815
278.069	2518
278.128	1447
278.188	3017
278.248	1634
278.307	3703
278.367	2572
278.426	201
278.486	-491
278.545	454
278.605	-14
278.664	-414
278.724	-465
278.783	1138
278.843	3904
278.902	1270
278.962	-198
279.021	-33
279.081	348
279.140	132
279.199	183
279.259	202
279.318	261
279.378	1248
279.437	1657
279.496	5279
279.556	16594
279.615	14649
279.675	2961
279.734	1038
279.793	2228
279.853	6249
279.912	2015
279.971	720
280.031	163
280.090	1675
280.149	3686
280.208	3412
280.268	10824
280.327	14972
280.386	1820
280.445	1583
280.505	1500
280.564	235
280.623	611
280.682	958
280.742	1533
280.801	-195
280.860	-356
280.919	-521
280.978	-702
281.037	-677
281.097	-737
281.156	149
281.215	-963
281.274	-613
281.333	2238
281.392	1967
281.451	-96
281.510	-184
281.569	-79
281.628	-1057
281.688	122
281.747	-180
281.806	-512
281.865	-406
281.924	-784
281.983	-861
282.042	-1250
282.101	-721
282.160	-796
282.219	-475
282.278	-325
282.337	1412
282.396	846
282.454	-414
282.513	-10
282.572	2101
282.631	1165
282.690	-233
282.749	-1885
282.808	193
282.867	-712
282.926	680
282.985	-686
283.043	-700
283.102	-1189
283.161	-677
283.220	372
283.279	3698
283.338	-310
283.396	-172
283.455	-295
283.514	-434
283.573	652
283.631	115
283.690	-385
283.749	-706
283.808	-24
283.866	230
283.925	-1033
283.984	570
284.043	-468
284.101	173
284.160	-849
284.219	88
284.277	761
284.336	999
284.395	3539
284.453	3360
284.512	402
284.570	804
284.629	743
284.688	199
284.746	-97
284.805	561
284.863	652
284.922	1939
284.981	1821
285.039	2591
285.098	5463
285.156	14088
285.215	27869
285.273	29423
285.332	18442
285.390	8803
285.449	5611
285.507	2537
285.566	996
285.624	1059
285.683	1131
285.741	246
285.799	-217
285.858	312
285.916	-407
285.975	-130
286.033	-717
286.091	389
286.150	-987
286.208	257
286.267	-14
286.325	-248
286.383	232
286.442	-44
286.500	-1336
286.558	-183
286.616	-250
286.675	341
286.733	42
286.791	-1014
286.850	177
286.908	-83
286.966	988
287.024	205
287.083	-836
287.141	-434
287.199	-255
287.257	122
287.315	235
287.374	-29
287.432	729
287.490	459
287.548	-7
287.606	-606
287.664	-115
287.723	119
287.781	386
287.839	-410
287.897	-58
287.955	122
288.013	75
288.071	2463
288.129	10648
288.187	38176
288.245	19036
288.303	5535
288.361	2021
288.419	1443
288.477	264
288.535	449
288.593	289
288.651	309
288.709	-403
288.767	-525
288.825	-1276
288.883	-610
288.941	146
288.999	-317
289.057	-414
289.115	-272
289.173	-77
289.231	331
289.289	-255
289.346	-492
289.404	330
289.462	778
289.520	175
289.578	-162
289.636	-455
289.694	870
289.751	-1145
289.809	-401
289.867	396
289.925	306
289.983	-840
290.040	119
290.098	-551
290.156	-362
290.214	-325
290.271	-658
290.329	456
290.387	499
290.444	-692
290.502	-1384
290.560	-221
290.617	38
290.675	-1125
290.733	154
290.790	105
290.848	575
290.906	-409
290.963	-542
291.021	-737
291.078	-319
291.136	160
291.194	638
291.251	4681
291.309	206
291.366	103
291.424	61
291.481	-244
291.539	-688
291.596	-818
291.654	-1097
291.711	-870
291.769	481
291.826	110
291.884	525
291.941	-575
291.999	302
292.056	-207
292.114	-267
292.171	-735
292.228	-192
292.286	-546
292.343	3
292.401	-36
292.458	-54
292.515	-740
292.573	-553
292.630	159
292.687	17
292.745	-58
292.802	-116
292.859	1527
292.917	4712
292.974	1452
293.031	8
293.089	-305
293.146	-304
293.203	-556
293.260	-505
293.318	-186
293.375	1339
293.432	-595
293.489	-428
293.546	-283
293.604	-259
293.661	1580
293.718	5929
293.775	2953
293.832	1728
293.889	115
293.947	270
294.004	-679
294.061	-190
294.118	514
294.175	4521
294.232	7090
294.289	2834
294.346	323
294.403	289
294.460	-328
294.517	73
294.574	-558
294.631	-44
294.688	62
294.745	1143
294.802	6886
294.859	10785
294.916	3802
294.973	1295
295.030	418
295.087	635
295.144	-48
295.201	-262
295.258	-201
295.315	514
295.372	1572
295.429	5199
295.486	1604
295.542	1499
295.599	4530
295.656	9308
295.713	3944
295.770	5573
295.827	1395
295.883	107
295.940	93
295.997	1044
296.054	778
296.111	134
296.167	891
296.224	272
296.281	259
296.338	-640
296.394	43
296.451	-339
296.508	2270
296.564	4749
296.621	3156
296.678	4875
296.734	8946
296.791	4016
296.848	1729
296.904	395
296.961	2453
297.018	5128
297.074	5225
297.131	1440
297.187	684
297.244	1906
297.301	4343
297.357	9620
297.414	3585
297.470	763
297.527	35
297.583	-410
297.640	147
297.696	-3
297.753	-74
297.809	-281
297.866	-209
297.922	-470
297.979	61
298.035	-33
298.092	-66
298.148	2228
298.204	4183
298.261	1210
298.317	2144
298.374	7206
298.430	4018
298.486	1654
298.543	-171
298.599	645
298.656	157
298.712	1601
298.768	4523
298.824	2982
298.881	820
298.937	67
298.993	-194
299.050	205
299.106	346
299.162	-263
299.218	354
299.275	-179
299.331	-258
299.387	834
299.443	5894
299.500	11251
299.556	5606
299.612	1972
299.668	994
299.724	4083
299.780	5507
299.837	2922
299.893	1549
299.949	7141
300.005	9462
300.061	6592
300.117	12843
300.173	6559
300.229	1886
300.285	2314
300.341	2019
300.397	1768
300.453	-437
300.510	616
300.566	121
300.622	1681
300.678	7577
300.734	12556
300.790	8312
300.845	7663
300.901	5235
300.957	10082
301.013	6223
301.069	1777
301.125	722
301.181	-287
301.237	162
301.293	-146
301.349	-168
301.405	-92
301.461	-482
301.516	1202
301.572	556
301.628	395
301.684	1015
301.740	1518
301.796	3487
301.851	2427
301.907	3163
301.963	4406
302.019	5177
302.074	17381
302.130	18269
302.186	9467
302.242	3252
302.297	2171
302.353	2014
302.409	3957
302.464	3435
302.520	1965
302.576	5619
302.631	8503
302.687	5236
302.743	1807
302.798	496
302.854	226
302.910	561
302.965	821
303.021	1756
303.076	3117
303.132	2125
303.187	2266
303.243	828
303.299	851
303.354	751
303.410	627
303.465	-167
303.521	477
303.576	-309
303.632	510
303.687	1602
303.743	5140
303.798	5418
303.853	2535
303.909	1281
303.964	763
304.020	29
304.075	1791
304.130	1846
304.186	3816
304.241	4272
304.297	2751
304.352	720
304.358	660
304.407	173
304.449	331
304.463	383
304.518	561
304.539	175
304.573	-438
304.629	932
304.630	933
304.684	1029
304.720	2809
304.739	3687
304.794	5647
304.811	5143
304.850	3863
304.902	808
304.905	614
304.960	806
304.992	729
305.015	634
305.071	855
305.083	675
305.126	74
305.173	-303
305.181	-357
305.236	38
305.264	325
305.292	597
305.347	184
305.354	337
305.402	1267
305.445	916
305.457	823
305.512	851
305.535	997
305.567	1178
305.622	1174
305.626	1185
305.678	2075
305.716	5855
305.733	7154
305.788	7935
305.807	7002
305.843	5578
305.897	6692
305.898	6698
305.953	6242
305.988	4081
306.008	2894
306.063	1652
306.078	1584
306.118	1657
306.168	488
306.173	387
306.228	786
306.259	589
306.283	439
306.338	414
306.349	531
306.393	1071
306.440	757
306.448	679
306.503	1054
306.530	919
306.558	1192
306.613	3205
306.620	3639
306.668	6422
306.711	7629
306.723	7534
306.778	5960
306.801	4740
306.833	3473
306.888	1201
306.892	1141
306.943	1015
306.982	804
306.997	691
307.052	1000
307.072	899
307.107	1038
307.162	1869
307.163	1874
307.217	2638
307.253	3366
307.272	3572
307.327	3184
307.343	3132
307.381	2905
307.434	1971
307.436	2034
307.491	4679
307.524	7255
307.546	7855
307.600	7775
307.614	6936
307.655	4024
307.704	1636
307.710	1607
307.765	2459
307.795	3346
307.819	4011
307.874	6405
307.885	6571
307.929	5858
307.975	4987
307.984	5210
308.038	6702
308.065	8145
308.093	14095
308.148	29771
308.156	33159
308.202	50222
308.246	62681
308.257	61299
308.312	36911
308.336	26110
308.366	19382
308.421	11486
308.426	10851
308.475	7140
308.517	4931
308.530	4433
308.585	3293
308.607	3132
308.639	3424
308.694	3148
308.697	3206
308.748	6284
308.787	9005
308.803	8905
308.857	7210
308.877	6274
308.912	5725
308.967	5509
308.967	5511
309.021	7428
309.058	8781
309.076	11124
309.130	19760
309.148	23294
309.185	40891
309.238	70764
309.239	71000
309.293	77055
309.328	72925
309.348	63982
309.402	33220
309.418	25133
309.457	17656
309.508	10428
309.511	10183
309.566	8131
309.598	7050
309.620	7199
309.674	8773
309.688	9099
309.729	8455
309.778	7475
309.783	7390
309.837	5918
309.868	5276
309.892	6580
309.946	9938
309.959	10967
310.001	14358
310.049	17522
310.055	16908
310.109	10123
310.139	6082
310.163	4683
310.218	2611
310.229	2200
310.272	2040
310.319	2096
310.326	2025
310.381	1348
310.409	1070
310.435	1282
310.489	1571
310.499	1667
310.543	1750
310.589	1593
310.598	1640
310.652	2208
310.679	2418
310.706	2119
310.760	1405
310.769	1295
310.814	1445
310.859	1687
310.868	1719
310.923	1636
310.948	1726
310.977	1964
311.031	2181
311.038	2229
311.085	1809
311.128	1216
311.139	1224
311.193	1455
311.218	1493
311.247	1666
311.301	2042
311.308	2073
311.356	1896
311.398	1808
311.410	1844
311.464	1897
311.488	1919
311.518	1831
311.572	1704
311.578	1678
311.626	2279
311.668	2876
311.680	2976
311.734	3264
311.758	3417
311.788	3221
311.842	2821
311.847	2773
311.896	3800
311.937	4688
311.950	4623
312.004	4270
312.027	4108
312.058	3609
312.112	2700
312.117	2604
312.165	2720
312.207	2809
312.297	3975
312.386	2718
312.476	2648
312.566	3740
312.656	2192
312.745	1717
312.835	1881
312.925	2655
313.015	2113
313.104	2298
313.194	2449
313.284	1926
313.374	2574
313.463	3075
313.553	2246
313.643	2458
313.732	1858
313.822	1631
313.912	2983
314.001	2972
314.091	3949
314.180	4098
314.270	3886
314.360	3850
314.449	3149
314.539	1971
314.628	2700
314.718	2977
314.808	3523
314.897	2805
314.987	3874
315.076	3209
315.166	3988
315.255	3653
315.345	4064
315.434	2750
315.524	3056
315.613	3814
315.703	3535
315.792	5991
315.881	17217
315.971	5604
316.060	6188
316.150	6157
316.239	6756
316.328	2861
316.418	2675
316.507	2855
316.597	3750
316.686	3514
316.775	4138
316.865	6895
316.954	2627
317.043	2680
317.133	2343
317.222	1871
317.311	1885
317.400	604
317.490	3405
317.579	2536
317.668	2907
317.757	3555
317.847	9473
317.936	28403
318.025	10311
318.114	7142
318.203	4716
318.293	4881
318.382	8674
318.471	7663
318.560	10617
318.649	22657
318.738	4977
318.828	3387
318.917	3321
319.006	3912
319.095	8246
319.184	26426
319.273	12867
319.362	6333
319.451	2088
319.540	2961
319.629	4855
319.718	7068
319.807	4005
319.896	8956
319.985	31548
320.074	10325
320.163	4089
320.252	5116
320.341	5432
320.430	5187
320.519	5438
320.608	3067
320.697	3738
320.786	3038
320.875	4468
320.964	4349
321.053	5827
321.142	7313
321.230	9409
321.319	7807
321.408	15274
321.497	8256
321.586	8126
321.675	7584
321.764	7728
321.852	5985
321.941	8902
322.030	5900
322.119	6985
322.207	15208
322.296	12333
322.385	8214
322.474	8952
322.562	19213
322.651	11075
322.740	7976
322.829	9093
322.917	8733
323.006	5867
323.095	5759
323.183	4168
323.272	5362
323.361	8857
323.449	25413
323.538	8841
323.626	17848
323.715	10660
323.804	5065
323.892	15858
323.981	8946
324.069	3580
324.158	10256
324.246	9039
324.335	3777
324.424	5780
324.512	3480
324.601	3813
324.689	6554
324.778	13344
324.866	5746
324.954	1815
325.043	2666
325.131	3481
325.220	7183
325.308	7772
325.397	6515
325.485	3929
325.574	2269
325.662	1587
325.750	1666
325.839	2418
325.927	1596
326.015	2685
326.104	3330
326.192	4897
326.280	2103
326.369	2176
326.457	2519
326.545	4470
326.634	2182
326.722	2362
326.810	1757
326.898	2479
326.987	2560
327.075	3887
327.163	4668
327.251	3166
327.340	5106
327.428	8086
327.516	3605
327.604	2544
327.692	1709
327.781	2133
327.869	3447
327.957	2151
328.045	2344
328.133	2423
328.221	1986
328.309	2082
328.397	1896
328.485	2587
328.574	3466
328.662	9673
328.750	6081
328.838	2647
328.926	1966
329.014	1902
329.102	2435
329.190	7450
329.278	4627
329.366	2026
329.454	2163
329.542	1822
329.630	1385
329.718	2064
329.806	2067
329.893	3524
329.981	1909
330.069	2102
330.157	4669
330.245	12702
330.333	6527
330.421	2369
330.509	3292
330.597	10037
330.684	6414
330.772	3533
330.860	4899
330.948	6295
331.036	2844
331.123	1932
331.211	1995
331.299	2621
331.387	5361
331.475	9485
331.562	2487
331.650	1643
331.738	1831
331.825	2993
331.913	2383
332.001	1195
332.089	2415
332.176	4499
332.264	8423
332.352	6230
332.439	3078
332.527	2040
332.614	1477
332.702	3011
332.790	1776
332.877	4157
332.965	8145
333.052	2413
333.140	2526
333.228	4351
333.315	2147
333.403	2270
333.490	5404
333.578	4202
333.665	5126
333.753	3892
333.840	1894
333.928	3654
334.015	6570
334.103	10552
334.190	33122
334.278	10227
334.365	6781
334.452	6183
334.540	4011
334.627	4151
334.715	5442
334.802	9454
334.889	34348
334.977	38423
335.064	11831
335.151	5876
335.239	3956
335.326	5288
335.413	17253
335.501	23435
335.588	4142
335.675	3728
335.762	5458
335.850	8742
335.937	8372
336.024	15836
336.111	49370
336.199	29197
336.286	9959
336.373	5271
336.460	3436
336.547	3414
336.635	3877
336.722	3257
336.809	2033
336.896	2763
336.983	10097
337.070	25958
337.157	34849
337.245	20765
337.332	13431
337.419	3649
337.506	2676
337.593	3307
337.680	8929
337.767	28076
337.854	6676
337.941	7868
338.028	6800
338.115	2821
338.202	4237
338.289	6211
338.376	19615
338.463	6843
338.550	15724
338.637	17127
338.724	4245
338.811	7182
338.898	2120
338.984	2105
339.071	2176
339.158	1986
339.245	5635
339.332	4256
339.419	4967
339.506	4642
339.593	1244
339.679	2392
339.766	1651
339.853	2409
339.940	4402
340.027	1529
340.113	1919
340.200	2603
340.287	1514
340.374	2210
340.460	2959
340.547	1580
340.634	2906
340.720	10790
340.807	5453
340.894	1808
340.980	1280
341.067	1858
341.154	1924
341.240	2010
341.327	5107
341.414	2899
341.500	1896
341.587	2265
341.674	1917
341.760	3855
341.847	3684
341.933	1756
342.020	916
342.106	1565
342.193	1379
342.279	2749
342.366	1968
342.452	3764
342.539	2446
342.625	4307
342.712	10125
342.798	4240
342.885	2220
342.971	767
343.058	1610
343.144	1592
343.230	1051
343.317	2227
343.403	1404
343.490	1890
343.576	1364
343.662	1691
343.749	1025
343.835	2081
343.921	3829
344.008	17471
344.094	39591
344.180	8589
344.267	3145
344.353	11923
344.439	12639
344.525	5601
344.612	4989
344.698	5014
344.784	2685
344.870	1840
344.957	1366
345.043	2728
345.129	1138
345.215	3743
345.301	2246
345.387	1561
345.474	1255
345.560	1391
345.646	1911
345.732	1529
345.818	1712
345.904	1568
345.990	1336
346.076	2300
346.162	2698
346.249	2114
346.335	1058
346.421	2362
346.507	4484
346.593	16773
346.679	3632
346.765	2433
346.851	2470
346.937	775
347.023	2432
347.108	1883
347.194	1140
347.280	1803
347.366	1906
347.452	7447
347.538	21142
347.624	16038
347.710	13133
347.796	2869
347.882	2189
347.967	1238
348.053	1846
348.139	1562
348.225	838
348.311	1330
348.397	724
348.482	2287
348.568	2062
348.654	1665
348.740	5841
348.825	4301
348.911	3937
348.997	9867
349.083	18213
349.168	3211
349.254	1973
349.340	1811
349.425	937
349.511	2130
349.597	2022
349.682	3089
349.768	12973
349.854	6023
349.939	2635
350.025	1241
350.110	2144
350.196	1448
350.282	556
350.367	2427
350.453	2118
350.538	2843
350.624	1190
350.709	2605
350.795	1696
350.880	864
350.966	2854
351.051	1948
351.137	1170
351.222	1996
351.308	3818
351.393	12005
351.479	2481
351.564	1050
351.649	1573
351.735	1851
351.820	1384
351.906	1980
351.991	1487
352.076	7157
352.162	10987
352.247	2305
352.332	1822
352.418	2613
352.503	4079
352.588	16871
352.673	11981
352.759	2806
352.844	1773
352.929	1620
353.014	2248
353.100	1794
353.185	2564
353.270	3711
353.355	4761
353.441	1858
353.526	1732
353.611	3426
353.696	3572
353.781	3443
353.866	870
353.952	2319
354.037	2373
354.122	7916
354.207	5927
354.292	2718
354.377	1500
354.462	1479
354.547	1474
354.632	2167
354.717	2830
354.802	1287
354.887	2372
354.972	1167
355.057	1474
355.142	895
355.227	2085
355.312	2164
355.397	3871
355.482	11047
355.567	5128
355.652	4739
355.737	4362
355.822	14619
355.907	11954
355.991	3562
356.076	956
356.161	1585
356.246	918
356.331	2052
356.416	2226
356.501	22603
356.585	21313
356.670	3345
356.755	3685
356.840	3551
356.924	14027
357.009	49541
357.094	19112
357.179	4346
357.263	2516
357.348	3052
357.433	4258
357.517	3216
357.602	2171
357.687	2135
357.771	2887
357.856	10098
357.941	6539
358.025	11197
358.110	47700
358.195	21234
358.279	4075
358.364	2923
358.448	8987
358.533	26593
358.617	18220
358.702	19440
358.787	6820
358.871	4712
358.956	3895
359.040	1941
359.125	1163
359.209	1844
359.294	4520
359.378	8572
359.462	3363
359.547	1809
359.631	2043
359.716	1631
359.800	1718
359.885	3690
359.969	1024
360.053	2913
360.138	1524
360.222	2969
360.306	4097
360.391	2832
360.475	5211
360.559	11877
360.644	10223
360.728	6336
360.812	11897
360.896	34281
360.981	14017
361.065	7551
361.149	2791
361.233	2429
361.318	1983
361.402	2227
361.486	3241
361.570	1762
361.654	1913
361.739	3857
361.823	20481
361.907	33323
361.991	6668
362.075	3619
362.159	8102
362.243	9058
362.327	14604
362.411	24904
362.495	9803
362.580	4735
362.664	3964
362.748	4264
362.832	5639
362.916	10904
363.000	39440
363.084	74062
363.168	52756
363.252	12748
363.336	6102
363.420	6683
363.503	23908
363.587	29526
363.671	5329
363.755	3844
363.839	5893
363.923	3400
364.007	6121
364.091	7472
364.175	11885
364.258	49386
364.342	54211
364.426	91951
364.510	47458
364.594	15497
364.677	10162
364.761	29542
364.845	21624
364.929	7405
365.013	6290
365.096	4900
365.180	5378
365.264	11025
365.347	39214
365.431	17132
365.515	3480
365.598	1818
365.682	3301
365.766	4603
365.849	6327
365.933	3383
366.017	4541
366.100	3745
366.184	1835
366.267	3118
366.351	1844
366.435	1872
366.518	837
366.602	1368
366.685	1361
366.769	2117
366.852	3954
366.936	6974
367.019	3331
367.103	2477
367.186	8102
367.270	3390
367.353	797
367.436	2434
367.520	797
367.603	1849
367.687	2483
367.770	4162
367.853	3092
367.937	10278
368.020	16302
368.104	2541
368.187	4265
368.270	5233
368.353	5823
368.437	5174
368.520	12777
368.603	7642
368.687	10216
368.770	20289
368.853	4680
368.936	6143
369.020	6118
369.103	2125
369.186	634
369.269	986
369.352	3601
369.436	4568
369.519	3101
369.602	949
369.685	2927
369.768	2363
369.851	1940
369.934	1685
370.018	1835
370.101	2731
370.184	4724
370.267	3147
370.350	3564
370.433	5693
370.516	14350
370.599	22322
370.682	5644
370.765	11625
370.848	13867
370.931	23801
371.014	10731
371.097	2106
371.180	2450
371.263	1430
371.346	227
371.429	2024
371.511	461
371.594	2414
371.677	4837
371.760	7008
371.843	4240
371.926	17375
372.009	40041
372.091	14536
372.174	7801
372.257	22591
372.340	7667
372.423	7698
372.505	11085
372.588	3919
372.671	7069
372.754	23175
372.836	12366
372.919	12263
373.002	23641
373.085	6219
373.167	4485
373.250	9588
373.332	21191
373.415	27443
373.498	54407
373.580	21359
373.663	30708
373.746	39884
373.828	9017
373.911	4536
373.993	3976
374.076	22490
374.159	21351
374.241	7417
374.324	20184
374.406	14700
374.489	15059
374.571	45728
374.654	18849
374.736	9064
374.819	28294
374.901	41179
374.983	40790
375.066	9159
375.148	4448
375.231	18040
375.313	36593
375.395	12972
375.478	4105
375.560	3397
375.643	3082
375.725	8978
375.807	35936
375.890	30001
375.972	11309
376.054	7407
376.136	10200
376.219	5225
376.301	11072
376.383	30740
376.465	11453
376.548	6645
376.630	8214
376.712	27414
376.794	12692
376.877	2257
376.959	1309
377.041	2212
377.123	4548
377.205	6574
377.287	581
377.369	2218
377.452	1458
377.534	1537
377.616	1443
377.698	1971
377.780	839
377.862	1501
377.944	2179
378.026	754
378.108	739
378.190	974
378.272	1522
378.354	1449
378.436	1242
378.518	2349
378.600	9647
378.682	7499
378.764	14111
378.846	12704
378.928	3225
379.010	3685
379.091	3023
379.173	1896
379.255	1270
379.337	2168
379.419	6805
379.501	20477
379.583	7738
379.664	2214
379.746	3720
379.828	14073
379.910	18856
379.991	17873
380.073	2728
380.155	2434
380.237	1028
380.318	1425
380.400	1110
380.482	3413
380.564	3640
380.645	3327
380.727	3534
380.809	3414
380.890	1089
380.972	651
381.053	1343
381.135	1315
381.217	3923
381.298	14831
381.380	7308
381.461	5227
381.543	25459
381.624	33009
381.706	5360
381.787	3415
381.869	3533
381.951	9806
382.032	40435
382.113	28425
382.195	4392
382.276	4675
382.358	7007
382.439	22103
382.521	25435
382.602	41090
382.684	17206
382.765	32633
382.846	28543
382.928	31036
383.009	15520
383.090	10796
383.172	42257
383.253	67608
383.334	25526
383.416	34243
383.497	17175
383.578	5958
383.659	9150
383.741	36332
383.822	101342
383.903	50794
383.984	21074
384.066	45194
384.147	28062
384.228	6377
384.309	4436
384.390	4265
384.471	2797
384.553	3532
384.634	2853
384.715	4586
384.796	2583
384.877	3259
384.958	13153
385.039	15044
385.120	6222
385.201	3996
385.282	4191
385.363	4208
385.444	2977
385.525	5819
385.606	17620
385.687	16930
385.768	5280
385.849	5128
385.930	19804
386.011	34671
386.092	9966
386.173	3797
386.254	3748
386.335	3998
386.416	3450
386.496	9183
386.577	15741
386.658	6476
386.739	3441
386.820	5017
386.901	3243
386.981	4235
387.062	2961
387.143	3946
387.224	14965
387.304	16758
387.385	7522
387.466	4265
387.547	7413
387.627	5098
387.708	7402
387.789	27339
387.869	31150
387.950	9529
388.031	3461
388.111	1478
388.192	7811
388.273	10625
388.353	6059
388.434	3216
388.514	5278
388.595	22130
388.676	27979
388.756	14132
388.837	14216
388.917	8629
388.998	1026
389.078	2925
389.159	2836
389.239	644
389.320	4665
389.400	1540
389.480	5791
389.561	16082
389.641	8512
389.722	3071
389.802	4258
389.883	7162
389.963	19148
390.043	12096
390.124	3491
390.204	5575
390.284	16075
390.365	10001
390.445	14021
390.525	26760
390.605	20354
390.686	7870
390.766	3470
390.846	3089
390.927	1265
391.007	1004
391.087	3702
391.167	2488
391.247	1159
391.328	4129
391.408	6656
391.488	4806
391.568	1100
391.648	2604
391.728	4641
391.808	4090
391.888	2825
391.969	9311
392.049	14631
392.129	8538
392.209	8718
392.289	19861
392.369	11185
392.449	13127
392.529	8100
392.609	6687
392.689	8097
392.769	19300
392.849	18639
392.929	16287
393.009	33613
393.089	28443
393.169	35734
393.248	96771
393.328	278625
393.408	298536
393.488	108453
393.568	35932
393.648	18523
393.728	11756
393.807	8409
393.887	8459
393.967	6675
394.047	6788
394.127	6707
394.206	10747
394.286	32591
394.366	127886
394.446	139070
394.525	36810
394.605	11252
394.685	8910
394.764	17079
394.844	29804
394.924	22495
395.003	6700
395.083	4468
395.163	4244
395.242	3114
395.322	4351
395.402	2389
395.481	5609
395.561	10393
395.640	33658
395.720	33487
395.799	36687
395.879	27234
395.958	16162
396.038	49023
396.117	164147
396.197	180305
396.276	65715
396.356	23578
396.435	18310
396.515	15227
396.594	15296
396.673	29449
396.753	96889
396.832	257372
396.912	200601
396.991	54668
397.070	19291
397.150	9281
397.229	8615
397.308	16010
397.388	31269
397.467	14134
397.546	5128
397.625	2076
397.705	4795
397.784	3700
397.863	2883
397.942	2067
398.022	2392
398.101	8887
398.180	27533
398.259	15056
398.338	4740
398.417	2629
398.497	1712
398.576	2604
398.655	694
398.734	2289
398.813	1957
398.892	8018
398.971	29211
399.050	14281
399.129	990
399.208	1591
399.287	1976
399.366	485
399.445	1375
399.524	1846
399.603	365
399.682	2332
399.761	7034
399.840	29576
399.919	23192
399.998	2898
400.077	519
400.156	668
400.235	3574
400.313	838
400.392	871
400.471	7287
400.550	12655
400.629	2238
400.708	1642
400.786	1624
400.865	6780
400.944	7024
401.023	4389
401.102	275
401.180	1102
401.259	1010
401.338	2118
401.416	2605
401.495	874
401.574	2113
401.652	608
401.731	2422
401.810	309
401.888	794
401.967	346
402.046	315
402.124	2227
402.203	1259
402.281	1947
402.360	1973
402.438	8523
402.517	4989
402.596	2244
402.674	1452
402.753	1147
402.831	1795
402.910	1960
402.988	3897
403.066	13827
403.145	9869
403.223	5390
403.302	11727
403.380	9255
403.459	8520
403.537	2970
403.615	1456
403.694	-276
403.772	1502
403.850	643
403.929	655
404.007	1398
404.085	2424
404.164	1718
404.242	1378
404.320	7069
404.398	20601
404.477	21384
404.555	36711
404.633	32942
404.711	17162
404.789	11230
404.868	2071
404.946	1041
405.024	702
405.102	646
405.180	-28
405.258	-211
405.336	1363
405.415	-18
405.493	2626
405.571	2271
405.649	503
405.727	160
405.805	2435
405.883	1729
405.961	2278
406.039	2027
406.117	-247
406.195	2326
406.273	5906
406.351	30477
406.429	19074
406.507	3637
406.585	889
406.663	1619
406.740	2112
406.818	1013
406.896	487
406.974	1829
407.052	1063
407.130	16844
407.208	25337
407.285	5590
407.363	149
407.441	526
407.519	550
407.596	1588
407.674	6608
407.752	34630
407.830	28620
407.907	6724
407.985	615
408.063	1372
408.141	654
408.218	2993
408.296	1482
408.373	509
408.451	1929
408.529	708
408.606	542
408.684	331
408.762	916
408.839	667
408.917	786
408.994	1529
409.072	103
409.149	1281
409.227	3892
409.304	4909
409.382	3824
409.459	5182
409.537	8356
409.614	6430
409.692	5025
409.769	4516
409.846	8160
409.924	10694
410.001	5682
410.079	4055
410.156	4264
410.233	2120
410.311	1857
410.388	1578
410.465	1578
410.543	1257
410.620	1301
410.697	1849
410.775	1456
410.852	-205
410.929	2535
411.006	2778
411.083	1457
411.161	2364
411.238	3891
411.315	2852
411.392	821
411.469	1516
411.547	1546
411.624	-469
411.701	1220
411.778	1165
411.855	1376
411.932	512
412.009	86
412.086	952
412.163	1554
412.240	1160
412.317	1727
412.394	977
412.471	221
412.548	706
412.625	-312
412.702	1008
412.779	1774
412.856	2201
412.933	485
413.010	-203
413.087	975
413.164	6231
413.241	8850
413.318	1648
413.395	1576
413.471	1589
413.548	1075
413.625	856
413.702	533
413.779	328
413.855	854
413.932	148
414.009	-507
414.086	-37
414.162	755
414.239	1717
414.316	6585
414.393	15559
414.469	4922
414.546	687
414.623	-21
414.699	325
414.776	820
414.853	-506
414.929	1097
415.006	745
415.082	1039
415.159	167
415.236	-305
415.312	796
415.389	1570
415.465	1147
415.542	380
415.618	-141
415.695	1529
415.771	285
415.848	807
415.924	964
416.000	602
416.077	808
416.153	-267
416.230	-602
416.306	-18
416.383	595
416.459	195
416.535	-195
416.612	-340
416.688	911
416.764	265
416.841	-588
416.917	304
416.993	69
417.069	1457
417.146	1128
417.222	1748
417.298	359
417.374	-386
417.451	625
417.527	520
417.603	465
417.679	511
417.755	927
417.831	-987
417.908	508
417.984	-272
418.060	-942
418.136	1317
418.212	2611
418.288	1249
418.364	664
418.440	600
418.516	1388
418.592	2383
418.668	2662
418.744	4349
418.820	3252
418.896	701
418.972	-176
419.048	634
419.124	2577
419.200	419
419.276	719
419.352	-326
419.428	-201
419.504	222
419.579	359
419.655	519
419.731	593
419.807	2743
419.883	4765
419.959	2653
420.034	1257
420.110	2229
420.186	9495
420.262	7983
420.337	2360
420.413	1421
420.489	1031
420.565	1839
420.640	1283
420.716	1556
420.792	400
420.867	1295
420.943	837
421.019	2115
421.094	1934
421.170	1889
421.245	1273
421.321	2212
421.397	2851
421.472	7826
421.548	22628
421.623	14392
421.699	4600
421.774	4118
421.850	4576
421.925	7244
422.001	7111
422.076	8508
422.152	9876
422.227	14829
422.302	21350
422.378	30611
422.453	53589
422.529	101418
422.604	161531
422.679	161291
422.755	165629
422.830	114592
422.905	60286
422.981	36032
423.056	23922
423.131	17115
423.207	12054
423.282	10283
423.357	9998
423.432	7522
423.508	6520
423.583	7512
423.658	6785
423.733	4844
423.808	4524
423.883	4388
423.959	4810
424.034	4451
424.109	4642
424.184	1508
424.259	2176
424.334	1608
424.409	1593
424.484	1339
424.559	1395
424.634	947
424.709	1426
424.784	2071
424.859	1612
424.934	1639
425.009	5893
425.084	12124
425.159	4531
425.234	1892
425.309	527
425.384	3698
425.459	3988
425.534	2043
425.609	720
425.683	275
425.758	604
425.833	1416
425.908	1653
425.983	2562
426.058	11143
426.132	4639
426.207	673
426.282	2960
426.357	1855
426.431	992
426.506	597
426.581	245
426.655	580
426.730	-86
426.805	-140
426.879	1741
426.954	1143
427.029	1623
427.103	10466
427.178	25734
427.253	11354
427.327	1397
427.402	1433
427.476	6520
427.551	2726
427.625	1414
427.700	1191
427.774	-186
427.849	647
427.923	-351
427.998	-196
428.072	285
428.147	4221
428.221	16334
428.296	55682
428.370	30919
428.444	4095
428.519	3397
428.593	6387
428.667	6377
428.742	7413
428.816	8749
428.890	35325
428.965	57373
429.039	16321
429.113	8524
429.188	3493
429.262	659
429.336	2033
429.410	4728
429.485	4435
429.559	5636
429.633	4086
429.707	1094
429.781	5660
429.855	37050
429.930	55937
430.004	22718
430.078	30321
430.152	32477
430.226	67680
430.300	71842
430.374	12580
430.448	3954
430.522	8706
430.596	26904
430.670	20082
430.744	48213
430.818	63430
430.892	11544
430.966	2055
431.040	1047
431.114	148
431.188	-281
431.262	922
431.336	-111
431.410	2708
431.484	6938
431.557	4559
431.631	542
431.705	2825
431.779	10676
431.853	50616
431.927	35809
432.000	4907
432.074	604
432.148	1388
432.222	894
432.295	128
432.369	33
432.443	534
432.516	9508
432.590	25500
432.664	9349
432.737	564
432.811	-366
432.885	135
432.958	817
433.032	-631
433.106	-404
433.179	402
433.253	-962
433.326	-825
433.400	-601
433.473	80
433.547	-730
433.620	27
433.694	478
433.767	1123
433.841	-631
433.914	394
433.988	1
434.061	424
434.134	-388
434.208	-87
434.281	-429
434.355	214
434.428	216
434.501	-126
434.575	-83
434.648	-469
434.721	-359
434.795	563
434.868	-1075
434.941	-95
435.014	-267
435.088	266
435.161	-15
435.234	1214
435.307	1408
435.381	849
435.454	1334
435.527	4062
435.600	3914
435.673	3733
435.746	1492
435.819	1644
435.892	741
435.966	18
436.039	277
436.112	527
436.185	-409
436.258	-509
436.331	-901
436.404	-14
436.477	-310
436.550	-112
436.623	-268
436.696	-7
436.769	-258
436.842	265
436.915	-158
436.987	1252
437.060	220
437.133	-264
437.206	-1267
437.279	839
437.352	-732
437.425	-104
437.498	-174
437.570	1012
437.643	505
437.716	680
437.789	-661
437.861	214
437.934	2278
438.007	1297
438.080	-1345
438.152	-217
438.225	1236
438.298	12825
438.370	35788
438.443	14093
438.516	2315
438.588	718
438.661	-15
438.734	-398
438.806	-405
438.879	805
438.951	-72
439.024	1553
439.096	-509
439.169	-388
439.241	-315
439.314	-284
439.386	721
439.459	1487
439.531	1054
439.604	-384
439.676	121
439.749	-821
439.821	-371
439.893	-144
439.966	323
440.038	881
440.110	252
440.183	94
440.255	-602
440.327	1085
440.400	4389
440.472	23352
440.544	14896
440.617	1216
440.689	1706
440.761	900
440.833	2646
440.905	1323
440.978	-717
441.050	-248
441.122	610
441.194	-95
441.266	-320
441.338	-453
441.411	463
441.483	6919
441.555	10166
441.627	2348
441.699	1814
441.771	871
441.843	895
441.915	77
441.987	-301
442.059	500
442.131	411
442.203	1317
442.275	2522
442.347	3132
442.419	6344
442.491	35031
442.563	84709
442.635	36888
442.706	11507
442.778	6750
442.850	1488
442.922	1031
442.994	1868
443.066	1903
443.137	1895
443.209	3221
443.281	4395
443.353	10707
443.425	39775
443.496	129179
443.568	136790
443.640	56067
443.711	11370
443.783	4502
443.855	2482
443.926	1819
443.998	1719
444.070	2377
444.141	1239
444.213	2038
444.285	1896
444.356	1625
444.428	1636
444.499	1058
444.571	878
444.642	1233
444.714	478
444.785	1525
444.857	3088
444.928	5954
445.000	4092
445.071	5092
445.143	6695
445.214	4854
445.285	9149
445.357	26254
445.428	81747
445.500	166023
445.571	123549
445.642	80383
445.714	28352
445.785	15957
445.856	4261
445.928	3506
445.999	1988
446.070	1432
446.141	2179
446.213	1839
446.284	1564
446.355	2311
446.426	1163
446.497	662
446.569	1127
446.640	1198
446.711	1539
446.782	-142
446.853	1347
446.924	701
446.995	-119
447.066	1182
447.138	1753
447.209	1056
447.280	-301
447.351	294
447.422	-384
447.493	592
447.564	617
447.635	629
447.706	243
447.777	-23
447.847	-498
447.918	-1052
447.989	548
448.060	844
448.131	3346
448.202	3037
448.273	1125
448.344	1297
448.414	249
448.485	158
448.556	-23
448.627	139
448.698	1132
448.768	-585
448.839	29
448.910	917
448.981	1162
449.051	-29
449.122	105
449.193	-217
449.263	-211
449.334	-402
449.405	445
449.475	1265
449.546	1161
449.616	2132
449.687	1184
449.758	281
449.828	-529
449.899	251
449.969	-900
450.040	209
450.110	64
450.181	672
450.251	-384
450.322	136
450.392	394
450.463	1091
450.533	-1445
450.604	40
450.674	-1002
450.744	-7
450.815	312
450.885	759
450.955	282
451.026	170
451.096	211
451.166	837
451.237	2205
451.307	7078
451.377	2611
451.447	1017
451.518	539
451.588	-50
451.658	309
451.728	1494
451.799	6083
451.869	8438
451.939	1188
452.009	975
452.079	-259
452.149	1178
452.219	1579
452.289	8058
452.360	5414
452.430	1991
452.500	1045
452.570	1688
452.640	4970
452.710	11843
452.780	16531
452.850	9011
452.920	4924
452.990	2642
453.060	1661
453.129	1197
453.199	1030
453.269	8729
453.339	18222
453.409	27763
453.479	26870
453.549	40964
453.619	45019
453.688	17422
453.758	2392
453.828	1349
453.898	1088
453.968	942
454.037	1107
454.087	679
454.107	496
454.168	24
454.177	-59
454.247	939
454.249	941
454.316	707
454.330	763
454.386	909
454.411	2099
454.456	3916
454.492	5213
454.525	6401
454.574	3375
454.595	2055
454.655	431
454.665	179
454.734	349
454.736	416
454.804	1918
454.817	3064
454.873	7300
454.898	7761
454.943	8549
454.979	5120
455.013	2071
455.060	1148
455.082	857
455.141	2072
455.152	2259
455.221	6580
455.222	6685
455.291	10856
455.303	10577
455.360	9098
455.384	12265
455.430	17058
455.465	12933
455.499	9203
455.546	8138
455.569	7484
455.627	4687
455.638	4268
455.707	1554
455.708	1561
455.777	311
455.789	447
455.846	1153
455.869	775
455.916	-64
455.950	303
455.985	579
456.031	507
456.054	500
456.112	197
456.124	149
456.193	-55
456.193	-68
456.262	585
456.274	773
456.332	1672
456.355	1449
456.401	701
456.436	956
456.470	1287
456.516	602
456.540	220
456.597	237
456.609	258
456.678	1031
456.678	1024
456.747	861
456.759	734
456.817	373
456.840	572
456.886	651
456.920	583
456.955	694
457.001	813
457.024	860
457.082	1342
457.093	1434
457.162	1856
457.163	1871
457.232	2384
457.243	2239
457.301	1459
457.324	1327
457.370	1334
457.405	1461
457.439	1589
457.485	1408
457.508	1224
457.566	2010
457.577	2321
457.646	3663
457.647	3688
457.715	6472
457.727	7306
457.784	12770
457.808	16790
457.853	21225
457.889	24847
457.922	25092
457.969	17438
457.991	17806
458.050	20777
458.060	21346
458.129	36273
458.130	36746
458.198	36888
458.211	33031
458.267	19119
458.292	13619
458.336	9147
458.372	8205
458.405	10470
458.453	15680
458.474	19628
458.533	35693
458.543	36829
458.611	58138
458.614	58460
458.680	37811
458.694	29798
458.749	13913
458.775	10396
458.818	6357
458.855	4645
458.887	3635
458.936	2945
458.955	2589
459.016	1950
459.024	1920
459.093	1941
459.097	1969
459.162	1984
459.177	2026
459.230	2547
459.257	2621
459.299	2451
459.338	2458
459.368	2506
459.418	2391
459.437	2274
459.499	2478
459.505	2534
459.574	2084
459.579	2118
459.643	2088
459.659	2024
459.711	2383
459.740	2625
459.780	2486
459.820	2333
459.849	2402
459.900	2473
459.917	2417
459.981	2298
459.986	2291
460.054	2257
460.061	2271
460.123	2576
460.141	2640
460.191	2989
460.222	3155
460.260	3084
460.302	3289
460.328	3536
460.382	3886
460.397	3904
460.462	3618
460.465	3803
460.534	8472
460.543	9129
460.602	24939
460.623	31200
460.671	49034
460.703	66207
460.739	59931
460.783	46070
460.808	40144
460.864	11694
460.876	8951
460.944	3258
460.945	3196
461.013	2989
461.024	2848
461.081	2241
461.104	2382
461.150	2732
461.184	2507
461.218	2153
461.264	2194
461.286	2460
461.345	2749
461.355	2666
461.423	2308
461.425	2297
461.491	2782
461.505	3031
461.559	5245
461.585	5975
461.628	8183
461.665	10625
461.696	11204
461.745	13389
461.764	12209
461.825	4946
461.832	4772
461.901	3084
461.905	3058
461.969	2545
461.985	2552
462.037	3247
462.065	3395
462.105	3029
462.145	3003
462.173	4208
462.225	6228
462.241	6741
462.305	9211
462.310	8973
462.378	5592
462.385	4983
462.446	3503
462.465	3347
462.514	2856
462.545	2637
462.582	2552
462.625	2463
462.650	2406
462.705	1948
462.718	2140
462.785	3654
462.786	3670
462.854	4132
462.865	4277
462.922	5151
462.945	5528
462.990	4507
463.025	3521
463.058	3446
463.104	3188
463.126	2838
463.184	1937
463.194	2076
463.262	2928
463.264	2974
463.330	2696
463.344	2543
463.398	2915
463.424	3182
463.466	2737
463.504	2468
463.533	2904
463.583	3107
463.601	2996
463.663	2839
463.669	2946
463.737	4607
463.743	4734
463.805	6737
463.823	7348
463.873	11147
463.903	13443
463.940	13532
463.982	14130
464.008	11688
464.062	5268
464.076	5007
464.142	3488
464.144	3465
464.211	2841
464.221	2851
464.279	2860
464.301	2698
464.347	3162
464.381	3659
464.414	4050
464.461	4588
464.482	4747
464.540	5077
464.550	4881
464.617	3462
464.620	3410
464.685	4281
464.699	4458
464.753	5334
464.779	5778
464.820	6356
464.859	6980
464.888	6637
464.938	5926
464.956	6204
465.018	6874
465.023	6713
465.091	4785
465.098	4581
465.158	5037
465.177	5141
465.226	5107
465.257	5098
465.293	5223
465.336	5319
465.361	5472
465.416	5810
465.428	6329
465.495	9355
465.496	9394
465.563	13142
465.575	13829
465.631	17485
465.654	19151
465.698	12103
465.734	5682
465.765	5316
465.813	4837
465.833	4768
465.893	4912
465.900	4910
465.968	4762
465.972	4741
466.035	4815
466.052	4870
466.102	4904
466.131	4815
466.170	4804
466.210	4863
466.237	4938
466.290	5089
466.304	4980
466.369	4336
466.372	4381
466.439	5600
466.449	5759
466.506	5503
466.528	5423
466.573	8304
466.607	10377
466.641	13787
466.687	18585
466.708	20448
466.766	25620
466.775	23605
466.842	8043
466.845	7290
466.909	6073
466.925	5820
466.977	5348
467.004	5116
467.044	5632
467.083	6142
467.111	6890
467.163	8261
467.178	8513
467.242	9513
467.245	9470
467.312	8296
467.321	8129
467.379	8484
467.400	8595
467.446	8782
467.480	8894
467.559	7597
467.638	7613
467.717	6823
467.796	7497
467.875	8655
467.955	7791
468.034	12207
468.113	25188
468.192	34804
468.271	11559
468.350	11341
468.429	13718
468.508	15658
468.588	9563
468.667	8740
468.746	8186
468.825	7604
468.904	6425
468.983	8373
469.062	10201
469.141	12097
469.220	5490
469.299	6782
469.378	6761
469.456	9248
469.535	7714
469.614	8031
469.693	6504
469.772	10387
469.851	11681
469.930	8760
470.009	6646
470.088	7166
470.166	6870
470.245	7620
470.324	7338
470.403	6727
470.482	6326
470.560	7280
470.639	7145
470.718	6936
470.797	6373
470.875	7609
470.954	9225
471.033	9774
471.111	5420
471.190	5581
471.269	5586
471.347	5261
471.426	6276
471.505	7888
471.583	7622
471.662	7419
471.740	6583
471.819	6448
471.898	6486
471.976	7119
472.055	5318
472.133	7710
472.212	10496
472.290	9025
472.369	5566
472.447	7225
472.526	5101
472.604	6509
472.683	6009
472.761	6188
472.839	5663
472.918	6675
472.996	5556
473.075	7288
473.153	6187
473.231	6255
473.310	5795
473.388	6936
473.466	5793
473.545	7137
473.623	8443
473.701	7195
473.780	6618
473.858	5247
473.936	7391
474.014	6720
474.093	7430
474.171	10136
474.249	11996
474.327	7696
474.405	5198
474.484	5532
474.562	5356
474.640	4529
474.718	4838
474.796	5892
474.874	6008
474.952	4200
475.030	4419
475.108	5348
475.187	5312
475.265	5305
475.343	6587
475.421	6619
475.499	5353
475.577	5847
475.655	7508
475.733	12469
475.811	20435
475.889	18380
475.966	13070
476.044	6113
476.122	5454
476.200	7287
476.278	5462
476.356	5014
476.434	5204
476.512	5587
476.590	6425
476.667	6881
476.745	5327
476.823	5749
476.901	5372
476.979	5715
477.056	5481
477.134	5372
477.212	5980
477.290	5533
477.367	4795
477.445	4475
477.523	4568
477.601	5705
477.678	5493
477.756	6317
477.834	6108
477.911	4034
477.989	4915
478.066	5245
478.144	6831
478.222	5402
478.299	6193
478.377	6330
478.454	5720
478.532	4647
478.609	3793
478.687	4971
478.764	4444
478.842	5799
478.919	4733
478.997	4885
479.074	4867
479.152	5144
479.229	6837
479.307	4919
479.384	4066
479.461	5030
479.539	4301
479.616	6074
479.694	3926
479.771	6262
479.848	5435
479.926	6002
480.003	7574
480.080	4488
480.157	3992
480.235	4501
480.312	5147
480.389	4470
480.467	7303
480.544	10071
480.621	5390
480.698	5738
480.775	6328
480.853	6260
480.930	4792
481.007	6193
481.084	8866
481.161	12006
481.238	7734
481.315	5235
481.392	4016
481.470	4920
481.547	5161
481.624	4727
481.701	4472
481.778	5208
481.855	5616
481.932	7698
482.009	11283
482.086	8885
482.163	5544
482.240	6927
482.317	7946
482.393	6604
482.470	5385
482.547	5835
482.624	5282
482.701	5538
482.778	4886
482.855	3995
482.932	4659
483.009	5600
483.085	6666
483.162	9071
483.239	8096
483.316	6756
483.393	6764
483.469	5548
483.546	5325
483.623	5739
483.699	5629
483.776	5264
483.853	4432
483.930	8537
484.006	18153
484.083	30329
484.160	17144
484.236	27578
484.313	19454
484.389	15910
484.466	14867
484.543	14006
484.619	15295
484.696	17087
484.772	15051
484.849	14837
484.925	12686
485.002	12725
485.078	12681
485.155	12639
485.231	11161
485.308	11644
485.384	12653
485.461	15152
485.537	20559
485.614	22203
485.690	11715
485.766	11024
485.843	11785
485.919	12266
485.995	12201
486.072	10959
486.148	10613
486.224	10837
486.301	10795
486.377	11615
486.453	10827
486.530	12495
486.606	15739
486.682	17519
486.758	18730
486.835	20980
486.911	16862
486.987	25956
487.063	21174
487.139	23290
487.215	21059
487.292	16389
487.368	13181
487.444	16134
487.520	19786
487.596	25316
487.672	44871
487.748	124905
487.824	175721
487.900	52305
487.976	20864
488.052	15523
488.128	14430
488.204	12571
488.280	11676
488.356	13519
488.432	22681
488.508	32046
488.584	11495
488.660	9303
488.736	9390
488.812	10027
488.888	12039
488.964	12812
489.039	19603
489.115	28516
489.191	18035
489.267	9738
489.343	9563
489.418	9344
489.494	7251
489.570	7621
489.646	9629
489.722	9337
489.797	9219
489.873	14038
489.949	24331
490.024	19238
490.100	7938
490.176	8881
490.251	9102
490.327	10099
490.403	7270
490.478	7249
490.554	6664
490.629	7309
490.705	6312
490.781	8452
490.856	6119
490.932	8444
491.007	7181
491.083	7492
491.158	6853
491.234	10393
491.309	19391
491.385	16745
491.460	7184
491.536	7682
491.611	6126
491.686	6796
491.762	8550
491.837	12455
491.913	19366
491.988	26772
492.063	28771
492.139	13268
492.214	10003
492.289	7286
492.365	4423
492.440	7125
492.515	5892
492.590	7551
492.666	5689
492.741	7828
492.816	10439
492.891	6495
492.967	6381
493.042	5879
493.117	5705
493.192	6372
493.267	11449
493.342	32013
493.418	39744
493.493	6874
493.568	4950
493.643	5269
493.718	6900
493.793	9031
493.868	7711
493.943	5710
494.018	5177
494.093	4501
494.168	5546
494.243	4347
494.318	4820
494.393	5777
494.468	3766
494.543	4763
494.618	4373
494.693	5219
494.768	4686
494.842	5218
494.917	3760
494.992	4713
495.067	4258
495.142	3754
495.217	4459
495.292	5162
495.366	5288
495.441	5764
495.516	7312
495.591	9487
495.665	22174
495.740	46989
495.815	18260
495.890	5827
495.964	3983
496.039	8174
496.114	6675
496.188	11632
496.263	9786
496.338	5594
496.412	5633
496.487	8066
496.561	6603
496.636	6758
496.710	6046
496.785	6249
496.860	7348
496.934	4469
497.009	6166
497.083	5424
497.158	5062
497.232	6914
497.307	7352
497.381	5998
497.455	7361
497.530	10038
497.604	7068
497.679	7477
497.753	11252
497.827	12130
497.902	8950
497.976	13954
498.050	40975
498.125	148813
498.199	127527
498.273	13866
498.348	8120
498.422	8173
498.496	6544
498.570	7578
498.645	6657
498.719	6637
498.793	9065
498.867	13957
498.941	20076
499.016	62469
499.090	156657
499.164	43421
499.238	8080
499.312	6559
499.386	7256
499.460	7547
499.534	6609
499.609	8479
499.683	11879
499.757	11942
499.831	29461
499.905	108558
499.979	86147
500.053	14651
500.127	12516
500.201	8203
500.275	6174
500.349	6632
500.422	6979
500.496	9843
500.570	18851
500.644	59315
500.718	104062
500.792	20200
500.866	7589
500.940	9613
501.013	7905
501.087	8016
501.161	11262
501.235	14268
501.309	36986
501.382	99632
501.456	72346
501.530	18170
501.603	30737
501.677	11823
501.751	3940
501.825	9115
501.898	14993
501.972	39537
502.046	20300
502.119	6970
502.193	17725
502.266	42077
502.340	17395
502.413	19758
502.487	34896
502.561	18254
502.634	6019
502.708	5094
502.781	3797
502.855	4858
502.928	4370
503.002	4355
503.075	3798
503.149	4373
503.222	4611
503.295	5494
503.369	6584
503.442	9463
503.516	30362
503.589	71462
503.662	41433
503.736	15706
503.809	35606
503.882	28102
503.956	46667
504.029	46918
504.102	65731
504.175	90204
504.249	28517
504.322	13953
504.395	8081
504.468	7130
504.542	4886
504.615	4091
504.688	4278
504.761	2924
504.834	5606
504.907	5279
504.980	5917
505.053	3937
505.127	3076
505.200	7657
505.273	5690
505.346	4311
505.419	2812
505.492	4298
505.565	2363
505.638	3313
505.711	2283
505.784	2260
505.857	1913
505.930	4065
506.003	1891
506.076	5212
506.149	5111
506.221	4309
506.294	6960
506.367	16217
506.440	52219
506.513	22686
506.586	7329
506.659	3582
506.731	3087
506.804	3723
506.877	3611
506.950	4650
507.022	3549
507.095	2999
507.168	4720
507.241	4326
507.313	2231
507.386	2432
507.459	4376
507.531	2901
507.604	1677
507.677	3754
507.749	1184
507.822	4459
507.894	6842
507.967	10607
508.040	5782
508.112	5625
508.185	5198
508.257	3224
508.330	6609
508.402	4535
508.475	5265
508.547	5036
508.620	4902
508.692	8487
508.765	4968
508.837	4530
508.909	3922
508.982	4515
509.054	4842
509.127	3691
509.199	3319
509.271	3277
509.344	3151
509.416	4207
509.488	3402
509.560	4728
509.633	2979
509.705	4340
509.777	3737
509.849	5661
509.922	4038
509.994	4204
510.066	4777
510.138	4954
510.210	11767
510.283	8719
510.355	7302
510.427	6565
510.499	6093
510.571	5486
510.643	5002
510.715	7596
510.787	5640
510.859	6632
510.931	5504
511.003	8443
511.076	6693
511.148	3478
511.219	4538
511.291	9555
511.363	9233
511.435	5397
511.507	4468
511.579	5958
511.651	5746
511.723	4913
511.795	5295
511.867	4405
511.939	5520
512.010	10179
512.082	8772
512.154	3929
512.226	5067
512.298	8436
512.369	9742
512.441	7713
512.513	7194
512.585	4444
512.656	7213
512.728	5015
512.800	4859
512.871	5697
512.943	4521
513.015	4258
513.086	5709
513.158	4812
513.230	3891
513.301	6618
513.373	6503
513.444	5040
513.516	3855
513.588	4767
513.659	4869
513.731	5948
513.802	3676
513.874	9569
513.945	10643
514.016	4355
514.088	4958
514.159	3987
514.231	7128
514.302	8658
514.374	8099
514.445	5931
514.516	13544
514.588	7962
514.659	7082
514.730	9900
514.802	7337
514.873	3598
514.944	6915
515.016	6220
515.087	5083
515.158	7191
515.229	9637
515.301	4678
515.372	5335
515.443	5007
515.514	4571
515.585	4296
515.656	5391
515.728	5373
515.799	3405
515.870	4777
515.941	4430
516.012	4190
516.083	7648
516.154	7110
516.225	7441
516.296	7965
516.367	6225
516.438	6557
516.509	6363
516.580	9942
516.651	23907
516.722	67457
516.793	29475
516.864	10022
516.935	9166
517.006	11001
517.077	12207
517.148	25542
517.219	75046
517.289	102881
517.360	56221
517.431	18423
517.502	5927
517.573	7358
517.643	7433
517.714	8435
517.785	7139
517.856	7324
517.926	9121
517.997	9249
518.068	9148
518.138	12482
518.209	16472
518.280	54769
518.350	170693
518.421	54226
518.492	13769
518.562	13225
518.633	15483
518.703	19473
518.774	44071
518.845	115467
518.915	97203
518.986	26142
519.056	14608
519.127	16674
519.197	22380
519.268	56959
519.338	32299
519.408	9220
519.479	9188
519.549	7389
519.620	7136
519.690	5018
519.760	5243
519.831	5568
519.901	5397
519.971	5423
520.042	5424
520.112	5669
520.182	6219
520.253	7555
520.323	4732
520.393	5679
520.463	8840
520.534	4996
520.604	12195
520.674	7530
520.744	6032
520.814	11364
520.885	11895
520.955	20397
521.025	67363
521.095	21377
521.165	6706
521.235	5197
521.305	4038
521.375	5215
521.445	5745
521.515	5159
521.585	6726
521.655	3783
521.725	6266
521.795	5878
521.865	1815
521.935	9671
522.005	5227
522.075	4687
522.145	5616
522.215	5131
522.285	7032
522.355	9408
522.424	16837
522.494	12854
522.564	6087
522.634	10143
522.704	25145
522.774	9165
522.843	4551
522.913	5158
522.983	4062
523.053	3778
523.122	4601
523.192	5421
523.262	12629
523.331	11721
523.401	4488
523.471	4316
523.540	4093
523.610	2921
523.680	3899
523.749	4489
523.819	6517
523.888	5247
523.958	3082
524.027	4817
524.097	4087
524.166	3209
524.236	2991
524.305	5209
524.375	3416
524.444	3838
524.514	6103
524.583	5034
524.653	4439
524.722	6234
524.791	3693
524.861	5439
524.930	2655
524.999	4444
525.069	5422
525.138	5254
525.207	4969
525.277	4549
525.346	4590
525.415	5617
525.484	5753
525.554	6633
525.623	8014
525.692	10256
525.761	8918
525.830	11301
525.900	11553
525.969	21350
526.038	36804
526.107	81089
526.176	221327
526.245	156144
526.314	48879
526.383	114825
526.452	141541
526.522	238238
526.591	190745
526.660	34628
526.729	19793
526.797	24390
526.867	43222
526.935	157309
527.004	408488
527.073	201968
527.142	22735
527.211	11274
527.280	8857
527.349	7628
527.418	4499
527.487	5913
527.555	4319
527.624	4545
527.693	2591
527.762	4809
527.831	2572
527.899	4841
527.968	3553
528.037	2658
528.106	4644
528.174	6388
528.243	5581
528.312	7460
528.380	6976
528.449	3787
528.518	4450
528.586	2307
528.655	4554
528.723	3379
528.792	3225
528.861	3440
528.929	1821
528.998	3925
529.066	3549
529.135	6111
529.203	4856
529.272	5851
529.340	7731
529.409	8601
529.477	6096
529.545	7351
529.614	9705
529.682	7806
529.751	9867
529.819	12705
529.887	10792
529.956	9179
530.024	9158
530.092	7422
530.161	8773
530.229	9440
530.297	9146
530.365	10075
530.434	9670
530.502	10093
530.570	8473
530.638	6863
530.707	7795
530.775	8573
530.843	7014
530.911	8730
530.979	8171
531.047	9827
531.115	9364
531.183	8685
531.252	8436
531.320	7427
531.388	6738
531.456	8503
531.524	7233
531.592	9859
531.660	11268
531.728	9167
531.796	8328
531.864	9575
531.932	9228
532.000	9188
532.067	9240
532.135	10376
532.203	12236
532.271	11341
532.339	13363
532.407	18500
532.475	14076
532.542	11768
532.610	12470
532.678	12871
532.746	30115
532.814	56394
532.881	19613
532.949	11430
533.017	9684
533.084	10012
533.152	8465
533.220	8905
533.287	9823
533.355	10104
533.423	10641
533.490	8943
533.558	10167
533.625	10269
533.693	9176
533.761	9698
533.828	10665
533.896	8493
533.963	12767
534.031	13670
534.098	15438
534.166	12036
534.233	10383
534.300	11327
534.368	11548
534.435	10356
534.503	10518
534.570	11254
534.637	11657
534.705	13836
534.772	14921
534.840	26910
534.907	104946
534.974	109801
535.041	15453
535.109	10171
535.176	8577
535.243	8858
535.310	8140
535.378	7260
535.445	7649
535.512	7216
535.579	7723
535.646	7034
535.714	8269
535.781	9418
535.848	9384
535.915	9964
535.982	8223
536.049	9627
536.116	9267
536.183	7857
536.250	7531
536.317	7236
536.384	7632
536.451	9335
536.518	9407
536.585	6446
536.652	9078
536.719	10848
536.786	7119
536.853	7398
536.920	9753
536.987	10953
537.053	9799
537.120	30348
537.187	23853
537.254	8158
537.321	6558
537.388	8468
537.454	5299
537.521	7504
537.588	6605
537.654	8605
537.721	7276
537.788	8072
537.855	6379
537.921	6201
537.988	6853
538.055	6837
538.121	4995
538.188	6132
538.254	6629
538.321	9769
538.388	7655
538.454	7157
538.521	7449
538.587	7210
538.654	6252
538.720	6098
538.787	6570
538.853	6806
538.920	6059
538.986	7295
539.053	5997
539.119	6309
539.185	5624
539.252	7682
539.318	6860
539.385	8960
539.451	6141
539.517	7765
539.583	8178
539.650	11772
539.716	21916
539.782	8595
539.849	5191
539.915	7177
539.981	5970
540.047	6332
540.114	7001
540.180	7750
540.246	4970
540.312	7239
540.378	9117
540.444	11306
540.510	10971
540.576	22937
540.643	9431
540.709	5630
540.775	5513
540.841	5861
540.907	8021
540.973	10140
541.039	8230
541.105	9118
541.171	5303
541.237	6366
541.303	7597
541.369	9132
541.435	7659
541.500	8942
541.566	5568
541.632	4557
541.698	6176
541.764	7407
541.830	4949
541.896	5387
541.961	5872
542.027	5217
542.093	5603
542.159	6316
542.224	5648
542.290	8327
542.356	8387
542.421	9136
542.487	6785
542.553	5550
542.618	7037
542.684	5303
542.750	5187
542.815	7456
542.881	8563
542.947	22628
543.012	17332
543.078	6549
543.143	4996
543.209	6766
543.274	5406
543.340	7506
543.405	10423
543.471	13151
543.536	6934
543.602	6433
543.667	4955
543.732	7705
543.798	4845
543.863	7413
543.928	5772
543.994	5214
544.059	6053
544.124	6657
544.190	5391
544.255	7562
544.320	6450
544.386	4964
544.451	8656
544.516	8255
544.581	7312
544.646	15729
544.712	22321
544.777	8623
544.842	6891
544.907	7972
544.972	8304
545.037	7851
545.102	8280
545.168	8482
545.233	8764
545.298	8953
545.363	8835
545.428	9102
545.493	13068
545.558	18328
545.623	11481
545.688	8596
545.753	8285
545.818	8714
545.883	9320
545.947	8760
546.012	9030
546.077	9480
546.142	11012
546.207	10946
546.272	11144
546.337	11218
546.401	12047
546.466	11713
546.531	10360
546.596	13077
546.661	12075
546.725	13146
546.790	12875
546.855	15305
546.919	14395
546.984	17492
547.049	18167
547.113	20779
547.178	20523
547.243	25256
547.307	28290
547.372	31790
547.436	32598
547.501	31967
547.565	33528
547.630	32689
547.695	31332
547.759	32501
547.823	30853
547.888	32002
547.952	31852
548.017	35093
548.081	38170
548.146	36955
548.210	35478
548.274	36571
548.339	36527
548.403	34154
548.468	31394
548.532	31505
548.596	32229
548.660	32234
548.725	35081
548.789	39070
548.853	38470
548.917	35914
548.982	36524
549.046	33302
549.110	28547
549.174	29736
549.238	34696
549.303	36117
549.367	37709
549.431	35393
549.495	33418
549.559	32518
549.623	39569
549.687	44306
549.751	43914
549.815	48671
549.879	50303
549.943	48387
550.007	51459
550.071	50159
550.135	44806
550.199	43684
550.263	41994
550.327	41182
550.391	43350
550.455	46271
550.519	48713
550.582	51971
550.646	59252
550.710	59007
550.774	58145
550.838	58190
550.901	60145
550.965	63364
551.029	66336
551.093	72219
551.156	79488
551.220	96773
551.284	104147
551.347	75614
551.411	75510
551.475	71899
551.538	64441
551.602	59678
551.666	54361
551.729	51095
551.793	52298
551.856	49884
551.920	49853
551.983	50884
552.047	48591
552.110	49959
552.174	50354
552.237	51119
552.301	46360
552.364	44698
552.428	44550
552.491	45651
552.554	47256
552.618	45640
552.681	47964
552.745	46381
552.808	47305
552.871	50065
552.934	48279
552.998	46753
553.061	45912
553.124	43971
553.187	45102
553.251	45558
553.314	47168
553.377	48085
553.440	55445
553.503	76127
553.567	86870
553.630	51861
553.693	49551
553.756	49693
553.819	48585
553.882	46770
553.945	47294
554.008	46697
554.071	46459
554.134	47752
554.197	43827
554.260	44768
554.323	47258
554.386	45999
554.449	45733
554.512	48387
554.575	44771
554.638	45429
554.701	44787
554.764	45452
554.827	43023
554.889	41748
554.952	38465
555.015	38137
555.078	38622
555.141	39096
555.203	38492
555.266	38034
555.329	38243
555.391	37679
555.454	36285
555.517	34873
555.580	33276
555.642	32512
555.705	31648
555.768	32893
555.830	31513
555.893	29978
555.955	30288
556.018	29657
556.080	28716
556.143	30326
556.206	29674
556.268	29890
556.330	28177
556.393	28579
556.455	28082
556.518	28508
556.580	27427
556.643	25111
556.705	25469
556.767	23984
556.830	24681
556.892	24523
556.955	24767
557.017	24230
557.079	22759
557.142	21618
557.204	21091
557.266	25243
557.328	21779
557.391	19675
557.453	18220
557.515	19399
557.577	19963
557.639	20649
557.701	20133
557.764	19084
557.826	20176
557.888	21830
557.950	21456
558.012	24102
558.074	32499
558.136	72130
558.198	146360
558.260	48691
558.322	22841
558.384	24184
558.446	26290
558.508	27140
558.570	32243
558.632	39295
558.694	51957
558.756	85069
558.818	241015
558.880	470477
558.942	158676
559.003	156132
559.065	66558
559.127	30408
559.189	29899
559.251	35134
559.312	54122
559.374	126837
559.436	347999
559.498	147041
559.559	33382
559.621	29983
559.683	37943
559.744	63541
559.806	189461
559.868	238678
559.929	48235
559.991	35176
560.052	56747
560.114	146031
560.176	83682
560.237	88905
560.299	122735
560.360	27788
560.422	13987
560.483	13153
560.545	12883
560.606	13193
560.667	11922
560.729	10985
560.790	10617
560.852	10544
560.913	10371
560.974	9875
561.036	10376
561.097	10868
561.158	9292
561.220	10838
561.281	9248
561.342	9238
561.403	10777
561.465	10783
561.526	15146
561.587	16499
561.648	9334
561.709	9555
561.771	9306
561.832	9147
561.893	7947
561.954	9635
562.015	8229
562.076	8011
562.137	8566
562.198	9131
562.259	8036
562.320	8453
562.381	7752
562.442	10060
562.503	8643
562.564	8109
562.625	8152
562.686	8209
562.747	7267
562.808	9034
562.869	8320
562.930	10029
562.991	8609
563.051	9242
563.112	7637
563.173	8274
563.234	6658
563.294	8126
563.355	7470
563.416	7731
563.477	7453
563.537	7603
563.598	8109
563.659	8902
563.720	7875
563.780	8037
563.841	8524
563.901	8536
563.962	7230
564.023	8217
564.083	7968
564.144	8873
564.204	7405
564.265	8251
564.325	9453
564.386	13493
564.446	11172
564.507	7296
564.567	8416
564.628	7048
564.688	6942
564.749	7192
564.809	7959
564.869	9356
564.930	7232
564.990	8820
565.050	7544
565.111	7567
565.171	6874
565.231	7188
565.292	8065
565.352	6872
565.412	6858
565.472	6926
565.532	6838
565.593	7410
565.653	5914
565.713	7535
565.773	7941
565.833	8260
565.893	8085
565.953	7397
566.013	6520
566.074	8361
566.134	9163
566.194	11893
566.254	11014
566.314	8754
566.374	7928
566.434	8090
566.494	7184
566.554	7559
566.614	6810
566.673	7399
566.733	7822
566.793	7532
566.853	7576
566.913	8141
566.973	7898
567.033	7824
567.092	8035
567.152	8743
567.212	7924
567.272	8911
567.331	8772
567.391	8865
567.451	8736
567.511	10648
567.570	10211
567.630	8310
567.690	7845
567.749	7989
567.809	7686
567.868	8920
567.928	8576
567.988	8368
568.047	8603
568.107	8287
568.166	8545
568.226	9510
568.285	10750
568.345	9663
568.404	10082
568.464	9454
568.523	8902
568.582	9129
568.642	8681
568.701	10458
568.761	11623
568.820	12933
568.879	12878
568.939	13061
568.998	9359
569.057	8837
569.116	8840
569.176	9146
569.235	7819
569.294	7553
569.353	7547
569.413	7978
569.472	7459
569.531	7252
569.590	6965
569.649	6931
569.708	6808
569.767	8643
569.827	7935
569.886	7352
569.945	7443
570.004	7329
570.063	7188
570.122	8315
570.181	7980
570.240	8363
570.299	9068
570.358	8930
570.417	7319
570.475	7892
570.534	8698
570.593	7528
570.652	8271
570.711	8354
570.770	7372
570.829	8344
570.887	7871
570.946	8305
571.005	7562
571.064	7801
571.122	8740
571.181	8335
571.240	7764
571.299	7329
571.357	7664
571.416	8929
571.475	8831
571.533	9052
571.592	8799
571.650	8641
571.709	7848
571.768	8641
571.826	8708
571.885	8756
571.943	7805
572.002	8765
572.060	7388
572.119	7674
572.177	7281
572.236	7832
572.294	7648
572.352	8187
572.411	8497
572.469	7740
572.528	7907
572.586	7642
572.644	8693
572.703	8862
572.761	6860
572.819	7673
572.877	7730
572.936	7493
572.994	6878
573.052	7501
573.110	6983
573.169	6781
573.227	6900
573.285	7128
573.343	7108
573.401	6738
573.459	7636
573.517	6949
573.576	7014
573.634	7529
573.692	6983
573.750	7833
573.808	6634
573.866	7792
573.924	9231
573.982	8414
574.040	6836
574.098	7239
574.155	7798
574.213	7162
574.271	5657
574.329	7154
574.387	6342
574.445	7570
574.503	5813
574.560	5906
574.618	6025
574.676	7159
574.734	7224
574.792	7016
574.849	5886
574.907	6478
574.965	6404
575.022	6256
575.080	5339
575.138	6782
575.195	5080
575.253	5889
575.311	6202
575.368	6261
575.426	5772
575.483	6093
575.541	5646
575.598	6239
575.656	5950
575.713	6552
575.771	6331
575.828	5915
575.886	6353
575.943	7401
576.001	6476
576.058	5968
576.115	6121
576.173	7595
576.230	6776
576.287	7591
576.345	6427
576.402	6899
576.459	6254
576.517	5405
576.574	7454
576.631	7484
576.688	6705
576.746	6706
576.803	6961
576.860	5960
576.917	6411
576.974	6903
577.031	5940
577.089	6854
577.146	5993
577.203	6033
577.260	6681
577.317	6456
577.374	6078
577.431	6718
577.488	6360
577.545	6263
577.602	7144
577.659	6592
577.716	7303
577.773	7933
577.830	7209
577.886	7501
577.943	5930
578.000	6829
578.057	6951
578.114	8948
578.171	8013
578.227	10797
578.284	9224
578.341	8272
578.398	6966
578.454	6938
578.511	6991
578.568	6818
578.625	6191
578.681	6686
578.738	6366
578.794	6210
578.851	6218
578.908	7671
578.964	6884
579.021	6958
579.077	6179
579.134	6977
579.190	5501
579.247	7221
579.303	5388
579.360	6873
579.416	6680
579.473	6499
579.529	5914
579.586	7354
579.642	7135
579.698	6855
579.755	7439
579.811	7995
579.867	7031
579.924	6816
579.980	7466
580.036	8966
580.093	10376
580.149	14406
580.205	14892
580.261	11779
580.317	10676
580.374	9676
580.430	9635
580.486	8827
580.542	7679
580.598	8205
580.619	8178
580.654	8133
580.692	8160
580.710	8177
580.765	6991
580.767	6954
580.823	8158
580.838	7935
580.879	7338
580.911	8145
580.935	8742
580.984	8656
580.991	8652
581.047	9221
581.057	9121
581.103	8648
581.130	9100
581.159	9610
581.203	10704
581.215	10974
581.270	9199
581.276	9146
581.326	8657
581.349	8730
581.382	8854
581.422	8856
581.438	8865
581.494	8686
581.494	8687
581.550	8682
581.567	8906
581.606	9416
581.640	8831
581.661	8437
581.713	9631
581.717	9735
581.773	9464
581.786	9666
581.829	10237
581.859	9320
581.885	8597
581.932	9529
581.940	9677
581.996	9890
582.004	9949
582.052	10362
582.077	10212
582.107	9986
582.150	10284
582.163	10397
582.219	10437
582.223	10442
582.274	10402
582.296	10516
582.330	10696
582.368	11308
582.386	11640
582.441	11234
582.441	11231
582.497	11189
582.514	10963
582.552	10612
582.587	11665
582.608	12270
582.659	12165
582.663	12150
582.719	12599
582.732	12363
582.774	11796
582.805	12000
582.830	12122
582.877	13332
582.885	13552
582.941	13894
582.950	14152
582.996	15585
583.023	16524
583.052	17648
583.095	18608
583.107	18733
583.162	19615
583.168	19596
583.218	19210
583.240	18526
583.273	17458
583.313	15969
583.328	15445
583.384	14634
583.385	14616
583.439	13742
583.458	13462
583.494	13343
583.531	13454
583.549	13503
583.603	13483
583.605	13479
583.660	12964
583.676	12844
583.715	12672
583.748	13243
583.770	13709
583.820	13843
583.825	13802
583.881	13363
583.893	13225
583.936	13382
583.965	13407
583.991	13158
584.038	14345
584.046	14600
584.101	13503
584.110	13595
584.156	14071
584.183	14290
584.211	14458
584.255	14794
584.266	14913
584.321	14739
584.328	14773
584.376	15395
584.400	15520
584.431	15374
584.472	14962
584.486	14916
584.541	15645
584.545	15682
584.596	16299
584.617	16249
584.651	16556
584.689	16989
584.706	16914
584.761	16839
584.762	16828
584.816	17475
584.834	17640
584.871	17851
584.906	18338
584.926	18668
584.978	18815
584.980	18842
585.035	20233
585.051	20465
585.090	21111
585.123	21557
585.145	21628
585.195	21240
585.200	21355
585.254	23642
585.267	24291
585.309	26149
585.340	27815
585.364	29191
585.412	30644
585.419	30969
585.473	36324
585.484	37517
585.528	45493
585.556	53795
585.583	70348
585.628	105415
585.637	119524
585.692	234757
585.700	253145
585.747	312948
585.772	279522
585.801	181681
585.845	70840
585.856	59488
585.910	36440
585.917	34039
585.965	29544
585.989	27733
586.019	26505
586.061	25090
586.074	24960
586.128	25933
586.133	25819
586.183	24121
586.205	23765
586.237	23695
586.277	23441
586.292	23461
586.346	23245
586.349	23207
586.401	22723
586.421	22623
586.455	22665
586.493	22949
586.509	23992
586.564	27222
586.565	27301
586.618	33601
586.637	34380
586.672	31370
586.709	28070
586.727	27490
586.781	27758
586.781	27795
586.835	24039
586.853	23335
586.889	22678
586.925	21944
586.944	21927
586.996	22533
586.998	22574
587.052	21804
587.068	21728
587.106	22203
587.140	22137
587.161	22238
587.212	23067
587.215	23130
587.269	23119
587.284	23118
587.323	23285
587.356	23143
587.377	23522
587.427	24863
587.431	24931
587.485	24780
587.499	24697
587.539	25693
587.571	26474
587.593	26596
587.643	27052
587.648	27248
587.702	28019
587.715	28398
587.755	28835
587.786	28542
587.810	28761
587.858	29649
587.864	29872
587.917	30899
587.930	31207
587.971	32242
588.001	32794
588.025	33240
588.073	34145
588.079	34380
588.133	35205
588.145	35527
588.187	37828
588.217	38948
588.241	40182
588.288	43127
588.295	43707
588.348	47584
588.360	48380
588.402	52155
588.431	54688
588.456	57535
588.503	62720
588.510	63807
588.564	72534
588.575	74425
588.617	84689
588.646	91908
588.671	102198
588.718	123496
588.725	129914
588.778	182309
588.789	194157
588.832	293200
588.861	365464
588.886	455603
588.932	636291
588.939	645878
588.993	671864
589.004	666561
589.047	509718
589.075	401809
589.100	320966
589.147	186785
589.154	180541
589.207	136368
589.218	127788
589.261	121714
589.290	118443
589.314	123060
589.361	133301
589.368	140208
589.421	200011
589.433	213521
589.475	336065
589.504	428603
589.528	502256
589.576	634547
589.582	621599
589.635	441281
589.647	401068
589.689	249256
589.718	151068
589.742	127901
589.790	85986
589.795	84693
589.849	71600
589.861	68696
589.902	64767
589.932	60973
589.955	57045
590.004	48358
590.009	48124
590.062	45121
590.075	44181
590.115	42758
590.146	41618
590.168	41056
590.218	39475
590.222	39584
590.275	39578
590.289	39528
590.328	39687
590.360	39219
590.381	38803
590.431	37913
590.435	38058
590.488	38332
590.503	38423
590.541	38772
590.574	38702
590.594	38661
590.645	38451
590.647	38598
590.700	39151
590.716	39311
590.753	39266
590.787	38880
590.806	39241
590.859	39928
590.859	40045
590.912	39707
590.930	39616
590.965	40412
591.001	40904
591.018	40617
591.071	39159
591.072	39027
591.124	39441
591.143	39452
591.177	40435
591.214	41170
591.230	41355
591.283	41758
591.285	41637
591.336	41556
591.356	41341
591.389	41505
591.427	41356
591.442	41256
591.495	40377
591.498	40191
591.547	41279
591.569	41606
591.600	41452
591.640	40838
591.653	41229
591.706	42416
591.711	42404
591.759	43290
591.782	43583
591.811	45253
591.853	47234
591.864	46932
591.917	44676
591.924	44190
591.969	44685
591.995	44830
592.022	44927
592.066	44631
592.075	45219
592.127	47939
592.137	48312
592.180	49746
592.208	50349
592.233	50071
592.279	49011
592.285	49051
592.338	48090
592.350	47706
592.390	48156
592.421	48240
592.443	48715
592.491	49205
592.495	49385
592.548	49648
592.562	49559
592.600	49978
592.633	50035
592.653	49837
592.704	48627
592.705	48929
592.775	50011
592.846	51637
592.916	51414
592.987	52743
593.058	53103
593.128	53280
593.199	52087
593.270	53954
593.341	53230
593.411	54002
593.482	54878
593.553	57727
593.623	57335
593.694	59558
593.764	59796
593.835	59610
593.906	58304
593.976	61179
594.047	62591
594.117	66256
594.188	68545
594.258	63852
594.329	64491
594.399	67439
594.470	67919
594.540	68746
594.611	68813
594.681	70046
594.751	69687
594.822	73507
594.892	74779
594.963	76395
595.033	76213
595.103	81233
595.174	81814
595.244	85990
595.314	92320
595.384	86299
595.455	87673
595.525	89465
595.595	93878
595.665	94490
595.736	90907
595.806	92713
595.876	94336
595.946	95134
596.016	97698
596.087	101265
596.157	100261
596.227	101729
596.297	105804
596.367	112946
596.437	116300
596.507	121806
596.577	125149
596.647	121976
596.717	124790
596.787	127829
596.857	125196
596.927	129679
596.997	128500
597.067	131473
597.137	134610
597.207	135471
597.277	136397
597.347	131149
597.417	129683
597.487	129031
597.557	130138
597.626	135643
597.696	138832
597.766	137617
597.836	136696
597.906	126701
597.975	124730
598.045	127010
598.115	131000
598.185	138582
598.254	151147
598.324	162718
598.394	165431
598.464	160693
598.533	158820
598.603	152213
598.672	147498
598.742	151411
598.812	153029
598.881	156467
598.951	156373
599.020	159628
599.090	165636
599.159	167950
599.229	163000
599.299	162285
599.368	166708
599.437	165953
599.507	157492
599.576	156224
599.646	156080
599.715	157168
599.785	155590
599.854	155540
599.924	154942
599.993	156772
600.062	158971
600.132	161720
600.201	169874
600.270	188631
600.340	197261
600.409	196753
600.478	196727
600.547	200019
600.617	190548
600.686	169711
600.755	160767
600.824	159417
600.894	158651
600.963	160203
601.032	162682
601.101	162230
601.170	160694
601.239	161416
601.308	163953
601.378	167294
601.447	170147
601.516	172060
601.585	177056
601.654	180520
601.723	182749
601.792	187984
601.861	196548
601.930	204779
601.999	209775
602.068	207268
602.137	209378
602.206	210606
602.275	213945
602.343	216481
602.412	216947
602.481	218740
602.550	219936
602.619	223539
602.688	223286
602.756	229828
602.825	226214
602.894	235078
602.963	231110
603.032	236297
603.100	235639
603.169	231181
603.238	239580
603.307	232596
603.375	231717
603.444	242444
603.513	226822
603.581	233692
603.650	242944
603.719	211213
603.787	205800
603.856	208653
603.924	213358
603.993	219647
604.061	227114
604.130	233950
604.198	239301
604.267	242320
604.335	248848
604.404	247062
604.472	253489
604.541	253965
604.609	260768
604.678	266755
604.746	272654
604.815	284905
604.883	274111
604.951	272228
605.020	277347
605.088	262389
605.156	255245
605.225	255903
605.293	256861
605.361	257485
605.429	251994
605.498	260917
605.566	260832
605.634	272224
605.702	275459
605.771	279990
605.839	286413
605.907	267671
605.975	276570
606.043	265665
606.111	257737
606.180	276430
606.248	256816
606.316	252549
606.384	266949
606.452	229462
606.520	206853
606.588	213262
606.656	211632
606.724	207318
606.792	197289
606.860	180314
606.928	164376
606.996	160646
607.064	155090
607.132	162566
607.200	168973
607.267	176142
607.335	178170
607.403	182744
607.471	177031
607.539	172462
607.607	173163
607.674	153964
607.742	153514
607.810	153650
607.878	151864
607.946	154580
608.013	161703
608.081	164193
608.149	165255
608.216	170017
608.284	174796
608.352	175412
608.419	172139
608.487	172109
608.555	164875
608.622	169364
608.690	176736
608.757	192806
608.825	198343
608.893	192901
608.960	181718
609.028	176224
609.095	180100
609.163	175045
609.230	155763
609.298	145187
609.365	149435
609.432	163034
609.500	175744
609.567	201025
609.635	226428
609.702	238058
609.769	225978
609.837	180919
609.904	156863
609.971	158399
610.039	170752
610.106	209189
610.173	348260
610.241	697667
610.308	460352
610.375	219853
610.442	174729
610.509	161899
610.577	162756
610.644	165025
610.711	168254
610.778	172537
610.845	180937
610.912	192543
610.980	199036
611.047	203760
611.114	197673
611.181	190440
611.248	188792
611.315	198583
611.382	202224
611.449	210595
611.516	215070
611.583	210370
611.650	211098
611.717	213767
611.784	216102
611.851	223347
611.918	231297
611.984	261735
612.051	332482
612.118	560334
612.185	1126864
612.252	782879
612.319	318437
612.386	272949
612.452	251592
612.519	240191
612.586	239691
612.653	241308
612.719	248117
612.786	239412
612.853	223597
612.919	219811
612.986	220122
613.053	210420
613.120	199060
613.186	191553
613.253	193039
613.319	192907
613.386	193585
613.453	198713
613.519	199604
613.586	197049
613.652	203904
613.719	198541
613.785	199960
613.852	202441
613.918	199564
613.985	204346
614.051	212797
614.118	224228
614.184	215929
614.250	200083
614.317	204022
614.383	201578
614.449	203373
614.516	203767
614.582	206170
614.648	203825
614.715	201482
614.781	196177
614.847	195141
614.914	197018
614.980	191048
615.046	191536
615.112	197444
615.179	195253
615.245	198146
615.311	197753
615.377	200310
615.443	203410
615.509	203643
615.575	207744
615.642	206162
615.708	213838
615.774	217323
615.840	230415
615.906	239287
615.972	271529
616.038	364735
616.104	644308
616.170	1242372
616.236	1077577
616.302	413349
616.368	326222
616.434	260098
616.500	240821
616.565	256561
616.631	301717
616.697	264045
616.763	265879
616.829	354346
616.895	568426
616.961	542093
617.026	285882
617.092	220539
617.158	213467
617.224	209074
617.289	194485
617.355	186544
617.421	185422
617.487	187249
617.552	178773
617.618	176976
617.684	177288
617.749	178964
617.815	171858
617.880	171150
617.946	167894
618.012	173086
618.077	177015
618.143	169601
618.208	171562
618.274	180524
618.339	184959
618.405	157069
618.470	157022
618.536	156492
618.601	155388
618.667	147097
618.732	140416
618.798	139500
618.863	139954
618.928	136979
618.994	140771
619.059	138751
619.124	142103
619.190	139768
619.255	138458
619.320	137367
619.386	139554
619.451	136741
619.516	134417
619.581	137186
619.647	141362
619.712	141040
619.777	136312
619.842	137664
619.907	139620
619.972	141138
620.038	140443
620.103	136822
620.168	138104
620.233	137817
620.298	140771
620.363	140322
620.428	145527
620.493	147478
620.558	147906
620.623	152622
620.688	152617
620.753	148921
620.818	152366
620.883	153664
620.948	152542
621.013	150337
621.078	149575
621.143	149700
621.207	154250
621.272	150583
621.337	149190
621.402	148833
621.467	150597
621.532	151145
621.596	149592
621.661	145451
621.726	142003
621.791	143683
621.855	144852
621.920	143950
621.985	145500
622.049	149204
622.114	148661
622.179	150390
622.243	154202
622.308	156008
622.373	163101
622.437	158770
622.502	153261
622.566	151495
622.631	150551
622.695	153467
622.760	153276
622.824	152486
622.889	151366
622.953	152894
623.018	163835
623.082	163371
623.147	159090
623.211	155794
623.276	155839
623.340	149350
623.404	148683
623.469	146191
623.533	149981
623.597	145221
623.662	144584
623.726	137056
623.790	131045
623.854	128001
623.919	131211
623.983	130009
624.047	131989
624.111	133099
624.176	135313
624.240	135690
624.304	141011
624.368	134211
624.432	134797
624.496	135976
624.560	140756
624.625	142572
624.689	141002
624.753	144731
624.817	140385
624.881	136103
624.945	126051
625.009	125655
625.073	125049
625.137	129006
625.201	133666
625.265	134398
625.329	128017
625.393	129405
625.456	127990
625.520	131953
625.584	133974
625.648	138186
625.712	148684
625.776	173741
625.839	172381
625.903	123650
625.967	110115
626.031	124174
626.095	147752
626.158	123478
626.222	99755
626.286	96048
626.349	92506
626.413	85747
626.477	87584
626.540	87100
626.604	85751
626.668	85344
626.731	85185
626.795	85032
626.858	83806
626.922	80385
626.986	81529
627.049	79151
627.113	84735
627.176	81940
627.240	78383
627.303	78585
627.366	77868
627.430	78424
627.493	77796
627.557	78316
627.620	79513
627.684	79179
627.747	80042
627.810	73677
627.874	69258
627.937	66953
628.000	71268
628.064	68433
628.127	60679
628.190	60612
628.253	58476
628.317	57071
628.380	56521
628.443	54146
628.506	54606
628.569	51674
628.632	49930
628.696	49193
628.759	49184
628.822	47236
628.885	46643
628.948	46097
629.011	46645
629.074	44538
629.137	43346
629.200	42849
629.263	43705
629.326	40662
629.389	42039
629.452	41534
629.515	41324
629.578	39779
629.641	42625
629.704	41399
629.767	41907
629.830	39951
629.892	39755
629.955	38662
630.018	41602
630.081	38692
630.144	40316
630.207	36955
630.269	40688
630.332	37416
630.395	37741
630.458	36326
630.520	35643
630.583	36703
630.646	36191
630.708	34885
630.771	36126
630.834	37602
630.896	35930
630.959	36239
631.021	35563
631.084	35954
631.146	36064
631.209	38391
631.272	35860
631.334	36596
631.397	35833
631.459	34666
631.522	35678
631.584	37082
631.646	38416
631.709	39287
631.771	39948
631.834	38785
631.896	37687
631.958	34963
632.021	35243
632.083	33539
632.145	35457
632.208	33162
632.270	34893
632.332	32728
632.395	33997
632.457	35009
632.519	33673
632.581	33901
632.643	32408
632.706	34525
632.768	32064
632.830	34057
632.892	34366
632.954	32596
633.016	35234
633.078	32918
633.141	34002
633.203	32748
633.265	34148
633.327	32588
633.389	32660
633.451	34075
633.513	34044
633.575	34358
633.637	33978
633.698	33396
633.760	34817
633.822	34923
633.884	35069
633.946	35465
634.008	35751
634.070	37323
634.132	39287
634.193	39234
634.255	41601
634.317	41361
634.379	41459
634.441	38909
634.502	37020
634.564	33811
634.626	32570
634.687	31461
634.749	32310
634.811	31590
634.873	30476
634.934	30933
634.996	32095
635.057	31073
635.119	31431
635.181	32378
635.242	33931
635.304	30045
635.365	33842
635.427	31155
635.488	31470
635.550	31162
635.611	32354
635.673	29233
635.734	34267
635.796	32933
635.857	36131
635.918	36143
635.980	40493
636.041	39630
636.102	42899
636.164	41721
636.225	41545
636.286	36150
636.348	35793
636.409	32624
636.470	30896
636.531	31402
636.593	31526
636.654	31145
636.715	30026
636.776	29389
636.838	29283
636.899	29629
636.960	28479
637.021	28664
637.082	27999
637.143	28062
637.204	27130
637.265	26967
637.326	28480
637.387	27510
637.448	26774
637.509	27209
637.570	27709
637.631	27882
637.692	26014
637.753	25934
637.814	26920
637.875	26580
637.936	27098
637.997	26672
638.058	26888
638.119	26580
638.179	27682
638.240	25808
638.301	27108
638.362	24996
638.423	25050
638.483	26726
638.544	25086
638.605	25037
638.666	24850
638.726	25541
638.787	26311
638.848	24528
638.908	24411
638.969	24347
639.030	24567
639.090	23240
639.151	24222
639.211	25437
639.272	26128
639.332	27847
639.393	26278
639.453	24549
639.514	25396
639.574	24305
639.635	22464
639.695	23659
639.756	22042
639.816	23849
639.877	23074
639.937	24960
639.997	27104
640.058	22530
640.118	22724
640.178	23557
640.239	23066
640.299	22403
640.359	22273
640.420	23336
640.480	25961
640.540	26451
640.600	27028
640.661	25376
640.721	26735
640.781	29248
640.841	29965
640.901	24174
640.961	23183
641.021	23216
641.082	24937
641.142	23628
641.202	23271
641.262	20285
641.322	22605
641.382	20497
641.442	22896
641.502	21222
641.562	23046
641.622	21754
641.682	23888
641.742	24323
641.802	23302
641.861	22229
641.921	21114
641.981	21640
642.041	22118
642.101	19935
642.161	19971
642.221	19662
642.280	20339
642.340	19694
642.400	20953
642.460	20968
642.519	21617
642.579	20543
642.639	22853
642.698	18753
642.758	23649
642.818	21476
642.877	20981
642.937	20999
642.997	21464
643.056	23294
643.116	20780
643.175	22572
643.235	21823
643.294	20783
643.354	21785
643.414	23016
643.473	25475
643.532	28229
643.592	35926
643.651	49530
643.711	81097
643.770	151514
643.830	345329
643.889	655233
643.948	184697
644.008	46627
644.067	31726
644.126	25860
644.186	24764
644.245	21919
644.304	20604
644.363	22408
644.423	19273
644.482	20227
644.541	21617
644.600	20282
644.659	25171
644.719	27832
644.778	39148
644.837	60651
644.896	118564
644.955	255372
645.014	88738
645.073	30229
645.132	23967
645.191	22731
645.250	21433
645.309	23317
645.368	23755
645.427	28862
645.486	43371
645.545	67330
645.604	27034
645.663	20555
645.722	20690
645.781	21850
645.840	22959
645.898	25946
645.957	33730
646.016	45390
646.075	77864
646.134	144499
646.192	365048
646.251	499695
646.310	93083
646.369	34584
646.427	30957
646.486	23978
646.545	22092
646.603	19589
646.662	19678
646.721	18618
646.779	18846
646.838	17986
646.896	21790
646.955	26795
647.014	40924
647.072	69701
647.131	173830
647.189	82797
647.248	21264
647.306	18064
647.365	18288
647.423	14130
647.481	18660
647.540	14712
647.598	16066
647.657	14843
647.715	16552
647.773	13910
647.832	15692
647.890	13549
647.948	14434
648.007	14883
648.065	13827
648.123	13137
648.181	14872
648.240	14724
648.298	14516
648.356	12686
648.414	13835
648.472	12694
648.531	13599
648.589	12441
648.647	12445
648.705	12827
648.763	13780
648.821	12617
648.879	13724
648.937	14040
648.995	16620
649.053	17641
649.111	25625
649.169	38558
649.227	65292
649.285	130314
649.343	355812
649.401	166004
649.459	33401
649.516	22636
649.574	17703
649.632	25365
649.690	28953
649.748	24815
649.806	30781
649.863	54351
649.921	124937
649.979	81291
650.037	17349
650.094	11913
650.152	13801
650.210	11397
650.268	12977
650.325	13124
650.383	15909
650.440	10285
650.498	10845
650.556	10328
650.613	9598
650.671	10425
650.728	10487
650.786	10545
650.843	13039
650.901	9713
650.958	9257
651.016	9105
651.073	9626
651.131	8321
651.188	8680
651.246	8515
651.303	8780
651.360	8747
651.418	8768
651.475	9505
651.532	8384
651.590	8280
651.647	8764
651.704	8591
651.762	8513
651.819	8042
651.876	7959
651.933	7289
651.990	8673
652.048	6792
652.105	8364
652.162	8005
652.219	7604
652.276	8281
652.333	8151
652.390	6623
652.448	8065
652.505	7368
652.562	7921
652.619	7470
652.676	10401
652.733	10408
652.790	7615
652.847	5967
652.904	8087
652.961	5952
653.017	6641
653.074	8163
653.131	8064
653.188	5979
653.245	7447
653.302	6714
653.359	7255
653.415	6761
653.472	7138
653.529	7152
653.586	6220
653.642	5980
653.699	7524
653.756	6164
653.813	6816
653.869	7046
653.926	6239
653.983	5972
654.039	7193
654.096	6183
654.152	7525
654.209	6154
654.266	7570
654.322	5315
654.379	7692
654.435	8099
654.492	7584
654.548	8185
654.605	9256
654.661	8989
654.717	7502
654.774	7324
654.830	7060
654.887	6829
654.943	7806
655.000	8935
655.056	7830
655.112	6955
655.168	6697
655.225	6547
655.281	8083
655.337	7195
655.394	9155
655.450	8244
655.506	8367
655.562	9197
655.618	9208
655.675	5058
655.731	6419
655.787	6400
655.843	7333
655.899	5204
655.955	7089
656.011	5859
656.067	6736
656.123	6110
656.179	6370
656.235	7445
656.291	5321
656.347	6908
656.403	6282
656.459	6712
656.515	6422
656.571	6503
656.627	7660
656.683	6532
656.739	6936
656.795	5765
656.850	7554
656.906	6700
656.962	6300
657.018	5493
657.074	7767
657.129	8732
657.185	12019
657.241	24241
657.297	14982
657.352	7634
657.408	6529
657.464	5986
657.519	6513
657.575	4805
657.630	5987
657.686	5066
657.742	5192
657.797	5860
657.853	6178
657.908	6397
657.964	5595
658.019	5708
658.075	6040
658.130	6275
658.186	5859
658.241	6400
658.297	5947
658.352	5685
658.407	6698
658.463	5485
658.518	6388
658.573	6214
658.629	4666
658.684	5679
658.739	6433
658.795	4719
658.850	6185
658.905	5458
658.960	6747
659.016	5234
659.071	5956
659.126	5804
659.181	5999
659.236	6579
659.291	6815
659.346	5561
659.401	6815
659.457	7539
659.512	7830
659.567	7009
659.622	6594
659.677	6237
659.732	5433
659.787	5451
659.842	5847
659.897	6596
659.952	6453
660.007	4630
660.061	6608
660.116	5598
660.171	6024
660.226	5578
660.281	6804
660.336	4938
660.391	5433
660.445	5214
660.500	5651
660.555	5337
660.610	5674
660.664	5689
660.719	5479
660.774	5507
660.828	5581
660.883	4436
660.938	5468
660.992	3764
661.047	6272
661.101	4920
661.156	5798
661.211	5256
661.265	5282
661.320	5268
661.374	5046
661.429	5223
661.483	5724
661.538	5007
661.592	5989
661.647	6343
661.701	7851
661.755	6045
661.810	5796
661.864	4723
661.919	5548
661.973	5748
662.027	6446
662.081	5224
662.136	4985
662.190	5520
662.244	6346
662.299	5351
662.353	6534
662.407	4689
662.461	5592
662.515	5479
662.569	6322
662.624	5732
662.678	5288
662.732	4514
662.786	5544
662.840	4812
662.894	5456
662.948	5031
663.002	5863
663.056	4753
663.110	4917
663.164	4359
663.218	5505
663.272	5223
663.326	5785
663.380	4779
663.434	5206
663.488	4425
663.542	4474
663.595	5568
663.649	4931
663.703	5510
663.757	5183
663.811	4613
663.864	4709
663.918	4869
663.972	5394
664.026	3997
664.079	5154
664.133	4790
664.187	5113
664.240	4872
664.294	5654
664.348	5603
664.401	5352
664.455	4779
664.508	4886
664.562	5475
664.615	4615
664.669	3603
664.722	5281
664.776	4449
664.829	5330
664.883	4631
664.936	4319
664.990	4845
665.043	5205
665.097	4561
665.150	6535
665.203	4233
665.257	5167
665.310	4781
665.363	5220
665.417	5175
665.470	5980
665.523	4811
665.576	4998
665.630	5044
665.683	5689
665.736	5584
665.789	5906
665.842	3714
665.895	5170
665.949	4873
666.002	5757
666.055	5331
666.108	5180
666.161	5276
666.214	5470
666.267	5045
666.320	5798
666.373	4285
666.426	5782
666.479	4261
666.532	6051
666.585	6039
666.638	6069
666.691	5380
666.744	6345
666.796	4967
666.849	5470
666.902	5339
666.955	4650
667.008	4478
667.060	5214
667.113	4750
667.166	5329
667.219	5958
667.271	5283
667.324	5388
667.377	5651
667.430	5392
667.482	6316
667.535	4864
667.587	5653
667.640	4722
667.693	5216
667.745	5882
667.798	7242
667.850	5284
667.903	5268
667.955	4953
668.008	6266
668.060	5139
668.113	5435
668.165	5023
668.218	6093
668.270	5859
668.322	5587
668.375	4147
668.427	5917
668.479	4512
668.532	5575
668.584	4644
668.636	5504
668.689	4260
668.741	5211
668.793	4745
668.845	5708
668.898	5014
668.950	5028
669.002	5371
669.054	5088
669.106	4018
669.158	5112
669.211	5124
669.263	5994
669.315	5822
669.367	6012
669.419	4637
669.471	6052
669.523	5265
669.575	6418
669.627	5450
669.679	5674
669.731	4560
669.783	5666
669.835	5462
669.886	5649
669.938	5736
669.990	5218
670.042	4194
670.094	5743
670.146	5452
670.197	5616
670.249	6275
670.301	8491
670.353	9231
670.404	12150
670.456	14285
670.508	22576
670.560	36522
670.611	61880
670.663	107134
670.715	242499
670.766	341549
670.818	112005
670.869	24705
670.921	14690
670.972	10859
671.024	8581
671.075	6655
671.127	7454
671.178	5622
671.230	6069
671.281	6139
671.333	6278
671.384	6467
671.436	7837
671.487	9018
671.538	11643
671.590	16587
671.641	26701
671.692	46011
671.744	82991
671.795	54009
671.846	19509
671.897	10570
671.949	8449
672.000	5867
672.051	5625
672.102	5797
672.153	5440
672.204	4058
672.256	5797
672.307	4530
672.358	5916
672.409	4090
672.460	4790
672.511	4175
672.562	4624
672.613	3471
672.664	3906
672.715	4131
672.766	4051
672.817	3237
672.868	4718
672.919	3791
672.970	2966
673.021	3638
673.071	4896
673.122	2765
673.173	4471
673.224	4049
673.275	4361
673.326	3986
673.376	4164
673.427	3549
673.478	3560
673.528	4274
673.579	3868
673.630	3684
673.680	4040
673.731	2956
673.782	3731
673.832	3956
673.883	4350
673.934	3132
673.984	4331
674.035	3613
674.085	4855
674.136	4029
674.186	4009
674.237	3632
674.287	5617
674.338	3478
674.388	3598
674.438	3086
674.489	4203
674.539	3611
674.589	4454
674.640	4137
674.690	4465
674.740	3665
674.791	4684
674.841	3197
674.891	3209
674.942	2929
674.992	4212
675.042	3534
675.092	3221
675.142	2526
675.193	2751
675.243	2231
675.293	3818
675.343	3214
675.393	4318
675.443	3282
675.493	3966
675.543	2408
675.593	3457
675.643	2660
675.693	3546
675.743	3487
675.793	3102
675.843	3216
675.893	3603
675.943	2999
675.993	3274
676.043	3208
676.093	3539
676.142	2988
676.192	3028
676.242	2315
676.292	2827
676.341	2187
676.391	3680
676.441	1882
676.491	2773
676.540	2595
676.590	3240
676.640	2985
676.689	2861
676.739	2973
676.789	3190
676.838	2177
676.888	2570
676.937	2243
676.987	3022
677.037	2356
677.086	2148
677.136	2718
677.185	2676
677.235	1925
677.284	3086
677.333	1695
677.383	2283
677.432	2184
677.482	2011
677.531	2132
677.580	2274
677.630	1634
677.679	2416
677.728	1771
677.778	2604
677.827	2126
677.876	2751
677.925	1675
677.975	2585
678.024	2294
678.073	2971
678.122	2369
678.171	2905
678.220	2787
678.269	3388
678.319	3994
678.368	4228
678.417	1862
678.466	3068
678.515	2899
678.564	3042
678.613	2300
678.662	2458
678.711	2108
678.760	3184
678.809	1548
678.857	2966
678.906	2391
678.955	3172
679.004	3058
679.053	3213
679.102	2202
679.151	3632
679.199	1817
679.248	2321
679.297	1731
679.346	2985
679.394	1658
679.443	2539
679.492	2109
679.540	2978
679.589	2158
679.638	2312
679.686	2017
679.735	3045
679.784	2985
679.832	2860
679.881	2577
679.929	3140
679.978	2198
680.026	2034
680.075	2377
680.123	1212
680.172	2453
680.220	2298
680.268	2155
680.317	1909
680.365	2054
680.414	1712
680.462	1956
680.510	3234
680.559	1859
680.607	2022
680.655	726
680.703	2693
680.752	2074
680.800	2405
680.848	1452
680.896	2053
680.945	2237
680.993	1807
681.041	2305
681.089	1411
681.137	2126
681.185	2306
681.233	1722
681.258	1853
681.281	1910
681.329	1626
681.377	2380
681.380	2450
681.425	2491
681.473	3520
681.502	2956
681.521	2443
681.569	3221
681.617	2144
681.624	2431
681.665	3782
681.713	3302
681.745	3307
681.761	3207
681.809	2415
681.857	4767
681.867	4602
681.904	3747
681.952	4573
681.989	4365
682.000	4226
682.048	3873
682.096	4179
682.111	4238
682.143	4150
682.191	4440
682.233	5272
682.239	5337
682.286	4428
682.334	3928
682.354	4371
682.382	4789
682.430	5667
682.476	5239
682.477	5171
682.525	5310
682.572	4505
682.598	5231
682.620	5778
682.667	6055
682.715	6401
682.720	6389
682.763	5671
682.810	6428
682.841	6193
682.857	5990
682.905	5912
682.952	6519
682.963	6583
683.000	6580
683.047	7046
683.085	7787
683.095	7927
683.142	6832
683.190	7684
683.206	7401
683.237	6738
683.284	7687
683.328	7175
683.332	7082
683.379	7961
683.426	7555
683.449	7772
683.473	7931
683.521	8298
683.568	8291
683.571	8330
683.615	8070
683.662	8630
683.693	8486
683.709	8354
683.757	8267
683.804	9222
683.814	9230
683.851	9134
683.898	9691
683.936	9361
683.945	9224
683.992	9388
684.039	10065
684.057	9937
684.086	9579
684.133	9840
684.179	10111
684.180	10080
684.227	9952
684.274	9333
684.300	9671
684.321	9955
684.368	10280
684.415	10921
684.422	10834
684.462	9998
684.509	10409
684.543	10842
684.556	10968
684.603	11746
684.649	10707
684.665	10981
684.696	11375
684.743	11062
684.786	11980
684.790	12039
684.837	11339
684.883	12485
684.908	12877
684.930	13105
684.977	13157
685.023	12472
685.029	12497
685.070	12416
685.117	12691
685.150	13128
685.164	13322
685.210	13461
685.257	14764
685.272	14613
685.303	13986
685.350	14434
685.393	13545
685.396	13451
685.443	14001
685.490	13839
685.514	14137
685.536	14457
685.583	13665
685.629	15017
685.636	14928
685.675	14080
685.722	13992
685.757	14109
685.768	14170
685.815	14217
685.861	14041
685.878	14480
685.908	15200
685.954	14798
686.000	15384
686.000	15382
686.047	15470
686.093	16869
686.121	16838
686.139	16541
686.185	16588
686.232	16146
686.242	16217
686.278	16426
686.324	16011
686.363	16057
686.370	16126
686.416	15851
686.463	16712
686.484	16607
686.509	16331
686.555	17029
686.601	16618
686.606	16646
686.647	16637
686.693	16114
686.727	16371
686.739	16565
686.785	16178
686.831	17326
686.848	17177
686.877	16705
686.923	16768
686.969	16535
686.969	16533
687.015	17280
687.061	17269
687.090	18118
687.107	18373
687.153	17914
687.199	17721
687.211	17649
687.245	17756
687.291	18304
687.332	18527
687.336	18544
687.382	18833
687.428	18200
687.453	18777
687.474	19250
687.520	18869
687.565	20056
687.574	19859
687.611	19453
687.657	20868
687.695	20823
687.702	20997
687.748	23665
687.794	26034
687.816	26584
687.839	25408
687.885	23336
687.931	21819
687.937	21474
687.976	20495
688.022	19740
688.058	19716
688.067	19851
688.113	19601
688.158	19660
688.179	19645
688.204	19767
688.249	20423
688.295	20591
688.300	20595
688.340	20585
688.386	21016
688.421	20681
688.431	20593
688.477	20781
688.522	20815
688.542	21022
688.567	21504
688.613	20748
688.658	22105
688.663	22038
688.703	21293
688.749	21983
688.784	21722
688.794	21663
688.839	21384
688.884	21593
688.905	21715
688.930	21990
688.975	21346
689.020	21804
689.026	21814
689.065	22204
689.110	22591
689.146	22552
689.155	22598
689.201	23403
689.246	24103
689.267	24189
689.291	24017
689.336	23278
689.381	23344
689.388	23258
689.426	23056
689.471	23431
689.509	23340
689.516	23391
689.561	23443
689.606	22990
689.630	23482
689.651	23807
689.696	22652
689.741	23436
689.750	23373
689.785	23472
689.830	23255
689.871	22756
689.875	22735
689.920	23043
689.965	23267
689.992	23316
690.010	23409
690.054	23446
690.099	23881
690.112	23721
690.144	23533
690.189	23832
690.233	23627
690.233	23658
690.278	24072
690.323	24087
690.354	24103
690.367	24237
690.412	24248
690.457	24977
690.474	25094
690.501	25497
690.546	26283
690.590	26567
690.595	26618
690.635	27383
690.680	27437
690.716	27994
690.724	28555
690.769	31355
690.813	33968
690.836	35233
690.857	38859
690.902	47143
690.946	55002
690.957	56997
690.991	75163
691.035	99752
691.077	122516
691.080	122341
691.124	110959
691.168	101361
691.198	94560
691.213	87820
691.257	68879
691.301	48915
691.318	41415
691.346	39302
691.390	35167
691.434	31183
691.439	30673
691.478	30004
691.522	29625
691.559	28920
691.567	28901
691.611	28838
691.655	28127
691.680	28250
691.699	28600
691.743	28605
691.787	28748
691.800	28682
691.831	28686
691.875	28925
691.919	29029
691.921	28981
691.964	28676
692.008	28050
692.041	27710
692.052	27765
692.096	27839
692.139	28319
692.162	27934
692.183	27693
692.227	27991
692.271	28099
692.282	28041
692.315	27880
692.359	27632
692.402	27509
692.403	27563
692.447	27327
692.490	27805
692.523	27668
692.534	27788
692.578	28309
692.622	28451
692.643	28698
692.666	28648
692.709	28264
692.753	27837
692.763	27723
692.797	28175
692.840	28687
692.884	28707
692.884	28765
692.928	29047
692.971	29027
693.004	29231
693.015	29373
693.059	29491
693.102	29790
693.124	29776
693.146	30181
693.189	31085
693.233	31653
693.245	31829
693.276	32980
693.320	34473
693.363	35754
693.365	35727
693.407	37846
693.450	40267
693.485	41980
693.493	43171
693.537	49020
693.580	54617
693.605	58257
693.624	66124
693.667	83626
693.710	102217
693.725	108379
693.753	142133
693.797	195995
693.840	249392
693.845	255115
693.883	234962
693.926	210658
693.966	189567
693.970	185683
694.013	141479
694.056	97459
694.086	66832
694.099	64241
694.142	55708
694.185	46746
694.206	42671
694.229	41781
694.272	39705
694.315	37795
694.326	37110
694.358	36119
694.401	34865
694.444	33787
694.446	33642
694.487	33076
694.530	32411
694.566	32068
694.573	32088
694.616	31316
694.659	31002
694.686	30661
694.702	30666
694.745	30456
694.787	29973
694.806	29871
694.830	30170
694.873	30171
694.916	30621
694.926	30560
694.959	30531
695.002	30833
695.044	30587
695.046	30517
695.087	31290
695.130	32043
695.166	32593
695.172	32660
695.215	32442
695.258	32523
695.286	32234
695.301	32296
695.343	32604
695.386	32722
695.406	32776
695.428	33094
695.471	33309
695.514	33731
695.526	33739
695.556	34803
695.599	36427
695.641	37559
695.646	37633
695.684	36750
695.726	35572
695.766	34444
695.769	34526
695.811	34458
695.854	34342
695.886	34249
695.896	34464
695.938	34802
695.981	35237
696.005	35480
696.023	35807
696.065	36301
696.108	36750
696.125	36881
696.150	37280
696.192	37758
696.235	38191
696.245	38260
696.277	38930
696.319	39365
696.361	40009
696.365	39945
696.404	40100
696.446	40408
696.485	40496
696.488	40552
696.530	40017
696.572	39269
696.604	38774
696.614	38729
696.656	38112
696.698	37360
696.724	36828
696.740	37039
696.783	37392
696.825	37738
696.844	37786
696.867	38109
696.909	38502
696.951	38951
696.964	38955
696.992	38676
697.034	38284
697.076	37777
697.083	37604
697.118	38546
697.160	39569
697.202	40599
697.203	40520
697.244	40111
697.286	39720
697.323	39272
697.327	39388
697.369	39421
697.411	39445
697.442	39470
697.453	39579
697.494	39363
697.536	39343
697.562	39250
697.578	39390
697.620	39388
697.661	39403
697.682	39316
697.703	39851
697.744	40670
697.786	41545
697.801	41733
697.828	41866
697.869	41922
697.911	41993
697.921	41898
697.952	41776
697.994	41462
698.035	41152
698.040	41011
698.077	41005
698.118	40852
698.160	40643
698.160	40535
698.201	41235
698.243	41817
698.279	42298
698.284	42473
698.325	42981
698.367	43539
698.399	43833
698.408	43939
698.449	43912
698.491	43852
698.518	43712
698.532	43944
698.573	44291
698.614	44642
698.638	44722
698.656	44790
698.697	44680
698.738	44525
698.757	44352
698.779	44570
698.820	44733
698.862	44921
698.877	44863
698.903	44975
698.944	44974
698.985	44970
698.996	44850
699.026	45247
699.067	45627
699.116	45960
699.235	45066
699.354	43951
699.474	42587
699.593	43124
699.713	42790
699.832	42410
699.951	43923
700.070	43972
700.190	40805
700.309	41279
700.428	40588
700.547	39732
700.667	40032
700.786	40633
700.905	39366
701.024	39926
701.143	38259
701.262	39876
701.381	40152
701.500	39552
701.619	39757
701.738	39872
701.857	37734
701.976	38201
702.095	37954
702.214	38876
702.333	37500
702.452	37765
702.571	38652
702.690	39698
702.809	38358
702.928	37522
703.047	35501
703.165	36435
703.284	35184
703.403	35009
703.522	36513
703.640	35032
703.759	35793
703.878	37238
703.997	35241
704.115	34679
704.234	34138
704.353	34462
704.471	34155
704.590	32692
704.708	34105
704.827	33102
704.946	33076
705.064	34327
705.183	34229
705.301	36164
705.420	42472
705.538	39896
705.656	36400
705.775	36925
705.893	46701
706.012	51966
706.130	38821
706.249	37384
706.367	36185
706.485	37185
706.604	35484
706.722	34920
706.840	40595
706.958	53661
707.077	41693
707.195	35060
707.313	34494
707.431	32559
707.549	32789
707.668	32288
707.786	33622
707.904	32356
708.022	33616
708.140	31567
708.258	31623
708.376	32739
708.494	31326
708.612	33840
708.730	41609
708.848	38747
708.966	36648
709.084	36134
709.202	34911
709.320	35159
709.438	34633
709.556	35581
709.674	34946
709.791	34651
709.909	34284
710.027	33066
710.145	32210
710.263	33508
710.380	33168
710.498	32891
710.616	33553
710.733	30901
710.851	31416
710.969	31825
711.086	31306
711.204	32961
711.322	31053
711.439	30779
711.557	31419
711.674	30911
711.792	30387
711.909	30985
712.027	31826
712.144	29926
712.262	30242
712.379	31942
712.497	38532
712.614	40542
712.732	35838
712.849	33372
712.966	33949
713.084	36269
713.201	33204
713.318	34407
713.436	35030
713.553	33050
713.670	35158
713.787	34473
713.905	34727
714.022	34555
714.139	33819
714.256	36464
714.373	41967
714.490	55766
714.608	111006
714.725	373319
714.842	369384
714.959	56690
715.076	37401
715.193	32890
715.310	32567
715.427	30164
715.544	29972
715.661	30545
715.778	30113
715.895	31694
716.011	31392
716.128	30008
716.245	30330
716.362	28677
716.479	29846
716.596	29023
716.713	29087
716.829	27981
716.946	27909
717.063	26595
717.180	27699
717.296	26810
717.413	26959
717.530	27196
717.646	26235
717.763	26478
717.880	25678
717.996	25093
718.113	25223
718.229	25354
718.346	24188
718.462	24950
718.579	25656
718.695	26257
718.812	26561
718.928	26797
719.045	25779
719.161	24469
719.277	23845
719.394	24609
719.510	24657
719.626	25876
719.743	29803
719.859	32813
719.975	48391
720.092	137975
720.208	287074
720.324	51519
720.440	28235
720.557	26502
720.673	26224
720.789	30354
720.905	42466
721.021	27809
721.137	23131
721.253	22635
721.369	23132
721.486	23167
721.602	25039
721.718	23178
721.834	21519
721.950	21664
722.066	21225
722.181	21445
722.297	22281
722.413	21442
722.529	21832
722.645	20468
722.761	20432
722.877	20948
722.993	21543
723.108	23106
723.224	21834
723.340	20915
723.456	20435
723.571	20893
723.687	19122
723.803	20575
723.918	19334
724.034	20004
724.150	18335
724.265	19682
724.381	24683
724.497	26565
724.612	19412
724.728	19268
724.843	18148
724.959	18671
725.074	23364
725.190	25925
725.305	19383
725.421	18284
725.536	18322
725.651	18804
725.767	17707
725.882	18188
725.997	18526
726.113	17923
726.228	17434
726.343	18130
726.459	16926
726.574	18032
726.689	17081
726.804	16938
726.920	17618
727.035	18144
727.150	17095
727.265	17423
727.380	17844
727.495	17555
727.610	16721
727.725	17077
727.841	18637
727.956	23856
728.071	21820
728.186	16565
728.301	15694
728.416	17516
728.531	16731
728.645	16030
728.760	15937
728.875	15336
728.990	16122
729.105	16200
729.220	15750
729.335	15426
729.449	16267
729.564	16301
729.679	14738
729.794	16067
729.908	16073
730.023	15194
730.138	15227
730.253	15823
730.367	14609
730.482	15041
730.596	15252
730.711	17432
730.826	19505
730.940	21660
731.055	17417
731.169	16868
731.284	16304
731.398	16893
731.513	17005
731.627	17863
731.742	19315
731.856	21688
731.970	20066
732.085	23279
732.199	27697
732.313	39954
732.428	82675
732.542	219666
732.656	130415
732.771	35494
732.885	25118
732.999	24014
733.113	26122
733.227	24685
733.342	24759
733.456	23586
733.570	23496
733.684	22711
733.798	22565
733.912	22762
734.026	22080
734.140	21951
734.254	21189
734.368	23375
734.482	25916
734.596	22220
734.710	21410
734.824	21576
734.938	20189
735.052	20297
735.166	20826
735.280	21491
735.393	20553
735.507	20191
735.621	20967
735.735	23583
735.849	21014
735.962	19724
736.076	19970
736.190	19384
736.303	20494
736.417	22054
736.531	19406
736.644	19648
736.758	18846
736.872	19229
736.985	19280
737.099	19479
737.212	18234
737.326	17976
737.439	18814
737.553	17367
737.666	17711
737.780	18880
737.893	19249
738.007	18379
738.120	18565
738.233	16266
738.347	18174
738.460	17285
738.573	17710
738.687	17348
738.800	17617
738.913	18292
739.026	17759
739.140	17234
739.253	17491
739.366	17525
739.479	17679
739.592	17455
739.705	16906
739.818	17358
739.932	17012
740.045	16981
740.158	16704
740.271	17286
740.384	17413
740.497	15776
740.610	16500
740.723	16643
740.836	16578
740.949	16128
741.062	17697
741.174	17430
741.287	15647
741.400	17364
741.513	15366
741.626	16551
741.739	16308
741.851	15392
741.964	15668
742.077	15200
742.189	15142
742.302	16013
742.415	15668
742.527	15173
742.640	15603
742.753	14416
742.865	15487
742.978	15706
743.090	14357
743.203	15618
743.316	15001
743.428	14904
743.541	15773
743.653	13330
743.766	15214
743.878	15513
743.990	14947
744.103	15612
744.215	15365
744.327	15004
744.440	15368
744.552	15372
744.664	14777
744.777	14663
744.889	14527
745.001	15075
745.113	15043
745.226	14532
745.338	15017
745.450	14941
745.562	14906
745.674	14085
745.786	14710
745.898	14951
746.010	13844
746.122	14569
746.234	14655
746.347	14674
746.459	15138
746.570	12948
746.682	14013
746.794	14859
746.906	14429
747.018	13947
747.130	15166
747.242	13337
747.354	13418
747.466	14826
747.577	13311
747.689	13583
747.801	13631
747.913	13246
748.024	13237
748.136	13168
748.248	13136
748.359	13679
748.471	13910
748.583	13343
748.694	13543
748.806	14812
748.918	14104
749.029	13501
749.141	13246
749.252	14725
749.364	13388
749.475	14200
749.587	13998
749.698	12140
749.809	13688
749.921	13432
750.032	13159
750.144	13033
750.255	12646
750.366	13847
750.478	12699
750.589	14007
750.700	12859
750.811	13494
750.923	13785
751.034	14053
751.145	13759
751.256	13038
751.367	13024
751.479	13758
751.590	12489
751.701	12887
751.812	13246
751.923	12494
752.034	14452
752.145	13500
752.256	13615
752.367	13384
752.478	13680
752.589	14175
752.700	13737
752.811	12940
752.922	14261
753.032	14209
753.143	14023
753.254	12723
753.365	14425
753.476	14736
753.586	13438
753.697	13231
753.808	13204
753.919	13643
754.029	14354
754.140	13769
754.251	13339
754.361	14569
754.472	14196
754.582	13666
754.693	13368
754.804	14698
754.914	13369
755.025	14178
755.135	14512
755.246	14758
755.356	13633
755.466	13440
755.577	13904
755.687	15542
755.798	14515
755.908	13803
756.018	13506
756.129	14050
756.239	14197
756.349	14593
756.460	14458
756.570	15377
756.680	14583
756.790	15487
756.900	14884
757.011	15295
757.121	15200
757.231	14972
757.341	15918
757.451	15788
757.561	14041
757.671	15513
757.781	16708
757.891	16490
758.001	15783
758.111	16071
758.221	17652
758.331	16239
758.441	16025
758.551	16783
758.661	16629
758.771	18003
758.880	18417
758.990	17570
759.100	18311
759.210	18941
759.320	19130
759.429	19204
759.539	20048
759.649	18840
759.758	20658
759.868	21710
759.978	20782
760.087	22297
760.197	22145
760.307	22547
760.416	21725
760.526	21885
760.635	23505
760.745	23538
760.854	24731
760.964	25395
761.073	24981
761.182	25956
761.292	25051
761.401	25541
761.511	26027
761.620	26110
761.729	27965
761.839	27041
761.948	28222
762.057	28088
762.166	29739
762.276	29036
762.385	31121
762.494	31219
762.603	32566
762.712	34529
762.822	36077
762.931	37780
763.040	37137
763.149	40095
763.258	41793
763.367	44504
763.476	44976
763.585	46397
763.694	48883
763.803	51154
763.912	55346
764.021	58057
764.130	61895
764.238	63950
764.347	68729
764.456	73275
764.565	79961
764.674	86276
764.783	93416
764.891	102594
765.000	113815
765.109	127880
765.217	141801
765.326	163570
765.435	186077
765.543	217396
765.652	255230
765.761	303729
765.869	366508
765.978	437870
766.086	515688
766.195	586442
766.303	604996
766.412	446442
766.520	436528
766.629	564276
766.737	564281
766.846	508228
766.954	432898
767.062	360355
767.171	298546
767.279	248839
767.387	207930
767.496	177808
767.604	154216
767.712	139437
767.820	124684
767.928	114619
768.037	106815
768.145	100990
768.253	97505
768.361	94952
768.469	94628
768.577	95838
768.685	100491
768.793	105170
768.901	115061
769.009	130238
769.117	154662
769.225	185954
769.333	237489
769.441	310408
769.549	414333
769.657	526415
769.765	563710
769.873	417682
769.981	499626
770.088	504645
770.196	422941
770.304	333277
770.412	265259
770.519	214916
770.627	177951
770.735	150541
770.842	128331
770.950	112331
771.058	100962
771.165	91330
771.273	83132
771.380	76001
771.488	71551
771.595	68207
771.703	62824
771.810	58188
771.918	56058
772.025	52940
772.133	52269
772.240	48767
772.348	48080
772.455	46761
772.562	43110
772.670	41509
772.777	40415
772.884	38921
772.991	38001
773.099	37234
773.206	34398
773.313	34378
773.420	34338
773.528	32471
773.635	31014
773.742	32745
773.849	29542
773.956	29333
774.063	29340
774.170	28615
774.277	28606
774.384	27788
774.491	27436
774.598	26089
774.705	25799
774.812	25636
774.919	25066
775.026	25163
775.133	25363
775.239	24219
775.346	23545
775.453	23253
775.560	23066
775.667	23217
775.773	21523
775.880	22675
775.987	21853
776.093	21293
776.200	21916
776.307	19479
776.413	20592
776.520	21797
776.627	20372
776.733	18690
776.840	18022
776.946	20745
777.053	18784
777.159	18426
777.266	16544
777.372	17774
777.478	17918
777.585	18821
777.691	16827
777.798	17590
777.904	16724
778.010	16542
778.117	17211
778.223	16145
778.329	16525
778.435	15730
778.542	16456
778.648	15722
778.754	14880
778.860	15413
778.966	16242
779.072	15274
779.178	15306
779.284	14447
779.391	15367
779.497	16608
779.603	20486
779.708	23090
779.815	40589
779.920	115347
780.026	194970
780.132	51490
780.238	21090
780.344	17175
780.450	17372
780.556	14691
780.661	13464
780.767	14535
780.873	12516
780.979	13839
781.085	13143
781.190	12851
781.296	12271
781.402	11800
781.507	13316
781.613	11567
781.719	12050
781.824	13126
781.930	12370
782.035	11767
782.141	12656
782.246	11345
782.352	10949
782.457	12071
782.563	11408
782.668	11961
782.773	10987
782.879	10051
782.984	11282
783.090	11503
783.195	11898
783.300	12319
783.405	10715
783.511	10057
783.616	10797
783.721	11053
783.826	9920
783.932	10688
784.037	10723
784.142	10754
784.247	10884
784.352	10505
784.457	9541
784.562	10723
784.667	10059
784.772	10141
784.877	9534
784.982	10310
785.087	10663
785.192	8987
785.297	9760
785.402	9874
785.507	9364
785.611	10043
785.716	8685
785.821	9169
785.926	9197
786.031	9336
786.135	9442
786.240	9147
786.345	8203
786.450	9530
786.554	9593
786.659	8136
786.763	8284
786.868	9625
786.973	9535
787.077	8478
787.182	8298
787.286	9253
787.391	8123
787.495	7059
787.600	7347
787.704	8903
787.809	8468
787.913	7905
788.017	8614
788.122	8401
788.226	8277
788.330	6307
788.435	7862
788.539	8354
788.643	7176
788.747	6600
788.852	8505
788.956	8079
789.060	9109
789.164	7988
789.268	7058
789.372	8294
789.476	7212
789.580	6386
789.684	7224
789.788	9185
789.892	7561
789.996	7456
790.100	6566
790.204	7832
790.308	8150
790.412	6633
790.516	7691
790.620	6985
790.724	7834
790.828	7481
790.931	5880
791.035	8200
791.139	7014
791.242	6693
791.346	7348
791.450	7327
791.554	6848
791.657	5943
791.761	7427
791.864	7238
791.968	7859
792.072	7519
792.175	5738
792.279	6446
792.382	6658
792.486	6745
792.589	6309
792.693	7251
792.796	5178
792.899	7847
793.003	6654
793.106	5392
793.209	6262
793.313	6590
793.416	4766
793.519	6635
793.623	7209
793.726	6671
793.829	6302
793.932	6743
794.035	5279
794.138	8012
794.242	7731
794.345	7632
794.448	10831
794.551	20835
794.654	63166
794.757	126065
794.860	30254
794.963	9533
795.066	7128
795.169	8040
795.272	6516
795.375	6926
795.477	5668
795.580	6166
795.683	4157
795.786	6311
795.889	5854
795.991	6923
796.094	5914
796.197	5112
796.300	6997
796.402	5984
796.505	4661
796.608	4811
796.710	5092
796.813	5858
796.915	5737
797.018	5588
797.120	5536
797.223	3985
797.326	6694
797.428	4752
797.530	5262
797.633	5462
797.735	6629
797.838	5046
797.940	7142
798.042	5281
798.145	4987
798.247	6042
798.349	4202
798.452	5682
798.554	4499
798.656	5036
798.758	6040
798.860	4972
798.962	3673
799.065	4015
799.167	3587
799.269	5614
799.371	5533
799.473	5910
799.575	4471
799.677	5494
799.779	5820
799.881	3766
799.983	5178
800.085	4694
800.187	5399
800.289	4578
800.390	5040
800.492	4888
800.594	5866
800.696	4247
800.798	4274
800.899	4314
801.001	4719
801.103	4305
801.205	4240
801.306	4813
801.408	4444
801.509	4573
801.611	4793
801.713	4429
801.814	3932
801.916	4543
802.017	3743
802.119	3691
802.220	4163
802.322	2966
802.423	5530
802.525	4070
802.626	4691
802.727	5025
802.829	5021
802.930	1891
803.031	5421
803.133	4004
803.234	4465
803.335	5157
803.436	3835
803.538	3776
803.639	2810
803.740	4837
803.841	3851
803.942	5111
804.043	4556
804.144	3520
804.245	3603
804.346	3499
804.447	3171
804.548	4051
804.649	5040
804.750	3745
804.851	3478
804.952	3257
805.053	3140
805.154	2518
805.255	4813
805.355	4561
805.456	4893
805.557	3246
805.658	2676
805.758	4447
805.859	3494
805.960	3356
806.061	3112
806.161	3155
806.262	3230
806.362	3753
806.463	3851
806.564	3845
806.664	4016
806.765	3716
806.865	3320
806.966	3356
807.066	2978
807.166	4061
807.267	4316
807.367	2860
807.468	3623
807.568	2917
807.668	4576
807.769	4177
807.869	3538
807.969	3824
808.069	2965
808.170	4092
808.270	3278
808.370	4203
808.470	3213
808.570	2823
808.670	2831
808.770	4829
808.870	2626
808.970	3623
809.070	3324
809.170	2744
809.271	3485
809.370	3127
809.470	2965
809.570	2930
809.670	2155
809.770	3747
809.870	4583
809.970	3040
810.070	3332
810.169	4122
810.269	2083
810.369	3816
810.469	2721
810.568	3346
810.668	3506
810.768	2847
810.867	3141
810.967	2680
811.066	3414
811.166	2660
811.265	3946
811.365	3372
811.464	2979
811.564	3543
811.663	3298
811.763	1723
811.862	3935
811.962	3372
812.061	2920
812.160	2761
812.260	3384
812.359	4237
812.458	3386
812.557	5884
812.657	6542
812.756	4391
812.855	3295
812.954	2288
813.053	3576
813.153	3542
813.252	2060
813.351	3915
813.450	2701
813.549	2688
813.648	3592
813.747	2487
813.846	3781
813.945	3242
814.044	3277
814.143	3864
814.242	3026
814.341	2408
814.439	4409
814.538	2755
814.637	3314
814.736	3726
814.835	4138
814.933	3789
815.032	3644
815.131	4620
815.229	6912
815.328	10261
815.427	7677
815.525	7123
815.624	7082
815.722	6816
815.821	6838
815.919	6614
816.018	7274
816.116	7488
816.215	7117
816.313	7197
816.412	8827
816.510	9991
816.609	10126
816.707	10367
816.805	8291
816.904	7605
817.002	8074
817.100	9051
817.198	9403
817.296	8278
817.395	9114
817.493	9487
817.591	7976
817.689	9223
817.787	8834
817.885	9963
817.983	10948
818.081	15878
818.179	29537
818.277	68730
818.375	63016
818.473	20655
818.571	11808
818.669	10112
818.767	10596
818.865	9962
818.963	9147
819.061	10647
819.158	15220
819.256	25952
819.354	53255
819.452	118716
819.549	79036
819.647	25206
819.745	13047
819.842	9739
819.940	9844
820.038	8073
820.135	7308
820.233	9154
820.330	7693
820.428	6882
820.525	8865
820.623	7088
820.720	6413
820.818	7008
820.915	7812
821.012	6686
821.110	5358
821.207	7711
821.304	6193
821.402	7229
821.499	6893
821.596	6224
821.693	6769
821.791	6309
821.888	6392
821.985	7981
822.082	5547
822.179	6590
822.276	6378
822.373	5670
822.470	5611
822.567	6914
822.664	5614
822.761	5925
822.858	5952
822.955	5813
823.052	5059
823.149	5575
823.246	5989
823.343	4649
823.440	6352
823.536	5697
823.633	4957
823.730	5673
823.827	6047
823.923	6058
824.020	6175
824.117	5784
824.213	4835
824.310	5316
824.407	4656
824.503	5319
824.600	4978
824.696	4722
824.793	6037
824.889	6248
824.986	5445
825.082	4079
825.179	4517
825.275	5901
825.371	6055
825.468	5102
825.564	3766
825.660	5358
825.757	6273
825.853	5549
825.949	3981
826.045	4137
826.142	4131
826.238	5013
826.334	5156
826.430	5017
826.526	4563
826.622	3306
826.718	6095
826.814	5354
826.910	5035
827.006	3662
827.102	3958
827.198	5336
827.294	4638
827.390	6094
827.486	5435
827.582	2397
827.678	3432
827.774	4629
827.869	3606
827.965	5231
828.061	3416
828.157	5402
828.252	5851
828.348	3558
828.444	4510
828.539	3384
828.635	4737
828.731	5326
828.826	3925
828.922	5003
829.017	5050
829.113	5079
829.208	3337
829.304	3497
829.399	6009
829.495	4446
829.590	5278
829.685	3863
829.781	4051
829.876	5420
829.971	2462
830.066	2883
830.162	3862
830.257	5346
830.352	4211
830.447	3924
830.543	3479
830.638	2709
830.733	5400
830.828	3360
830.923	3870
831.018	3854
831.113	4595
831.208	2818
831.303	2425
831.398	3265
831.493	3629
831.588	4983
831.683	3612
831.778	3616
831.873	3268
831.967	4558
832.062	2936
832.157	2896
832.252	3641
832.346	3184
832.441	3719
832.536	3736
832.631	5142
832.725	3996
832.820	2893
832.914	4005
833.009	2996
833.104	3044
833.198	3396
833.293	3544
833.387	4584
833.482	4468
833.576	2518
833.670	4348
833.765	3460
833.859	3925
833.954	3216
834.048	3582
834.142	3307
834.237	2844
834.331	2974
834.425	3818
834.519	2726
834.613	3725
834.708	2689
834.802	3755
834.896	2710
834.990	3065
835.084	3515
835.178	2583
835.272	2528
835.366	3478
835.460	3793
835.554	3754
835.648	2499
835.742	1538
835.836	2789
835.930	1943
836.024	3633
836.117	4216
836.211	3659
836.305	4394
836.399	3397
836.493	2693
836.586	3823
836.680	2443
836.774	1812
836.867	3407
836.961	1606
837.055	1970
837.148	1895
837.242	2889
837.335	3804
837.429	2835
837.522	1773
837.616	2166
837.709	3998
837.803	3265
837.896	2908
837.989	3274
838.083	3558
838.176	3209
838.269	3873
838.363	3255
838.456	2524
838.549	4520
838.642	2746
838.735	3148
838.829	3532
838.922	2672
839.015	2156
839.108	1030
839.201	2435
839.294	3527
839.387	2289
839.480	2694
839.573	2437
839.666	2942
839.759	2946
839.852	2792
839.945	2607
840.038	2298
840.131	1324
840.223	2445
840.316	2928
840.409	3211
840.502	2692
840.594	3793
840.687	1408
840.780	1892
840.873	2745
840.965	2146
841.058	3435
841.150	4648
841.243	2580
841.336	2381
841.428	1914
841.521	1639
841.613	1815
841.706	2495
841.798	1921
841.890	2503
841.983	1076
842.075	2158
842.167	1687
842.260	2552
842.352	2587
842.444	2655
842.537	3450
842.629	4613
842.721	1996
842.813	2574
842.905	2211
842.997	2916
843.090	2670
843.182	2585
843.274	2175
843.366	5750
843.458	10019
843.550	7777
843.642	2901
843.734	2915
843.826	2141
843.918	2474
844.009	1492
844.101	2153
844.193	2247
844.285	1380
844.377	3040
844.469	2312
844.560	955
844.652	1596
844.744	2536
844.835	1890
844.927	1925
845.019	2108
845.110	2201
845.202	2204
845.293	2384
845.385	1302
845.476	2593
845.568	2672
845.659	1876
845.751	2408
845.842	1795
845.934	1919
846.025	1902
846.116	1994
846.208	2048
846.299	1724
846.390	1542
846.482	2361
846.573	2346
846.664	2724
846.755	1821
846.846	2303
846.937	522
847.029	1234
847.120	2456
847.211	2391
847.302	2669
847.393	1037
847.484	1766
847.575	948
847.666	1159
847.757	1727
847.847	1544
847.938	3271
848.029	1501
848.120	1557
848.211	2492
848.302	1172
848.392	749
848.483	2277
848.574	1759
848.664	1900
848.755	1941
848.846	2045
848.936	1379
849.027	1463
849.118	2964
849.208	2161
849.299	2362
849.389	3337
849.480	4720
849.570	7813
849.661	12473
849.751	21363
849.841	8981
849.932	3246
850.022	1869
850.112	2465
850.203	1672
850.293	2115
850.383	1435
850.474	1471
850.564	1574
850.654	2051
850.744	2101
850.834	1736
850.924	1330
851.014	2140
851.104	1964
851.194	1844
851.284	1758
851.374	2441
851.464	1056
851.554	1777
851.644	1853
851.734	2535
851.824	3221
851.914	3599
852.004	6225
852.094	7762
852.183	2203
852.273	1634
852.363	1861
852.452	2241
852.542	1472
852.632	1040
852.721	2365
852.811	1302
852.901	2098
852.990	1803
853.080	1265
853.169	1830
853.259	1977
853.348	1485
853.438	2341
853.527	3051
853.617	2955
853.706	5151
853.795	7503
853.885	17244
853.974	28851
854.063	52275
854.152	76551
854.242	33201
854.331	7670
854.420	3918
854.509	3631
854.598	3099
854.687	2553
854.777	2440
854.866	351
854.955	1896
855.044	1226
855.133	1980
855.222	1181
855.311	1328
855.400	1564
855.488	1590
855.577	1493
855.666	2016
855.755	1949
855.844	2261
855.933	2389
856.021	1568
856.110	874
856.199	320
856.288	1504
856.376	1475
856.465	887
856.554	1355
856.642	1878
856.731	1601
856.819	1763
856.908	1373
856.996	1735
857.085	855
857.173	1006
857.262	1020
857.350	669
857.438	1403
857.527	1686
857.615	1074
857.703	1294
857.792	1122
857.880	1160
857.968	977
858.056	1306
858.145	1167
858.233	831
858.321	1575
858.409	1430
858.497	1089
858.585	1852
858.673	1762
858.761	1565
858.849	1969
858.937	245
859.025	1490
859.113	2262
859.201	805
859.289	3121
859.377	627
859.465	1667
859.552	905
859.640	822
859.728	1252
859.816	1313
859.903	1549
859.991	943
860.079	1945
860.166	1911
860.254	1333
860.342	2052
860.429	468
860.517	1704
860.604	2136
860.692	1803
860.779	669
860.867	1382
860.954	1803
861.042	1694
861.129	2152
861.216	1374
861.304	1031
861.391	1789
861.478	1736
861.565	1686
861.653	2275
861.740	1013
861.827	1549
861.914	924
862.001	884
862.089	1491
862.176	1138
862.263	1012
862.350	1373
862.437	1334
862.524	1594
862.611	1092
862.698	1295
862.785	1119
862.871	2196
862.958	2096
863.045	1454
863.132	1514
863.219	1987
863.306	522
863.392	1848
863.479	1082
863.566	1652
863.652	878
863.739	1235
863.826	1408
863.912	1943
863.999	1493
864.086	1768
864.172	2271
864.259	1754
864.345	1419
864.432	1908
864.518	1840
864.604	1323
864.691	1184
864.777	2366
864.863	2360
864.950	3373
865.036	4573
865.122	8001
865.209	9131
865.295	7614
865.381	6042
865.467	6772
865.553	6995
865.639	7037
865.726	8991
865.812	13489
865.898	19679
865.984	27710
866.070	45741
866.156	50133
866.242	19260
866.328	9243
866.414	6469
866.499	6598
866.585	6907
866.671	6456
866.757	6874
866.843	6203
866.928	6008
867.014	5159
867.100	6343
867.186	5059
867.271	5690
867.357	6141
867.442	6010
867.528	5641
867.614	5746
867.699	5360
867.785	5327
867.870	4515
867.956	5221
868.041	5792
868.127	5041
868.212	5328
868.297	5551
868.383	5522
868.468	6039
868.553	5949
868.639	6079
868.724	6422
868.809	6671
868.894	5437
868.979	4297
869.065	5331
869.150	3776
869.235	4484
869.320	4546
869.405	4349
869.490	4884
869.575	5242
869.660	4365
869.745	5455
869.830	5380
869.915	4351
870.000	4735
870.085	4467
870.169	5264
870.254	5895
870.339	4138
870.424	3654
870.509	4916
870.593	5689
870.678	5327
870.763	4080
870.847	3938
870.932	4256
871.016	4338
871.101	3317
871.186	3844
871.270	5153
871.355	3351
871.439	4050
871.523	3239
871.608	4337
871.692	3943
871.777	4874
871.861	4499
871.945	3849
872.030	4292
872.114	3996
872.198	3330
872.282	3574
872.367	2982
872.451	3155
872.535	3524
872.619	4586
872.703	3538
872.787	3965
872.871	3585
872.955	3297
873.039	2769
873.123	3399
873.207	5001
873.291	2668
873.375	2717
873.459	3734
873.543	2488
873.627	3433
873.711	2663
873.794	3280
873.878	3615
873.962	2493
874.045	3382
874.129	2574
874.137	2631
874.213	3210
874.245	3341
874.296	3557
874.352	2911
874.380	2594
874.460	3314
874.464	3345
874.547	3152
874.568	3277
874.631	3659
874.676	3174
874.714	2756
874.784	3855
874.798	4077
874.881	4081
874.892	3872
874.965	2416
874.999	2775
875.048	3299
875.107	2782
875.131	2558
875.215	2693
875.215	2692
875.298	1983
875.323	2382
875.381	3331
875.430	3314
875.465	3312
875.538	3057
875.548	3017
875.631	2234
875.646	2293
875.714	2629
875.753	2809
875.798	2952
875.861	2823
875.881	2826
875.964	3280
875.968	3212
876.047	1906
876.076	2293
876.130	3010
876.183	2975
876.213	2934
876.291	3455
876.296	3493
876.379	2258
876.398	2193
876.462	2018
876.506	2075
876.545	2132
876.613	2771
876.628	2893
876.711	2609
876.721	2640
876.794	3024
876.828	2892
876.877	2578
876.935	2282
876.960	2186
877.043	2105
877.043	2104
877.125	1825
877.150	2112
877.208	2874
877.258	2475
877.291	2110
877.365	1532
877.374	1495
877.456	2452
877.472	2370
877.539	1807
877.579	2086
877.622	2440
877.687	2121
877.704	2013
877.787	1661
877.794	1717
877.869	2308
877.901	2203
877.952	2099
878.008	1967
878.034	1859
878.115	1660
878.117	1659
878.199	1502
878.222	1662
878.282	1899
878.329	2112
878.364	2319
878.437	2088
878.447	2047
878.529	997
878.544	941
878.611	685
878.651	1100
878.694	1572
878.758	1930
878.776	2034
878.858	1823
878.865	1805
878.941	1406
878.972	1298
879.023	1222
879.078	1510
879.105	1680
879.185	1661
879.187	1658
879.269	1719
879.292	1827
879.351	2010
879.399	1530
879.433	1221
879.506	1351
879.516	1375
879.598	1656
879.613	1636
879.680	1319
879.720	1271
879.762	1366
879.827	1636
879.844	1614
879.926	1340
879.933	1304
880.007	1479
880.040	1444
880.089	1224
880.147	1255
880.171	1312
880.253	1635
880.254	1637
880.335	1351
880.360	1405
880.417	1918
880.467	2213
880.499	2369
880.574	2579
880.580	2574
880.662	2459
880.680	2295
880.744	1559
880.787	1152
880.825	995
880.893	1149
880.907	1122
880.989	1047
881.000	1085
881.070	1612
881.106	1421
881.152	1141
881.213	1259
881.233	1190
881.315	850
881.319	864
881.396	1597
881.426	1367
881.478	604
881.532	987
881.559	1287
881.639	655
881.641	635
881.722	674
881.745	669
881.803	994
881.852	864
881.885	554
881.958	613
881.966	647
882.047	1116
882.064	1106
882.129	1091
882.171	1171
882.210	852
882.277	209
882.291	248
882.372	979
882.383	1000
882.454	853
882.489	957
882.535	1287
882.596	1661
882.616	1517
882.697	410
882.702	385
882.778	897
882.808	986
882.859	651
882.914	518
882.940	599
883.020	431
883.021	425
883.102	537
883.127	511
883.183	1002
883.233	1213
883.264	931
883.339	473
883.345	506
883.426	870
883.445	1076
883.507	1035
883.551	736
883.587	765
883.657	1240
883.668	1233
883.749	491
883.763	478
883.830	752
883.869	577
883.910	239
883.975	319
883.991	419
884.072	576
884.081	576
884.152	652
884.187	855
884.233	940
884.292	917
884.314	766
884.394	60
884.398	31
884.475	254
884.504	422
884.555	329
884.610	257
884.636	311
884.716	452
884.716	448
884.797	285
884.821	316
884.877	779
884.927	942
884.958	691
885.033	429
885.038	413
885.118	298
885.139	177
885.199	143
885.244	453
885.279	829
885.350	1315
885.359	1241
885.439	543
885.456	344
885.520	578
885.561	885
885.600	697
885.667	314
885.680	311
885.760	774
885.773	729
885.840	368
885.878	390
885.920	330
885.984	218
886.000	149
886.080	-125
886.089	-166
886.160	121
886.195	283
886.240	372
886.300	469
886.320	511
886.400	793
886.406	809
886.480	131
886.511	-151
886.560	52
886.616	314
886.640	193
886.720	-243
886.722	-248
886.800	221
886.827	385
886.879	315
886.932	350
886.959	501
887.038	732
887.039	720
887.119	61
887.143	-157
887.198	216
887.248	682
887.278	329
887.354	-870
887.358	-848
887.437	-112
887.459	144
887.517	346
887.564	290
887.596	299
887.669	563
887.676	529
887.755	66
887.774	-21
887.835	173
887.880	278
887.914	182
887.985	34
887.994	30
888.073	67
888.090	49
888.153	87
888.195	152
888.232	132
888.300	121
888.311	87
888.391	-87
888.405	-118
888.470	-270
888.510	-388
888.549	-608
888.615	-796
888.628	-646
888.708	170
888.720	303
888.787	145
888.825	50
888.866	-171
888.930	-426
888.945	-284
889.024	478
889.035	586
889.103	756
889.140	836
889.182	313
889.245	-431
889.261	-410
889.340	-220
889.349	-196
889.419	-29
889.454	69
889.498	-113
889.559	-326
889.577	-190
889.656	431
889.664	499
889.735	114
889.768	-64
889.814	-173
889.873	-304
889.978	419
890.083	475
890.187	247
890.292	-71
890.397	117
890.501	292
890.606	39
890.710	865
890.815	286
890.919	265
891.024	-674
891.128	41
891.233	-209
891.337	-519
891.442	288
891.546	-202
891.650	-23
891.755	-401
891.859	964
891.963	-187
892.068	393
892.172	315
892.276	345
892.380	-114
892.484	0
892.589	-208
892.693	161
892.797	-341
892.901	75
893.005	-98
893.109	-487
893.213	-222
893.317	828
893.421	295
893.525	51
893.629	-861
893.733	108
893.837	-373
893.941	1
894.045	417
894.148	-469
894.252	246
894.356	655
894.460	235
894.564	-73
894.667	-1093
894.771	626
894.875	-39
894.978	490
895.082	99
895.186	-228
895.289	-175
895.393	537
895.496	605
895.600	-3
895.703	-100
895.807	32
895.910	-203
896.014	-54
896.117	-1046
896.221	363
896.324	61
896.427	61
896.531	63
896.634	-393
896.737	372
896.840	468
896.944	482
897.047	-308
897.150	-66
897.253	124
897.356	-449
897.460	-524
897.563	-789
897.666	-605
897.769	-191
897.872	-397
897.975	59
898.078	-628
898.181	-82
898.284	61
898.387	-926
898.490	-169
898.593	-21
898.695	204
898.798	-292
898.901	597
899.004	641
899.107	304
899.209	-419
899.312	-59
899.415	-460
899.518	-31
899.620	-185
899.723	279
899.826	-449
899.928	-99
900.031	-77
900.133	177
900.236	-660
900.338	256
900.441	-251
900.543	-45
900.646	-1010
900.748	-312
900.851	-282
900.953	723
901.055	-509
901.158	-507
901.260	-187
901.362	-293
901.465	128
901.567	415
901.669	166
901.771	41
901.873	-354
901.976	40
902.078	-688
902.180	357
902.282	68
902.384	-19
902.486	-139
902.588	-114
902.690	-740
902.792	248
902.894	-778
902.996	468
903.098	433
903.200	-54
903.302	-207
903.404	74
903.505	430
903.607	-303
903.709	61
903.811	133
903.913	-531
904.014	726
904.116	-1193
904.218	-83
904.319	-205
904.421	788
904.523	-206
904.624	-202
904.726	96
904.827	329
904.929	-661
905.030	-88
905.132	-44
905.233	421
905.335	-675
905.436	503
905.537	-1297
905.639	284
905.740	-924
905.841	-59
905.943	-185
906.044	-274
906.145	256
906.247	-376
906.348	172
906.449	417
906.550	-229
906.651	408
906.752	-723
906.854	-186
906.955	314
907.056	184
907.157	79
907.258	407
907.359	-607
907.460	-613
907.561	-19
907.662	-16
907.762	24
907.863	-10
907.964	-263
908.065	789
908.166	-519
908.267	-295
908.367	-295
908.468	-386
908.569	-436
908.670	118
908.770	-273
908.871	333
908.971	332
909.072	136
909.173	-700
909.273	-306
909.374	-635
909.474	-280
909.575	-163
909.675	485
909.776	890
909.876	-222
909.977	-645
910.077	406
910.177	-623
910.278	-316
910.378	-661
910.478	-75
910.579	-304
910.679	-720
910.779	-223
910.879	836
910.980	-207
911.080	160
911.180	20
911.280	-550
911.380	-27
911.480	-43
911.580	-1565
911.680	493
911.780	-151
911.880	205
911.980	-818
912.080	-352
912.180	-194
912.280	77
912.380	-201
912.480	586
912.580	-187
912.679	13
912.779	-18
912.879	-138
912.979	-648
913.078	-707
913.178	-225
913.278	36
913.377	-496
913.477	-576
913.577	-759
913.676	-238
913.776	147
913.875	209
913.975	-298
914.074	-591
914.174	-651
914.273	-762
914.373	35
914.472	-384
914.572	-1127
914.671	-327
914.770	-584
914.870	-421
914.969	-234
915.068	-150
915.167	-255
915.267	-10
915.366	-471
915.465	-513
915.564	-115
915.663	-450
915.763	-441
915.862	179
915.961	-373
916.060	-869
916.159	-1038
916.258	-793
916.357	-104
916.456	15
916.555	-798
916.654	-318
916.752	-11
916.851	-393
916.950	-478
917.049	-695
917.148	-579
917.247	829
917.345	96
917.444	-17
917.543	-231
917.642	-513
917.740	-805
917.839	244
917.937	104
918.036	415
918.135	-139
918.233	-781
918.332	-771
918.430	-101
918.529	-795
918.627	-404
918.726	-343
918.824	417
918.923	-342
919.021	-110
919.119	-846
919.218	-405
919.316	-620
919.414	-596
919.512	-259
919.611	-381
919.709	-18
919.807	178
919.905	-180
920.003	-458
920.102	-9
920.200	-675
920.298	-43
920.396	-370
920.494	30
920.592	-39
920.690	-410
920.788	-426
920.886	138
920.984	-151
921.082	-1034
921.180	562
921.277	-969
921.375	232
921.473	-144
921.571	277
921.669	-578
921.766	2
921.864	228
921.962	358
922.060	-989
922.157	-101
922.255	-373
922.352	-214
922.450	333
922.548	878
922.645	-21
922.743	703
922.840	140
922.938	957
923.035	757
923.133	1266
923.230	1392
923.327	1731
923.425	1758
923.522	1731
923.619	1058
923.717	1455
923.814	962
923.911	775
924.008	1089
924.106	877
924.203	525
924.300	538
924.397	933
924.494	1380
924.591	536
924.688	1026
924.786	73
924.883	663
924.979	1072
925.077	1577
925.173	706
925.270	1515
925.367	1133
925.464	1097
925.561	1072
925.658	2026
925.755	305
925.852	848
925.948	283
926.045	1016
926.142	390
926.239	720
926.335	156
926.432	768
926.529	626
926.625	1450
926.722	534
926.818	556
926.915	1015
927.011	762
927.108	32
927.204	999
927.301	387
927.397	566
927.494	1016
927.590	-146
927.687	151
927.783	814
927.879	432
927.976	363
928.072	-605
928.168	442
928.264	-76
928.361	828
928.457	226
928.553	339
928.649	-390
928.745	249
928.841	756
928.937	639
929.033	257
929.129	425
929.225	-98
929.321	-373
929.417	167
929.513	217
929.609	555
929.705	356
929.801	91
929.897	129
929.993	316
930.089	823
930.184	291
930.280	997
930.376	759
930.471	-106
930.567	74
930.663	592
930.758	-714
930.854	136
930.950	-193
931.045	342
931.141	-20
931.236	882
931.332	7
931.427	625
931.523	-192
931.618	856
931.714	-602
931.809	-36
931.905	410
932.000	91
932.095	-564
932.191	525
932.286	622
932.381	138
932.476	-140
932.572	-494
932.667	51
932.762	90
932.857	-492
932.952	289
933.047	739
933.142	-47
933.237	228
933.332	390
933.427	613
933.522	496
933.617	262
933.712	-382
933.807	63
933.902	-653
933.997	-32
934.092	-532
934.187	158
934.282	362
934.376	-115
934.471	19
934.566	-963
934.661	-85
934.755	-447
934.850	255
934.945	-116
935.039	-717
935.134	-327
935.228	48
935.323	363
935.417	78
935.512	-442
935.606	-137
935.701	-78
935.795	518
935.890	155
935.984	-114
936.079	-576
936.173	282
936.267	-607
936.362	-419
936.456	-129
936.550	-126
936.644	-425
936.738	-255
936.833	-78
936.927	-441
937.021	-903
937.115	-403
937.209	-952
937.303	-97
937.397	-1096
937.491	-410
937.585	846
937.679	341
937.773	42
937.867	-19
937.961	-18
938.055	189
938.149	1054
938.243	-102
938.337	-647
938.430	-322
938.524	-643
938.618	-216
938.712	-902
938.805	297
938.899	-66
938.993	563
939.086	72
939.180	-296
939.274	-909
939.367	-107
939.461	191
939.554	-293
939.648	-611
939.741	-632
939.835	-656
939.928	-146
940.022	249
940.115	-900
940.208	-117
940.302	91
940.395	-276
940.488	-1179
940.582	-223
940.675	-280
940.768	-396
940.861	-821
940.954	82
941.048	-648
941.141	-843
941.234	-321
941.327	-24
941.420	620
941.513	-391
941.606	-649
941.699	-144
941.792	330
941.885	-113
941.978	-52
942.071	-327
942.164	-1221
942.257	-595
942.349	-161
942.442	-850
942.535	-25
942.628	-468
942.721	-767
942.813	-1321
942.906	-273
942.999	-574
943.091	-487
943.184	-316
943.277	-744
943.369	-164
943.462	-292
943.554	-414
943.647	70
943.739	-352
943.832	-432
943.924	-1924
944.017	-183
944.109	-1317
944.201	-1271
944.294	-805
944.386	-739
944.478	-631
944.571	-759
944.663	-1223
944.755	-790
944.847	-744
944.940	-830
945.032	-1033
945.124	-245
945.216	193
945.308	-653
945.400	163
945.492	133
945.584	-160
945.676	-35
945.768	-352
945.860	55
945.952	-864
946.044	-428
946.136	-1327
946.228	-78
946.320	-672
946.412	-551
946.503	-664
946.595	231
946.687	-574
946.779	-604
946.870	-731
946.962	-902
947.054	-285
947.145	310
947.237	-939
947.329	-695
947.420	-408
947.512	-1011
947.603	-1259
947.695	-321
947.786	-1561
947.878	-1756
947.969	-423
948.061	-885
948.152	-908
948.243	-619
948.335	-1370
948.426	-1455
948.517	-286
948.609	-696
948.700	-977
948.791	33
948.882	-922
948.973	-989
949.065	-1269
949.156	-56
949.247	-691
949.338	-373
949.429	-1542
949.520	-523
949.611	-858
949.702	-860
949.793	-1008
949.884	212
949.975	-476
950.066	-1281
950.157	-562
950.247	-203
950.338	-635
950.429	-770
950.520	-1109
950.611	-577
950.701	-784
950.792	-870
950.883	-890
950.973	-667
951.064	-1252
951.155	-1161
951.245	-710
951.336	-495
951.427	-606
951.517	381
951.608	-655
951.698	-591
951.788	-957
951.879	-571
951.969	-1546
952.060	-1118
952.150	-982
952.240	500
952.331	-2300
952.421	395
952.511	-1704
952.602	-605
952.692	-1564
952.782	-894
952.872	-1223
952.962	-826
953.052	-1550
953.143	-1934
953.233	-893
953.323	-486
953.413	-737
953.503	-726
953.593	-758
953.683	-446
953.773	-1222
953.863	-475
953.953	-1755
954.042	-696
954.132	-1795
954.222	303
954.312	-502
954.402	-620
954.492	-1102
954.581	-906
954.671	-861
954.761	-805
954.850	78
954.940	-641
955.030	-1586
955.119	-1556
955.209	-53
955.298	-993
955.388	-2025
955.477	-360
955.567	-1522
955.656	-342
955.746	-1306
955.835	-712
955.925	-805
956.014	-611
956.103	-368
956.193	-373
956.282	-1146
956.371	-126
956.461	-1677
956.550	-875
956.639	-1361
956.728	-834
956.817	-1486
956.906	-775
956.995	-97
957.085	-1345
957.174	-588
957.263	-774
957.352	-935
957.441	-1266
957.530	-875
957.619	-996
957.708	-1316
957.796	-823
957.885	-2163
957.974	-654
958.063	-938
958.152	-1547
958.241	-763
958.329	-343
958.418	-1176
958.507	-946
958.596	53
958.684	-1446
958.773	-435
958.861	-1161
958.950	-933
959.039	-498
959.127	-913
959.216	-228
959.304	-1150
959.393	-815
959.481	-1117
959.570	-902
959.658	-1572
959.746	-1211
959.835	-1247
959.923	-471
960.011	-851
960.100	-415
960.188	-1251
960.276	-1214
960.365	-737
960.453	-270
960.541	-1842
960.629	-847
960.717	-1601
960.805	-1249
960.893	-1505
960.981	-540
961.069	-442
961.158	-864
961.245	-1268
961.333	-473
961.421	-937
961.509	-783
961.597	-1231
961.685	-751
961.773	-1385
961.861	-1010
961.949	-1136
962.036	-1745
962.124	-512
962.212	-1114
962.299	-2772
962.387	-1660
962.475	-836
962.562	-1139
962.650	-1061
962.738	-1074
962.825	-1456
962.913	-448
963.000	-1385
963.088	-956
963.175	-2350
963.263	-1390
963.350	-1533
963.438	-1206
963.525	-1192
963.612	1
963.700	-752
963.787	886
963.874	-191
963.962	-453
964.049	-770
964.136	-1145
964.223	-1823
964.310	-919
964.398	-1298
964.485	-736
964.572	-819
964.659	-1181
964.746	-1451
964.833	-688
964.920	-1485
965.007	-929
965.094	-1020
965.181	-712
965.268	-1855
965.355	-643
965.441	-898
965.528	-2425
965.615	-1002
965.702	-1601
965.789	-1294
965.875	-1086
965.962	-1302
966.049	-1853
966.136	-1190
966.222	-1202
966.309	-1071
966.395	-1482
966.482	-742
966.569	-1352
966.655	-1077
966.742	-1626
966.828	-1604
966.915	-1751
967.001	-2200
967.087	-2342
967.174	-962
967.260	-706
967.347	-1686
967.433	-363
967.519	-171
967.605	-844
967.692	-1609
967.778	-1811
967.864	-1687
967.950	-1412
968.036	-1988
968.123	-1691
968.209	-898
968.295	-1481
968.381	-532
968.467	-1072
968.553	-2781
968.639	-589
968.725	-2002
968.811	-1243
968.897	-716
968.983	-905
969.069	-2135
969.154	-1705
969.240	-678
969.326	-1454
969.412	-2645
969.497	-1863
969.583	-1100
969.669	-427
969.755	-873
969.840	-1836
969.926	-871
970.012	-955
970.097	-76
970.183	-518
970.268	-1211
970.354	-795
970.439	-1532
970.525	-134
970.610	-2244
970.696	-1103
970.781	-1575
970.866	-1792
970.952	-716
971.037	-2364
971.122	-2105
971.208	-1038
971.293	-1374
971.378	-2526
971.463	-1354
971.549	-337
971.634	-2002
971.719	-633
971.804	-1704
971.889	-431
971.974	-1680
972.059	-1166
972.144	-1438
972.229	-1676
972.314	-782
972.399	-954
972.484	-855
972.569	-720
972.654	-2689
972.739	-359
972.824	-1363
972.908	-1030
972.993	-1779
973.078	-1589
973.163	-1468
973.247	-1852
973.332	-3104
973.417	-928
973.501	-1812
973.586	-1168
973.671	-2031
973.755	-1936
973.840	-1265
973.924	-649
974.009	-1389
974.093	-1417
974.178	-1166
974.262	-1261
974.346	-2069
974.431	-1595
974.515	-1039
974.600	-1619
974.684	-1057
974.768	-1812
974.852	-1100
974.937	-2131
975.021	-1120
975.105	-1394
975.189	-1237
975.273	-795
975.358	-1434
975.442	-2135
975.526	-677
975.610	-1761
975.694	-1653
975.778	-1231
975.862	-1829
975.946	-2945
976.030	-295
976.114	-2071
976.198	-1822
976.281	-1672
976.365	-688
976.449	-2007
976.533	-1552
976.617	-2248
976.700	-1787
976.784	-1457
976.868	-1654
976.951	-1079
977.035	-2352
977.119	-1652
977.202	-1982
977.286	-1541
977.369	-1148
977.453	-1298
977.536	-1738
977.620	-1351
977.703	-1370
977.787	-2479
977.870	-464
977.953	-505
978.037	-3299
978.120	-774
978.203	-1495
978.287	-1602
978.370	-1914
978.453	-1935
978.536	-1218
978.620	-754
978.703	-1704
978.786	-1529
978.869	-2597
978.952	-2145
979.035	-1231
979.118	-718
979.201	-2850
979.284	-951
979.367	-1901
979.450	-752
979.533	-1846
979.616	-1470
979.699	-2219
979.782	-338
979.865	-1288
979.948	-1873
980.030	-1620
980.113	-1646
980.196	-1500
980.279	-1509
980.361	-1802
980.444	-1327
980.526	-2087
980.609	-1044
980.692	-1621
980.774	-600
980.857	-2964
980.939	-518
981.022	-1787
981.104	-1861
981.187	-1511
981.269	-719
981.352	-1479
981.434	-1936
981.516	-2151
981.599	-905
981.681	-1496
981.763	-1549
981.846	-1238
981.928	-1181
982.010	-1463
982.092	-1532
982.174	-1114
982.256	-1894
982.339	-1388
982.421	-1777
982.503	-1446
982.585	-2356
982.667	-1090
982.749	-1422
982.831	-1581
982.913	-1924
982.995	-1039
983.077	-2397
983.158	16
983.240	-2080
983.322	-1158
983.404	-665
983.486	-2334
983.568	-1299
983.649	-1673
983.731	-558
983.813	-1964
983.894	-449
983.976	-2015
984.058	-1022
984.139	-1090
984.221	-2020
984.302	-1846
984.384	-1439
984.465	-1839
984.547	-1019
984.628	-1771
984.710	-599
984.791	-1781
984.872	-593
984.954	-1714
985.035	-1374
985.116	-1019
985.198	-2104
985.279	-794
985.360	-2192
985.441	-1350
985.522	-1519
985.604	-1363
985.685	-3433
985.766	-1221
985.847	-957
985.928	-1805
986.009	-1810
986.090	-2098
986.171	-718
986.252	-2073
986.333	-1464
986.414	-1544
986.495	-1293
986.576	-1576
986.656	-1263
986.737	-681
986.818	-1248
986.899	-1236
986.980	-1483
987.060	-546
987.141	-1904
987.222	-956
987.302	-1524
987.383	-1359
987.464	-1118
987.544	-1034
987.625	-1533
987.705	-894
987.786	-1622
987.866	-1539
987.947	-2040
988.027	-909
988.108	-1997
988.188	-1222
988.268	-1723
988.349	-966
988.429	-1834
988.509	-1098
988.589	-1483
988.670	-2991
988.750	-225
988.830	-2164
988.910	-823
988.990	-1719
989.070	-1231
989.151	-1447
989.231	-1611
989.311	-1740
989.391	-1711
989.471	-1742
989.551	-1185
989.631	-2014
989.711	-937
989.791	-2325
989.870	-2127
989.950	-362
990.030	-2029
990.110	-1677
990.190	-2099
990.269	-1643
990.349	-1174
990.429	-1609
990.509	-1580
990.588	-2749
990.668	-781
990.747	-1776
990.827	-1756
990.907	-1270
990.986	-1161
991.066	-1363
991.145	-1999
991.225	-1055
991.304	-2688
991.383	-1731
991.463	-1914
991.542	-1868
991.622	-1216
991.701	-2281
991.780	-1675
991.859	-1428
991.939	-1424
992.018	-1860
992.097	-1682
992.176	-1610
992.256	-1300
992.335	-2355
992.414	-1221
992.493	-1876
992.572	-2402
992.651	-931
992.730	-1046
992.809	-1095
992.888	-2162
992.967	-1382
993.046	-1394
993.125	-1906
993.203	-1310
993.282	-1790
993.361	-998
993.440	-1373
993.519	-2280
993.597	-1930
993.676	-1874
993.755	-781
993.834	-1793
993.912	-2716
993.991	-589
994.069	-2637
994.148	-2698
994.226	-1792
994.305	-1526
994.384	-1996
994.462	-925
994.540	-2463
994.619	-2314
994.697	-1302
994.776	-1718
994.854	-2360
994.932	-2263
995.011	-1664
995.089	-1543
995.167	-1673
995.245	-1889
995.324	-2768
995.402	-1598
995.480	-2241
995.558	-978
995.636	-2920
995.714	-2217
995.792	-1400
995.870	-1941
995.948	-1453
996.026	-1674
996.104	-2716
996.182	-1236
996.260	-2509
996.338	-1515
996.416	-2029
996.494	-2182
996.572	-1498
996.649	-1894
996.727	-2734
996.805	-1646
996.883	-2536
996.960	-1342
997.038	-1263
997.116	-1766
997.193	-1988
997.271	-2327
997.348	-2870
997.426	-1495
997.504	-1648
997.581	-1638
997.658	-2094
997.736	-2381
997.813	-2869
997.891	-1972
997.968	-3063
998.046	-1798
998.123	-2473
998.200	-1534
998.277	-2429
998.355	-1918
998.432	-3150
998.509	-1893
998.586	-2008
998.663	-1259
998.741	-2123
998.818	-1979
998.895	-2686
998.972	-1913
999.049	-1782
999.126	-2456
999.203	-1763
999.280	-1667
999.357	-2219
999.434	-2194
999.511	-2555
999.587	-1483
999.664	-2690
999.741	-2224
999.818	-1937
999.895	-2508
999.971	-2313
1000.048	-2158
1000.125	-1628
1000.202	-1869
1000.278	-1706
1000.355	-1320
1000.431	-2520
1000.508	-2422
1000.584	-2799
1000.661	-2463
1000.738	-2771
1000.814	-2791
1000.890	-2264
1000.967	-1784
1001.043	-2207
1001.120	-2910
1001.196	-1438
1001.272	-3173
1001.349	-2094
1001.425	-1344
1001.501	-2604
1001.577	-3291
1001.654	-1241
1001.730	-2474
1001.806	-2260
1001.882	-2305
1001.958	-1914
1002.034	-2537
1002.110	-1465
1002.186	-2535
1002.262	-1927
1002.338	-2320
1002.414	-2067
1002.490	-1747
1002.566	-2783
1002.642	-2382
1002.718	-1930
1002.794	-1637
1002.870	-2682
1002.945	-2355
1003.021	-2156
1003.097	-1965
1003.173	-1395
1003.248	-1960
1003.324	-1379
1003.400	-2577
1003.475	-3621
1003.551	-2265
1003.626	-960
1003.702	-2374
1003.777	-2680
1003.853	-2506
1003.928	-2784
1004.004	-2272
1004.079	-1412
1004.155	-2493
1004.230	-2889
1004.305	-1316
1004.381	-2471
1004.456	-2049
1004.531	-2220
1004.607	-2238
1004.682	-2595
1004.757	-2332
1004.832	-2544
1004.907	-2317
1004.982	-1596
1005.057	-1215
1005.133	-2767
1005.208	-3123
1005.283	-2341
1005.358	-1958
1005.433	-2699
1005.508	-1919
1005.583	-3118
1005.657	-1869
1005.732	-2118
1005.807	-2324
1005.882	-2439
1005.957	-1839
1006.032	-2204
1006.106	-2137
1006.181	-2946
1006.256	-2214
1006.331	-3040
1006.405	-1817
1006.480	-2234
1006.554	-2289
1006.629	-2572
1006.704	-2042
1006.778	-3246
1006.853	-816
1006.927	-3152
1007.002	-2042
1007.076	-2916
1007.150	-2057
1007.225	-2684
1007.299	-1301
1007.373	-2317
1007.448	-2643
1007.522	-2040
1007.596	-1352
1007.671	-2962
1007.745	-2065
1007.819	-3013
1007.893	-2685
1007.967	-2081
1008.041	-3124
1008.115	-1976
1008.190	-1952
1008.264	-1231
1008.338	-3159
1008.412	-2451
1008.486	-2611
1008.560	-2170
1008.633	-3261
1008.707	-3116
1008.781	-1232
1008.855	-2062
1008.929	-2010
1009.003	-3156
1009.076	-2478
1009.150	-2865
1009.224	-2572
1009.298	-2365
1009.371	-3030
1009.445	-2325
1009.519	-2568
1009.592	-2768
1009.666	-2008
1009.739	-2327
1009.813	-1906
1009.886	-1773
1009.960	-3446
1010.033	-2047
1010.107	-1633
1010.180	-2543
1010.253	-2511
1010.327	-2371
1010.400	-2035
1010.473	-3019
1010.547	-1421
1010.620	-2826
1010.693	-1535
1010.766	-2721
1010.840	-1251
1010.913	-2213
1010.986	-3052
1011.059	-2395
1011.132	-2150
1011.205	-2070
1011.278	-2522
1011.351	-3077
1011.424	-2311
1011.497	-3379
1011.570	-2270
1011.643	-2995
1011.716	-2565
1011.789	-1719
1011.862	-2251
1011.934	-1384
1012.007	-3025
1012.080	-2500
1012.153	-1625
1012.225	-1239
1012.298	-2777
1012.371	-2242
1012.443	-1640
1012.516	-3854
1012.588	-2676
1012.661	-2200
1012.733	-2988
1012.806	-1636
1012.879	-2760
1012.951	-2225
1013.023	-2346
1013.096	-2681
1013.168	-2596
1013.241	-2830
1013.313	-2255
1013.385	-2765
1013.458	-2445
1013.530	-2139
1013.602	-3467
1013.674	-1833
1013.746	-2930
1013.819	-2944
1013.891	-2230
1013.963	-3157
1014.035	-2382
1014.107	-2733
1014.179	-1855
1014.251	-2280
1014.323	-2419
1014.395	-2666
1014.467	-1779
1014.539	-2447
1014.611	-2131
1014.683	-2223
1014.754	-2246
1014.826	-3392
1014.898	-1719
1014.970	-2671
1015.042	-2262
1015.113	-2692
1015.185	-1919
1015.257	-2944
1015.328	-2052
1015.400	-2905
1015.471	-2192
1015.543	-2967
1015.615	-2699
1015.686	-3069
1015.757	-3081
1015.829	-2442
1015.901	-3463
1015.972	-2217
1016.043	-2610
1016.115	-2184
1016.186	-2194
1016.257	-3646
1016.328	-2256
1016.400	-2321
1016.471	-3313
1016.542	-2783
1016.613	-2103
1016.685	-2327
1016.756	-2653
1016.827	-2804
1016.898	-2621
1016.969	-2512
1017.040	-2239
1017.111	-2663
1017.182	-2687
1017.253	-2343
1017.324	-1755
1017.395	-2361
1017.466	-1829
1017.537	-2596
1017.608	-2643
1017.678	-2901
1017.749	-2254
1017.820	-2660
1017.891	-3123
1017.961	-2995
1018.032	-2748
1018.103	-2581
1018.173	-2415
1018.244	-4006
1018.315	-2033
1018.385	-2247
1018.456	-2595
1018.526	-2765
1018.597	-2558
1018.667	-2320
1018.738	-2698
1018.808	-2332
1018.878	-2491
1018.949	-2430
1019.019	-1863
1019.089	-2541
1019.160	-2407
1019.230	-2822
1019.300	-2307
1019.371	-3327
1019.441	-2509
1019.511	-2327
1019.581	-2193
1019.651	-1906
1019.721	-2513
1019.791	-2310
1019.861	-2971
1019.931	-2076
1020.001	-2908
1020.071	-2276
1020.141	-2044
1020.211	-2593
1020.281	-2652
1020.351	-2952
1020.421	-2052
1020.491	-2130
1020.560	-3556
1020.630	-2574
1020.700	-2096
1020.770	-2911
1020.839	-2487
1020.909	-1790
1020.979	-2424
1021.048	-2986
1021.118	-2047
1021.187	-2363
1021.257	-2697
1021.326	-2429
1021.396	-3558
1021.465	-2665
1021.535	-2605
1021.604	-3255
1021.674	-2699
1021.743	-2715
1021.812	-2773
1021.882	-2458
1021.951	-2800
1022.020	-2972
1022.089	-2725
1022.159	-3148
1022.228	-2357
1022.297	-2137
1022.366	-2632
1022.435	-3894
1022.504	-2484
1022.573	-2485
1022.642	-2204
1022.711	-2759
1022.781	-1566
1022.849	-2720
1022.918	-2706
1022.987	-3498
1023.056	-2589
1023.125	-2831
1023.194	-2399
1023.263	-2588
1023.331	-2599
1023.400	-2763
1023.469	-2148
1023.538	-2593
1023.606	-2386
1023.675	-2330
1023.744	-2742
1023.812	-3194
1023.881	-2469
1023.949	-2955
1024.018	-2584
1024.086	-3057
1024.155	-2345
1024.223	-2515
1024.292	-1994
1024.360	-2992
1024.429	-2590
1024.497	-3766
1024.565	-3238
1024.634	-3233
1024.702	-1772
1024.770	-3175
1024.838	-2483
1024.907	-2100
1024.975	-2827
1025.043	-2540
1025.111	-2926
1025.179	-1838
1025.247	-2428
1025.315	-3450
1025.383	-2932
1025.451	-2655
1025.519	-2541
1025.587	-3216
1025.655	-1759
1025.723	-3047
1025.791	-2516
1025.859	-2719
1025.927	-2288
1025.995	-3044
1026.062	-2915
1026.130	-1877
1026.198	-2213
1026.266	-2445
1026.333	-3135
1026.401	-2322
1026.469	-2125
1026.536	-2621
1026.604	-3221
1026.671	-3163
1026.739	-2877
1026.806	-2606
1026.874	-2989
1026.941	-3005
1027.009	-2802
1027.076	-2952
1027.144	-2059
1027.211	-3078
1027.278	-2925
1027.345	-2390
1027.413	-2776
1027.480	-2014
1027.547	-2347
1027.614	-2813
1027.682	-2468
1027.749	-2432
1027.816	-2953
1027.883	-3507
1027.950	-2245
1028.017	-2712
1028.084	-2242
1028.151	-3192
1028.218	-2093
1028.285	-2695
1028.352	-2555
1028.419	-2808
1028.486	-2921
1028.553	-3301
1028.619	-2721
1028.686	-3204
1028.753	-2312
1028.820	-3437
1028.886	-2433
1028.953	-2535
1029.020	-2398
1029.086	-3029
1029.153	-2833
1029.220	-2651
1029.286	-2215
1029.353	-2371
1029.419	-2650
1029.486	-2823
1029.552	-2490
1029.619	-3275
1029.685	-2660
1029.751	-2371
1029.818	-2832
1029.884	-3045
1029.951	-1511
1030.017	-3522
1030.083	-2444
1030.149	-2489
1030.216	-2640
1030.282	-1812
1030.348	-2774
1030.414	-2647
1030.480	-2736
1030.546	-3022
1030.612	-3115
1030.678	-3723
1030.744	-2577
1030.810	-2638
1030.876	-2296
1030.942	-2674
1031.008	-2870
1031.074	-2725
1031.140	-2706
1031.206	-2587
1031.272	-2776
1031.337	-3045
1031.403	-2667
1031.469	-3628
1031.534	-1562
1031.600	-2968
1031.666	-2587
1031.731	-3168
1031.797	-2204
1031.863	-2767
1031.928	-2551
1031.994	-3132
1032.059	-2807
1032.125	-2261
1032.190	-1884
1032.256	-3959
1032.321	-2704
1032.386	-1919
1032.452	-2561
1032.517	-1989
1032.582	-2189
1032.647	-2425
1032.713	-3238
1032.778	-2793
1032.843	-2099
1032.908	-3132
1032.974	-2188
1033.039	-3081
1033.104	-2568
1033.169	-2872
1033.234	-3089
1033.299	-2454
1033.364	-3102
1033.429	-3298
1033.494	-1959
1033.559	-2856
1033.624	-2071
1033.688	-2566
1033.753	-3152
1033.818	-3681
1033.883	-2339
1033.948	-2337
1034.013	-2171
1034.077	-2182
1034.142	-1572
1034.207	-2514
1034.271	-1943
1034.336	-946
1034.400	-2056
1034.465	-2088
1034.530	-2127
1034.594	-3154
1034.658	-2123
1034.723	-2854
1034.787	-2651
1034.852	-2207
1034.916	-2806
1034.981	-3042
1035.045	-3164
1035.109	-2561
1035.173	-2121
1035.238	-2682
1035.302	-2928
1035.366	-2757
1035.430	-2819
1035.495	-3373
1035.559	-1298
1035.623	-2581
1035.687	-2090
1035.751	-2494
1035.815	-2535
1035.879	-3419
1035.943	-2590
1036.007	-2204
1036.071	-2802
1036.135	-2101
1036.198	-3090
1036.262	-3148
1036.326	-2389
1036.390	-3051
1036.454	-2750
1036.517	-2387
1036.581	-2606
1036.645	-2706
1036.709	-2436
1036.772	-3276
1036.836	-2482
1036.900	-2193
1036.963	-2068
1037.026	-2772
1037.090	-3064
1037.154	-1772
1037.217	-2587
1037.280	-2171
1037.344	-1973
1037.407	-3119
1037.471	-2002
1037.534	-2015
1037.597	-2311
1037.661	-2680
1037.724	-2509
1037.787	-3407
1037.850	-2813
1037.913	-2728
1037.977	-1594
1038.040	-2794
1038.103	-2536
1038.166	-2478
1038.229	-2947
1038.292	-2617
1038.355	-2331
1038.418	-2440
1038.481	-2612
1038.544	-2420
1038.607	-1854
1038.670	-2681
1038.732	-2226
1038.795	-2576
1038.858	-2344
1038.921	-1658
1038.984	-1417
1039.046	-2274
1039.109	-1869
1039.172	-2926
1039.234	-3342
1039.297	-2819
1039.360	-2550
1039.422	-3125
1039.485	-2547
1039.547	-2160
1039.610	-2108
1039.672	-2803
1039.734	-2418
1039.797	-2647
1039.859	-1470
1039.922	-2051
1039.984	-1705
1040.046	-2969
1040.109	-3001
1040.171	-3168
1040.233	-2404
1040.295	-2238
1040.358	-2038
1040.420	-2422
1040.482	-3156
1040.544	-3345
1040.606	-2855
1040.668	-2526
1040.730	-2785
1040.792	-2707
1040.854	-2439
1040.916	-2298
1040.978	-2684
1041.040	-2776
1041.102	-1909
1041.164	-2969
1041.225	-1932
1041.287	-2707
1041.349	-2409
1041.411	-2465
1041.472	-2629
1041.534	-2315
1041.596	-2416
1041.657	-2475
1041.719	-2351
1041.781	-2302
1041.842	-2095
1041.904	-2507
1041.965	-2910
1042.027	-3708
1042.088	-2573
1042.150	-3108
1042.211	-1394
1042.272	-2033
1042.334	-2892
1042.395	-3635
1042.456	-2718
1042.518	-2089
1042.579	-2123
1042.640	-2712
1042.701	-2435
1042.763	-2819
1042.824	-2843
1042.885	-3142
1042.946	-2274
1043.007	-2570
1043.068	-2743
1043.129	-2906
1043.190	-1927
1043.251	-1844
1043.312	-3125
1043.373	-2249
1043.434	-2833
1043.495	-2178
1043.556	-2383
1043.616	-2604
1043.677	-2545
1043.738	-2487
1043.799	-1860
1043.859	-2635
1043.920	-2591
1043.981	-2470
1044.041	-2291
1044.102	-2956
1044.162	-2062
1044.223	-2197
1044.284	-2898
1044.344	-2397
1044.405	-2302
1044.465	-2820
1044.525	-2764
1044.586	-3591
1044.646	-2118
1044.707	-2410
1044.767	-1974
1044.827	-2499
1044.887	-2543
1044.948	-1945
1045.008	-2440
1045.068	-2602
1045.128	-2119
1045.188	-2556
1045.249	-2515
1045.309	-2498
1045.369	-2597
1045.429	-2465
1045.489	-2641
1045.549	-2846
1045.609	-2065
1045.669	-2365
1045.729	-2538
1045.789	-1534
1045.848	-2172
1045.908	-2693
1045.968	-2933
1046.028	-2214
1046.088	-1632
1046.147	-1727
1046.207	-2048
1046.267	-2375
1046.326	-1786
1046.386	-2451
1046.446	-2099
1046.505	-2006
1046.565	-1766
1046.624	-1959
1046.684	-1596
1046.743	-1116
1046.803	-516
1046.862	-819
1046.922	0
